PE UV       SUBTECH     SPECTRUM    ASCII       PEDS        4.00        
   -1
INBUCR0121-5.Sample.ASC
24/02/12
14:23:16.00
24/02/12
14:23:16.00
Vinicio Soto Monge
P. strigosa. Color café sin élitro izquierdo (Det: A. Solís) COSTA RICA Prov. Puntarenas. Isla San Lucas. Puesto Isla San Lucas alrededores del puesto. 0-100m 14-15 SEP 2005  #84359 INB0003969555 
250,000000
1
Lambda 1050
1050L1511233
PerkinElmer UV WinLab 6.3.2.0749 / 2.02.05 Lambda 900 UV/VIS/NIR, Aug  7 2015 09:38:08

0
0
3350/servo 860,8/2
0
0
UV/VIS
1
1
1
DoubleDePol,CommonBeamDepol,RBeamAtt,SBeamAtt,60mm sphere, WB InGaAs Detector
0
0
0
0
Program
Program
3350/servo 860,8/2
3350/0,2 860,8/0,2
3350/0,2 860,8/0,2
0
15.00
 
 
 
0
 
860,8
150
860,8
Front
100
on
S:100 R:100
0
0
0
0
 
0
 
 
 
0
 
 
0
0
0
0
0
 
 
 
 
0
0


0
0
#HDR
-1
-1
#GR
nm
%R
1.0
0.0
2500,000000
-1,000000
2251
8
21,734000
1,545300
#DATA

250.000000	2.311109
251.000000	1.619564
252.000000	2.071145
253.000000	1.901205
254.000000	2.005833
255.000000	1.762643
256.000000	1.612301
257.000000	1.635624
258.000000	1.547741
259.000000	1.534448
260.000000	1.597583
261.000000	1.518612
262.000000	1.518966
263.000000	1.526443
264.000000	1.510633
265.000000	1.493507
266.000000	1.508417
267.000000	1.507549
268.000000	1.509899
269.000000	1.485215
270.000000	1.468475
271.000000	1.474216
272.000000	1.490597
273.000000	1.499544
274.000000	1.500198
275.000000	1.479723
276.000000	1.496429
277.000000	1.489041
278.000000	1.491693
279.000000	1.474274
280.000000	1.475676
281.000000	1.479638
282.000000	1.502691
283.000000	1.493333
284.000000	1.496762
285.000000	1.479933
286.000000	1.484158
287.000000	1.479297
288.000000	1.479634
289.000000	1.493430
290.000000	1.503311
291.000000	1.494684
292.000000	1.496458
293.000000	1.476217
294.000000	1.515192
295.000000	1.516041
296.000000	1.487408
297.000000	1.530346
298.000000	1.537721
299.000000	1.534046
300.000000	1.545791
301.000000	1.518728
302.000000	1.527542
303.000000	1.541965
304.000000	1.531771
305.000000	1.525294
306.000000	1.512604
307.000000	1.554103
308.000000	1.524181
309.000000	1.548210
310.000000	1.531212
311.000000	1.542643
312.000000	1.533200
313.000000	1.559381
314.000000	1.550350
315.000000	1.564708
316.000000	1.554197
317.000000	1.395158
318.000000	1.384535
319.000000	1.457538
320.000000	1.391609
321.000000	1.467248
322.000000	1.459912
323.000000	1.511834
324.000000	1.413252
325.000000	1.361988
326.000000	1.392592
327.000000	1.448468
328.000000	1.434300
329.000000	1.502237
330.000000	1.443996
331.000000	1.471035
332.000000	1.491771
333.000000	1.490285
334.000000	1.447455
335.000000	1.462184
336.000000	1.467903
337.000000	1.446156
338.000000	1.466142
339.000000	1.455622
340.000000	1.449701
341.000000	1.491034
342.000000	1.483529
343.000000	1.471827
344.000000	1.473958
345.000000	1.489359
346.000000	1.462640
347.000000	1.473178
348.000000	1.456901
349.000000	1.482219
350.000000	1.490593
351.000000	1.480095
352.000000	1.494269
353.000000	1.499210
354.000000	1.478492
355.000000	1.457745
356.000000	1.480484
357.000000	1.517827
358.000000	1.510546
359.000000	1.476907
360.000000	1.505832
361.000000	1.518914
362.000000	1.529121
363.000000	1.521878
364.000000	1.536352
365.000000	1.530902
366.000000	1.558838
367.000000	1.556866
368.000000	1.572199
369.000000	1.593639
370.000000	1.603974
371.000000	1.555041
372.000000	1.568971
373.000000	1.607421
374.000000	1.618598
375.000000	1.635758
376.000000	1.634276
377.000000	1.723156
378.000000	1.731705
379.000000	1.737038
380.000000	1.744727
381.000000	1.750391
382.000000	1.759984
383.000000	1.763051
384.000000	1.769203
385.000000	1.774108
386.000000	1.775167
387.000000	1.778503
388.000000	1.786199
389.000000	1.799233
390.000000	1.796763
391.000000	1.794040
392.000000	1.800683
393.000000	1.806549
394.000000	1.819102
395.000000	1.832308
396.000000	1.838403
397.000000	1.843015
398.000000	1.845732
399.000000	1.858829
400.000000	1.861814
401.000000	1.863114
402.000000	1.864979
403.000000	1.868744
404.000000	1.878540
405.000000	1.882637
406.000000	1.882945
407.000000	1.893531
408.000000	1.896915
409.000000	1.899902
410.000000	1.905556
411.000000	1.913772
412.000000	1.922052
413.000000	1.928307
414.000000	1.928295
415.000000	1.935137
416.000000	1.941649
417.000000	1.947921
418.000000	1.950270
419.000000	1.959136
420.000000	1.965204
421.000000	1.970409
422.000000	1.981769
423.000000	1.987966
424.000000	1.984813
425.000000	1.994223
426.000000	2.002421
427.000000	2.008409
428.000000	2.017315
429.000000	2.022617
430.000000	2.030755
431.000000	2.038607
432.000000	2.047348
433.000000	2.054539
434.000000	2.061500
435.000000	2.069655
436.000000	2.077320
437.000000	2.090140
438.000000	2.098229
439.000000	2.102563
440.000000	2.109681
441.000000	2.118888
442.000000	2.132213
443.000000	2.139991
444.000000	2.144627
445.000000	2.157084
446.000000	2.165965
447.000000	2.175522
448.000000	2.183040
449.000000	2.189093
450.000000	2.204226
451.000000	2.213766
452.000000	2.220122
453.000000	2.233359
454.000000	2.244692
455.000000	2.249926
456.000000	2.259890
457.000000	2.267885
458.000000	2.276551
459.000000	2.288160
460.000000	2.296946
461.000000	2.305625
462.000000	2.317412
463.000000	2.331591
464.000000	2.337698
465.000000	2.344966
466.000000	2.357176
467.000000	2.367383
468.000000	2.377323
469.000000	2.388421
470.000000	2.403019
471.000000	2.412912
472.000000	2.422548
473.000000	2.437301
474.000000	2.450516
475.000000	2.461993
476.000000	2.473837
477.000000	2.488762
478.000000	2.501418
479.000000	2.513939
480.000000	2.527585
481.000000	2.541850
482.000000	2.559364
483.000000	2.571642
484.000000	2.581295
485.000000	2.592279
486.000000	2.602067
487.000000	2.614569
488.000000	2.626627
489.000000	2.642867
490.000000	2.654357
491.000000	2.665936
492.000000	2.679335
493.000000	2.696065
494.000000	2.711821
495.000000	2.724143
496.000000	2.734614
497.000000	2.752950
498.000000	2.771013
499.000000	2.784824
500.000000	2.796285
501.000000	2.815279
502.000000	2.833154
503.000000	2.850619
504.000000	2.866966
505.000000	2.886315
506.000000	2.900500
507.000000	2.914669
508.000000	2.935070
509.000000	2.957840
510.000000	2.977976
511.000000	3.000063
512.000000	3.024345
513.000000	3.044182
514.000000	3.066831
515.000000	3.086913
516.000000	3.110289
517.000000	3.133692
518.000000	3.156106
519.000000	3.180259
520.000000	3.205644
521.000000	3.233083
522.000000	3.259003
523.000000	3.283543
524.000000	3.304054
525.000000	3.326283
526.000000	3.348171
527.000000	3.375025
528.000000	3.394276
529.000000	3.423228
530.000000	3.445740
531.000000	3.471031
532.000000	3.493087
533.000000	3.514062
534.000000	3.539426
535.000000	3.562990
536.000000	3.584204
537.000000	3.612451
538.000000	3.639729
539.000000	3.655294
540.000000	3.678593
541.000000	3.706911
542.000000	3.731547
543.000000	3.758425
544.000000	3.781523
545.000000	3.805516
546.000000	3.832179
547.000000	3.857148
548.000000	3.878952
549.000000	3.904820
550.000000	3.931273
551.000000	3.955822
552.000000	3.976165
553.000000	4.005876
554.000000	4.030680
555.000000	4.055341
556.000000	4.079315
557.000000	4.104592
558.000000	4.123564
559.000000	4.147785
560.000000	4.255262
561.000000	4.290019
562.000000	4.320678
563.000000	4.346600
564.000000	4.373360
565.000000	4.401054
566.000000	4.430712
567.000000	4.453281
568.000000	4.475040
569.000000	4.505604
570.000000	4.536052
571.000000	4.559791
572.000000	4.589808
573.000000	4.616391
574.000000	4.646932
575.000000	4.670040
576.000000	4.698809
577.000000	4.723860
578.000000	4.752132
579.000000	4.784671
580.000000	4.813842
581.000000	4.840467
582.000000	4.872792
583.000000	4.899265
584.000000	4.926652
585.000000	4.958378
586.000000	4.991593
587.000000	5.021531
588.000000	5.054067
589.000000	5.080217
590.000000	5.103057
591.000000	5.142564
592.000000	5.174880
593.000000	5.209495
594.000000	5.236149
595.000000	5.264150
596.000000	5.296242
597.000000	5.327590
598.000000	5.353446
599.000000	5.386518
600.000000	5.410275
601.000000	5.442058
602.000000	5.465109
603.000000	5.501508
604.000000	5.537842
605.000000	5.571885
606.000000	5.602943
607.000000	5.635735
608.000000	5.663905
609.000000	5.697121
610.000000	5.728891
611.000000	5.759783
612.000000	5.782855
613.000000	5.829679
614.000000	5.860180
615.000000	5.893100
616.000000	5.927750
617.000000	5.962350
618.000000	6.000420
619.000000	6.021825
620.000000	6.056656
621.000000	6.086458
622.000000	6.128393
623.000000	6.153350
624.000000	6.193034
625.000000	6.222434
626.000000	6.268593
627.000000	6.305358
628.000000	6.348915
629.000000	6.379920
630.000000	6.427490
631.000000	6.449333
632.000000	6.487052
633.000000	6.531307
634.000000	6.566382
635.000000	6.606851
636.000000	6.651327
637.000000	6.693090
638.000000	6.728896
639.000000	6.772447
640.000000	6.814765
641.000000	6.857444
642.000000	6.899567
643.000000	6.936642
644.000000	6.975356
645.000000	7.026982
646.000000	7.072110
647.000000	7.120207
648.000000	7.164334
649.000000	7.201278
650.000000	7.241118
651.000000	7.292161
652.000000	7.337775
653.000000	7.381274
654.000000	7.422226
655.000000	7.461466
656.000000	7.509394
657.000000	7.550373
658.000000	7.588999
659.000000	7.644015
660.000000	7.690041
661.000000	7.723076
662.000000	7.767370
663.000000	7.808907
664.000000	7.862191
665.000000	7.908165
666.000000	7.948927
667.000000	7.989919
668.000000	8.041669
669.000000	8.089212
670.000000	8.138214
671.000000	8.200344
672.000000	8.255256
673.000000	8.313971
674.000000	8.374791
675.000000	8.437734
676.000000	8.498266
677.000000	8.560783
678.000000	8.623316
679.000000	8.691243
680.000000	8.744100
681.000000	8.817253
682.000000	8.886731
683.000000	8.947044
684.000000	9.007957
685.000000	9.065350
686.000000	9.148317
687.000000	9.210645
688.000000	9.283382
689.000000	9.339918
690.000000	9.399633
691.000000	9.451482
692.000000	9.525142
693.000000	9.601041
694.000000	9.658584
695.000000	9.710276
696.000000	9.772126
697.000000	9.853190
698.000000	9.893367
699.000000	9.951664
700.000000	10.025058
701.000000	10.086587
702.000000	10.150074
703.000000	10.211645
704.000000	10.261871
705.000000	10.312742
706.000000	10.392490
707.000000	10.450082
708.000000	10.506829
709.000000	10.569037
710.000000	10.633889
711.000000	10.708501
712.000000	10.766290
713.000000	10.825886
714.000000	10.893430
715.000000	10.952405
716.000000	11.006190
717.000000	11.070753
718.000000	11.146368
719.000000	11.203615
720.000000	11.266641
721.000000	11.341812
722.000000	11.412164
723.000000	11.477636
724.000000	11.539542
725.000000	11.610148
726.000000	11.679372
727.000000	11.743757
728.000000	11.807379
729.000000	11.874655
730.000000	11.958428
731.000000	12.027412
732.000000	12.097147
733.000000	12.158874
734.000000	12.225984
735.000000	12.295602
736.000000	12.364039
737.000000	12.425181
738.000000	12.479426
739.000000	12.536338
740.000000	12.633273
741.000000	12.720577
742.000000	12.776479
743.000000	12.836537
744.000000	12.914240
745.000000	12.986455
746.000000	13.065518
747.000000	13.148688
748.000000	13.232825
749.000000	13.293245
750.000000	13.335998
751.000000	13.399399
752.000000	13.469371
753.000000	13.554912
754.000000	13.628474
755.000000	13.680207
756.000000	13.766233
757.000000	13.851368
758.000000	13.915199
759.000000	13.981043
760.000000	14.044594
761.000000	14.139414
762.000000	14.206283
763.000000	14.252453
764.000000	14.336326
765.000000	14.424313
766.000000	14.497764
767.000000	14.559919
768.000000	14.636177
769.000000	14.716928
770.000000	14.796640
771.000000	14.875631
772.000000	14.937852
773.000000	15.006461
774.000000	15.085580
775.000000	15.183962
776.000000	15.266378
777.000000	15.302528
778.000000	15.367122
779.000000	15.464816
780.000000	15.556093
781.000000	15.634434
782.000000	15.703750
783.000000	15.741887
784.000000	15.837104
785.000000	15.918432
786.000000	15.978443
787.000000	16.081883
788.000000	16.182713
789.000000	16.242027
790.000000	16.308606
791.000000	16.375103
792.000000	16.447579
793.000000	16.553866
794.000000	16.627488
795.000000	16.691906
796.000000	16.779127
797.000000	16.870562
798.000000	16.963298
799.000000	16.992376
800.000000	17.035777
801.000000	17.107062
802.000000	17.236871
803.000000	17.325227
804.000000	17.422816
805.000000	17.497353
806.000000	17.535350
807.000000	17.587494
808.000000	17.650321
809.000000	17.723169
810.000000	17.824262
811.000000	17.909992
812.000000	17.974834
813.000000	18.048549
814.000000	18.111827
815.000000	18.160727
816.000000	18.297342
817.000000	18.359998
818.000000	18.397652
819.000000	18.471673
820.000000	18.544180
821.000000	18.640350
822.000000	18.618960
823.000000	18.710757
824.000000	18.871338
825.000000	18.886066
826.000000	18.940567
827.000000	19.044278
828.000000	19.096151
829.000000	19.180673
830.000000	19.333429
831.000000	19.350067
832.000000	19.302785
833.000000	19.414560
834.000000	19.545606
835.000000	19.640482
836.000000	19.701498
837.000000	19.741437
838.000000	19.785844
839.000000	19.862564
840.000000	19.941249
841.000000	19.976856
842.000000	19.990453
843.000000	20.127804
844.000000	20.087885
845.000000	20.301728
846.000000	20.323681
847.000000	20.172428
848.000000	20.269086
849.000000	20.433232
850.000000	20.491630
851.000000	20.564784
852.000000	20.558494
853.000000	20.663705
854.000000	20.644658
855.000000	20.851457
856.000000	20.786957
857.000000	20.952118
858.000000	24.053273
859.000000	21.295559
860.000000	21.559627
861.000000	21.704148
862.000000	21.928908
863.000000	21.633184
864.000000	21.413609
865.000000	21.101946
866.000000	21.235730
867.000000	21.266096
868.000000	21.390537
869.000000	21.519494
870.000000	21.664606
871.000000	21.524553
872.000000	21.161686
873.000000	21.410037
874.000000	20.936548
875.000000	21.080275
876.000000	21.047968
877.000000	21.231008
878.000000	21.387866
879.000000	21.229208
880.000000	21.291696
881.000000	21.076955
882.000000	21.015606
883.000000	21.119341
884.000000	21.015676
885.000000	20.922070
886.000000	20.948630
887.000000	21.093205
888.000000	20.972250
889.000000	21.006736
890.000000	20.924990
891.000000	20.838480
892.000000	20.825610
893.000000	20.849103
894.000000	20.804216
895.000000	20.915854
896.000000	20.909224
897.000000	20.984198
898.000000	20.812877
899.000000	20.776579
900.000000	20.931513
901.000000	20.875486
902.000000	20.908802
903.000000	20.907882
904.000000	20.897134
905.000000	20.835039
906.000000	20.820483
907.000000	20.616074
908.000000	20.735186
909.000000	20.765158
910.000000	20.959839
911.000000	20.861744
912.000000	20.760297
913.000000	20.697214
914.000000	20.844157
915.000000	20.829215
916.000000	20.785629
917.000000	20.817586
918.000000	20.754049
919.000000	20.817435
920.000000	20.877320
921.000000	20.776986
922.000000	20.856397
923.000000	20.841066
924.000000	20.838432
925.000000	20.826688
926.000000	20.865475
927.000000	20.890396
928.000000	20.915199
929.000000	20.804259
930.000000	20.910313
931.000000	20.931752
932.000000	20.929360
933.000000	20.952048
934.000000	20.861679
935.000000	20.946211
936.000000	20.953299
937.000000	20.901283
938.000000	20.922175
939.000000	20.912674
940.000000	20.954652
941.000000	20.934360
942.000000	20.951139
943.000000	20.915233
944.000000	20.919672
945.000000	20.931087
946.000000	20.970929
947.000000	20.922128
948.000000	20.936704
949.000000	20.979902
950.000000	20.957633
951.000000	21.004396
952.000000	21.011023
953.000000	21.034498
954.000000	21.012524
955.000000	21.021806
956.000000	21.036545
957.000000	21.024431
958.000000	21.036620
959.000000	21.031281
960.000000	21.052134
961.000000	21.095973
962.000000	21.084720
963.000000	21.110315
964.000000	21.057804
965.000000	21.046459
966.000000	21.087868
967.000000	21.107747
968.000000	21.076576
969.000000	21.091712
970.000000	21.129547
971.000000	21.107500
972.000000	21.151713
973.000000	21.152221
974.000000	21.163927
975.000000	21.158306
976.000000	21.198072
977.000000	21.198569
978.000000	21.183508
979.000000	21.174433
980.000000	21.202775
981.000000	21.211026
982.000000	21.205881
983.000000	21.217133
984.000000	21.237303
985.000000	21.273552
986.000000	21.256491
987.000000	21.225563
988.000000	21.224995
989.000000	21.253245
990.000000	21.279091
991.000000	21.265439
992.000000	21.254395
993.000000	21.292035
994.000000	21.312646
995.000000	21.295374
996.000000	21.279359
997.000000	21.304008
998.000000	21.316128
999.000000	21.300937
1000.000000	21.321621
1001.000000	21.337637
1002.000000	21.341120
1003.000000	21.359030
1004.000000	21.359954
1005.000000	21.362764
1006.000000	21.359380
1007.000000	21.364282
1008.000000	21.377967
1009.000000	21.385812
1010.000000	21.377341
1011.000000	21.410712
1012.000000	21.432195
1013.000000	21.411498
1014.000000	21.436010
1015.000000	21.440794
1016.000000	21.445873
1017.000000	21.461398
1018.000000	21.457444
1019.000000	21.466815
1020.000000	21.475219
1021.000000	21.470343
1022.000000	21.488493
1023.000000	21.499913
1024.000000	21.501081
1025.000000	21.520060
1026.000000	21.526931
1027.000000	21.530669
1028.000000	21.536783
1029.000000	21.544486
1030.000000	21.557847
1031.000000	21.570933
1032.000000	21.574294
1033.000000	21.572062
1034.000000	21.581917
1035.000000	21.598554
1036.000000	21.614298
1037.000000	21.634101
1038.000000	21.660806
1039.000000	21.665214
1040.000000	21.652299
1041.000000	21.651678
1042.000000	21.658279
1043.000000	21.673644
1044.000000	21.681579
1045.000000	21.688627
1046.000000	21.702308
1047.000000	21.715062
1048.000000	21.735517
1049.000000	21.742160
1050.000000	21.738360
1051.000000	21.756401
1052.000000	21.761263
1053.000000	21.776271
1054.000000	21.784113
1055.000000	21.787621
1056.000000	21.800220
1057.000000	21.796214
1058.000000	21.792552
1059.000000	21.811320
1060.000000	21.840553
1061.000000	21.846835
1062.000000	21.853629
1063.000000	21.873613
1064.000000	21.880820
1065.000000	21.880620
1066.000000	21.890052
1067.000000	21.891380
1068.000000	21.892799
1069.000000	21.907941
1070.000000	21.913514
1071.000000	21.915209
1072.000000	21.924108
1073.000000	21.944624
1074.000000	21.952794
1075.000000	21.946231
1076.000000	21.943880
1077.000000	21.942064
1078.000000	21.949947
1079.000000	21.963821
1080.000000	21.972118
1081.000000	21.972337
1082.000000	21.986827
1083.000000	21.986838
1084.000000	21.977076
1085.000000	21.984563
1086.000000	21.989117
1087.000000	21.996497
1088.000000	22.000066
1089.000000	22.004499
1090.000000	22.006409
1091.000000	22.001107
1092.000000	22.006660
1093.000000	22.021155
1094.000000	22.024794
1095.000000	22.036980
1096.000000	22.027007
1097.000000	22.038202
1098.000000	22.040672
1099.000000	22.047911
1100.000000	22.040770
1101.000000	22.031932
1102.000000	22.053269
1103.000000	22.042605
1104.000000	22.042019
1105.000000	22.043100
1106.000000	22.048127
1107.000000	22.062012
1108.000000	22.063641
1109.000000	22.060164
1110.000000	22.049014
1111.000000	22.059636
1112.000000	22.054396
1113.000000	22.058666
1114.000000	22.053714
1115.000000	22.046936
1116.000000	22.034691
1117.000000	22.040565
1118.000000	22.045701
1119.000000	22.038182
1120.000000	22.035765
1121.000000	21.993137
1122.000000	21.991656
1123.000000	21.961531
1124.000000	21.959710
1125.000000	21.932391
1126.000000	21.920646
1127.000000	21.926577
1128.000000	21.879308
1129.000000	21.871464
1130.000000	21.857205
1131.000000	21.847288
1132.000000	21.832327
1133.000000	21.793438
1134.000000	21.778038
1135.000000	21.746823
1136.000000	21.731470
1137.000000	21.702546
1138.000000	21.705412
1139.000000	21.675855
1140.000000	21.650731
1141.000000	21.639558
1142.000000	21.604536
1143.000000	21.593664
1144.000000	21.569269
1145.000000	21.531501
1146.000000	21.524412
1147.000000	21.507046
1148.000000	21.458835
1149.000000	21.448451
1150.000000	21.415118
1151.000000	21.386150
1152.000000	21.351377
1153.000000	21.326967
1154.000000	21.301842
1155.000000	21.253135
1156.000000	21.225449
1157.000000	21.182075
1158.000000	21.164181
1159.000000	21.133613
1160.000000	21.108400
1161.000000	21.077234
1162.000000	21.031642
1163.000000	21.030275
1164.000000	20.994798
1165.000000	20.959025
1166.000000	20.927156
1167.000000	20.885739
1168.000000	20.868678
1169.000000	20.846862
1170.000000	20.830913
1171.000000	20.777949
1172.000000	20.751878
1173.000000	20.747425
1174.000000	20.722951
1175.000000	20.704952
1176.000000	20.687193
1177.000000	20.666095
1178.000000	20.645027
1179.000000	20.651969
1180.000000	20.650445
1181.000000	20.626085
1182.000000	20.604765
1183.000000	20.615784
1184.000000	20.615737
1185.000000	20.616900
1186.000000	20.620232
1187.000000	20.617626
1188.000000	20.628309
1189.000000	20.640843
1190.000000	20.654212
1191.000000	20.650850
1192.000000	20.656289
1193.000000	20.674168
1194.000000	20.682148
1195.000000	20.689009
1196.000000	20.712294
1197.000000	20.731604
1198.000000	20.722876
1199.000000	20.745688
1200.000000	20.755977
1201.000000	20.761311
1202.000000	20.759798
1203.000000	20.795243
1204.000000	20.792711
1205.000000	20.792881
1206.000000	20.811111
1207.000000	20.820668
1208.000000	20.840250
1209.000000	20.836903
1210.000000	20.841948
1211.000000	20.857029
1212.000000	20.873373
1213.000000	20.877116
1214.000000	20.912254
1215.000000	20.917987
1216.000000	20.928636
1217.000000	20.952189
1218.000000	20.966821
1219.000000	20.985276
1220.000000	21.008496
1221.000000	21.019006
1222.000000	21.028025
1223.000000	21.038245
1224.000000	21.050481
1225.000000	21.068759
1226.000000	21.081978
1227.000000	21.106273
1228.000000	21.103552
1229.000000	21.117071
1230.000000	21.131987
1231.000000	21.137005
1232.000000	21.133603
1233.000000	21.151470
1234.000000	21.157962
1235.000000	21.167788
1236.000000	21.177136
1237.000000	21.180752
1238.000000	21.180390
1239.000000	21.180197
1240.000000	21.187291
1241.000000	21.176494
1242.000000	21.180379
1243.000000	21.179993
1244.000000	21.173517
1245.000000	21.177259
1246.000000	21.183861
1247.000000	21.188974
1248.000000	21.178199
1249.000000	21.177117
1250.000000	21.195749
1251.000000	21.199488
1252.000000	21.194508
1253.000000	21.211576
1254.000000	21.219940
1255.000000	21.215755
1256.000000	21.220195
1257.000000	21.223299
1258.000000	21.227930
1259.000000	21.235900
1260.000000	21.235153
1261.000000	21.244193
1262.000000	21.255648
1263.000000	21.257473
1264.000000	21.270221
1265.000000	21.281885
1266.000000	21.294134
1267.000000	21.298670
1268.000000	21.299562
1269.000000	21.310437
1270.000000	21.318315
1271.000000	21.315338
1272.000000	21.313603
1273.000000	21.317935
1274.000000	21.332329
1275.000000	21.336911
1276.000000	21.344104
1277.000000	21.346351
1278.000000	21.347519
1279.000000	21.349978
1280.000000	21.350257
1281.000000	21.347924
1282.000000	21.353427
1283.000000	21.357328
1284.000000	21.353350
1285.000000	21.359205
1286.000000	21.363235
1287.000000	21.366571
1288.000000	21.365671
1289.000000	21.359240
1290.000000	21.353743
1291.000000	21.350538
1292.000000	21.353633
1293.000000	21.354761
1294.000000	21.355931
1295.000000	21.353467
1296.000000	21.354742
1297.000000	21.359155
1298.000000	21.354306
1299.000000	21.347677
1300.000000	21.349772
1301.000000	21.349728
1302.000000	21.342457
1303.000000	21.344052
1304.000000	21.350271
1305.000000	21.345736
1306.000000	21.339215
1307.000000	21.337691
1308.000000	21.337668
1309.000000	21.333145
1310.000000	21.324275
1311.000000	21.314351
1312.000000	21.312227
1313.000000	21.309973
1314.000000	21.298782
1315.000000	21.290368
1316.000000	21.288354
1317.000000	21.279649
1318.000000	21.264600
1319.000000	21.250795
1320.000000	21.231615
1321.000000	21.214501
1322.000000	21.192698
1323.000000	21.172005
1324.000000	21.152601
1325.000000	21.130771
1326.000000	21.110124
1327.000000	21.085906
1328.000000	21.043887
1329.000000	21.019563
1330.000000	20.997751
1331.000000	20.963513
1332.000000	20.938782
1333.000000	20.904711
1334.000000	20.860939
1335.000000	20.829795
1336.000000	20.801288
1337.000000	20.765493
1338.000000	20.730117
1339.000000	20.709018
1340.000000	20.682466
1341.000000	20.639654
1342.000000	20.605263
1343.000000	20.586191
1344.000000	20.566422
1345.000000	20.534127
1346.000000	20.500371
1347.000000	20.466111
1348.000000	20.440631
1349.000000	20.415117
1350.000000	20.396372
1351.000000	20.361233
1352.000000	20.334898
1353.000000	20.300863
1354.000000	20.242454
1355.000000	20.184248
1356.000000	20.136562
1357.000000	20.093677
1358.000000	20.046876
1359.000000	19.996727
1360.000000	19.903505
1361.000000	19.771499
1362.000000	19.688995
1363.000000	19.600666
1364.000000	19.486815
1365.000000	19.401844
1366.000000	19.329358
1367.000000	19.197977
1368.000000	19.089912
1369.000000	18.995856
1370.000000	18.895135
1371.000000	18.779541
1372.000000	18.699511
1373.000000	18.631048
1374.000000	18.562218
1375.000000	18.476750
1376.000000	18.408604
1377.000000	18.352440
1378.000000	18.310130
1379.000000	18.236714
1380.000000	18.140687
1381.000000	18.017915
1382.000000	17.899629
1383.000000	17.810331
1384.000000	17.724965
1385.000000	17.676275
1386.000000	17.614451
1387.000000	17.518183
1388.000000	17.439676
1389.000000	17.408227
1390.000000	17.402571
1391.000000	17.333269
1392.000000	17.281632
1393.000000	17.272600
1394.000000	17.209024
1395.000000	17.121886
1396.000000	17.088814
1397.000000	17.104515
1398.000000	17.102746
1399.000000	17.042127
1400.000000	16.942676
1401.000000	16.909543
1402.000000	16.926548
1403.000000	16.884827
1404.000000	16.810779
1405.000000	16.761835
1406.000000	16.708628
1407.000000	16.648269
1408.000000	16.581949
1409.000000	16.498285
1410.000000	16.458559
1411.000000	16.407829
1412.000000	16.357798
1413.000000	16.280870
1414.000000	16.178629
1415.000000	16.133131
1416.000000	16.093027
1417.000000	16.022796
1418.000000	15.928873
1419.000000	15.868071
1420.000000	15.816010
1421.000000	15.783570
1422.000000	15.733533
1423.000000	15.654383
1424.000000	15.582363
1425.000000	15.562182
1426.000000	15.519018
1427.000000	15.476003
1428.000000	15.407610
1429.000000	15.374756
1430.000000	15.315212
1431.000000	15.255127
1432.000000	15.224868
1433.000000	15.189976
1434.000000	15.138619
1435.000000	15.119976
1436.000000	15.086972
1437.000000	15.034683
1438.000000	15.001413
1439.000000	14.967231
1440.000000	14.940388
1441.000000	14.917788
1442.000000	14.890091
1443.000000	14.845112
1444.000000	14.812382
1445.000000	14.771058
1446.000000	14.732224
1447.000000	14.718671
1448.000000	14.685033
1449.000000	14.658924
1450.000000	14.632277
1451.000000	14.597148
1452.000000	14.583507
1453.000000	14.566708
1454.000000	14.540096
1455.000000	14.505248
1456.000000	14.478307
1457.000000	14.463804
1458.000000	14.429818
1459.000000	14.399580
1460.000000	14.383604
1461.000000	14.356855
1462.000000	14.334374
1463.000000	14.321495
1464.000000	14.296531
1465.000000	14.271471
1466.000000	14.240084
1467.000000	14.225740
1468.000000	14.216065
1469.000000	14.195117
1470.000000	14.156422
1471.000000	14.150597
1472.000000	14.133823
1473.000000	14.105985
1474.000000	14.091681
1475.000000	14.079953
1476.000000	14.062624
1477.000000	14.038142
1478.000000	14.025675
1479.000000	14.013589
1480.000000	13.984625
1481.000000	13.964568
1482.000000	13.967413
1483.000000	13.952197
1484.000000	13.944341
1485.000000	13.923734
1486.000000	13.923795
1487.000000	13.919499
1488.000000	13.912168
1489.000000	13.915270
1490.000000	13.908035
1491.000000	13.901903
1492.000000	13.890199
1493.000000	13.907070
1494.000000	13.904428
1495.000000	13.906248
1496.000000	13.916361
1497.000000	13.918885
1498.000000	13.921062
1499.000000	13.941606
1500.000000	13.945736
1501.000000	13.946965
1502.000000	13.956098
1503.000000	13.965790
1504.000000	13.974838
1505.000000	13.984507
1506.000000	14.015060
1507.000000	14.029291
1508.000000	14.044350
1509.000000	14.063035
1510.000000	14.080918
1511.000000	14.096207
1512.000000	14.098400
1513.000000	14.118045
1514.000000	14.149126
1515.000000	14.165443
1516.000000	14.179255
1517.000000	14.202508
1518.000000	14.235366
1519.000000	14.260123
1520.000000	14.271123
1521.000000	14.280298
1522.000000	14.294203
1523.000000	14.313568
1524.000000	14.343974
1525.000000	14.356179
1526.000000	14.370020
1527.000000	14.394515
1528.000000	14.419106
1529.000000	14.424672
1530.000000	14.435963
1531.000000	14.456053
1532.000000	14.482393
1533.000000	14.497131
1534.000000	14.508544
1535.000000	14.531838
1536.000000	14.543401
1537.000000	14.559212
1538.000000	14.584561
1539.000000	14.598726
1540.000000	14.612428
1541.000000	14.622966
1542.000000	14.643398
1543.000000	14.664829
1544.000000	14.673048
1545.000000	14.689835
1546.000000	14.696462
1547.000000	14.709345
1548.000000	14.712348
1549.000000	14.712325
1550.000000	14.724105
1551.000000	14.743849
1552.000000	14.760489
1553.000000	14.770205
1554.000000	14.794406
1555.000000	14.804195
1556.000000	14.811105
1557.000000	14.818759
1558.000000	14.809363
1559.000000	14.807614
1560.000000	14.821824
1561.000000	14.833028
1562.000000	14.839605
1563.000000	14.849985
1564.000000	14.850920
1565.000000	14.845205
1566.000000	14.856497
1567.000000	14.863849
1568.000000	14.863107
1569.000000	14.865342
1570.000000	14.856442
1571.000000	14.853464
1572.000000	14.861080
1573.000000	14.861501
1574.000000	14.856365
1575.000000	14.866243
1576.000000	14.872450
1577.000000	14.864487
1578.000000	14.860870
1579.000000	14.863333
1580.000000	14.870165
1581.000000	14.878117
1582.000000	14.869440
1583.000000	14.874822
1584.000000	14.895791
1585.000000	14.906683
1586.000000	14.918773
1587.000000	14.920558
1588.000000	14.926475
1589.000000	14.943062
1590.000000	14.950469
1591.000000	14.959043
1592.000000	14.979133
1593.000000	15.001914
1594.000000	15.021066
1595.000000	15.028561
1596.000000	15.044896
1597.000000	15.056364
1598.000000	15.073318
1599.000000	15.090261
1600.000000	15.103523
1601.000000	15.118482
1602.000000	15.135393
1603.000000	15.151423
1604.000000	15.166894
1605.000000	15.180979
1606.000000	15.194123
1607.000000	15.210248
1608.000000	15.227267
1609.000000	15.253033
1610.000000	15.266997
1611.000000	15.272024
1612.000000	15.286656
1613.000000	15.304978
1614.000000	15.327134
1615.000000	15.336622
1616.000000	15.349041
1617.000000	15.365710
1618.000000	15.384195
1619.000000	15.398966
1620.000000	15.399888
1621.000000	15.397899
1622.000000	15.405693
1623.000000	15.415744
1624.000000	15.427927
1625.000000	15.435442
1626.000000	15.445372
1627.000000	15.447930
1628.000000	15.471418
1629.000000	15.472306
1630.000000	15.454186
1631.000000	15.471057
1632.000000	15.491630
1633.000000	15.495044
1634.000000	15.495238
1635.000000	15.486583
1636.000000	15.481765
1637.000000	15.501216
1638.000000	15.501596
1639.000000	15.496425
1640.000000	15.507831
1641.000000	15.508482
1642.000000	15.504298
1643.000000	15.506907
1644.000000	15.502515
1645.000000	15.494388
1646.000000	15.474896
1647.000000	15.458191
1648.000000	15.446889
1649.000000	15.447983
1650.000000	15.438048
1651.000000	15.418502
1652.000000	15.404568
1653.000000	15.377948
1654.000000	15.349563
1655.000000	15.327851
1656.000000	15.299034
1657.000000	15.288729
1658.000000	15.247302
1659.000000	15.219657
1660.000000	15.215559
1661.000000	15.165050
1662.000000	15.133108
1663.000000	15.081770
1664.000000	15.037632
1665.000000	15.000266
1666.000000	14.969105
1667.000000	14.903018
1668.000000	14.886890
1669.000000	14.850241
1670.000000	14.797036
1671.000000	14.745339
1672.000000	14.690378
1673.000000	14.628280
1674.000000	14.578593
1675.000000	14.519407
1676.000000	14.482389
1677.000000	14.431918
1678.000000	14.370358
1679.000000	14.348305
1680.000000	14.308579
1681.000000	14.259548
1682.000000	14.218753
1683.000000	14.195444
1684.000000	14.160682
1685.000000	14.147513
1686.000000	14.108634
1687.000000	14.089730
1688.000000	14.040488
1689.000000	14.009716
1690.000000	13.984591
1691.000000	13.977704
1692.000000	13.930491
1693.000000	13.924425
1694.000000	13.905692
1695.000000	13.887271
1696.000000	13.905965
1697.000000	13.889959
1698.000000	13.876930
1699.000000	13.860084
1700.000000	13.862946
1701.000000	13.856060
1702.000000	13.849063
1703.000000	13.822755
1704.000000	13.819228
1705.000000	13.783993
1706.000000	13.767603
1707.000000	13.735637
1708.000000	13.696226
1709.000000	13.673118
1710.000000	13.616132
1711.000000	13.589684
1712.000000	13.573230
1713.000000	13.542158
1714.000000	13.492270
1715.000000	13.454472
1716.000000	13.458101
1717.000000	13.420921
1718.000000	13.387998
1719.000000	13.372320
1720.000000	13.334030
1721.000000	13.307155
1722.000000	13.282350
1723.000000	13.246396
1724.000000	13.223438
1725.000000	13.232017
1726.000000	13.219212
1727.000000	13.186833
1728.000000	13.185910
1729.000000	13.174898
1730.000000	13.186452
1731.000000	13.203095
1732.000000	13.192858
1733.000000	13.225459
1734.000000	13.245939
1735.000000	13.269293
1736.000000	13.287610
1737.000000	13.279205
1738.000000	13.317141
1739.000000	13.360654
1740.000000	13.380806
1741.000000	13.400093
1742.000000	13.418287
1743.000000	13.436592
1744.000000	13.459232
1745.000000	13.477984
1746.000000	13.491422
1747.000000	13.526560
1748.000000	13.550365
1749.000000	13.574899
1750.000000	13.598909
1751.000000	13.609815
1752.000000	13.631059
1753.000000	13.640584
1754.000000	13.656666
1755.000000	13.669832
1756.000000	13.695538
1757.000000	13.694698
1758.000000	13.701164
1759.000000	13.728017
1760.000000	13.743356
1761.000000	13.719678
1762.000000	13.722087
1763.000000	13.761821
1764.000000	13.769761
1765.000000	13.780577
1766.000000	13.790284
1767.000000	13.789289
1768.000000	13.799055
1769.000000	13.829499
1770.000000	13.850066
1771.000000	13.845568
1772.000000	13.850336
1773.000000	13.861279
1774.000000	13.857619
1775.000000	13.899243
1776.000000	13.886771
1777.000000	13.905038
1778.000000	13.919573
1779.000000	13.908399
1780.000000	13.934370
1781.000000	13.939604
1782.000000	13.949092
1783.000000	13.953499
1784.000000	13.965992
1785.000000	13.971857
1786.000000	13.982150
1787.000000	13.987530
1788.000000	13.992696
1789.000000	14.006337
1790.000000	14.006320
1791.000000	14.012982
1792.000000	14.019652
1793.000000	14.031900
1794.000000	14.056247
1795.000000	14.058071
1796.000000	14.060580
1797.000000	14.079668
1798.000000	14.102460
1799.000000	14.107159
1800.000000	14.114463
1801.000000	14.111599
1802.000000	14.126316
1803.000000	14.138118
1804.000000	14.151256
1805.000000	14.160866
1806.000000	14.151788
1807.000000	14.170913
1808.000000	14.207312
1809.000000	14.228812
1810.000000	14.230413
1811.000000	14.212383
1812.000000	14.220562
1813.000000	14.253660
1814.000000	14.258042
1815.000000	14.249570
1816.000000	14.265223
1817.000000	14.312599
1818.000000	14.341978
1819.000000	14.323111
1820.000000	14.295769
1821.000000	14.275723
1822.000000	14.291846
1823.000000	14.343114
1824.000000	14.403796
1825.000000	14.428969
1826.000000	14.417390
1827.000000	14.406274
1828.000000	14.420643
1829.000000	14.411549
1830.000000	14.388342
1831.000000	14.418241
1832.000000	14.468430
1833.000000	14.527180
1834.000000	14.565676
1835.000000	14.568842
1836.000000	14.544438
1837.000000	14.536524
1838.000000	14.555001
1839.000000	14.554241
1840.000000	14.559150
1841.000000	14.522797
1842.000000	14.485247
1843.000000	14.518522
1844.000000	14.629315
1845.000000	14.705612
1846.000000	14.645510
1847.000000	14.540640
1848.000000	14.493333
1849.000000	14.507351
1850.000000	14.558042
1851.000000	14.597692
1852.000000	14.597068
1853.000000	14.579130
1854.000000	14.560271
1855.000000	14.557453
1856.000000	14.575101
1857.000000	14.591201
1858.000000	14.572026
1859.000000	14.511678
1860.000000	14.454071
1861.000000	14.461131
1862.000000	14.467720
1863.000000	14.473111
1864.000000	14.488319
1865.000000	14.488124
1866.000000	14.461926
1867.000000	14.449177
1868.000000	14.411088
1869.000000	14.345817
1870.000000	14.224119
1871.000000	14.115549
1872.000000	13.973441
1873.000000	13.876153
1874.000000	13.810427
1875.000000	13.736763
1876.000000	13.628164
1877.000000	13.552997
1878.000000	13.458426
1879.000000	13.337932
1880.000000	13.283296
1881.000000	13.184297
1882.000000	13.088754
1883.000000	12.972376
1884.000000	12.860713
1885.000000	12.747573
1886.000000	12.641228
1887.000000	12.519332
1888.000000	12.450330
1889.000000	12.330494
1890.000000	12.171097
1891.000000	12.040836
1892.000000	11.927598
1893.000000	11.804647
1894.000000	11.614018
1895.000000	11.514526
1896.000000	11.442168
1897.000000	11.318613
1898.000000	11.194073
1899.000000	10.970685
1900.000000	10.794669
1901.000000	10.701632
1902.000000	10.564303
1903.000000	10.409859
1904.000000	10.280257
1905.000000	10.134549
1906.000000	9.975359
1907.000000	9.838555
1908.000000	9.728273
1909.000000	9.630792
1910.000000	9.513200
1911.000000	9.401294
1912.000000	9.329867
1913.000000	9.167246
1914.000000	9.119459
1915.000000	9.044096
1916.000000	8.933583
1917.000000	8.917809
1918.000000	8.834793
1919.000000	8.761333
1920.000000	8.736580
1921.000000	8.664111
1922.000000	8.584092
1923.000000	8.572309
1924.000000	8.511826
1925.000000	8.498486
1926.000000	8.422117
1927.000000	8.348620
1928.000000	8.330579
1929.000000	8.316653
1930.000000	8.252423
1931.000000	8.292599
1932.000000	8.273538
1933.000000	8.260887
1934.000000	8.265192
1935.000000	8.269011
1936.000000	8.242224
1937.000000	8.216140
1938.000000	8.202767
1939.000000	8.178449
1940.000000	8.168577
1941.000000	8.219888
1942.000000	8.205748
1943.000000	8.244044
1944.000000	8.222929
1945.000000	8.273516
1946.000000	8.308183
1947.000000	8.261536
1948.000000	8.216063
1949.000000	8.234234
1950.000000	8.290296
1951.000000	8.293966
1952.000000	8.319738
1953.000000	8.334460
1954.000000	8.387457
1955.000000	8.400701
1956.000000	8.422679
1957.000000	8.446236
1958.000000	8.433247
1959.000000	8.498921
1960.000000	8.547190
1961.000000	8.566603
1962.000000	8.571341
1963.000000	8.537479
1964.000000	8.587284
1965.000000	8.658231
1966.000000	8.647199
1967.000000	8.731048
1968.000000	8.725676
1969.000000	8.754654
1970.000000	8.753246
1971.000000	8.766595
1972.000000	8.828746
1973.000000	8.835800
1974.000000	8.847568
1975.000000	8.925391
1976.000000	8.918393
1977.000000	8.990291
1978.000000	9.009325
1979.000000	9.036644
1980.000000	9.051962
1981.000000	9.068559
1982.000000	9.120827
1983.000000	9.140134
1984.000000	9.186591
1985.000000	9.176025
1986.000000	9.246717
1987.000000	9.244539
1988.000000	9.316660
1989.000000	9.364615
1990.000000	9.385461
1991.000000	9.374137
1992.000000	9.378046
1993.000000	9.449165
1994.000000	9.510190
1995.000000	9.492856
1996.000000	9.451979
1997.000000	9.475025
1998.000000	9.544463
1999.000000	9.577479
2000.000000	9.631340
2001.000000	9.610955
2002.000000	9.602801
2003.000000	9.647746
2004.000000	9.734054
2005.000000	9.740066
2006.000000	9.746640
2007.000000	9.784593
2008.000000	9.808474
2009.000000	9.786497
2010.000000	9.802187
2011.000000	9.786191
2012.000000	9.776112
2013.000000	9.746369
2014.000000	9.825918
2015.000000	9.867374
2016.000000	9.838512
2017.000000	9.808670
2018.000000	9.880940
2019.000000	9.845880
2020.000000	9.795457
2021.000000	9.790679
2022.000000	9.763766
2023.000000	9.776861
2024.000000	9.735558
2025.000000	9.735824
2026.000000	9.716689
2027.000000	9.686587
2028.000000	9.645518
2029.000000	9.701074
2030.000000	9.685913
2031.000000	9.699730
2032.000000	9.625106
2033.000000	9.562803
2034.000000	9.574740
2035.000000	9.609434
2036.000000	9.563970
2037.000000	9.505814
2038.000000	9.457677
2039.000000	9.422062
2040.000000	9.456825
2041.000000	9.408466
2042.000000	9.372739
2043.000000	9.346183
2044.000000	9.283597
2045.000000	9.238039
2046.000000	9.213127
2047.000000	9.228677
2048.000000	9.269207
2049.000000	9.265005
2050.000000	9.213773
2051.000000	9.135416
2052.000000	9.138811
2053.000000	9.124056
2054.000000	9.065924
2055.000000	9.078132
2056.000000	9.038199
2057.000000	9.071587
2058.000000	9.176089
2059.000000	9.128235
2060.000000	9.131305
2061.000000	9.188270
2062.000000	9.219887
2063.000000	9.262766
2064.000000	9.371633
2065.000000	9.372599
2066.000000	9.389303
2067.000000	9.465641
2068.000000	9.501538
2069.000000	9.459491
2070.000000	9.524506
2071.000000	9.539617
2072.000000	9.569435
2073.000000	9.593331
2074.000000	9.585403
2075.000000	9.598718
2076.000000	9.682610
2077.000000	9.687184
2078.000000	9.712945
2079.000000	9.774017
2080.000000	9.787395
2081.000000	9.744685
2082.000000	9.716151
2083.000000	9.820433
2084.000000	9.970696
2085.000000	9.931878
2086.000000	9.796564
2087.000000	9.767893
2088.000000	9.888233
2089.000000	10.004498
2090.000000	10.006163
2091.000000	9.934831
2092.000000	9.941785
2093.000000	10.000701
2094.000000	10.017994
2095.000000	9.952935
2096.000000	9.898281
2097.000000	9.835336
2098.000000	9.969287
2099.000000	10.146022
2100.000000	10.070392
2101.000000	10.007827
2102.000000	10.150673
2103.000000	10.219396
2104.000000	10.207590
2105.000000	10.213345
2106.000000	10.098749
2107.000000	9.976430
2108.000000	10.020690
2109.000000	10.088334
2110.000000	10.102353
2111.000000	10.196392
2112.000000	10.234000
2113.000000	10.195998
2114.000000	10.240963
2115.000000	10.145117
2116.000000	10.012326
2117.000000	9.995098
2118.000000	10.019398
2119.000000	10.157216
2120.000000	10.200603
2121.000000	10.168005
2122.000000	10.172826
2123.000000	10.100862
2124.000000	10.111757
2125.000000	10.163130
2126.000000	10.172814
2127.000000	10.147379
2128.000000	10.141322
2129.000000	10.130961
2130.000000	10.064467
2131.000000	10.124258
2132.000000	10.125592
2133.000000	10.096685
2134.000000	10.023151
2135.000000	9.982280
2136.000000	10.031120
2137.000000	9.940428
2138.000000	9.910280
2139.000000	9.919010
2140.000000	9.931695
2141.000000	9.790226
2142.000000	9.808421
2143.000000	9.634584
2144.000000	9.641903
2145.000000	9.868865
2146.000000	9.870974
2147.000000	9.690597
2148.000000	9.675107
2149.000000	9.667096
2150.000000	9.528217
2151.000000	9.569620
2152.000000	9.560353
2153.000000	9.411520
2154.000000	9.374604
2155.000000	9.451394
2156.000000	9.359426
2157.000000	9.315226
2158.000000	9.222681
2159.000000	9.096195
2160.000000	9.026572
2161.000000	9.060300
2162.000000	9.034920
2163.000000	9.033156
2164.000000	9.009689
2165.000000	8.946808
2166.000000	8.907999
2167.000000	8.882836
2168.000000	8.766220
2169.000000	8.863130
2170.000000	8.857434
2171.000000	8.947982
2172.000000	8.813119
2173.000000	8.684383
2174.000000	8.708883
2175.000000	8.526002
2176.000000	8.617684
2177.000000	8.735837
2178.000000	8.602156
2179.000000	8.644235
2180.000000	8.491715
2181.000000	8.640517
2182.000000	8.633534
2183.000000	8.666695
2184.000000	8.438053
2185.000000	8.514067
2186.000000	8.435197
2187.000000	8.265542
2188.000000	8.178245
2189.000000	8.154485
2190.000000	8.023780
2191.000000	7.906448
2192.000000	7.871601
2193.000000	7.787065
2194.000000	7.910675
2195.000000	7.798998
2196.000000	7.792989
2197.000000	7.802292
2198.000000	7.663274
2199.000000	7.631510
2200.000000	7.476328
2201.000000	7.363714
2202.000000	7.454060
2203.000000	7.481900
2204.000000	7.433240
2205.000000	7.451690
2206.000000	7.419426
2207.000000	7.461290
2208.000000	7.292353
2209.000000	7.219196
2210.000000	7.151573
2211.000000	7.378485
2212.000000	7.369977
2213.000000	7.229427
2214.000000	7.190632
2215.000000	7.111439
2216.000000	7.322619
2217.000000	7.339924
2218.000000	7.432269
2219.000000	7.300352
2220.000000	7.244306
2221.000000	7.303114
2222.000000	7.306863
2223.000000	7.457101
2224.000000	7.335498
2225.000000	7.290282
2226.000000	7.461138
2227.000000	7.523576
2228.000000	7.535656
2229.000000	7.695937
2230.000000	7.569696
2231.000000	7.832877
2232.000000	7.753360
2233.000000	7.508938
2234.000000	7.781572
2235.000000	7.730021
2236.000000	7.785186
2237.000000	7.899029
2238.000000	7.916805
2239.000000	7.830143
2240.000000	7.779916
2241.000000	7.640377
2242.000000	7.457559
2243.000000	7.621117
2244.000000	7.791337
2245.000000	7.795904
2246.000000	7.737615
2247.000000	7.755075
2248.000000	7.647010
2249.000000	7.700243
2250.000000	7.723372
2251.000000	7.654845
2252.000000	7.735488
2253.000000	7.697914
2254.000000	7.513169
2255.000000	7.623325
2256.000000	7.782708
2257.000000	7.857283
2258.000000	7.672619
2259.000000	7.844193
2260.000000	7.826973
2261.000000	7.966952
2262.000000	7.682856
2263.000000	7.970231
2264.000000	7.793602
2265.000000	7.939217
2266.000000	7.873356
2267.000000	7.802828
2268.000000	7.855957
2269.000000	7.678748
2270.000000	7.751954
2271.000000	7.713365
2272.000000	7.791141
2273.000000	8.007656
2274.000000	7.640975
2275.000000	7.809292
2276.000000	7.984768
2277.000000	7.804843
2278.000000	7.987728
2279.000000	7.821076
2280.000000	7.977553
2281.000000	8.043395
2282.000000	8.237843
2283.000000	8.394010
2284.000000	8.227989
2285.000000	8.187201
2286.000000	8.293531
2287.000000	8.081324
2288.000000	8.286185
2289.000000	8.243841
2290.000000	8.337277
2291.000000	8.485593
2292.000000	8.209348
2293.000000	8.319722
2294.000000	8.523471
2295.000000	8.360887
2296.000000	8.575912
2297.000000	8.512604
2298.000000	8.555988
2299.000000	8.395167
2300.000000	8.249381
2301.000000	8.430713
2302.000000	8.436577
2303.000000	8.556385
2304.000000	8.825097
2305.000000	8.759464
2306.000000	8.752972
2307.000000	8.794730
2308.000000	8.919516
2309.000000	8.841749
2310.000000	8.856500
2311.000000	8.745912
2312.000000	8.803893
2313.000000	9.020953
2314.000000	9.032712
2315.000000	9.249103
2316.000000	9.294584
2317.000000	9.060612
2318.000000	9.332036
2319.000000	9.139065
2320.000000	9.348471
2321.000000	9.304055
2322.000000	9.312010
2323.000000	9.308915
2324.000000	9.469144
2325.000000	9.463151
2326.000000	9.433259
2327.000000	9.308140
2328.000000	9.416248
2329.000000	9.573975
2330.000000	9.413533
2331.000000	9.687995
2332.000000	9.730843
2333.000000	9.602122
2334.000000	9.448456
2335.000000	9.484687
2336.000000	9.721496
2337.000000	9.860834
2338.000000	9.799901
2339.000000	9.777495
2340.000000	9.705861
2341.000000	9.882718
2342.000000	9.927339
2343.000000	9.736597
2344.000000	9.759993
2345.000000	9.814735
2346.000000	10.158508
2347.000000	10.160319
2348.000000	9.850540
2349.000000	9.786535
2350.000000	9.863034
2351.000000	10.176044
2352.000000	10.285177
2353.000000	10.230448
2354.000000	10.214539
2355.000000	10.105208
2356.000000	10.097516
2357.000000	10.356123
2358.000000	10.151875
2359.000000	9.973409
2360.000000	10.281867
2361.000000	10.453166
2362.000000	10.474646
2363.000000	10.175994
2364.000000	10.213768
2365.000000	10.647472
2366.000000	10.500488
2367.000000	10.292519
2368.000000	10.479932
2369.000000	10.705829
2370.000000	10.645471
2371.000000	10.559218
2372.000000	10.590985
2373.000000	10.553533
2374.000000	10.608137
2375.000000	10.768222
2376.000000	10.708622
2377.000000	10.786328
2378.000000	10.824623
2379.000000	10.807625
2380.000000	10.819561
2381.000000	10.811454
2382.000000	10.956595
2383.000000	11.017420
2384.000000	10.811857
2385.000000	11.008362
2386.000000	10.939372
2387.000000	10.821857
2388.000000	10.907437
2389.000000	10.984660
2390.000000	10.815181
2391.000000	10.869233
2392.000000	10.937775
2393.000000	11.090586
2394.000000	11.095508
2395.000000	11.204629
2396.000000	11.207897
2397.000000	10.973189
2398.000000	10.721290
2399.000000	10.731741
2400.000000	10.827807
2401.000000	10.879865
2402.000000	11.226880
2403.000000	11.248641
2404.000000	11.181107
2405.000000	11.514772
2406.000000	11.461037
2407.000000	11.352413
2408.000000	11.330314
2409.000000	11.069162
2410.000000	11.038760
2411.000000	11.114626
2412.000000	11.002244
2413.000000	10.757278
2414.000000	10.877744
2415.000000	11.100868
2416.000000	11.194040
2417.000000	11.398835
2418.000000	11.802955
2419.000000	11.378862
2420.000000	11.481628
2421.000000	11.550474
2422.000000	11.833450
2423.000000	11.672037
2424.000000	11.637032
2425.000000	11.740089
2426.000000	11.735813
2427.000000	11.894697
2428.000000	11.749641
2429.000000	11.419334
2430.000000	10.826437
2431.000000	11.134549
2432.000000	11.413386
2433.000000	11.923360
2434.000000	12.363242
2435.000000	12.234292
2436.000000	11.951690
2437.000000	11.704946
2438.000000	11.722607
2439.000000	12.272657
2440.000000	12.215004
2441.000000	12.058742
2442.000000	12.370805
2443.000000	12.016507
2444.000000	12.018101
2445.000000	12.070471
2446.000000	11.363203
2447.000000	11.585817
2448.000000	12.032073
2449.000000	12.010355
2450.000000	12.390426
2451.000000	13.029427
2452.000000	12.506775
2453.000000	12.419444
2454.000000	12.462040
2455.000000	12.865323
2456.000000	12.899891
2457.000000	13.329265
2458.000000	13.275044
2459.000000	12.970520
2460.000000	12.849179
2461.000000	13.447385
2462.000000	13.577613
2463.000000	14.237588
2464.000000	14.226358
2465.000000	13.650939
2466.000000	12.668827
2467.000000	14.005419
2468.000000	16.188214
2469.000000	15.558869
2470.000000	15.123502
2471.000000	13.764751
2472.000000	14.801192
2473.000000	15.764378
2474.000000	15.774013
2475.000000	17.064382
2476.000000	15.739898
2477.000000	17.530142
2478.000000	18.337127
2479.000000	17.586083
2480.000000	18.268249
2481.000000	18.850236
2482.000000	18.393922
2483.000000	18.576060
2484.000000	19.463971
2485.000000	19.845855
2486.000000	19.019520
2487.000000	18.630240
2488.000000	20.665316
2489.000000	20.694921
2490.000000	20.563892
2491.000000	20.242092
2492.000000	22.691831
2493.000000	21.023622
2494.000000	21.457011
2495.000000	22.781722
2496.000000	22.688106
2497.000000	23.080338
2498.000000	24.089076
2499.000000	23.084572
2500.000000	24.029843
