PE UV       SUBTECH     SPECTRUM    ASCII       PEDS        4.00        
   -1
CICIMAUCR0104-3.Sample.ASC
24/04/22
09:54:19.00
24/04/22
09:54:19.00
Vinicio Soto Monge
C. resplendens
250,000000
1
Lambda 1050
1050L1511233
PerkinElmer UV WinLab 6.3.2.0749 / 2.02.05 Lambda 900 UV/VIS/NIR, Aug  7 2015 09:38:08

0
0
3350/servo 860,8/2
0
0
UV/VIS
1
1
1
DoubleDePol,CommonBeamDepol,RBeamAtt,SBeamAtt,60mm sphere, WB InGaAs Detector
0
0
0
0
Program
Program
3350/servo 860,8/2
3350/0,2 860,8/0,2
3350/0,2 860,8/0,2
0
15.00
 
 
 
0
 
860,8
319,2
860,8
Front
100
on
S:100 R:100
0
0
0
0
 
0
 
 
 
0
 
 
0
0
0
0
0
 
 
 
 
0
0


0
0
#HDR
-1
-1
#GR
nm
%R
1.0
0.0
2500,000000
-1,000000
2251
8
90,434600
6,014800
#DATA
2482.000000	18.927372
2481.000000	18.964178
2480.000000	18.962484
2479.000000	19.013403
2478.000000	19.019387
2477.000000	19.026726
2476.000000	19.104515
2475.000000	19.116483
2474.000000	19.187160
2473.000000	19.261224
2472.000000	19.225998
2471.000000	19.315755
2470.000000	19.375029
2469.000000	19.399303
2468.000000	19.466480
2467.000000	19.554769
2466.000000	19.579721
2465.000000	19.666542
2464.000000	19.695445
2463.000000	19.796719
2462.000000	19.862766
2461.000000	19.908605
2460.000000	20.027152
2459.000000	20.087893
2458.000000	20.190521
2457.000000	20.284795
2456.000000	20.364616
2455.000000	20.451325
2454.000000	20.580373
2453.000000	20.692710
2452.000000	20.831128
2451.000000	20.956450
2450.000000	21.072513
2449.000000	21.186770
2448.000000	21.316156
2447.000000	21.448139
2446.000000	21.561041
2445.000000	21.706572
2444.000000	21.836861
2443.000000	21.950553
2442.000000	22.082310
2441.000000	22.219486
2440.000000	22.342550
2439.000000	22.453984
2438.000000	22.604031
2437.000000	22.703611
2436.000000	22.833335
2435.000000	22.954592
2434.000000	23.058914
2433.000000	23.169897
2432.000000	23.285847
2431.000000	23.385201
2430.000000	23.497200
2429.000000	23.597119
2428.000000	23.710247
2427.000000	23.804294
2426.000000	23.906471
2425.000000	23.999276
2424.000000	24.147178
2423.000000	24.329063
2422.000000	24.475610
2421.000000	24.611883
2420.000000	24.724785
2419.000000	24.807994
2418.000000	24.894477
2417.000000	24.971928
2416.000000	25.042944
2415.000000	25.121185
2414.000000	25.236345
2413.000000	25.310861
2412.000000	25.375554
2411.000000	25.462262
2410.000000	25.510923
2409.000000	25.590858
2408.000000	25.694954
2407.000000	25.744631
2406.000000	25.761227
2405.000000	25.805033
2404.000000	25.870178
2403.000000	25.941081
2402.000000	25.985451
2401.000000	26.013225
2400.000000	26.049354
2399.000000	26.101853
2398.000000	26.161353
2397.000000	26.195675
2396.000000	26.238916
2395.000000	26.277981
2394.000000	26.280803
2393.000000	26.320996
2392.000000	26.369431
2391.000000	26.376657
2390.000000	26.373496
2389.000000	26.396867
2388.000000	26.435140
2387.000000	26.467318
2386.000000	26.497237
2385.000000	26.489559
2384.000000	26.486963
2383.000000	26.479624
2382.000000	26.488769
2381.000000	26.497350
2380.000000	26.479285
2379.000000	26.488995
2378.000000	26.488995
2377.000000	26.466414
2376.000000	26.452979
2375.000000	26.448124
2374.000000	26.437286
2373.000000	26.416625
2372.000000	26.408044
2371.000000	26.409060
2370.000000	26.410076
2369.000000	26.388399
2368.000000	26.393028
2367.000000	26.393028
2366.000000	26.381851
2365.000000	26.376093
2364.000000	26.388738
2363.000000	26.393931
2362.000000	26.365480
2361.000000	26.351367
2360.000000	26.356448
2359.000000	26.351141
2358.000000	26.347415
2357.000000	26.341883
2356.000000	26.338270
2355.000000	26.345157
2354.000000	26.327319
2353.000000	26.318738
2352.000000	26.334319
2351.000000	26.328335
2350.000000	26.316142
2349.000000	26.329012
2348.000000	26.333303
2347.000000	26.323932
2346.000000	26.321900
2345.000000	26.331948
2344.000000	26.311513
2343.000000	26.337819
2342.000000	26.354528
2341.000000	26.345383
2340.000000	26.345496
2339.000000	26.350351
2338.000000	26.386593
2337.000000	26.399915
2336.000000	26.396415
2335.000000	26.399238
2334.000000	26.412334
2333.000000	26.455689
2332.000000	26.476688
2331.000000	26.473753
2330.000000	26.483011
2329.000000	26.532462
2328.000000	26.588687
2327.000000	26.607090
2326.000000	26.608671
2325.000000	26.616461
2324.000000	26.642768
2323.000000	26.646042
2322.000000	26.663654
2321.000000	26.672687
2320.000000	26.657219
2319.000000	26.640058
2318.000000	26.637800
2317.000000	26.635655
2316.000000	26.597268
2315.000000	26.543301
2314.000000	26.506043
2313.000000	26.454221
2312.000000	26.436157
2311.000000	26.393480
2310.000000	26.325512
2309.000000	26.308238
2308.000000	26.292319
2307.000000	26.254836
2306.000000	26.235868
2305.000000	26.230900
2304.000000	26.210352
2303.000000	26.178062
2302.000000	26.186981
2301.000000	26.190707
2300.000000	26.184723
2299.000000	26.206401
2298.000000	26.226384
2297.000000	26.229094
2296.000000	26.252126
2295.000000	26.275384
2294.000000	26.311400
2293.000000	26.322577
2292.000000	26.375302
2291.000000	26.417302
2290.000000	26.426221
2289.000000	26.473979
2288.000000	26.517785
2287.000000	26.546349
2286.000000	26.603478
2285.000000	26.638026
2284.000000	26.698767
2283.000000	26.747654
2282.000000	26.793492
2281.000000	26.834588
2280.000000	26.869024
2279.000000	26.927055
2278.000000	26.969732
2277.000000	26.996603
2276.000000	27.037361
2275.000000	27.092005
2274.000000	27.113683
2273.000000	27.170585
2272.000000	27.231891
2271.000000	27.258649
2270.000000	27.335987
2269.000000	27.397293
2268.000000	27.484002
2267.000000	27.572517
2266.000000	27.664419
2265.000000	27.785450
2264.000000	27.927256
2263.000000	28.039819
2262.000000	28.183882
2261.000000	28.369493
2260.000000	28.535460
2259.000000	28.768377
2258.000000	28.922150
2257.000000	29.121422
2256.000000	29.333565
2255.000000	29.547966
2254.000000	29.801883
2253.000000	29.985914
2252.000000	30.176267
2251.000000	30.407378
2250.000000	30.578989
2249.000000	30.810100
2248.000000	30.968840
2247.000000	31.154113
2246.000000	31.284627
2245.000000	31.468545
2244.000000	31.601205
2243.000000	31.689720
2242.000000	31.808268
2241.000000	31.901751
2240.000000	32.007540
2239.000000	32.087136
2238.000000	32.116378
2237.000000	32.173393
2236.000000	32.218780
2235.000000	32.238199
2234.000000	32.283134
2233.000000	32.279296
2232.000000	32.256151
2231.000000	32.246441
2230.000000	32.211554
2229.000000	32.171248
2228.000000	32.142345
2227.000000	32.102265
2226.000000	32.037798
2225.000000	31.951992
2224.000000	31.901525
2223.000000	31.811429
2222.000000	31.726075
2221.000000	31.616560
2220.000000	31.508964
2219.000000	31.426658
2218.000000	31.339046
2217.000000	31.225918
2216.000000	31.139661
2215.000000	31.064355
2214.000000	30.967259
2213.000000	30.882131
2212.000000	30.807164
2211.000000	30.708149
2210.000000	30.627876
2209.000000	30.574360
2208.000000	30.514748
2207.000000	30.447797
2206.000000	30.388975
2205.000000	30.358265
2204.000000	30.299217
2203.000000	30.242089
2202.000000	30.196363
2201.000000	30.177847
2200.000000	30.134041
2199.000000	30.096219
2198.000000	30.064945
2197.000000	30.030397
2196.000000	30.001268
2195.000000	29.971236
2194.000000	29.936688
2193.000000	29.919414
2192.000000	29.907221
2191.000000	29.873012
2190.000000	29.839367
2189.000000	29.836431
2188.000000	29.810577
2187.000000	29.766884
2186.000000	29.735835
2185.000000	29.741029
2184.000000	29.719352
2183.000000	29.691465
2182.000000	29.672836
2181.000000	29.637046
2180.000000	29.598434
2179.000000	29.587256
2178.000000	29.573708
2177.000000	29.568176
2176.000000	29.560047
2175.000000	29.554853
2174.000000	29.550450
2173.000000	29.556208
2172.000000	29.569418
2171.000000	29.585337
2170.000000	29.608482
2169.000000	29.604869
2168.000000	29.653078
2167.000000	29.700836
2166.000000	29.742497
2165.000000	29.773432
2164.000000	29.831464
2163.000000	29.888028
2162.000000	29.967172
2161.000000	30.022946
2160.000000	30.110896
2159.000000	30.191622
2158.000000	30.283863
2157.000000	30.398007
2156.000000	30.513167
2155.000000	30.622456
2154.000000	30.727004
2153.000000	30.840696
2152.000000	30.985211
2151.000000	31.106355
2150.000000	31.229870
2149.000000	31.353949
2148.000000	31.468432
2147.000000	31.611818
2146.000000	31.749672
2145.000000	31.858509
2144.000000	31.975250
2143.000000	32.100910
2142.000000	32.227812
2141.000000	32.347601
2140.000000	32.470213
2139.000000	32.596777
2138.000000	32.698388
2137.000000	32.808807
2136.000000	32.910757
2135.000000	33.023885
2134.000000	33.126626
2133.000000	33.213448
2132.000000	33.300722
2131.000000	33.395221
2130.000000	33.475833
2129.000000	33.542558
2128.000000	33.611767
2127.000000	33.684815
2126.000000	33.746234
2125.000000	33.810926
2124.000000	33.865345
2123.000000	33.927329
2122.000000	33.978473
2121.000000	34.011441
2120.000000	34.050731
2119.000000	34.100295
2118.000000	34.118020
2117.000000	34.131569
2116.000000	34.173117
2115.000000	34.190278
2114.000000	34.206874
2113.000000	34.215455
2112.000000	34.233971
2111.000000	34.259487
2110.000000	34.243681
2109.000000	34.271906
2108.000000	34.295051
2107.000000	34.292454
2106.000000	34.288503
2105.000000	34.281616
2104.000000	34.291325
2103.000000	34.293583
2102.000000	34.303744
2101.000000	34.303293
2100.000000	34.294938
2099.000000	34.299115
2098.000000	34.314357
2097.000000	34.323954
2096.000000	34.321357
2095.000000	34.342809
2094.000000	34.365163
2093.000000	34.380631
2092.000000	34.401179
2091.000000	34.412131
2090.000000	34.415405
2089.000000	34.434034
2088.000000	34.453340
2087.000000	34.457856
2086.000000	34.448711
2085.000000	34.429969
2084.000000	34.416534
2083.000000	34.407163
2082.000000	34.371373
2081.000000	34.331857
2080.000000	34.279358
2079.000000	34.215455
2078.000000	34.153133
2077.000000	34.070827
2076.000000	33.988973
2075.000000	33.884877
2074.000000	33.799862
2073.000000	33.711347
2072.000000	33.582074
2071.000000	33.466010
2070.000000	33.346108
2069.000000	33.220787
2068.000000	33.099078
2067.000000	32.968676
2066.000000	32.851145
2065.000000	32.738469
2064.000000	32.614728
2063.000000	32.493697
2062.000000	32.376279
2061.000000	32.297812
2060.000000	32.214151
2059.000000	32.139974
2058.000000	32.085894
2057.000000	32.064443
2056.000000	32.047169
2055.000000	32.057782
2054.000000	32.083410
2053.000000	32.135684
2052.000000	32.218667
2051.000000	32.312263
2050.000000	32.445036
2049.000000	32.596777
2048.000000	32.756307
2047.000000	32.923854
2046.000000	33.115788
2045.000000	33.302754
2044.000000	33.503042
2043.000000	33.682670
2042.000000	33.875055
2041.000000	34.081553
2040.000000	34.276535
2039.000000	34.447582
2038.000000	34.641209
2037.000000	34.813498
2036.000000	34.981157
2035.000000	35.133688
2034.000000	35.290961
2033.000000	35.439315
2032.000000	35.566217
2031.000000	35.684764
2030.000000	35.815279
2029.000000	35.945229
2028.000000	36.016922
2027.000000	36.102163
2026.000000	36.206146
2025.000000	36.314193
2024.000000	36.387467
2023.000000	36.434547
2022.000000	36.503756
2021.000000	36.570030
2020.000000	36.638561
2019.000000	36.688125
2018.000000	36.721206
2017.000000	36.765012
2016.000000	36.783415
2015.000000	36.820108
2014.000000	36.829253
2013.000000	36.826995
2012.000000	36.830721
2011.000000	36.815140
2010.000000	36.833431
2009.000000	36.829366
2008.000000	36.778447
2007.000000	36.761173
2006.000000	36.701900
2005.000000	36.682480
2004.000000	36.603223
2003.000000	36.554111
2002.000000	36.507369
2001.000000	36.405531
2000.000000	36.346258
1999.000000	36.263275
1998.000000	36.165840
1997.000000	36.071567
1996.000000	35.994342
1995.000000	35.874891
1994.000000	35.773279
1993.000000	35.674151
1992.000000	35.561813
1991.000000	35.441911
1990.000000	35.324719
1989.000000	35.191946
1988.000000	35.074753
1987.000000	34.946271
1986.000000	34.819143
1985.000000	34.701273
1984.000000	34.567597
1983.000000	34.448485
1982.000000	34.306567
1981.000000	34.189713
1980.000000	34.062021
1979.000000	33.928571
1978.000000	33.791282
1977.000000	33.679395
1976.000000	33.555090
1975.000000	33.438914
1974.000000	33.331770
1973.000000	33.210287
1972.000000	33.095127
1971.000000	32.988321
1970.000000	32.881967
1969.000000	32.734969
1968.000000	32.625115
1967.000000	32.526213
1966.000000	32.410262
1965.000000	32.302328
1964.000000	32.174297
1963.000000	32.074039
1962.000000	31.962831
1961.000000	31.805671
1960.000000	31.705188
1959.000000	31.580092
1958.000000	31.475319
1957.000000	31.339724
1956.000000	31.227612
1955.000000	31.097549
1954.000000	30.992211
1953.000000	30.864970
1952.000000	30.748681
1951.000000	30.630021
1950.000000	30.549070
1949.000000	30.454232
1948.000000	30.360523
1947.000000	30.277766
1946.000000	30.199863
1945.000000	30.119251
1944.000000	30.019672
1943.000000	29.990994
1942.000000	29.952721
1941.000000	29.924043
1940.000000	29.910044
1939.000000	29.897398
1938.000000	29.867931
1937.000000	29.876737
1936.000000	29.901237
1935.000000	29.921560
1934.000000	29.950237
1933.000000	29.997430
1932.000000	30.104122
1931.000000	30.195573
1930.000000	30.318636
1929.000000	30.446555
1928.000000	30.576957
1927.000000	30.724068
1926.000000	30.888567
1925.000000	31.071920
1924.000000	31.264305
1923.000000	31.475884
1922.000000	31.731156
1921.000000	32.034637
1920.000000	32.300860
1919.000000	32.539309
1918.000000	32.853064
1917.000000	33.151691
1916.000000	33.468946
1915.000000	33.836442
1914.000000	34.261180
1913.000000	34.695967
1912.000000	35.100947
1911.000000	35.547701
1910.000000	35.921068
1909.000000	36.349758
1908.000000	36.837382
1907.000000	37.384393
1906.000000	38.038435
1905.000000	38.652285
1904.000000	39.203247
1903.000000	39.786161
1902.000000	40.370656
1901.000000	41.040165
1900.000000	41.758449
1899.000000	42.431346
1898.000000	43.138114
1897.000000	43.750269
1896.000000	44.327312
1895.000000	44.943984
1894.000000	45.608187
1893.000000	46.306939
1892.000000	47.027142
1891.000000	47.726910
1890.000000	48.356226
1889.000000	48.940608
1888.000000	49.496538
1887.000000	50.078323
1886.000000	50.644076
1885.000000	51.204522
1884.000000	51.725001
1883.000000	52.180223
1882.000000	52.605187
1881.000000	53.032634
1880.000000	53.406115
1879.000000	53.800143
1878.000000	54.169785
1877.000000	54.500137
1876.000000	54.836811
1875.000000	55.158131
1874.000000	55.463192
1873.000000	55.739351
1872.000000	55.981639
1871.000000	56.187685
1870.000000	56.354668
1869.000000	56.521424
1868.000000	56.634214
1867.000000	56.719116
1866.000000	56.805486
1865.000000	56.907098
1864.000000	56.995726
1863.000000	57.114274
1862.000000	57.260595
1861.000000	57.380271
1860.000000	57.457722
1859.000000	57.508528
1858.000000	57.567689
1857.000000	57.634753
1856.000000	57.676526
1855.000000	57.732865
1854.000000	57.769445
1853.000000	57.755558
1852.000000	57.767977
1851.000000	57.830299
1850.000000	57.900524
1849.000000	57.943201
1848.000000	57.929201
1847.000000	57.812912
1846.000000	57.726994
1845.000000	57.736252
1844.000000	57.753074
1843.000000	57.844299
1842.000000	57.881105
1841.000000	57.814493
1840.000000	57.749235
1839.000000	57.690752
1838.000000	57.660268
1837.000000	57.595237
1836.000000	57.515980
1835.000000	57.445754
1834.000000	57.377223
1833.000000	57.322239
1832.000000	57.297062
1831.000000	57.271772
1830.000000	57.231805
1829.000000	57.182354
1828.000000	57.106258
1827.000000	57.047774
1826.000000	57.010065
1825.000000	56.973033
1824.000000	56.972920
1823.000000	57.066855
1822.000000	57.107725
1821.000000	57.049919
1820.000000	56.979920
1819.000000	56.910937
1818.000000	56.869276
1817.000000	56.875373
1816.000000	56.867921
1815.000000	56.828067
1814.000000	56.809664
1813.000000	56.789228
1812.000000	56.762922
1811.000000	56.689423
1810.000000	56.614907
1809.000000	56.593456
1808.000000	56.585779
1807.000000	56.562746
1806.000000	56.501553
1805.000000	56.444538
1804.000000	56.422409
1803.000000	56.411119
1802.000000	56.382555
1801.000000	56.313910
1800.000000	56.257120
1799.000000	56.224266
1798.000000	56.182718
1797.000000	56.160363
1796.000000	56.127621
1795.000000	56.089912
1794.000000	56.062025
1793.000000	56.042945
1792.000000	56.011784
1791.000000	55.986832
1790.000000	55.962446
1789.000000	55.954994
1788.000000	55.969671
1787.000000	55.970236
1786.000000	55.947994
1785.000000	55.932978
1784.000000	55.902382
1783.000000	55.879011
1782.000000	55.856656
1781.000000	55.835995
1780.000000	55.810818
1779.000000	55.753351
1778.000000	55.702771
1777.000000	55.664271
1776.000000	55.618546
1775.000000	55.545611
1774.000000	55.471773
1773.000000	55.426838
1772.000000	55.374451
1771.000000	55.312581
1770.000000	55.257259
1769.000000	55.212888
1768.000000	55.156098
1767.000000	55.102470
1766.000000	55.048277
1765.000000	55.004358
1764.000000	54.975681
1763.000000	54.956487
1762.000000	54.927133
1761.000000	54.919681
1760.000000	54.902068
1759.000000	54.894052
1758.000000	54.886714
1757.000000	54.846521
1756.000000	54.838617
1755.000000	54.838392
1754.000000	54.805424
1753.000000	54.779005
1752.000000	54.744683
1751.000000	54.706973
1750.000000	54.669829
1749.000000	54.626926
1748.000000	54.572055
1747.000000	54.510298
1746.000000	54.441202
1745.000000	54.371767
1744.000000	54.289235
1743.000000	54.202752
1742.000000	54.136027
1741.000000	54.053383
1740.000000	53.983271
1739.000000	53.938335
1738.000000	53.862578
1737.000000	53.832320
1736.000000	53.808724
1735.000000	53.758934
1734.000000	53.730708
1733.000000	53.728563
1732.000000	53.689160
1731.000000	53.683177
1730.000000	53.663644
1729.000000	53.652241
1728.000000	53.649306
1727.000000	53.648290
1726.000000	53.650322
1725.000000	53.674483
1724.000000	53.732176
1723.000000	53.820804
1722.000000	53.928061
1721.000000	54.071334
1720.000000	54.268236
1719.000000	54.477105
1718.000000	54.696699
1717.000000	54.921036
1716.000000	55.144921
1715.000000	55.348822
1714.000000	55.536692
1713.000000	55.706496
1712.000000	55.870543
1711.000000	55.987962
1710.000000	56.124234
1709.000000	56.217943
1708.000000	56.292346
1707.000000	56.362458
1706.000000	56.399829
1705.000000	56.467457
1704.000000	56.453570
1703.000000	56.454812
1702.000000	56.466102
1701.000000	56.447586
1700.000000	56.451764
1699.000000	56.448151
1698.000000	56.431103
1697.000000	56.398361
1696.000000	56.399377
1695.000000	56.374877
1694.000000	56.314813
1693.000000	56.292120
1692.000000	56.220766
1691.000000	56.203153
1690.000000	56.194911
1689.000000	56.202476
1688.000000	56.292910
1687.000000	56.400054
1686.000000	56.564440
1685.000000	56.788212
1684.000000	57.003968
1683.000000	57.276853
1682.000000	57.506044
1681.000000	57.755558
1680.000000	57.988927
1679.000000	58.231779
1678.000000	58.471019
1677.000000	58.656291
1676.000000	58.864370
1675.000000	59.055965
1674.000000	59.247560
1673.000000	59.465010
1672.000000	59.633573
1671.000000	59.815458
1670.000000	60.013940
1669.000000	60.190745
1668.000000	60.373533
1667.000000	60.560387
1666.000000	60.707837
1665.000000	60.838126
1664.000000	61.006689
1663.000000	61.088656
1662.000000	61.229219
1661.000000	61.335347
1660.000000	61.451862
1659.000000	61.529539
1658.000000	61.589603
1657.000000	61.656892
1656.000000	61.694150
1655.000000	61.736714
1654.000000	61.780069
1653.000000	61.774198
1652.000000	61.783907
1651.000000	61.807956
1650.000000	61.807956
1649.000000	61.787520
1648.000000	61.772956
1647.000000	61.764150
1646.000000	61.732650
1645.000000	61.704650
1644.000000	61.694828
1643.000000	61.684892
1642.000000	61.649893
1641.000000	61.642893
1640.000000	61.638377
1639.000000	61.610264
1638.000000	61.576619
1637.000000	61.560587
1636.000000	61.524571
1635.000000	61.504475
1634.000000	61.467443
1633.000000	61.419008
1632.000000	61.371589
1631.000000	61.336928
1630.000000	61.286348
1629.000000	61.242542
1628.000000	61.190042
1627.000000	61.163284
1626.000000	61.100623
1625.000000	61.052301
1624.000000	61.029834
1623.000000	60.979254
1622.000000	60.952044
1621.000000	60.923254
1620.000000	60.887464
1619.000000	60.867593
1618.000000	60.827513
1617.000000	60.803126
1616.000000	60.780433
1615.000000	60.758756
1614.000000	60.713256
1613.000000	60.665724
1612.000000	60.633208
1611.000000	60.592564
1610.000000	60.547290
1609.000000	60.498065
1608.000000	60.438114
1607.000000	60.385840
1606.000000	60.331195
1605.000000	60.262099
1604.000000	60.211519
1603.000000	60.144568
1602.000000	60.068359
1601.000000	60.003214
1600.000000	59.939538
1599.000000	59.870780
1598.000000	59.819184
1597.000000	59.768491
1596.000000	59.703233
1595.000000	59.650056
1594.000000	59.613250
1593.000000	59.575880
1592.000000	59.526316
1591.000000	59.469752
1590.000000	59.416123
1589.000000	59.378188
1588.000000	59.324334
1587.000000	59.301414
1586.000000	59.283915
1585.000000	59.241689
1584.000000	59.196190
1583.000000	59.159835
1582.000000	59.126416
1581.000000	59.106094
1580.000000	59.092545
1579.000000	59.068159
1578.000000	59.046707
1577.000000	59.026046
1576.000000	59.015772
1575.000000	59.017917
1574.000000	59.022320
1573.000000	59.037562
1572.000000	59.051562
1571.000000	59.077304
1570.000000	59.092884
1569.000000	59.102594
1568.000000	59.120319
1567.000000	59.138271
1566.000000	59.155658
1565.000000	59.167061
1564.000000	59.178690
1563.000000	59.182754
1562.000000	59.176770
1561.000000	59.164238
1560.000000	59.145158
1559.000000	59.097513
1558.000000	59.045352
1557.000000	58.993530
1556.000000	58.954240
1555.000000	58.895531
1554.000000	58.799677
1553.000000	58.713872
1552.000000	58.627840
1551.000000	58.534357
1550.000000	58.439632
1549.000000	58.342311
1548.000000	58.251537
1547.000000	58.165732
1546.000000	58.082974
1545.000000	58.007894
1544.000000	57.944556
1543.000000	57.879412
1542.000000	57.837977
1541.000000	57.796654
1540.000000	57.721461
1539.000000	57.666591
1538.000000	57.622333
1537.000000	57.581689
1536.000000	57.525237
1535.000000	57.466641
1534.000000	57.420803
1533.000000	57.363562
1532.000000	57.309481
1531.000000	57.260256
1530.000000	57.190031
1529.000000	57.129177
1528.000000	57.071258
1527.000000	57.009613
1526.000000	56.949549
1525.000000	56.875937
1524.000000	56.819260
1523.000000	56.754793
1522.000000	56.680052
1521.000000	56.612311
1520.000000	56.546037
1519.000000	56.476715
1518.000000	56.416990
1517.000000	56.353765
1516.000000	56.288846
1515.000000	56.238040
1514.000000	56.171653
1513.000000	56.099622
1512.000000	56.035493
1511.000000	55.975655
1510.000000	55.921123
1509.000000	55.858801
1508.000000	55.802350
1507.000000	55.736867
1506.000000	55.688997
1505.000000	55.656255
1504.000000	55.611771
1503.000000	55.565707
1502.000000	55.534433
1501.000000	55.514224
1500.000000	55.491418
1499.000000	55.477531
1498.000000	55.454612
1497.000000	55.471321
1496.000000	55.488708
1495.000000	55.504740
1494.000000	55.541321
1493.000000	55.578917
1492.000000	55.613917
1491.000000	55.660206
1490.000000	55.708190
1489.000000	55.767802
1488.000000	55.836447
1487.000000	55.886350
1486.000000	55.932075
1485.000000	55.995074
1484.000000	56.044751
1483.000000	56.113283
1482.000000	56.162847
1481.000000	56.243572
1480.000000	56.280378
1479.000000	56.348910
1478.000000	56.416425
1477.000000	56.473328
1476.000000	56.514537
1475.000000	56.618972
1474.000000	56.719568
1473.000000	56.829421
1472.000000	56.912066
1471.000000	56.991097
1470.000000	57.044500
1469.000000	57.125338
1468.000000	57.218708
1467.000000	57.324949
1466.000000	57.409287
1465.000000	57.488318
1464.000000	57.589818
1463.000000	57.676978
1462.000000	57.762219
1461.000000	57.875573
1460.000000	57.961830
1459.000000	58.054297
1458.000000	58.177022
1457.000000	58.281456
1456.000000	58.393568
1455.000000	58.472600
1454.000000	58.570825
1453.000000	58.702807
1452.000000	58.815822
1451.000000	58.939563
1450.000000	58.978740
1449.000000	59.047385
1448.000000	59.174625
1447.000000	59.324559
1446.000000	59.432268
1445.000000	59.509606
1444.000000	59.568880
1443.000000	59.705717
1442.000000	59.824603
1441.000000	59.920457
1440.000000	60.047359
1439.000000	60.204293
1438.000000	60.306131
1437.000000	60.416211
1436.000000	60.528322
1435.000000	60.717321
1434.000000	60.867819
1433.000000	61.036721
1432.000000	61.212284
1431.000000	61.323154
1430.000000	61.535523
1429.000000	61.749021
1428.000000	61.937906
1427.000000	62.111550
1426.000000	62.399111
1425.000000	62.666125
1424.000000	62.908413
1423.000000	63.131395
1422.000000	63.380570
1421.000000	63.756760
1420.000000	64.074354
1419.000000	64.345432
1418.000000	64.605220
1417.000000	64.883298
1416.000000	65.271456
1415.000000	65.703984
1414.000000	66.010626
1413.000000	66.291752
1412.000000	66.631927
1411.000000	67.098551
1410.000000	67.574773
1409.000000	67.905350
1408.000000	68.317782
1407.000000	68.683359
1406.000000	69.072759
1405.000000	69.462949
1404.000000	69.771285
1403.000000	70.114959
1402.000000	70.630244
1401.000000	71.051256
1400.000000	71.295238
1399.000000	71.495188
1398.000000	71.821588
1397.000000	72.258068
1396.000000	72.665758
1395.000000	72.855433
1394.000000	73.046915
1393.000000	73.341364
1392.000000	73.605781
1391.000000	73.842988
1390.000000	74.166679
1389.000000	74.560933
1388.000000	74.758738
1387.000000	75.009155
1386.000000	75.282152
1385.000000	75.650214
1384.000000	75.847341
1383.000000	76.077887
1382.000000	76.202531
1381.000000	76.306401
1380.000000	76.339594
1379.000000	76.432626
1378.000000	76.532770
1377.000000	76.633704
1376.000000	76.735203
1375.000000	76.846186
1374.000000	76.982911
1373.000000	77.201376
1372.000000	77.315859
1371.000000	77.397149
1370.000000	77.493793
1369.000000	77.672517
1368.000000	77.742178
1367.000000	77.810484
1366.000000	77.947095
1365.000000	78.074449
1364.000000	78.132255
1363.000000	78.258705
1362.000000	78.336156
1361.000000	78.315044
1360.000000	78.269883
1359.000000	78.368220
1358.000000	78.443413
1357.000000	78.541864
1356.000000	78.693604
1355.000000	78.760104
1354.000000	78.811926
1353.000000	78.926522
1352.000000	79.073407
1351.000000	79.200648
1350.000000	79.351260
1349.000000	79.518919
1348.000000	79.651128
1347.000000	79.761546
1346.000000	79.894545
1345.000000	80.038156
1344.000000	80.172736
1343.000000	80.279203
1342.000000	80.380589
1341.000000	80.493830
1340.000000	80.606732
1339.000000	80.711505
1338.000000	80.811649
1337.000000	80.887632
1336.000000	80.978406
1335.000000	81.053824
1334.000000	81.128566
1333.000000	81.206807
1332.000000	81.278726
1331.000000	81.333257
1330.000000	81.384741
1329.000000	81.442547
1328.000000	81.484095
1327.000000	81.533997
1326.000000	81.579271
1325.000000	81.621722
1324.000000	81.665754
1323.000000	81.705044
1322.000000	81.745463
1321.000000	81.792430
1320.000000	81.830591
1319.000000	81.846059
1318.000000	81.877333
1317.000000	81.921252
1316.000000	81.948913
1315.000000	81.987525
1314.000000	82.027493
1313.000000	82.042847
1312.000000	82.070396
1311.000000	82.111153
1310.000000	82.128766
1309.000000	82.140508
1308.000000	82.163314
1307.000000	82.181943
1306.000000	82.193685
1305.000000	82.200346
1304.000000	82.210281
1303.000000	82.220443
1302.000000	82.220668
1301.000000	82.216265
1300.000000	82.224055
1299.000000	82.237152
1298.000000	82.230604
1297.000000	82.209943
1296.000000	82.202265
1295.000000	82.188491
1294.000000	82.172120
1293.000000	82.157330
1292.000000	82.134298
1291.000000	82.120637
1290.000000	82.110476
1289.000000	82.083492
1288.000000	82.051202
1287.000000	82.015412
1286.000000	81.982671
1285.000000	81.951397
1284.000000	81.909171
1283.000000	81.875978
1282.000000	81.852269
1281.000000	81.810833
1280.000000	81.780350
1279.000000	81.753592
1278.000000	81.722205
1277.000000	81.705496
1276.000000	81.678625
1275.000000	81.649158
1274.000000	81.648367
1273.000000	81.624658
1272.000000	81.616868
1271.000000	81.608851
1270.000000	81.573062
1269.000000	81.563916
1268.000000	81.578820
1267.000000	81.554433
1266.000000	81.541336
1265.000000	81.529030
1264.000000	81.514127
1263.000000	81.494482
1262.000000	81.474385
1261.000000	81.457224
1260.000000	81.443901
1259.000000	81.406418
1258.000000	81.370063
1257.000000	81.354370
1256.000000	81.339919
1255.000000	81.304016
1254.000000	81.257839
1253.000000	81.227016
1252.000000	81.193371
1251.000000	81.132630
1250.000000	81.092663
1249.000000	81.050663
1248.000000	80.994325
1247.000000	80.933922
1246.000000	80.882552
1245.000000	80.829036
1244.000000	80.774617
1243.000000	80.712521
1242.000000	80.671312
1241.000000	80.615087
1240.000000	80.578845
1239.000000	80.522394
1238.000000	80.488523
1237.000000	80.463685
1236.000000	80.433540
1235.000000	80.379798
1234.000000	80.354621
1233.000000	80.314654
1232.000000	80.256396
1231.000000	80.236187
1230.000000	80.205365
1229.000000	80.177252
1228.000000	80.145639
1227.000000	80.097543
1226.000000	80.063785
1225.000000	80.018624
1224.000000	79.976399
1223.000000	79.932706
1222.000000	79.884045
1221.000000	79.840578
1220.000000	79.803320
1219.000000	79.760643
1218.000000	79.695047
1217.000000	79.645370
1216.000000	79.591515
1215.000000	79.532016
1214.000000	79.470597
1213.000000	79.429614
1212.000000	79.361647
1211.000000	79.277535
1210.000000	79.206293
1209.000000	79.132681
1208.000000	79.051843
1207.000000	78.962425
1206.000000	78.864877
1205.000000	78.812942
1204.000000	78.739556
1203.000000	78.645395
1202.000000	78.548638
1201.000000	78.482252
1200.000000	78.395204
1199.000000	78.304544
1198.000000	78.213996
1197.000000	78.094546
1196.000000	78.018337
1195.000000	77.909725
1194.000000	77.801790
1193.000000	77.690356
1192.000000	77.579373
1191.000000	77.506325
1190.000000	77.422326
1189.000000	77.365875
1188.000000	77.298698
1187.000000	77.284021
1186.000000	77.253876
1185.000000	77.247441
1184.000000	77.274198
1183.000000	77.296892
1182.000000	77.323198
1181.000000	77.334037
1180.000000	77.419503
1179.000000	77.451342
1178.000000	77.495035
1177.000000	77.568309
1176.000000	77.618098
1175.000000	77.649824
1174.000000	77.698485
1173.000000	77.741839
1172.000000	77.824258
1171.000000	77.905999
1170.000000	77.965047
1169.000000	78.077497
1168.000000	78.183964
1167.000000	78.279592
1166.000000	78.365511
1165.000000	78.475139
1164.000000	78.563654
1163.000000	78.699137
1162.000000	78.792281
1161.000000	78.914102
1160.000000	79.004537
1159.000000	79.090456
1158.000000	79.165310
1157.000000	79.248519
1156.000000	79.310954
1155.000000	79.382872
1154.000000	79.420807
1153.000000	79.478613
1152.000000	79.506613
1151.000000	79.515194
1150.000000	79.537774
1149.000000	79.575258
1148.000000	79.599306
1147.000000	79.634418
1146.000000	79.637241
1145.000000	79.684773
1144.000000	79.697982
1143.000000	79.716498
1142.000000	79.748562
1141.000000	79.784578
1140.000000	79.825223
1139.000000	79.884271
1138.000000	79.929883
1137.000000	80.033076
1136.000000	80.092237
1135.000000	80.154333
1134.000000	80.150155
1133.000000	80.132430
1132.000000	80.181204
1131.000000	80.224784
1130.000000	80.260574
1129.000000	80.242397
1128.000000	80.235961
1127.000000	80.224219
1126.000000	80.233929
1125.000000	80.204800
1124.000000	80.185833
1123.000000	80.172849
1122.000000	80.121930
1121.000000	80.080608
1120.000000	80.024044
1119.000000	79.992883
1118.000000	79.935190
1117.000000	79.885851
1116.000000	79.831207
1115.000000	79.778369
1114.000000	79.711418
1113.000000	79.651918
1112.000000	79.615902
1111.000000	79.551096
1110.000000	79.513839
1109.000000	79.478726
1108.000000	79.422614
1107.000000	79.362098
1106.000000	79.327099
1105.000000	79.257438
1104.000000	79.219954
1103.000000	79.165423
1102.000000	79.123875
1101.000000	79.055908
1100.000000	79.001376
1099.000000	78.967957
1098.000000	78.915344
1097.000000	78.857990
1096.000000	78.789346
1095.000000	78.737072
1094.000000	78.700943
1093.000000	78.634895
1092.000000	78.569977
1091.000000	78.510590
1090.000000	78.464752
1089.000000	78.416994
1088.000000	78.358059
1087.000000	78.289528
1086.000000	78.222125
1085.000000	78.181480
1084.000000	78.127513
1083.000000	78.069143
1082.000000	78.003772
1081.000000	77.942918
1080.000000	77.886918
1079.000000	77.827080
1078.000000	77.750758
1077.000000	77.708985
1076.000000	77.649372
1075.000000	77.588857
1074.000000	77.539293
1073.000000	77.473358
1072.000000	77.406068
1071.000000	77.332569
1070.000000	77.270360
1069.000000	77.210296
1068.000000	77.166828
1067.000000	77.100555
1066.000000	77.035975
1065.000000	76.988217
1064.000000	76.924540
1063.000000	76.851718
1062.000000	76.795267
1061.000000	76.735994
1060.000000	76.671752
1059.000000	76.599721
1058.000000	76.539205
1057.000000	76.470899
1056.000000	76.396836
1055.000000	76.332933
1054.000000	76.258530
1053.000000	76.201741
1052.000000	76.136257
1051.000000	76.056887
1050.000000	75.986888
1049.000000	75.926259
1048.000000	75.860437
1047.000000	75.801841
1046.000000	75.735342
1045.000000	75.661052
1044.000000	75.610020
1043.000000	75.543295
1042.000000	75.464715
1041.000000	75.394716
1040.000000	75.329346
1039.000000	75.260814
1038.000000	75.179750
1037.000000	75.110090
1036.000000	75.047880
1035.000000	74.975397
1034.000000	74.907317
1033.000000	74.848608
1032.000000	74.780867
1031.000000	74.709400
1030.000000	74.645610
1029.000000	74.591981
1028.000000	74.526272
1027.000000	74.461354
1026.000000	74.410886
1025.000000	74.350822
1024.000000	74.295952
1023.000000	74.247969
1022.000000	74.194001
1021.000000	74.159679
1020.000000	74.126712
1019.000000	74.082906
1018.000000	74.057164
1017.000000	74.035374
1016.000000	74.006132
1015.000000	73.994842
1014.000000	73.961084
1013.000000	73.938617
1012.000000	73.949455
1011.000000	73.921681
1010.000000	73.904294
1009.000000	73.903617
1008.000000	73.898085
1007.000000	73.883520
1006.000000	73.884085
1005.000000	73.901472
1004.000000	73.901472
1003.000000	73.907569
1002.000000	73.901020
1001.000000	73.903617
1000.000000	73.922923
999.000000	73.918746
998.000000	73.935342
997.000000	73.953971
996.000000	73.965036
995.000000	73.978810
994.000000	73.986826
993.000000	73.998568
992.000000	74.017987
991.000000	74.034809
990.000000	74.053664
989.000000	74.069132
988.000000	74.067890
987.000000	74.083922
986.000000	74.093405
985.000000	74.079067
984.000000	74.089454
983.000000	74.121631
982.000000	74.121292
981.000000	74.133599
980.000000	74.160469
979.000000	74.162276
978.000000	74.160131
977.000000	74.175711
976.000000	74.186663
975.000000	74.206872
974.000000	74.203146
973.000000	74.247856
972.000000	74.259710
971.000000	74.279242
970.000000	74.304081
969.000000	74.331516
968.000000	74.339871
967.000000	74.353532
966.000000	74.382774
965.000000	74.438886
964.000000	74.478854
963.000000	74.509789
962.000000	74.540950
961.000000	74.597514
960.000000	74.633529
959.000000	74.684561
958.000000	74.757044
957.000000	74.801076
956.000000	74.867576
955.000000	74.973930
954.000000	75.050477
953.000000	75.135605
952.000000	75.243879
951.000000	75.356329
950.000000	75.423845
949.000000	75.501070
948.000000	75.578746
947.000000	75.683745
946.000000	75.805002
945.000000	75.892727
944.000000	75.957985
943.000000	76.075742
942.000000	76.156128
941.000000	76.232789
940.000000	76.353707
939.000000	76.426529
938.000000	76.517528
937.000000	76.594640
936.000000	76.687897
935.000000	76.850025
934.000000	76.932105
933.000000	77.002556
932.000000	77.080910
931.000000	77.202506
930.000000	77.255005
929.000000	77.323988
928.000000	77.438810
927.000000	77.491196
926.000000	77.546293
925.000000	77.605340
924.000000	77.678049
923.000000	77.795581
922.000000	77.822677
921.000000	77.870322
920.000000	77.929483
919.000000	77.995982
918.000000	78.037078
917.000000	78.098046
916.000000	78.149190
915.000000	78.215915
914.000000	78.350495
913.000000	78.395430
912.000000	78.411236
911.000000	78.450752
910.000000	78.501219
909.000000	78.555864
908.000000	78.704330
907.000000	78.709411
906.000000	78.748927
905.000000	78.743620
904.000000	78.779749
903.000000	78.811813
902.000000	78.828071
901.000000	78.983537
900.000000	79.020795
899.000000	79.032988
898.000000	79.026553
897.000000	79.043940
896.000000	79.116197
895.000000	79.157971
894.000000	79.216567
893.000000	79.260825
892.000000	79.244793
891.000000	79.285776
890.000000	79.355889
889.000000	79.389533
888.000000	79.433904
887.000000	79.445759
886.000000	79.363340
885.000000	79.403759
884.000000	79.428146
883.000000	79.398566
882.000000	79.267260
881.000000	79.211035
880.000000	79.158761
879.000000	79.060085
878.000000	79.017182
877.000000	78.931715
876.000000	78.753781
875.000000	78.625186
874.000000	78.410107
873.000000	78.336834
872.000000	78.146819
871.000000	77.889289
870.000000	77.699501
869.000000	77.380214
868.000000	77.130926
867.000000	76.806783
866.000000	76.555350
865.000000	76.103290
864.000000	75.648407
863.000000	75.257427
862.000000	74.934527
861.000000	74.435273
860.000000	74.025438
859.000000	73.869633
858.000000	75.603133
857.000000	75.592900
856.000000	75.855800
855.000000	75.360700
854.000000	75.632700
853.000000	75.743400
852.000000	75.698400
851.000000	75.997100
850.000000	75.838900
849.000000	76.065200
848.000000	76.339900
847.000000	76.199500
846.000000	76.328000
845.000000	76.735400
844.000000	77.151100
843.000000	77.024700
842.000000	76.945500
841.000000	77.205600
840.000000	77.577000
839.000000	77.840700
838.000000	77.925100
837.000000	78.422400
836.000000	78.439100
835.000000	78.522500
834.000000	79.194500
833.000000	79.476900
832.000000	79.559900
831.000000	79.950800
830.000000	80.146700
829.000000	80.462200
828.000000	80.711300
827.000000	80.977700
826.000000	81.258500
825.000000	81.404600
824.000000	81.411500
823.000000	81.761900
822.000000	82.157500
821.000000	82.340200
820.000000	82.275000
819.000000	82.577800
818.000000	82.809800
817.000000	83.003000
816.000000	83.164600
815.000000	83.421700
814.000000	83.559900
813.000000	83.585800
812.000000	83.788800
811.000000	83.949300
810.000000	84.136100
809.000000	84.262400
808.000000	84.564100
807.000000	84.574600
806.000000	84.560800
805.000000	84.763500
804.000000	84.810900
803.000000	84.932700
802.000000	85.135400
801.000000	85.379700
800.000000	85.455600
799.000000	85.599600
798.000000	85.696500
797.000000	86.107800
796.000000	86.162900
795.000000	86.418300
794.000000	86.570600
793.000000	86.684800
792.000000	86.811600
791.000000	86.924100
790.000000	87.019700
789.000000	87.144200
788.000000	87.278000
787.000000	87.351100
786.000000	87.383700
785.000000	87.529100
784.000000	87.568700
783.000000	87.651400
782.000000	87.721100
781.000000	87.870400
780.000000	87.900100
779.000000	88.003000
778.000000	88.126500
777.000000	88.175600
776.000000	88.228700
775.000000	88.370400
774.000000	88.481400
773.000000	88.526900
772.000000	88.574400
771.000000	88.584600
770.000000	88.697200
769.000000	88.839400
768.000000	88.945500
767.000000	89.114200
766.000000	89.214100
765.000000	89.258500
764.000000	89.299200
763.000000	89.418500
762.000000	89.548000
761.000000	89.636400
760.000000	89.738100
759.000000	89.838300
758.000000	89.931200
757.000000	90.101000
756.000000	90.181600
755.000000	90.200700
754.000000	90.303900
753.000000	90.303700
752.000000	90.356800
751.000000	90.434600
750.000000	90.423600
749.000000	90.392000
748.000000	90.376900
747.000000	90.212500
746.000000	90.097900
745.000000	90.054900
744.000000	89.986400
743.000000	89.867700
742.000000	89.749900
741.000000	89.596700
740.000000	89.443900
739.000000	89.317200
738.000000	89.191300
737.000000	89.057500
736.000000	88.849600
735.000000	88.635700
734.000000	88.441900
733.000000	88.196800
732.000000	87.951600
731.000000	87.635200
730.000000	87.386900
729.000000	87.167200
728.000000	86.933400
727.000000	86.637300
726.000000	86.304400
725.000000	86.052200
724.000000	85.781200
723.000000	85.429500
722.000000	85.044300
721.000000	84.746000
720.000000	84.485400
719.000000	84.192600
718.000000	83.911300
717.000000	83.655600
716.000000	83.440600
715.000000	83.158900
714.000000	82.819900
713.000000	82.547300
712.000000	82.333600
711.000000	82.154100
710.000000	81.920300
709.000000	81.674100
708.000000	81.474000
707.000000	81.293900
706.000000	81.103300
705.000000	80.866800
704.000000	80.745600
703.000000	80.613700
702.000000	80.437900
701.000000	80.273700
700.000000	80.130600
699.000000	80.038300
698.000000	79.943100
697.000000	79.876400
696.000000	79.728100
695.000000	79.622200
694.000000	79.605200
693.000000	79.460600
692.000000	79.346600
691.000000	79.273200
690.000000	79.185100
689.000000	79.075100
688.000000	78.964100
687.000000	78.874400
686.000000	78.706500
685.000000	78.580300
684.000000	78.496000
683.000000	78.363900
682.000000	78.235000
681.000000	78.047200
680.000000	77.937800
679.000000	77.749000
678.000000	77.572100
677.000000	77.388400
676.000000	77.162400
675.000000	76.912300
674.000000	76.656300
673.000000	76.372100
672.000000	76.066000
671.000000	75.689200
670.000000	75.299800
669.000000	74.873900
668.000000	74.427000
667.000000	73.933800
666.000000	73.355000
665.000000	72.777300
664.000000	72.138000
663.000000	71.487500
662.000000	70.722700
661.000000	70.007600
660.000000	69.267900
659.000000	68.470200
658.000000	67.626300
657.000000	66.832600
656.000000	66.018400
655.000000	65.196500
654.000000	64.401600
653.000000	63.630700
652.000000	62.864300
651.000000	62.103300
650.000000	61.441200
649.000000	60.878900
648.000000	60.367200
647.000000	59.951100
646.000000	59.612200
645.000000	59.367600
644.000000	59.181400
643.000000	59.130800
642.000000	59.205700
641.000000	59.363500
640.000000	59.544300
639.000000	59.888900
638.000000	60.277200
637.000000	60.781000
636.000000	61.318800
635.000000	61.900800
634.000000	62.548500
633.000000	63.315700
632.000000	64.033200
631.000000	64.842000
630.000000	65.636900
629.000000	66.437900
628.000000	67.271500
627.000000	68.088700
626.000000	68.891700
625.000000	69.659400
624.000000	70.449500
623.000000	71.261900
622.000000	72.023100
621.000000	72.775300
620.000000	73.562600
619.000000	74.336100
618.000000	75.090100
617.000000	75.809400
616.000000	76.596900
615.000000	77.370800
614.000000	78.156900
613.000000	78.899900
612.000000	79.702500
611.000000	80.365100
610.000000	81.061200
609.000000	81.717800
608.000000	82.343400
607.000000	82.896700
606.000000	83.472800
605.000000	84.030500
604.000000	84.512900
603.000000	85.030200
602.000000	85.405200
601.000000	85.818000
600.000000	86.260500
599.000000	86.647800
598.000000	86.986100
597.000000	87.334500
596.000000	87.629800
595.000000	88.014100
594.000000	88.283000
593.000000	88.537100
592.000000	88.732200
591.000000	88.890100
590.000000	89.147000
589.000000	89.325800
588.000000	89.448300
587.000000	89.569100
586.000000	89.608400
585.000000	89.690100
584.000000	89.702200
583.000000	89.713600
582.000000	89.688800
581.000000	89.727700
580.000000	89.681700
579.000000	89.686000
578.000000	89.629000
577.000000	89.641400
576.000000	89.505600
575.000000	89.449000
574.000000	89.383000
573.000000	89.270200
572.000000	89.144000
571.000000	89.010400
570.000000	88.875800
569.000000	88.731900
568.000000	88.514400
567.000000	88.327100
566.000000	88.116400
565.000000	87.885600
564.000000	87.615400
563.000000	87.378600
562.000000	87.062500
561.000000	86.823500
560.000000	86.559900
559.000000	86.389800
558.000000	86.118200
557.000000	85.786000
556.000000	85.512800
555.000000	85.194500
554.000000	84.829700
553.000000	84.436100
552.000000	84.042700
551.000000	83.606900
550.000000	83.124900
549.000000	82.583100
548.000000	82.052700
547.000000	81.483900
546.000000	80.873300
545.000000	80.238300
544.000000	79.598500
543.000000	78.875800
542.000000	78.154000
541.000000	77.444200
540.000000	76.702200
539.000000	75.956700
538.000000	75.157300
537.000000	74.385600
536.000000	73.575300
535.000000	72.738200
534.000000	71.850500
533.000000	70.883700
532.000000	69.896100
531.000000	68.855600
530.000000	67.784800
529.000000	66.660900
528.000000	65.515200
527.000000	64.325000
526.000000	63.103500
525.000000	61.835900
524.000000	60.527900
523.000000	59.197400
522.000000	57.844400
521.000000	56.481100
520.000000	55.134000
519.000000	53.751900
518.000000	52.420600
517.000000	51.120100
516.000000	49.836900
515.000000	48.571300
514.000000	47.341300
513.000000	46.176700
512.000000	45.040000
511.000000	43.966000
510.000000	42.949400
509.000000	42.034300
508.000000	41.178200
507.000000	40.412600
506.000000	39.734200
505.000000	39.151100
504.000000	38.613300
503.000000	38.173100
502.000000	37.799100
501.000000	37.541100
500.000000	37.350400
499.000000	37.191100
498.000000	37.114300
497.000000	37.079600
496.000000	37.075900
495.000000	37.080900
494.000000	37.075200
493.000000	37.100600
492.000000	37.135400
491.000000	37.184200
490.000000	37.151300
489.000000	37.097700
488.000000	37.039400
487.000000	36.911300
486.000000	36.728800
485.000000	36.520900
484.000000	36.278200
483.000000	35.960300
482.000000	35.592200
481.000000	35.187000
480.000000	34.712400
479.000000	34.200900
478.000000	33.671400
477.000000	33.109900
476.000000	32.518700
475.000000	31.916200
474.000000	31.273500
473.000000	30.601500
472.000000	29.926900
471.000000	29.251100
470.000000	28.579000
469.000000	27.918700
468.000000	27.288700
467.000000	26.709400
466.000000	26.182000
465.000000	25.706100
464.000000	25.305200
463.000000	24.954600
462.000000	24.669900
461.000000	24.471100
460.000000	24.332400
459.000000	24.255700
458.000000	24.230100
457.000000	24.267500
456.000000	24.367500
455.000000	24.502100
454.000000	24.668000
453.000000	24.857000
452.000000	25.059300
451.000000	25.285400
450.000000	25.512800
449.000000	25.720700
448.000000	25.930400
447.000000	26.144300
446.000000	26.351500
445.000000	26.538300
444.000000	26.704800
443.000000	26.849500
442.000000	26.945300
441.000000	27.041000
440.000000	27.123100
439.000000	27.170100
438.000000	27.197000
437.000000	27.187800
436.000000	27.169700
435.000000	27.143400
434.000000	27.080700
433.000000	26.992300
432.000000	26.896500
431.000000	26.775500
430.000000	26.625700
429.000000	26.487500
428.000000	26.327900
427.000000	26.153400
426.000000	25.971800
425.000000	25.737800
424.000000	25.490100
423.000000	25.234500
422.000000	24.963000
421.000000	24.667300
420.000000	24.362300
419.000000	24.033000
418.000000	23.728400
417.000000	23.417000
416.000000	23.024900
415.000000	22.654700
414.000000	22.280800
413.000000	21.896200
412.000000	21.494100
411.000000	21.069100
410.000000	20.639900
409.000000	20.206000
408.000000	19.733400
407.000000	19.296000
406.000000	18.851800
405.000000	18.366000
404.000000	17.909100
403.000000	17.445100
402.000000	16.949900
401.000000	16.456200
400.000000	15.979800
399.000000	15.534800
398.000000	15.066200
397.000000	14.606400
396.000000	14.172200
395.000000	13.719600
394.000000	13.291500
393.000000	12.877600
392.000000	12.473300
391.000000	12.076900
390.000000	11.706500
389.000000	11.353700
388.000000	11.028200
387.000000	10.695300
386.000000	10.388400
385.000000	10.120700
384.000000	9.858700
383.000000	9.589100
382.000000	9.357000
381.000000	9.126100
380.000000	8.900000
379.000000	8.724300
378.000000	8.545400
377.000000	8.372700
376.000000	8.289300
375.000000	7.933600
374.000000	7.871200
373.000000	7.832900
372.000000	7.686300
371.000000	7.726000
370.000000	7.483400
369.000000	7.356300
368.000000	7.303200
367.000000	7.343300
366.000000	7.322500
365.000000	7.180400
364.000000	7.049200
363.000000	7.054300
362.000000	7.014700
361.000000	6.884000
360.000000	6.856900
359.000000	6.890800
358.000000	6.817200
357.000000	6.832800
356.000000	6.666100
355.000000	6.634600
354.000000	6.606100
353.000000	6.555500
352.000000	6.425000
351.000000	6.377000
350.000000	6.287000
349.000000	6.418000
348.000000	6.328900
347.000000	6.267500
346.000000	6.325900
345.000000	6.456600
344.000000	6.367700
343.000000	6.356700
342.000000	6.261000
341.000000	6.234300
340.000000	6.296400
339.000000	6.121900
338.000000	6.334800
337.000000	6.318200
336.000000	6.310200
335.000000	6.339000
334.000000	6.199300
333.000000	6.109400
332.000000	6.152900
331.000000	6.432000
330.000000	6.167300
329.000000	6.245700
328.000000	6.253700
327.000000	6.325000
326.000000	6.478000
325.000000	6.579400
324.000000	6.397000
323.000000	6.497200
322.000000	6.390000
321.000000	6.398700
320.000000	6.515500
319.000000	6.524900
318.000000	6.673300
317.000000	6.584700
316.000000	6.016200
315.000000	6.014800
314.000000	6.028000
313.000000	6.018700
312.000000	6.022100
311.000000	6.039400
310.000000	6.123300
309.000000	6.088300
308.000000	6.067500
307.000000	6.047500
306.000000	6.055600
305.000000	6.086500
304.000000	6.151600
303.000000	6.068800
302.000000	6.205700
301.000000	6.147400
300.000000	6.101800
299.000000	6.095500
298.000000	6.075000
297.000000	6.044800
296.000000	6.153500
295.000000	6.124200
294.000000	6.124700
293.000000	6.197200
292.000000	6.198300
291.000000	6.166100
290.000000	6.215700
289.000000	6.147800
288.000000	6.207100
287.000000	6.211400
286.000000	6.188900
285.000000	6.164600
284.000000	6.241300
283.000000	6.204700
282.000000	6.219500
281.000000	6.216600
280.000000	6.207700
279.000000	6.246400
278.000000	6.273600
277.000000	6.259600
276.000000	6.243500
275.000000	6.218000
274.000000	6.250400
273.000000	6.299800
272.000000	6.237700
271.000000	6.296100
270.000000	6.329300
269.000000	6.408300
268.000000	6.353300
267.000000	6.333500
266.000000	6.309000
265.000000	6.326200
264.000000	6.404700
263.000000	6.385300
262.000000	6.386900
261.000000	6.491300
260.000000	6.540100
259.000000	6.525200
258.000000	6.530600
257.000000	6.519200
256.000000	6.513200
255.000000	6.591000
254.000000	6.598700
253.000000	6.622700
252.000000	6.608600
251.000000	6.635300
250.000000	6.599600
