Time1=100ms:Average1=5:Objective=10X:Aperture=1: (11/21/2018 2:54:50 PM)
11/21/2018 2:54:50 PM
Reflectance
10X
Ap#: 1
Avg1: 5.000000
Avg2: 0.000000
Int.Time1:100.000000

420.190645	7.516017
420.624620	7.436874
421.058582	7.355646
421.492531	7.295489
421.926468	7.237813
422.360391	7.191354
422.794301	7.173901
423.228199	7.161835
423.662083	7.160030
424.095955	7.172937
424.529813	7.176308
424.963658	7.186164
425.397491	7.188512
425.831310	7.184552
426.265116	7.173091
426.698909	7.170659
427.132689	7.165641
427.566455	7.178031
428.000209	7.211440
428.433949	7.240969
428.867676	7.271620
429.301389	7.301504
429.735090	7.323961
430.168777	7.338788
430.602451	7.347552
431.036111	7.341898
431.469759	7.341858
431.903392	7.344207
432.337013	7.336021
432.770620	7.331837
433.204213	7.340435
433.637794	7.366017
434.071360	7.394487
434.504914	7.438469
434.938453	7.485716
435.371979	7.539553
435.805492	7.607987
436.238991	7.659179
436.672477	7.704066
437.105949	7.746748
437.539407	7.769357
437.972852	7.791212
438.406283	7.824849
438.839700	7.859119
439.273104	7.897527
439.706494	7.949190
440.139871	8.001029
440.573233	8.061963
441.006582	8.117733
441.439917	8.159471
441.873238	8.195261
442.306546	8.230156
442.739839	8.249374
443.173119	8.261031
443.606385	8.273615
444.039636	8.290756
444.472874	8.320848
444.906099	8.349045
445.339309	8.390417
445.772505	8.443124
446.205687	8.509443
446.638855	8.576505
447.072009	8.643833
447.505149	8.719049
447.938275	8.790616
448.371387	8.861379
448.804485	8.922270
449.237569	8.967336
449.670638	9.016545
450.103694	9.055006
450.536735	9.094454
450.969762	9.131642
451.402774	9.177236
451.835773	9.219143
452.268757	9.274266
452.701727	9.337382
453.134683	9.402421
453.567624	9.464544
454.000551	9.524228
454.433464	9.578357
454.866362	9.622349
455.299246	9.670186
455.732116	9.712823
456.164971	9.757359
456.597811	9.797350
457.030638	9.837075
457.463449	9.883772
457.896246	9.920992
458.329029	9.966246
458.761797	10.011774
459.194551	10.063615
459.627290	10.107533
460.060014	10.153307
460.492724	10.201757
460.925419	10.249721
461.358099	10.302578
461.790765	10.341837
462.223416	10.381331
462.656052	10.413707
463.088674	10.440333
463.521281	10.467742
463.953873	10.491866
464.386450	10.516619
464.819012	10.545436
465.251560	10.574940
465.684093	10.598496
466.116611	10.625266
466.549114	10.651719
466.981602	10.683506
467.414075	10.707233
467.846533	10.730500
468.278977	10.749934
468.711405	10.762481
469.143818	10.769778
469.576216	10.771862
470.008600	10.774392
470.440968	10.768181
470.873321	10.754476
471.305659	10.734644
471.737982	10.710475
472.170289	10.686357
472.602582	10.652969
473.034859	10.623978
473.467122	10.592280
473.899369	10.567140
474.331600	10.548211
474.763817	10.530108
475.196018	10.525680
475.628204	10.525909
476.060375	10.532881
476.492530	10.539724
476.924670	10.551507
477.356795	10.557494
477.788904	10.562683
478.220998	10.557330
478.653076	10.552966
479.085139	10.547664
479.517186	10.549085
479.949219	10.556002
480.381235	10.576013
480.813236	10.613972
481.245221	10.664370
481.677191	10.731413
482.109146	10.804027
482.541084	10.886702
482.973008	10.975493
483.404915	11.066857
483.836807	11.160752
484.268683	11.258317
484.700544	11.353078
485.132388	11.447219
485.564217	11.540313
485.996031	11.636650
486.427828	11.732865
486.859610	11.833969
487.291376	11.933715
487.723126	12.046172
488.154860	12.166916
488.586579	12.300118
489.018281	12.447136
489.449968	12.616971
489.881639	12.807933
490.313293	13.012623
490.744932	13.235676
491.176555	13.463397
491.608162	13.701763
492.039753	13.938765
492.471328	14.162647
492.902886	14.369404
493.334429	14.564212
493.765956	14.738130
494.197466	14.906211
494.628960	15.071091
495.060439	15.242349
495.491901	15.425687
495.923347	15.626024
496.354776	15.841156
496.786190	16.075062
497.217587	16.326547
497.648968	16.581346
498.080332	16.844904
498.511681	17.100040
498.943013	17.346344
499.374328	17.576144
499.805628	17.786543
500.236911	17.980353
500.668177	18.153361
501.099427	18.298182
501.530661	18.430128
501.961878	18.543230
502.393079	18.644173
502.824264	18.732559
503.255431	18.816806
503.686583	18.894604
504.117717	18.984029
504.548835	19.086048
504.979937	19.196088
505.411022	19.323724
505.842090	19.477163
506.273142	19.649056
506.704177	19.831607
507.135195	20.023154
507.566197	20.203907
507.997182	20.374298
508.428150	20.521430
508.859102	20.641685
509.290036	20.730660
509.720954	20.793185
510.151855	20.841126
510.582739	20.869278
511.013607	20.903361
511.444457	20.938554
511.875291	20.994716
512.306107	21.069335
512.736907	21.172965
513.167690	21.304793
513.598456	21.457783
514.029205	21.627089
514.459936	21.811522
514.890651	21.995232
515.321349	22.167720
515.752030	22.330348
516.182693	22.470603
516.613340	22.584018
517.043969	22.681509
517.474582	22.751832
517.905177	22.803198
518.335755	22.834673
518.766315	22.843809
519.196859	22.840324
519.627385	22.827029
520.057894	22.807769
520.488386	22.793683
520.918860	22.794537
521.349318	22.813542
521.779757	22.854910
522.210180	22.927903
522.640585	23.028017
523.070973	23.163946
523.501343	23.315931
523.931696	23.491900
524.362031	23.670969
524.792349	23.857665
525.222650	24.038463
525.652933	24.203412
526.083198	24.346101
526.513446	24.468018
526.943677	24.565549
527.373890	24.644845
527.804085	24.715641
528.234262	24.772280
528.664422	24.838693
529.094565	24.909281
529.524689	25.004669
529.954796	25.125490
530.384885	25.269482
530.814957	25.436248
531.245011	25.626336
531.675047	25.835979
532.105065	26.065155
532.535065	26.301736
532.965048	26.535426
533.395013	26.771521
533.824959	26.989872
534.254888	27.186147
534.684799	27.354315
535.114693	27.501669
535.544568	27.623919
535.974425	27.715813
536.404264	27.773698
536.834086	27.809343
537.263889	27.813989
537.693674	27.804859
538.123441	27.784611
538.553190	27.757792
538.982921	27.737771
539.412634	27.725946
539.842329	27.726433
540.272006	27.747691
540.701664	27.793205
541.131304	27.856953
541.560926	27.951083
541.990530	28.068158
542.420116	28.206492
542.849683	28.350264
543.279232	28.494522
543.708763	28.638759
544.138275	28.775866
544.567769	28.896238
544.997245	28.994839
545.426702	29.075206
545.856141	29.134266
546.285562	29.180436
546.714964	29.206652
547.144347	29.230144
547.573713	29.249667
548.003059	29.286255
548.432387	29.330595
548.861697	29.388332
549.290988	29.466147
549.720260	29.572424
550.149514	29.699201
550.578750	29.855306
551.007966	30.035297
551.437164	30.232093
551.866344	30.445058
552.295504	30.666210
552.724646	30.883818
553.153769	31.094359
553.582874	31.292131
554.011960	31.461802
554.441027	31.604643
554.870075	31.715442
555.299104	31.788934
555.728115	31.824542
556.157106	31.835452
556.586079	31.823975
557.015033	31.786692
557.443968	31.734996
557.872884	31.681788
558.301781	31.636954
558.730659	31.584794
559.159518	31.555902
559.588358	31.549197
560.017180	31.557287
560.445982	31.589320
560.874765	31.646324
561.303528	31.716743
561.732273	31.807212
562.160999	31.915904
562.589705	32.037938
563.018393	32.164960
563.447061	32.300979
563.875710	32.443018
564.304340	32.579519
564.732950	32.713170
565.161542	32.839387
565.590114	32.961076
566.018666	33.079025
566.447200	33.185188
566.875714	33.285411
567.304208	33.383481
567.732684	33.475037
568.161140	33.566475
568.589576	33.660923
569.017993	33.763873
569.446391	33.874189
569.874769	33.994640
570.303128	34.135254
570.731467	34.291264
571.159787	34.457952
571.588087	34.632540
572.016368	34.836505
572.444629	35.042061
572.872870	35.246504
573.301092	35.459554
573.729294	35.654796
574.157476	35.830711
574.585639	35.979261
575.013782	36.090357
575.441906	36.161583
575.870009	36.196294
576.298093	36.191588
576.726157	36.142196
577.154202	36.052332
577.582226	35.940074
578.010231	35.808693
578.438216	35.662174
578.866181	35.506026
579.294126	35.350058
579.722051	35.206426
580.149957	35.076538
580.577842	34.965081
581.005707	34.871022
581.433553	34.797955
581.861378	34.739585
582.289184	34.700158
582.716969	34.671041
583.144734	34.653115
583.572479	34.650901
584.000205	34.650827
584.427910	34.660854
584.855594	34.685644
585.283259	34.709839
585.710904	34.743802
586.138528	34.784726
586.566132	34.827098
586.993716	34.885657
587.421280	34.950295
587.848823	35.030244
588.276346	35.115690
588.703849	35.211343
589.131332	35.304907
589.558794	35.406807
589.986236	35.508220
590.413657	35.616553
590.841058	35.719965
591.268438	35.828502
591.695799	35.939728
592.123138	36.064257
592.550458	36.198118
592.977756	36.344702
593.405034	36.505105
593.832292	36.674143
594.259529	36.859397
594.686746	37.055084
595.113942	37.259680
595.541117	37.463345
595.968272	37.671792
596.395406	37.869775
596.822519	38.044469
597.249612	38.201940
597.676684	38.327276
598.103735	38.414010
598.530766	38.464357
598.957775	38.466685
599.384764	38.430603
599.811733	38.360555
600.238680	38.247562
600.665606	38.109757
601.092512	37.945830
601.519397	37.772477
601.946261	37.586917
602.373104	37.399963
602.799926	37.217302
603.226727	37.046827
603.653507	36.884553
604.080266	36.733261
604.507004	36.592478
604.933721	36.461283
605.360417	36.332974
605.787092	36.208836
606.213746	36.087335
606.640379	35.960565
607.066991	35.838217
607.493581	35.719366
607.920150	35.607985
608.346699	35.505630
608.773226	35.420467
609.199731	35.337784
609.626216	35.276630
610.052679	35.241349
610.479121	35.229885
610.905542	35.242563
611.331941	35.282903
611.758319	35.344607
612.184676	35.434893
612.611011	35.543771
613.037325	35.664163
613.463617	35.798133
613.889888	35.935723
614.316138	36.076130
614.742366	36.214518
615.168573	36.349589
615.594758	36.475716
616.020921	36.594119
616.447063	36.705299
616.873184	36.811537
617.299283	36.915437
617.725360	37.011907
618.151416	37.112782
618.577450	37.207024
619.003462	37.308897
619.429453	37.409904
619.855422	37.518366
620.281369	37.632374
620.707295	37.731853
621.133199	37.819810
621.559081	37.893529
621.984941	37.949664
622.410779	37.989059
622.836596	38.004231
623.262391	37.980612
623.688163	37.929252
624.113914	37.854829
624.539644	37.749036
624.965351	37.619802
625.391036	37.473640
625.816699	37.308416
626.242340	37.136366
626.667960	36.960967
627.093557	36.789698
627.519132	36.624884
627.944685	36.470352
628.370216	36.325560
628.795725	36.208088
629.221212	36.092807
629.646677	35.994278
630.072119	35.910167
630.497540	35.828225
630.922938	35.758785
631.348314	35.686803
631.773668	35.620340
632.198999	35.556682
632.624308	35.487636
633.049595	35.419566
633.474860	35.349913
633.900102	35.292114
634.325322	35.241884
634.750520	35.204953
635.175695	35.184060
635.600848	35.187299
636.025978	35.212943
636.451086	35.272866
636.876171	35.356135
637.301234	35.460506
637.726275	35.592503
638.151293	35.751535
638.576288	35.921656
639.001261	36.106184
639.426211	36.300875
639.851139	36.499118
640.276044	36.696844
640.700927	36.885265
641.125787	37.061110
641.550624	37.223963
641.975438	37.360772
642.400230	37.482275
642.824999	37.581687
643.249745	37.651685
643.674469	37.714346
644.099169	37.753265
644.523847	37.785970
644.948502	37.805797
645.373135	37.810756
645.797744	37.817515
646.222330	37.817681
646.646894	37.811048
647.071435	37.804822
647.495953	37.792873
647.920447	37.784020
648.344919	37.765553
648.769368	37.740045
649.193794	37.712088
649.618197	37.669398
650.042576	37.624947
650.466933	37.576489
650.891267	37.525610
651.315577	37.465617
651.739864	37.407610
652.164129	37.350252
652.588370	37.288214
653.012587	37.229990
653.436782	37.176743
653.860953	37.130177
654.285102	37.092935
654.709226	37.064233
655.133328	37.044265
655.557406	37.037113
655.981461	37.039140
656.405493	37.051299
656.829501	37.064100
657.253486	37.085492
657.677448	37.099081
658.101386	37.115559
658.525301	37.129605
658.949192	37.130498
659.373060	37.120450
659.796904	37.098209
660.220725	37.063355
660.644522	37.012713
661.068296	36.945708
661.492046	36.862892
661.915772	36.774295
662.339475	36.673389
662.763154	36.570968
663.186810	36.469878
663.610442	36.367010
664.034050	36.267084
664.457635	36.179809
664.881196	36.109405
665.304733	36.057402
665.728247	36.027276
666.151736	36.021020
666.575202	36.034502
666.998644	36.074547
667.422062	36.133669
667.845457	36.211944
668.268827	36.308528
668.692174	36.415049
669.115496	36.530960
669.538795	36.652811
669.962070	36.779278
670.385321	36.898460
670.808547	37.017976
671.231750	37.126709
671.654929	37.219523
672.078084	37.306409
672.501214	37.378855
672.924321	37.446204
673.347404	37.503523
673.770462	37.561157
674.193496	37.611277
674.616506	37.669576
675.039492	37.725441
675.462454	37.787720
675.885391	37.856719
676.308305	37.925814
676.731194	38.012985
677.154058	38.110911
677.576899	38.227105
677.999715	38.352597
678.422507	38.485915
678.845274	38.630963
679.268017	38.788936
679.690736	38.954744
680.113430	39.118331
680.536100	39.288399
680.958746	39.460364
681.381367	39.633385
681.803963	39.800936
682.226535	39.966899
682.649083	40.124549
683.071605	40.274417
683.494104	40.417246
683.916578	40.551731
684.339027	40.683304
684.761451	40.808669
685.183851	40.919305
685.606227	41.023515
686.028577	41.109755
686.450903	41.183178
686.873204	41.237196
687.295481	41.273050
687.717733	41.279895
688.139959	41.261789
688.562162	41.220274
688.984339	41.152371
689.406492	41.060081
689.828619	40.931333
690.250722	40.776315
690.672800	40.581767
691.094853	40.357189
691.516881	40.110771
691.938884	39.844591
692.360863	39.547734
692.782816	39.238870
693.204744	38.926867
693.626647	38.607387
694.048526	38.294939
694.470379	37.989169
694.892207	37.702460
695.314010	37.435227
695.735788	37.203645
696.157540	37.000943
696.579268	36.836943
697.000970	36.711242
697.422648	36.626665
697.844300	36.586835
698.265926	36.595042
698.687528	36.651122
699.109104	36.748019
699.530655	36.887611
699.952181	37.068962
