PE UV       SUBTECH     SPECTRUM    ASCII       PEDS        4.00        
   -1
INBUCR0137-3.Sample.ASC
24/04/29
11:56:09.00
24/04/29
11:56:09.00
Vinicio Soto Monge
C. cupreomarginata
250,000000
1
Lambda 1050
1050L1511233
PerkinElmer UV WinLab 6.3.2.0749 / 2.02.05 Lambda 900 UV/VIS/NIR, Aug  7 2015 09:38:08

0
0
3350/servo 860,8/2
0
0
UV/VIS
1
1
1
DoubleDePol,CommonBeamDepol,RBeamAtt,SBeamAtt,60mm sphere, WB InGaAs Detector
0
0
0
0
Program
Program
3350/servo 860,8/2
3350/0,2 860,8/0,2
3350/0,2 860,8/0,2
0
15.00
 
 
 
0
 
860,8
319,2
860,8
Front
100
on
S:100 R:100
0
0
0
0
 
0
 
 
 
0
 
 
0
0
0
0
0
 
 
 
 
0
0


0
0
#HDR
-1
-1
#GR
nm
%R
1.0
0.0
2500,000000
-1,000000
2251
8
79,629100
5,602400
#DATA
250.000000	7.627233
251.000000	7.598133
252.000000	7.569400
253.000000	7.531667
254.000000	7.497933
255.000000	7.458467
256.000000	7.442767
257.000000	7.436700
258.000000	7.377133
259.000000	7.367067
260.000000	7.332733
261.000000	7.291867
262.000000	7.268733
263.000000	7.195333
264.000000	7.178533
265.000000	7.146533
266.000000	7.087633
267.000000	7.064200
268.000000	7.021367
269.000000	7.001400
270.000000	6.981633
271.000000	6.958333
272.000000	6.929900
273.000000	6.898667
274.000000	6.883367
275.000000	6.886767
276.000000	6.811300
277.000000	6.825467
278.000000	6.829333
279.000000	6.811900
280.000000	6.835600
281.000000	6.802000
282.000000	6.772700
283.000000	6.768133
284.000000	6.774600
285.000000	6.781267
286.000000	6.764833
287.000000	6.736900
288.000000	6.763233
289.000000	6.719867
290.000000	6.794567
291.000000	6.738600
292.000000	6.703733
293.000000	6.738833
294.000000	6.717433
295.000000	6.711167
296.000000	6.705267
297.000000	6.699033
298.000000	6.696867
299.000000	6.683700
300.000000	6.706733
301.000000	6.663833
302.000000	6.668100
303.000000	6.683100
304.000000	6.688167
305.000000	6.723267
306.000000	6.687400
307.000000	6.645800
308.000000	6.644300
309.000000	6.632400
310.000000	6.654500
311.000000	6.623633
312.000000	6.644367
313.000000	6.648100
314.000000	6.602733
315.000000	6.602300
316.000000	6.610533
317.000000	7.211900
318.000000	7.620500
319.000000	7.352967
320.000000	7.237900
321.000000	6.945433
322.000000	7.379233
323.000000	7.442067
324.000000	7.171267
325.000000	7.042167
326.000000	7.187833
327.000000	6.820100
328.000000	6.706800
329.000000	6.952967
330.000000	7.095133
331.000000	6.844033
332.000000	6.892933
333.000000	6.725433
334.000000	6.647933
335.000000	6.640400
336.000000	6.527367
337.000000	6.519033
338.000000	6.620867
339.000000	6.759500
340.000000	6.669333
341.000000	6.529333
342.000000	6.622600
343.000000	6.666100
344.000000	6.611933
345.000000	6.639767
346.000000	6.535600
347.000000	6.483433
348.000000	6.605400
349.000000	6.626567
350.000000	6.523533
351.000000	6.561833
352.000000	6.508367
353.000000	6.596867
354.000000	6.526833
355.000000	6.594800
356.000000	6.558000
357.000000	6.538967
358.000000	6.558800
359.000000	6.580767
360.000000	6.528900
361.000000	6.497633
362.000000	6.635133
363.000000	6.514467
364.000000	6.506467
365.000000	6.506600
366.000000	6.426067
367.000000	6.440967
368.000000	6.458600
369.000000	6.382833
370.000000	6.351800
371.000000	6.305400
372.000000	6.258167
373.000000	6.132333
374.000000	6.062267
375.000000	6.290000
376.000000	6.617633
377.000000	6.525167
378.000000	6.518133
379.000000	6.532200
380.000000	6.543667
381.000000	6.549467
382.000000	6.553033
383.000000	6.558867
384.000000	6.567900
385.000000	6.582167
386.000000	6.590467
387.000000	6.597867
388.000000	6.621200
389.000000	6.629933
390.000000	6.638967
391.000000	6.661367
392.000000	6.685667
393.000000	6.706500
394.000000	6.732067
395.000000	6.751400
396.000000	6.773800
397.000000	6.811733
398.000000	6.837033
399.000000	6.875367
400.000000	6.921333
401.000000	6.970367
402.000000	7.016667
403.000000	7.073233
404.000000	7.136633
405.000000	7.194700
406.000000	7.275633
407.000000	7.352767
408.000000	7.440700
409.000000	7.542767
410.000000	7.641167
411.000000	7.751400
412.000000	7.861067
413.000000	7.981533
414.000000	8.100267
415.000000	8.225433
416.000000	8.367900
417.000000	8.510433
418.000000	8.652967
419.000000	8.813633
420.000000	8.975500
421.000000	9.141367
422.000000	9.317933
423.000000	9.492267
424.000000	9.665867
425.000000	9.850500
426.000000	10.037900
427.000000	10.222600
428.000000	10.408367
429.000000	10.592600
430.000000	10.778667
431.000000	10.964433
432.000000	11.160733
433.000000	11.360767
434.000000	11.563133
435.000000	11.765400
436.000000	11.968733
437.000000	12.165633
438.000000	12.365133
439.000000	12.570333
440.000000	12.774300
441.000000	12.990900
442.000000	13.200067
443.000000	13.397200
444.000000	13.596667
445.000000	13.789200
446.000000	13.984800
447.000000	14.167400
448.000000	14.339300
449.000000	14.516300
450.000000	14.685400
451.000000	14.865033
452.000000	15.038767
453.000000	15.193100
454.000000	15.352300
455.000000	15.500367
456.000000	15.636100
457.000000	15.767033
458.000000	15.901967
459.000000	16.045333
460.000000	16.164100
461.000000	16.274467
462.000000	16.381433
463.000000	16.493600
464.000000	16.599000
465.000000	16.699533
466.000000	16.805300
467.000000	16.897133
468.000000	16.990600
469.000000	17.084067
470.000000	17.178200
471.000000	17.265300
472.000000	17.342100
473.000000	17.413400
474.000000	17.478933
475.000000	17.537467
476.000000	17.599900
477.000000	17.652833
478.000000	17.707533
479.000000	17.758233
480.000000	17.805833
481.000000	17.865133
482.000000	17.935500
483.000000	18.017200
484.000000	18.121567
485.000000	18.245000
486.000000	18.395067
487.000000	18.573600
488.000000	18.792400
489.000000	19.027300
490.000000	19.313767
491.000000	19.638300
492.000000	19.985733
493.000000	20.371500
494.000000	20.792867
495.000000	21.234567
496.000000	21.709367
497.000000	22.210667
498.000000	22.712967
499.000000	23.256267
500.000000	23.825500
501.000000	24.417500
502.000000	25.023067
503.000000	25.625300
504.000000	26.270367
505.000000	26.943500
506.000000	27.617000
507.000000	28.339933
508.000000	29.092167
509.000000	29.857367
510.000000	30.664700
511.000000	31.514200
512.000000	32.397333
513.000000	33.315167
514.000000	34.266900
515.000000	35.246533
516.000000	36.247967
517.000000	37.271567
518.000000	38.293767
519.000000	39.341133
520.000000	40.395800
521.000000	41.448067
522.000000	42.517633
523.000000	43.556233
524.000000	44.589600
525.000000	45.600933
526.000000	46.581567
527.000000	47.550433
528.000000	48.472833
529.000000	49.390033
530.000000	50.289367
531.000000	51.141900
532.000000	51.973933
533.000000	52.767067
534.000000	53.546700
535.000000	54.286433
536.000000	54.975233
537.000000	55.657700
538.000000	56.287833
539.000000	56.906133
540.000000	57.504800
541.000000	58.071667
542.000000	58.602400
543.000000	59.108333
544.000000	59.593333
545.000000	60.017167
546.000000	60.404400
547.000000	60.745133
548.000000	61.062400
549.000000	61.336900
550.000000	61.585000
551.000000	61.803467
552.000000	62.010567
553.000000	62.177300
554.000000	62.368067
555.000000	62.506867
556.000000	62.637767
557.000000	62.751367
558.000000	62.861267
559.000000	62.931033
560.000000	63.072467
561.000000	63.129000
562.000000	63.150433
563.000000	63.159200
564.000000	63.129067
565.000000	63.087833
566.000000	63.024300
567.000000	62.940567
568.000000	62.846100
569.000000	62.769400
570.000000	62.654267
571.000000	62.526233
572.000000	62.436033
573.000000	62.307900
574.000000	62.198733
575.000000	62.087133
576.000000	61.974133
577.000000	61.859767
578.000000	61.728833
579.000000	61.615400
580.000000	61.472733
581.000000	61.344633
582.000000	61.179133
583.000000	60.999300
584.000000	60.795467
585.000000	60.586933
586.000000	60.286767
587.000000	59.981500
588.000000	59.634667
589.000000	59.238667
590.000000	58.769300
591.000000	58.280567
592.000000	57.718867
593.000000	57.160533
594.000000	56.486300
595.000000	55.867433
596.000000	55.192800
597.000000	54.518967
598.000000	53.839700
599.000000	53.143633
600.000000	52.395733
601.000000	51.664267
602.000000	50.912167
603.000000	50.151233
604.000000	49.421433
605.000000	48.714200
606.000000	47.972667
607.000000	47.316933
608.000000	46.673333
609.000000	46.071600
610.000000	45.502567
611.000000	44.991467
612.000000	44.529733
613.000000	44.108833
614.000000	43.772033
615.000000	43.472200
616.000000	43.229533
617.000000	43.060167
618.000000	42.923300
619.000000	42.833333
620.000000	42.777767
621.000000	42.765833
622.000000	42.776967
623.000000	42.810333
624.000000	42.875367
625.000000	42.937400
626.000000	43.011400
627.000000	43.094367
628.000000	43.198100
629.000000	43.323833
630.000000	43.445267
631.000000	43.564200
632.000000	43.707867
633.000000	43.844800
634.000000	43.969000
635.000000	44.110600
636.000000	44.254733
637.000000	44.349133
638.000000	44.453867
639.000000	44.565900
640.000000	44.648600
641.000000	44.746967
642.000000	44.857167
643.000000	44.924733
644.000000	45.001967
645.000000	45.092333
646.000000	45.176467
647.000000	45.271400
648.000000	45.348200
649.000000	45.440733
650.000000	45.517233
651.000000	45.616267
652.000000	45.708567
653.000000	45.815600
654.000000	45.915933
655.000000	46.023500
656.000000	46.110933
657.000000	46.248467
658.000000	46.365967
659.000000	46.482467
660.000000	46.637700
661.000000	46.760467
662.000000	46.885433
663.000000	47.029300
664.000000	47.163767
665.000000	47.288733
666.000000	47.421667
667.000000	47.537833
668.000000	47.640533
669.000000	47.747033
670.000000	47.875600
671.000000	48.015800
672.000000	48.126367
673.000000	48.287300
674.000000	48.451633
675.000000	48.609967
676.000000	48.811867
677.000000	48.991467
678.000000	49.210200
679.000000	49.472433
680.000000	49.701667
681.000000	49.961700
682.000000	50.227533
683.000000	50.501500
684.000000	50.772267
685.000000	51.091367
686.000000	51.384433
687.000000	51.683367
688.000000	51.980700
689.000000	52.297333
690.000000	52.609533
691.000000	52.915433
692.000000	53.217567
693.000000	53.519433
694.000000	53.796400
695.000000	54.079567
696.000000	54.328033
697.000000	54.560267
698.000000	54.822800
699.000000	55.093067
700.000000	55.333933
701.000000	55.547433
702.000000	55.773000
703.000000	56.036467
704.000000	56.260167
705.000000	56.509467
706.000000	56.745300
707.000000	56.998367
708.000000	57.237200
709.000000	57.442567
710.000000	57.661767
711.000000	57.901100
712.000000	58.132200
713.000000	58.403967
714.000000	58.646867
715.000000	58.843400
716.000000	59.069600
717.000000	59.288233
718.000000	59.513500
719.000000	59.732933
720.000000	59.925500
721.000000	60.130767
722.000000	60.385467
723.000000	60.611233
724.000000	60.807633
725.000000	61.022200
726.000000	61.233700
727.000000	61.409967
728.000000	61.620100
729.000000	61.785700
730.000000	61.980967
731.000000	62.215667
732.000000	62.417200
733.000000	62.601533
734.000000	62.802667
735.000000	62.997567
736.000000	63.172767
737.000000	63.355933
738.000000	63.523667
739.000000	63.703467
740.000000	63.936633
741.000000	64.118133
742.000000	64.247533
743.000000	64.427900
744.000000	64.613700
745.000000	64.814000
746.000000	64.982300
747.000000	65.136800
748.000000	65.289067
749.000000	65.420067
750.000000	65.535500
751.000000	65.703200
752.000000	65.839300
753.000000	65.937900
754.000000	66.100467
755.000000	66.225867
756.000000	66.354633
757.000000	66.517300
758.000000	66.626400
759.000000	66.744700
760.000000	66.889767
761.000000	67.068567
762.000000	67.209800
763.000000	67.355100
764.000000	67.499800
765.000000	67.627100
766.000000	67.768733
767.000000	67.866167
768.000000	68.014733
769.000000	68.188200
770.000000	68.358833
771.000000	68.494600
772.000000	68.634700
773.000000	68.797033
774.000000	68.965300
775.000000	69.114900
776.000000	69.266433
777.000000	69.426300
778.000000	69.609400
779.000000	69.722800
780.000000	69.870067
781.000000	70.014967
782.000000	70.191067
783.000000	70.327333
784.000000	70.423767
785.000000	70.525300
786.000000	70.723467
787.000000	70.856933
788.000000	70.973733
789.000000	71.087900
790.000000	71.146800
791.000000	71.278300
792.000000	71.454467
793.000000	71.547867
794.000000	71.704333
795.000000	71.774100
796.000000	71.924833
797.000000	72.113800
798.000000	72.162200
799.000000	72.216267
800.000000	72.388633
801.000000	72.538500
802.000000	72.653567
803.000000	72.778367
804.000000	72.946267
805.000000	73.039733
806.000000	73.248133
807.000000	73.305600
808.000000	73.418400
809.000000	73.589367
810.000000	73.741200
811.000000	73.835000
812.000000	73.936067
813.000000	74.030833
814.000000	74.171300
815.000000	74.204567
816.000000	74.365400
817.000000	74.452900
818.000000	74.558467
819.000000	74.687100
820.000000	74.819500
821.000000	74.912200
822.000000	75.072467
823.000000	75.312400
824.000000	75.318033
825.000000	75.557833
826.000000	75.741533
827.000000	75.764100
828.000000	75.857167
829.000000	75.917167
830.000000	76.133167
831.000000	76.338267
832.000000	76.446267
833.000000	76.504167
834.000000	76.653800
835.000000	76.723167
836.000000	76.801533
837.000000	76.965000
838.000000	77.138633
839.000000	77.203833
840.000000	77.177767
841.000000	77.314133
842.000000	77.410167
843.000000	77.458900
844.000000	77.674833
845.000000	77.668367
846.000000	77.792800
847.000000	77.910033
848.000000	77.869400
849.000000	77.882867
850.000000	77.944800
851.000000	78.061733
852.000000	78.081167
853.000000	78.358833
854.000000	78.221833
855.000000	78.116300
856.000000	78.453200
857.000000	78.702733
858.000000	78.424078
859.000000	77.490643
860.000000	77.499775
861.000000	77.522485
862.000000	77.512886
863.000000	77.515304
864.000000	77.515221
865.000000	77.545494
866.000000	77.680504
867.000000	77.857487
868.000000	78.060439
869.000000	78.209172
870.000000	78.351923
871.000000	78.482875
872.000000	78.658092
873.000000	78.846280
874.000000	79.083834
875.000000	79.295047
876.000000	79.451805
877.000000	79.611273
878.000000	79.768787
879.000000	79.872278
880.000000	79.982383
881.000000	80.070727
882.000000	80.140231
883.000000	80.185635
884.000000	80.259491
885.000000	80.317994
886.000000	80.382056
887.000000	80.414406
888.000000	80.446079
889.000000	80.457823
890.000000	80.501579
891.000000	80.499790
892.000000	80.507337
893.000000	80.505525
894.000000	80.483502
895.000000	80.497700
896.000000	80.495698
897.000000	80.475734
898.000000	80.441173
899.000000	80.416570
900.000000	80.378193
901.000000	80.359628
902.000000	80.325405
903.000000	80.291931
904.000000	80.264284
905.000000	80.235334
906.000000	80.201786
907.000000	80.118222
908.000000	80.068603
909.000000	80.018368
910.000000	79.982849
911.000000	79.934009
912.000000	79.879256
913.000000	79.786327
914.000000	79.717447
915.000000	79.639032
916.000000	79.590516
917.000000	79.516506
918.000000	79.408323
919.000000	79.329204
920.000000	79.239568
921.000000	79.160660
922.000000	79.067429
923.000000	78.975002
924.000000	78.878060
925.000000	78.792246
926.000000	78.679783
927.000000	78.595989
928.000000	78.495734
929.000000	78.404725
930.000000	78.294199
931.000000	78.188489
932.000000	78.093880
933.000000	77.968001
934.000000	77.866319
935.000000	77.751144
936.000000	77.625437
937.000000	77.515928
938.000000	77.395209
939.000000	77.258441
940.000000	77.139469
941.000000	77.025186
942.000000	76.919151
943.000000	76.791767
944.000000	76.676092
945.000000	76.562838
946.000000	76.451757
947.000000	76.322550
948.000000	76.225228
949.000000	76.114904
950.000000	75.994298
951.000000	75.897126
952.000000	75.786107
953.000000	75.674646
954.000000	75.575853
955.000000	75.479054
956.000000	75.371745
957.000000	75.280676
958.000000	75.190220
959.000000	75.097936
960.000000	74.992885
961.000000	74.894348
962.000000	74.806905
963.000000	74.704960
964.000000	74.614227
965.000000	74.522712
966.000000	74.431543
967.000000	74.341063
968.000000	74.234615
969.000000	74.145513
970.000000	74.071044
971.000000	73.977654
972.000000	73.888123
973.000000	73.809175
974.000000	73.725247
975.000000	73.648545
976.000000	73.575541
977.000000	73.496584
978.000000	73.424815
979.000000	73.343122
980.000000	73.264912
981.000000	73.171183
982.000000	73.102217
983.000000	73.032479
984.000000	72.963562
985.000000	72.882686
986.000000	72.809870
987.000000	72.742594
988.000000	72.673800
989.000000	72.608364
990.000000	72.554450
991.000000	72.489627
992.000000	72.433108
993.000000	72.375762
994.000000	72.315597
995.000000	72.271326
996.000000	72.226631
997.000000	72.186084
998.000000	72.140893
999.000000	72.094881
1000.000000	72.063726
1001.000000	72.031100
1002.000000	71.989005
1003.000000	71.954320
1004.000000	71.925183
1005.000000	71.896296
1006.000000	71.866497
1007.000000	71.837124
1008.000000	71.808955
1009.000000	71.786015
1010.000000	71.773465
1011.000000	71.758672
1012.000000	71.742177
1013.000000	71.736821
1014.000000	71.731895
1015.000000	71.723311
1016.000000	71.714315
1017.000000	71.712318
1018.000000	71.717643
1019.000000	71.716560
1020.000000	71.705911
1021.000000	71.708718
1022.000000	71.730011
1023.000000	71.750068
1024.000000	71.760116
1025.000000	71.759250
1026.000000	71.766183
1027.000000	71.779442
1028.000000	71.796104
1029.000000	71.825397
1030.000000	71.845263
1031.000000	71.853293
1032.000000	71.874792
1033.000000	71.892914
1034.000000	71.905534
1035.000000	71.927841
1036.000000	71.946839
1037.000000	71.965035
1038.000000	71.978702
1039.000000	72.003619
1040.000000	72.029226
1041.000000	72.043994
1042.000000	72.061741
1043.000000	72.082400
1044.000000	72.107218
1045.000000	72.124393
1046.000000	72.140536
1047.000000	72.163177
1048.000000	72.183929
1049.000000	72.199693
1050.000000	72.227925
1051.000000	72.256979
1052.000000	72.271156
1053.000000	72.291200
1054.000000	72.319560
1055.000000	72.348362
1056.000000	72.372262
1057.000000	72.394294
1058.000000	72.428289
1059.000000	72.463354
1060.000000	72.485592
1061.000000	72.511355
1062.000000	72.540241
1063.000000	72.574012
1064.000000	72.607633
1065.000000	72.638933
1066.000000	72.666193
1067.000000	72.699414
1068.000000	72.732497
1069.000000	72.759190
1070.000000	72.792457
1071.000000	72.833685
1072.000000	72.869268
1073.000000	72.897535
1074.000000	72.929087
1075.000000	72.960836
1076.000000	72.996141
1077.000000	73.027418
1078.000000	73.069097
1079.000000	73.104286
1080.000000	73.142959
1081.000000	73.183657
1082.000000	73.217875
1083.000000	73.254793
1084.000000	73.288604
1085.000000	73.327858
1086.000000	73.362622
1087.000000	73.398983
1088.000000	73.434019
1089.000000	73.467897
1090.000000	73.493711
1091.000000	73.529796
1092.000000	73.572407
1093.000000	73.607356
1094.000000	73.647251
1095.000000	73.665593
1096.000000	73.701405
1097.000000	73.746101
1098.000000	73.789430
1099.000000	73.809078
1100.000000	73.834234
1101.000000	73.867916
1102.000000	73.902688
1103.000000	73.933515
1104.000000	73.952787
1105.000000	73.991240
1106.000000	74.023186
1107.000000	74.055687
1108.000000	74.078909
1109.000000	74.109732
1110.000000	74.138564
1111.000000	74.165847
1112.000000	74.197180
1113.000000	74.222066
1114.000000	74.255932
1115.000000	74.277555
1116.000000	74.307357
1117.000000	74.341831
1118.000000	74.366294
1119.000000	74.401112
1120.000000	74.427166
1121.000000	74.441365
1122.000000	74.473840
1123.000000	74.498706
1124.000000	74.501785
1125.000000	74.495117
1126.000000	74.495646
1127.000000	74.483098
1128.000000	74.474139
1129.000000	74.473146
1130.000000	74.446684
1131.000000	74.410126
1132.000000	74.367020
1133.000000	74.330911
1134.000000	74.344556
1135.000000	74.324636
1136.000000	74.278612
1137.000000	74.228439
1138.000000	74.153212
1139.000000	74.100797
1140.000000	74.062455
1141.000000	74.033158
1142.000000	73.998649
1143.000000	73.980355
1144.000000	73.956062
1145.000000	73.950016
1146.000000	73.946286
1147.000000	73.934439
1148.000000	73.907050
1149.000000	73.879785
1150.000000	73.845532
1151.000000	73.844492
1152.000000	73.808931
1153.000000	73.791724
1154.000000	73.743679
1155.000000	73.694531
1156.000000	73.647027
1157.000000	73.590376
1158.000000	73.543022
1159.000000	73.474824
1160.000000	73.425019
1161.000000	73.335930
1162.000000	73.256959
1163.000000	73.203792
1164.000000	73.119221
1165.000000	73.039542
1166.000000	72.958295
1167.000000	72.891826
1168.000000	72.820320
1169.000000	72.751749
1170.000000	72.690566
1171.000000	72.638811
1172.000000	72.580595
1173.000000	72.536026
1174.000000	72.500823
1175.000000	72.473491
1176.000000	72.438722
1177.000000	72.417158
1178.000000	72.388247
1179.000000	72.360974
1180.000000	72.342843
1181.000000	72.300127
1182.000000	72.293489
1183.000000	72.266425
1184.000000	72.263952
1185.000000	72.251775
1186.000000	72.266314
1187.000000	72.274475
1188.000000	72.283943
1189.000000	72.324617
1190.000000	72.376125
1191.000000	72.432621
1192.000000	72.475219
1193.000000	72.555013
1194.000000	72.629784
1195.000000	72.699698
1196.000000	72.770427
1197.000000	72.843678
1198.000000	72.906234
1199.000000	72.966555
1200.000000	73.033537
1201.000000	73.094398
1202.000000	73.159177
1203.000000	73.217634
1204.000000	73.271782
1205.000000	73.324665
1206.000000	73.380631
1207.000000	73.432935
1208.000000	73.489785
1209.000000	73.541693
1210.000000	73.590085
1211.000000	73.634638
1212.000000	73.695768
1213.000000	73.736330
1214.000000	73.775373
1215.000000	73.808824
1216.000000	73.850725
1217.000000	73.885905
1218.000000	73.911436
1219.000000	73.950136
1220.000000	73.985959
1221.000000	74.021675
1222.000000	74.056100
1223.000000	74.094206
1224.000000	74.121256
1225.000000	74.157785
1226.000000	74.176691
1227.000000	74.219060
1228.000000	74.253337
1229.000000	74.301199
1230.000000	74.329914
1231.000000	74.370995
1232.000000	74.404698
1233.000000	74.440927
1234.000000	74.474167
1235.000000	74.512982
1236.000000	74.550589
1237.000000	74.585322
1238.000000	74.617641
1239.000000	74.658497
1240.000000	74.704377
1241.000000	74.749360
1242.000000	74.783186
1243.000000	74.831165
1244.000000	74.884792
1245.000000	74.921040
1246.000000	74.960330
1247.000000	75.010695
1248.000000	75.036636
1249.000000	75.067876
1250.000000	75.111729
1251.000000	75.134999
1252.000000	75.170013
1253.000000	75.190311
1254.000000	75.201611
1255.000000	75.226767
1256.000000	75.241526
1257.000000	75.243648
1258.000000	75.248855
1259.000000	75.255187
1260.000000	75.261447
1261.000000	75.263187
1262.000000	75.266559
1263.000000	75.264936
1264.000000	75.267831
1265.000000	75.275521
1266.000000	75.275219
1267.000000	75.274750
1268.000000	75.280524
1269.000000	75.284289
1270.000000	75.279390
1271.000000	75.276331
1272.000000	75.277865
1273.000000	75.285783
1274.000000	75.294261
1275.000000	75.297949
1276.000000	75.306783
1277.000000	75.317396
1278.000000	75.331600
1279.000000	75.344108
1280.000000	75.364084
1281.000000	75.395425
1282.000000	75.425718
1283.000000	75.443824
1284.000000	75.460969
1285.000000	75.490249
1286.000000	75.521281
1287.000000	75.547489
1288.000000	75.572995
1289.000000	75.595105
1290.000000	75.613132
1291.000000	75.630843
1292.000000	75.659357
1293.000000	75.677092
1294.000000	75.683497
1295.000000	75.694980
1296.000000	75.703624
1297.000000	75.718371
1298.000000	75.730430
1299.000000	75.738257
1300.000000	75.746064
1301.000000	75.743725
1302.000000	75.742425
1303.000000	75.739606
1304.000000	75.738831
1305.000000	75.736332
1306.000000	75.729992
1307.000000	75.725836
1308.000000	75.716219
1309.000000	75.704872
1310.000000	75.697527
1311.000000	75.685702
1312.000000	75.668684
1313.000000	75.649389
1314.000000	75.633600
1315.000000	75.620171
1316.000000	75.602241
1317.000000	75.581243
1318.000000	75.560305
1319.000000	75.537598
1320.000000	75.517395
1321.000000	75.492550
1322.000000	75.465888
1323.000000	75.439097
1324.000000	75.416499
1325.000000	75.383128
1326.000000	75.351025
1327.000000	75.319906
1328.000000	75.282321
1329.000000	75.249003
1330.000000	75.205257
1331.000000	75.153376
1332.000000	75.102039
1333.000000	75.044486
1334.000000	74.980641
1335.000000	74.920204
1336.000000	74.854736
1337.000000	74.783940
1338.000000	74.701090
1339.000000	74.618361
1340.000000	74.533897
1341.000000	74.443165
1342.000000	74.341716
1343.000000	74.237575
1344.000000	74.144657
1345.000000	74.030777
1346.000000	73.899582
1347.000000	73.786416
1348.000000	73.685979
1349.000000	73.557090
1350.000000	73.420212
1351.000000	73.290307
1352.000000	73.175294
1353.000000	73.039278
1354.000000	72.989160
1355.000000	72.939509
1356.000000	72.845198
1357.000000	72.737471
1358.000000	72.684926
1359.000000	72.651994
1360.000000	72.617880
1361.000000	72.642402
1362.000000	72.619969
1363.000000	72.538922
1364.000000	72.435036
1365.000000	72.368438
1366.000000	72.259631
1367.000000	72.162895
1368.000000	72.109566
1369.000000	72.032828
1370.000000	71.905513
1371.000000	71.813498
1372.000000	71.713730
1373.000000	71.594046
1374.000000	71.457432
1375.000000	71.352847
1376.000000	71.266468
1377.000000	71.197759
1378.000000	71.102998
1379.000000	71.047007
1380.000000	70.944479
1381.000000	70.937847
1382.000000	70.862725
1383.000000	70.716929
1384.000000	70.518644
1385.000000	70.274701
1386.000000	70.022448
1387.000000	69.803521
1388.000000	69.598660
1389.000000	69.347212
1390.000000	69.029828
1391.000000	68.802319
1392.000000	68.612091
1393.000000	68.356229
1394.000000	68.131239
1395.000000	67.954036
1396.000000	67.737872
1397.000000	67.343421
1398.000000	66.982904
1399.000000	66.739193
1400.000000	66.565783
1401.000000	66.317989
1402.000000	65.862605
1403.000000	65.450413
1404.000000	65.106872
1405.000000	64.801038
1406.000000	64.472162
1407.000000	64.104453
1408.000000	63.765309
1409.000000	63.409385
1410.000000	63.054384
1411.000000	62.614024
1412.000000	62.201470
1413.000000	61.932956
1414.000000	61.667681
1415.000000	61.344682
1416.000000	60.966816
1417.000000	60.612823
1418.000000	60.405117
1419.000000	60.165294
1420.000000	59.891977
1421.000000	59.588476
1422.000000	59.298152
1423.000000	59.077314
1424.000000	58.887543
1425.000000	58.641091
1426.000000	58.407836
1427.000000	58.199973
1428.000000	58.032614
1429.000000	57.849538
1430.000000	57.652818
1431.000000	57.503703
1432.000000	57.360460
1433.000000	57.213803
1434.000000	57.058732
1435.000000	56.907926
1436.000000	56.760364
1437.000000	56.640523
1438.000000	56.541892
1439.000000	56.395115
1440.000000	56.292631
1441.000000	56.162822
1442.000000	56.066046
1443.000000	55.957927
1444.000000	55.840138
1445.000000	55.764236
1446.000000	55.692189
1447.000000	55.566489
1448.000000	55.417664
1449.000000	55.315059
1450.000000	55.254205
1451.000000	55.185499
1452.000000	55.086309
1453.000000	54.954072
1454.000000	54.831454
1455.000000	54.733345
1456.000000	54.649826
1457.000000	54.543576
1458.000000	54.430825
1459.000000	54.323208
1460.000000	54.225429
1461.000000	54.128855
1462.000000	54.028193
1463.000000	53.925102
1464.000000	53.827555
1465.000000	53.737101
1466.000000	53.665152
1467.000000	53.566766
1468.000000	53.464854
1469.000000	53.367130
1470.000000	53.315360
1471.000000	53.244309
1472.000000	53.157595
1473.000000	53.079411
1474.000000	52.983965
1475.000000	52.883620
1476.000000	52.824550
1477.000000	52.777625
1478.000000	52.706632
1479.000000	52.655801
1480.000000	52.601154
1481.000000	52.557593
1482.000000	52.504981
1483.000000	52.445757
1484.000000	52.393228
1485.000000	52.348606
1486.000000	52.306897
1487.000000	52.263271
1488.000000	52.214155
1489.000000	52.164266
1490.000000	52.114091
1491.000000	52.072672
1492.000000	52.034004
1493.000000	51.996149
1494.000000	51.977353
1495.000000	51.955910
1496.000000	51.942812
1497.000000	51.941392
1498.000000	51.952928
1499.000000	51.969323
1500.000000	51.989723
1501.000000	52.019839
1502.000000	52.057902
1503.000000	52.105822
1504.000000	52.156393
1505.000000	52.200526
1506.000000	52.247732
1507.000000	52.313639
1508.000000	52.390994
1509.000000	52.448756
1510.000000	52.503181
1511.000000	52.584179
1512.000000	52.653052
1513.000000	52.719624
1514.000000	52.781563
1515.000000	52.845882
1516.000000	52.913067
1517.000000	52.987238
1518.000000	53.061383
1519.000000	53.127756
1520.000000	53.197106
1521.000000	53.256396
1522.000000	53.314680
1523.000000	53.385004
1524.000000	53.452573
1525.000000	53.510518
1526.000000	53.568035
1527.000000	53.622540
1528.000000	53.678700
1529.000000	53.732673
1530.000000	53.796040
1531.000000	53.857908
1532.000000	53.911901
1533.000000	53.960853
1534.000000	54.007240
1535.000000	54.056877
1536.000000	54.107104
1537.000000	54.138584
1538.000000	54.167934
1539.000000	54.211243
1540.000000	54.249226
1541.000000	54.280170
1542.000000	54.315680
1543.000000	54.362213
1544.000000	54.420093
1545.000000	54.471935
1546.000000	54.530249
1547.000000	54.592774
1548.000000	54.663927
1549.000000	54.734930
1550.000000	54.810070
1551.000000	54.888616
1552.000000	54.962867
1553.000000	55.032186
1554.000000	55.094159
1555.000000	55.148519
1556.000000	55.195285
1557.000000	55.234390
1558.000000	55.270777
1559.000000	55.297904
1560.000000	55.312495
1561.000000	55.319430
1562.000000	55.312953
1563.000000	55.302672
1564.000000	55.295642
1565.000000	55.278249
1566.000000	55.252224
1567.000000	55.225067
1568.000000	55.201097
1569.000000	55.175560
1570.000000	55.151183
1571.000000	55.128402
1572.000000	55.107195
1573.000000	55.097951
1574.000000	55.099146
1575.000000	55.099836
1576.000000	55.101306
1577.000000	55.105512
1578.000000	55.120653
1579.000000	55.134174
1580.000000	55.147358
1581.000000	55.170317
1582.000000	55.201577
1583.000000	55.236943
1584.000000	55.272348
1585.000000	55.305271
1586.000000	55.337815
1587.000000	55.381506
1588.000000	55.425249
1589.000000	55.461242
1590.000000	55.504788
1591.000000	55.555176
1592.000000	55.589819
1593.000000	55.629912
1594.000000	55.680396
1595.000000	55.731902
1596.000000	55.783832
1597.000000	55.841722
1598.000000	55.895889
1599.000000	55.960169
1600.000000	56.025918
1601.000000	56.093216
1602.000000	56.158853
1603.000000	56.220042
1604.000000	56.282121
1605.000000	56.348811
1606.000000	56.419598
1607.000000	56.484550
1608.000000	56.542404
1609.000000	56.594676
1610.000000	56.649266
1611.000000	56.693741
1612.000000	56.737564
1613.000000	56.781198
1614.000000	56.815213
1615.000000	56.846931
1616.000000	56.872662
1617.000000	56.907863
1618.000000	56.929711
1619.000000	56.959800
1620.000000	56.990375
1621.000000	57.016627
1622.000000	57.044526
1623.000000	57.069096
1624.000000	57.098917
1625.000000	57.139073
1626.000000	57.179963
1627.000000	57.209727
1628.000000	57.238403
1629.000000	57.287107
1630.000000	57.324156
1631.000000	57.362854
1632.000000	57.399951
1633.000000	57.430287
1634.000000	57.460433
1635.000000	57.488699
1636.000000	57.513563
1637.000000	57.532642
1638.000000	57.540656
1639.000000	57.549706
1640.000000	57.557957
1641.000000	57.570410
1642.000000	57.577080
1643.000000	57.584009
1644.000000	57.594696
1645.000000	57.605112
1646.000000	57.605844
1647.000000	57.623541
1648.000000	57.625906
1649.000000	57.624287
1650.000000	57.611914
1651.000000	57.607738
1652.000000	57.582322
1653.000000	57.551609
1654.000000	57.511631
1655.000000	57.458749
1656.000000	57.407149
1657.000000	57.330679
1658.000000	57.257823
1659.000000	57.164607
1660.000000	57.062862
1661.000000	56.949029
1662.000000	56.832554
1663.000000	56.705432
1664.000000	56.561200
1665.000000	56.417578
1666.000000	56.278543
1667.000000	56.135098
1668.000000	55.957703
1669.000000	55.789397
1670.000000	55.615103
1671.000000	55.427090
1672.000000	55.254776
1673.000000	55.082070
1674.000000	54.896569
1675.000000	54.725641
1676.000000	54.562414
1677.000000	54.370423
1678.000000	54.171994
1679.000000	53.980729
1680.000000	53.769517
1681.000000	53.549035
1682.000000	53.331649
1683.000000	53.097679
1684.000000	52.878754
1685.000000	52.685317
1686.000000	52.504906
1687.000000	52.376075
1688.000000	52.275635
1689.000000	52.249887
1690.000000	52.252488
1691.000000	52.292125
1692.000000	52.360028
1693.000000	52.434825
1694.000000	52.498181
1695.000000	52.557944
1696.000000	52.603480
1697.000000	52.642974
1698.000000	52.644736
1699.000000	52.663972
1700.000000	52.657795
1701.000000	52.635276
1702.000000	52.636542
1703.000000	52.630818
1704.000000	52.602196
1705.000000	52.551460
1706.000000	52.501769
1707.000000	52.449001
1708.000000	52.342397
1709.000000	52.254169
1710.000000	52.137794
1711.000000	51.998185
1712.000000	51.850960
1713.000000	51.684910
1714.000000	51.503528
1715.000000	51.300392
1716.000000	51.077148
1717.000000	50.853695
1718.000000	50.617996
1719.000000	50.386589
1720.000000	50.171721
1721.000000	49.995679
1722.000000	49.843638
1723.000000	49.748972
1724.000000	49.689885
1725.000000	49.663894
1726.000000	49.655191
1727.000000	49.665919
1728.000000	49.697916
1729.000000	49.725146
1730.000000	49.766299
1731.000000	49.810286
1732.000000	49.852753
1733.000000	49.902368
1734.000000	49.939388
1735.000000	49.987842
1736.000000	50.023250
1737.000000	50.074344
1738.000000	50.142399
1739.000000	50.197615
1740.000000	50.275036
1741.000000	50.343104
1742.000000	50.422501
1743.000000	50.497055
1744.000000	50.570985
1745.000000	50.652192
1746.000000	50.712487
1747.000000	50.787477
1748.000000	50.842925
1749.000000	50.886317
1750.000000	50.918447
1751.000000	50.957084
1752.000000	50.984675
1753.000000	50.993234
1754.000000	51.001249
1755.000000	51.003437
1756.000000	51.003751
1757.000000	51.018507
1758.000000	51.024404
1759.000000	51.029201
1760.000000	51.033490
1761.000000	51.051677
1762.000000	51.050255
1763.000000	51.067926
1764.000000	51.093598
1765.000000	51.108592
1766.000000	51.137856
1767.000000	51.181757
1768.000000	51.211998
1769.000000	51.249630
1770.000000	51.288741
1771.000000	51.329138
1772.000000	51.364928
1773.000000	51.412580
1774.000000	51.448143
1775.000000	51.484951
1776.000000	51.521503
1777.000000	51.557731
1778.000000	51.587880
1779.000000	51.621316
1780.000000	51.636761
1781.000000	51.655546
1782.000000	51.671439
1783.000000	51.677687
1784.000000	51.681595
1785.000000	51.680700
1786.000000	51.677898
1787.000000	51.677979
1788.000000	51.668059
1789.000000	51.663358
1790.000000	51.659103
1791.000000	51.668808
1792.000000	51.671043
1793.000000	51.680385
1794.000000	51.698674
1795.000000	51.722139
1796.000000	51.745348
1797.000000	51.758783
1798.000000	51.764320
1799.000000	51.782396
1800.000000	51.825854
1801.000000	51.865396
1802.000000	51.895473
1803.000000	51.898288
1804.000000	51.893374
1805.000000	51.911066
1806.000000	51.958040
1807.000000	51.987295
1808.000000	51.988097
1809.000000	52.005436
1810.000000	52.032746
1811.000000	52.072781
1812.000000	52.109495
1813.000000	52.128197
1814.000000	52.143168
1815.000000	52.157429
1816.000000	52.178398
1817.000000	52.190444
1818.000000	52.205076
1819.000000	52.238828
1820.000000	52.281715
1821.000000	52.311190
1822.000000	52.310291
1823.000000	52.252756
1824.000000	52.196323
1825.000000	52.207385
1826.000000	52.240948
1827.000000	52.274661
1828.000000	52.316021
1829.000000	52.373209
1830.000000	52.407290
1831.000000	52.431941
1832.000000	52.452172
1833.000000	52.484071
1834.000000	52.536674
1835.000000	52.616744
1836.000000	52.706045
1837.000000	52.767258
1838.000000	52.810039
1839.000000	52.848884
1840.000000	52.882975
1841.000000	52.915502
1842.000000	52.939024
1843.000000	52.905935
1844.000000	52.864876
1845.000000	52.885993
1846.000000	52.937022
1847.000000	53.008559
1848.000000	53.056692
1849.000000	53.040525
1850.000000	52.983018
1851.000000	52.930464
1852.000000	52.887567
1853.000000	52.869393
1854.000000	52.881861
1855.000000	52.859854
1856.000000	52.821008
1857.000000	52.791751
1858.000000	52.742454
1859.000000	52.694326
1860.000000	52.624457
1861.000000	52.526886
1862.000000	52.420356
1863.000000	52.309005
1864.000000	52.224851
1865.000000	52.163554
1866.000000	52.105571
1867.000000	52.060915
1868.000000	52.001370
1869.000000	51.906438
1870.000000	51.767256
1871.000000	51.624401
1872.000000	51.432773
1873.000000	51.211124
1874.000000	50.949286
1875.000000	50.674862
1876.000000	50.380776
1877.000000	50.085371
1878.000000	49.802878
1879.000000	49.477135
1880.000000	49.138411
1881.000000	48.825764
1882.000000	48.452260
1883.000000	48.078528
1884.000000	47.678123
1885.000000	47.212471
1886.000000	46.736201
1887.000000	46.253911
1888.000000	45.758809
1889.000000	45.233431
1890.000000	44.703193
1891.000000	44.134191
1892.000000	43.499936
1893.000000	42.838272
1894.000000	42.210152
1895.000000	41.629216
1896.000000	41.084749
1897.000000	40.551687
1898.000000	39.966490
1899.000000	39.323679
1900.000000	38.700863
1901.000000	38.075786
1902.000000	37.495749
1903.000000	36.950085
1904.000000	36.415636
1905.000000	35.883858
1906.000000	35.309826
1907.000000	34.758491
1908.000000	34.288045
1909.000000	33.862225
1910.000000	33.512255
1911.000000	33.152763
1912.000000	32.821216
1913.000000	32.446942
1914.000000	32.056961
1915.000000	31.679321
1916.000000	31.388707
1917.000000	31.145425
1918.000000	30.908721
1919.000000	30.639891
1920.000000	30.444083
1921.000000	30.208394
1922.000000	29.952236
1923.000000	29.749451
1924.000000	29.583324
1925.000000	29.438446
1926.000000	29.281537
1927.000000	29.159036
1928.000000	29.042453
1929.000000	28.939159
1930.000000	28.817075
1931.000000	28.748066
1932.000000	28.675230
1933.000000	28.601068
1934.000000	28.560374
1935.000000	28.531071
1936.000000	28.507463
1937.000000	28.508520
1938.000000	28.517598
1939.000000	28.518960
1940.000000	28.530598
1941.000000	28.561363
1942.000000	28.601563
1943.000000	28.634137
1944.000000	28.662620
1945.000000	28.720720
1946.000000	28.799189
1947.000000	28.854250
1948.000000	28.935437
1949.000000	29.021289
1950.000000	29.093967
1951.000000	29.168266
1952.000000	29.267261
1953.000000	29.357379
1954.000000	29.462651
1955.000000	29.555547
1956.000000	29.655624
1957.000000	29.764177
1958.000000	29.848907
1959.000000	29.947106
1960.000000	30.041626
1961.000000	30.142740
1962.000000	30.249783
1963.000000	30.338941
1964.000000	30.447216
1965.000000	30.522832
1966.000000	30.615301
1967.000000	30.696846
1968.000000	30.801021
1969.000000	30.897834
1970.000000	30.990642
1971.000000	31.082138
1972.000000	31.171855
1973.000000	31.264388
1974.000000	31.374285
1975.000000	31.458401
1976.000000	31.564711
1977.000000	31.654125
1978.000000	31.759454
1979.000000	31.858588
1980.000000	31.954214
1981.000000	32.074151
1982.000000	32.175905
1983.000000	32.277471
1984.000000	32.377660
1985.000000	32.492462
1986.000000	32.598116
1987.000000	32.692055
1988.000000	32.813007
1989.000000	32.915068
1990.000000	32.994195
1991.000000	33.095295
1992.000000	33.195025
1993.000000	33.283220
1994.000000	33.369426
1995.000000	33.457126
1996.000000	33.538759
1997.000000	33.619150
1998.000000	33.700415
1999.000000	33.765436
2000.000000	33.841360
2001.000000	33.906796
2002.000000	33.976027
2003.000000	34.028249
2004.000000	34.062965
2005.000000	34.119093
2006.000000	34.153433
2007.000000	34.190578
2008.000000	34.206133
2009.000000	34.218226
2010.000000	34.232905
2011.000000	34.244890
2012.000000	34.236996
2013.000000	34.221569
2014.000000	34.227820
2015.000000	34.200582
2016.000000	34.178701
2017.000000	34.143317
2018.000000	34.095683
2019.000000	34.043933
2020.000000	33.993481
2021.000000	33.943185
2022.000000	33.865391
2023.000000	33.805468
2024.000000	33.732872
2025.000000	33.652670
2026.000000	33.553529
2027.000000	33.465585
2028.000000	33.369874
2029.000000	33.267293
2030.000000	33.168971
2031.000000	33.049446
2032.000000	32.931170
2033.000000	32.804700
2034.000000	32.682103
2035.000000	32.554235
2036.000000	32.394811
2037.000000	32.248796
2038.000000	32.102756
2039.000000	31.947854
2040.000000	31.782164
2041.000000	31.602455
2042.000000	31.441767
2043.000000	31.281960
2044.000000	31.119264
2045.000000	30.954961
2046.000000	30.801649
2047.000000	30.648782
2048.000000	30.519743
2049.000000	30.406618
2050.000000	30.311739
2051.000000	30.234229
2052.000000	30.180281
2053.000000	30.153410
2054.000000	30.139105
2055.000000	30.147229
2056.000000	30.177507
2057.000000	30.230682
2058.000000	30.299973
2059.000000	30.382082
2060.000000	30.482736
2061.000000	30.608919
2062.000000	30.730501
2063.000000	30.848372
2064.000000	30.979322
2065.000000	31.115336
2066.000000	31.255244
2067.000000	31.400846
2068.000000	31.541089
2069.000000	31.676262
2070.000000	31.801917
2071.000000	31.930029
2072.000000	32.055850
2073.000000	32.170603
2074.000000	32.281651
2075.000000	32.382874
2076.000000	32.470532
2077.000000	32.554118
2078.000000	32.633659
2079.000000	32.703649
2080.000000	32.764626
2081.000000	32.822162
2082.000000	32.871128
2083.000000	32.906476
2084.000000	32.936859
2085.000000	32.961752
2086.000000	32.974189
2087.000000	32.982360
2088.000000	32.985547
2089.000000	32.982360
2090.000000	32.983980
2091.000000	32.971128
2092.000000	32.963757
2093.000000	32.962071
2094.000000	32.948426
2095.000000	32.937274
2096.000000	32.931745
2097.000000	32.931802
2098.000000	32.924094
2099.000000	32.924672
2100.000000	32.926334
2101.000000	32.920732
2102.000000	32.931792
2103.000000	32.937009
2104.000000	32.936257
2105.000000	32.934432
2106.000000	32.940347
2107.000000	32.956569
2108.000000	32.958242
2109.000000	32.951538
2110.000000	32.948589
2111.000000	32.944055
2112.000000	32.936601
2113.000000	32.926323
2114.000000	32.921834
2115.000000	32.910534
2116.000000	32.887173
2117.000000	32.865517
2118.000000	32.837802
2119.000000	32.814370
2120.000000	32.775585
2121.000000	32.733187
2122.000000	32.703398
2123.000000	32.650934
2124.000000	32.596118
2125.000000	32.552393
2126.000000	32.490077
2127.000000	32.422037
2128.000000	32.360225
2129.000000	32.294310
2130.000000	32.220284
2131.000000	32.139357
2132.000000	32.052874
2133.000000	31.971783
2134.000000	31.879244
2135.000000	31.771975
2136.000000	31.674370
2137.000000	31.563799
2138.000000	31.452230
2139.000000	31.327875
2140.000000	31.215991
2141.000000	31.101248
2142.000000	30.977302
2143.000000	30.849603
2144.000000	30.728188
2145.000000	30.596071
2146.000000	30.464598
2147.000000	30.332171
2148.000000	30.207312
2149.000000	30.082370
2150.000000	29.955504
2151.000000	29.824536
2152.000000	29.697168
2153.000000	29.574774
2154.000000	29.465701
2155.000000	29.348798
2156.000000	29.224529
2157.000000	29.126618
2158.000000	29.030871
2159.000000	28.924351
2160.000000	28.845672
2161.000000	28.761723
2162.000000	28.689905
2163.000000	28.615060
2164.000000	28.551774
2165.000000	28.492322
2166.000000	28.441329
2167.000000	28.392443
2168.000000	28.349789
2169.000000	28.319939
2170.000000	28.286836
2171.000000	28.269615
2172.000000	28.242091
2173.000000	28.222070
2174.000000	28.220733
2175.000000	28.215949
2176.000000	28.214582
2177.000000	28.227317
2178.000000	28.233087
2179.000000	28.241127
2180.000000	28.257861
2181.000000	28.281891
2182.000000	28.299550
2183.000000	28.324187
2184.000000	28.346830
2185.000000	28.367508
2186.000000	28.392907
2187.000000	28.420200
2188.000000	28.441079
2189.000000	28.472645
2190.000000	28.491458
2191.000000	28.511814
2192.000000	28.531744
2193.000000	28.564541
2194.000000	28.597991
2195.000000	28.624461
2196.000000	28.662688
2197.000000	28.703841
2198.000000	28.729095
2199.000000	28.780549
2200.000000	28.824414
2201.000000	28.858736
2202.000000	28.910896
2203.000000	28.968127
2204.000000	29.002788
2205.000000	29.063649
2206.000000	29.116801
2207.000000	29.177018
2208.000000	29.244648
2209.000000	29.309980
2210.000000	29.381212
2211.000000	29.452300
2212.000000	29.532051
2213.000000	29.621694
2214.000000	29.696181
2215.000000	29.785038
2216.000000	29.869775
2217.000000	29.959490
2218.000000	30.049029
2219.000000	30.130374
2220.000000	30.224552
2221.000000	30.304294
2222.000000	30.391150
2223.000000	30.479920
2224.000000	30.547920
2225.000000	30.623738
2226.000000	30.679419
2227.000000	30.730462
2228.000000	30.783789
2229.000000	30.832173
2230.000000	30.864543
2231.000000	30.905774
2232.000000	30.916758
2233.000000	30.918719
2234.000000	30.933579
2235.000000	30.918669
2236.000000	30.902131
2237.000000	30.885141
2238.000000	30.822948
2239.000000	30.778493
2240.000000	30.714077
2241.000000	30.643875
2242.000000	30.571932
2243.000000	30.457988
2244.000000	30.370037
2245.000000	30.248191
2246.000000	30.108096
2247.000000	29.987506
2248.000000	29.825274
2249.000000	29.656091
2250.000000	29.503401
2251.000000	29.347504
2252.000000	29.174457
2253.000000	28.984400
2254.000000	28.817092
2255.000000	28.641006
2256.000000	28.488474
2257.000000	28.309142
2258.000000	28.152071
2259.000000	27.995493
2260.000000	27.860422
2261.000000	27.715308
2262.000000	27.595130
2263.000000	27.491180
2264.000000	27.386128
2265.000000	27.293749
2266.000000	27.207960
2267.000000	27.136262
2268.000000	27.080845
2269.000000	27.029703
2270.000000	26.984750
2271.000000	26.940087
2272.000000	26.904944
2273.000000	26.877530
2274.000000	26.827683
2275.000000	26.805978
2276.000000	26.760005
2277.000000	26.733927
2278.000000	26.692702
2279.000000	26.661960
2280.000000	26.612334
2281.000000	26.563995
2282.000000	26.516234
2283.000000	26.472235
2284.000000	26.426482
2285.000000	26.387898
2286.000000	26.339533
2287.000000	26.309836
2288.000000	26.278825
2289.000000	26.239375
2290.000000	26.199039
2291.000000	26.182821
2292.000000	26.167093
2293.000000	26.136143
2294.000000	26.119063
2295.000000	26.106832
2296.000000	26.095688
2297.000000	26.095666
2298.000000	26.098011
2299.000000	26.100354
2300.000000	26.104339
2301.000000	26.121236
2302.000000	26.147030
2303.000000	26.166756
2304.000000	26.195466
2305.000000	26.225756
2306.000000	26.266826
2307.000000	26.310278
2308.000000	26.333960
2309.000000	26.379431
2310.000000	26.431881
2311.000000	26.473263
2312.000000	26.517186
2313.000000	26.551473
2314.000000	26.588423
2315.000000	26.617669
2316.000000	26.649528
2317.000000	26.673646
2318.000000	26.689280
2319.000000	26.698869
2320.000000	26.715033
2321.000000	26.709458
2322.000000	26.704159
2323.000000	26.694267
2324.000000	26.678177
2325.000000	26.663429
2326.000000	26.647691
2327.000000	26.634380
2328.000000	26.611274
2329.000000	26.597957
2330.000000	26.578019
2331.000000	26.566770
2332.000000	26.556509
2333.000000	26.551673
2334.000000	26.553134
2335.000000	26.549645
2336.000000	26.548965
2337.000000	26.556898
2338.000000	26.561916
2339.000000	26.574848
2340.000000	26.587405
2341.000000	26.607840
2342.000000	26.625632
2343.000000	26.640620
2344.000000	26.653888
2345.000000	26.681397
2346.000000	26.704543
2347.000000	26.733191
2348.000000	26.756357
2349.000000	26.782799
2350.000000	26.808198
2351.000000	26.830671
2352.000000	26.858035
2353.000000	26.877116
2354.000000	26.901665
2355.000000	26.927903
2356.000000	26.945256
2357.000000	26.968207
2358.000000	26.987080
2359.000000	27.008070
2360.000000	27.023830
2361.000000	27.031295
2362.000000	27.046068
2363.000000	27.063401
2364.000000	27.083825
2365.000000	27.089462
2366.000000	27.103898
2367.000000	27.123211
2368.000000	27.139757
2369.000000	27.152531
2370.000000	27.163144
2371.000000	27.185618
2372.000000	27.209820
2373.000000	27.229195
2374.000000	27.248234
2375.000000	27.271813
2376.000000	27.294267
2377.000000	27.314524
2378.000000	27.344553
2379.000000	27.369664
2380.000000	27.381489
2381.000000	27.394203
2382.000000	27.422272
2383.000000	27.434092
2384.000000	27.445625
2385.000000	27.454071
2386.000000	27.458501
2387.000000	27.464065
2388.000000	27.475644
2389.000000	27.479077
2390.000000	27.469834
2391.000000	27.468105
2392.000000	27.469440
2393.000000	27.458057
2394.000000	27.452647
2395.000000	27.443692
2396.000000	27.430896
2397.000000	27.418604
2398.000000	27.409674
2399.000000	27.395871
2400.000000	27.373498
2401.000000	27.344084
2402.000000	27.329628
2403.000000	27.319594
2404.000000	27.281345
2405.000000	27.259205
2406.000000	27.237853
2407.000000	27.198548
2408.000000	27.159344
2409.000000	27.117050
2410.000000	27.084821
2411.000000	27.051567
2412.000000	27.008046
2413.000000	26.961506
2414.000000	26.912924
2415.000000	26.855838
2416.000000	26.792117
2417.000000	26.730076
2418.000000	26.658709
2419.000000	26.577922
2420.000000	26.508136
2421.000000	26.429373
2422.000000	26.344678
2423.000000	26.257739
2424.000000	26.169340
2425.000000	26.088326
2426.000000	25.985065
2427.000000	25.881316
2428.000000	25.776420
2429.000000	25.671745
2430.000000	25.564792
2431.000000	25.462133
2432.000000	25.353286
2433.000000	25.236972
2434.000000	25.114939
2435.000000	25.004677
2436.000000	24.877399
2437.000000	24.759977
2438.000000	24.624837
2439.000000	24.492251
2440.000000	24.381111
2441.000000	24.267277
2442.000000	24.128279
2443.000000	24.005045
2444.000000	23.879159
2445.000000	23.735693
2446.000000	23.610391
2447.000000	23.486752
2448.000000	23.377693
2449.000000	23.255418
2450.000000	23.135608
2451.000000	23.005701
2452.000000	22.885506
2453.000000	22.767549
2454.000000	22.672700
2455.000000	22.566307
2456.000000	22.465121
2457.000000	22.366623
2458.000000	22.285392
2459.000000	22.175286
2460.000000	22.080361
2461.000000	21.996537
2462.000000	21.920406
2463.000000	21.863801
2464.000000	21.791880
2465.000000	21.721037
2466.000000	21.653931
2467.000000	21.610641
2468.000000	21.558069
2469.000000	21.499981
2470.000000	21.419379
2471.000000	21.376757
2472.000000	21.356086
2473.000000	21.317311
2474.000000	21.262160
2475.000000	21.214480
2476.000000	21.208443
2477.000000	21.123931
2478.000000	21.101098
2479.000000	21.070586
2480.000000	21.087323
2481.000000	21.074502
2482.000000	21.056883
2483.000000	20.992853
2484.000000	21.004367
2485.000000	21.001737
2486.000000	21.022406
2487.000000	20.974336
2488.000000	20.980577
2489.000000	20.954633
2490.000000	21.006631
2491.000000	21.011840
2492.000000	20.984174
2493.000000	20.972052
2494.000000	21.006546
2495.000000	21.068535
2496.000000	21.081654
2497.000000	21.094773
2498.000000	21.104043
2499.000000	21.146781
2500.000000	21.074575
