PE UV       SUBTECH     SPECTRUM    ASCII       PEDS        4.00        
   -1
INBUCR0127-3.Sample.ASC
24/04/29
11:41:18.00
24/04/29
11:41:18.00
Vinicio Soto Monge
C. resplendens
250,000000
1
Lambda 1050
1050L1511233
PerkinElmer UV WinLab 6.3.2.0749 / 2.02.05 Lambda 900 UV/VIS/NIR, Aug  7 2015 09:38:08

0
0
3350/servo 860,8/2
0
0
UV/VIS
1
1
1
DoubleDePol,CommonBeamDepol,RBeamAtt,SBeamAtt,60mm sphere, WB InGaAs Detector
0
0
0
0
Program
Program
3350/servo 860,8/2
3350/0,2 860,8/0,2
3350/0,2 860,8/0,2
0
15.00
 
 
 
0
 
860,8
319,2
860,8
Front
100
on
S:100 R:100
0
0
0
0
 
0
 
 
 
0
 
 
0
0
0
0
0
 
 
 
 
0
0


0
0
#HDR
-1
-1
#GR
nm
%R
1.0
0.0
2500,000000
-1,000000
2251
8
88,075900
5,824900
#DATA
250.000000	6.734900
251.000000	6.715433
252.000000	6.711400
253.000000	6.668867
254.000000	6.677700
255.000000	6.668033
256.000000	6.645933
257.000000	6.621033
258.000000	6.607500
259.000000	6.572067
260.000000	6.567100
261.000000	6.531967
262.000000	6.494967
263.000000	6.419367
264.000000	6.429800
265.000000	6.373100
266.000000	6.369867
267.000000	6.367133
268.000000	6.316833
269.000000	6.309333
270.000000	6.308600
271.000000	6.267233
272.000000	6.275500
273.000000	6.236667
274.000000	6.249633
275.000000	6.242833
276.000000	6.231000
277.000000	6.224333
278.000000	6.222967
279.000000	6.195300
280.000000	6.193367
281.000000	6.185300
282.000000	6.176000
283.000000	6.183733
284.000000	6.146600
285.000000	6.154033
286.000000	6.153633
287.000000	6.134167
288.000000	6.127500
289.000000	6.126500
290.000000	6.141533
291.000000	6.146667
292.000000	6.122267
293.000000	6.138567
294.000000	6.121167
295.000000	6.123500
296.000000	6.087067
297.000000	6.132933
298.000000	6.146133
299.000000	6.093733
300.000000	6.099967
301.000000	6.107700
302.000000	6.135133
303.000000	6.128600
304.000000	6.104567
305.000000	6.116567
306.000000	6.122433
307.000000	6.091367
308.000000	6.122300
309.000000	6.093533
310.000000	6.100600
311.000000	6.094033
312.000000	6.087733
313.000000	6.119600
314.000000	6.118233
315.000000	6.087900
316.000000	6.151067
317.000000	6.859433
318.000000	6.929633
319.000000	7.103467
320.000000	6.662933
321.000000	6.601433
322.000000	6.577367
323.000000	6.736167
324.000000	6.516100
325.000000	6.355167
326.000000	6.482167
327.000000	6.438500
328.000000	6.373767
329.000000	6.266133
330.000000	6.413933
331.000000	6.298433
332.000000	6.289500
333.000000	6.298367
334.000000	6.251000
335.000000	6.322233
336.000000	6.366467
337.000000	6.260733
338.000000	6.286633
339.000000	6.250100
340.000000	6.377400
341.000000	6.375967
342.000000	6.250067
343.000000	6.178567
344.000000	6.235300
345.000000	6.161233
346.000000	6.322400
347.000000	6.303800
348.000000	6.258400
349.000000	6.212033
350.000000	6.253967
351.000000	6.280167
352.000000	6.266733
353.000000	6.245967
354.000000	6.213900
355.000000	6.216567
356.000000	6.281100
357.000000	6.221700
358.000000	6.265600
359.000000	6.258667
360.000000	6.266933
361.000000	6.209667
362.000000	6.237300
363.000000	6.261100
364.000000	6.298533
365.000000	6.285967
366.000000	6.371400
367.000000	6.290467
368.000000	6.314567
369.000000	6.261300
370.000000	6.197400
371.000000	6.188867
372.000000	6.191667
373.000000	6.149633
374.000000	6.153733
375.000000	6.206867
376.000000	6.389233
377.000000	6.404133
378.000000	6.422600
379.000000	6.453200
380.000000	6.459333
381.000000	6.467400
382.000000	6.495500
383.000000	6.527000
384.000000	6.547500
385.000000	6.568733
386.000000	6.593467
387.000000	6.623333
388.000000	6.658333
389.000000	6.694933
390.000000	6.735900
391.000000	6.772100
392.000000	6.817167
393.000000	6.865033
394.000000	6.922667
395.000000	6.974100
396.000000	7.026233
397.000000	7.100467
398.000000	7.174400
399.000000	7.257933
400.000000	7.353200
401.000000	7.454867
402.000000	7.570633
403.000000	7.697567
404.000000	7.822000
405.000000	7.967867
406.000000	8.137067
407.000000	8.313367
408.000000	8.506100
409.000000	8.715700
410.000000	8.941567
411.000000	9.191167
412.000000	9.451700
413.000000	9.734400
414.000000	10.039233
415.000000	10.355333
416.000000	10.681400
417.000000	11.028633
418.000000	11.379633
419.000000	11.742467
420.000000	12.128700
421.000000	12.528033
422.000000	12.939200
423.000000	13.356333
424.000000	13.782700
425.000000	14.204200
426.000000	14.611467
427.000000	15.026667
428.000000	15.440633
429.000000	15.862533
430.000000	16.279500
431.000000	16.686733
432.000000	17.095400
433.000000	17.487233
434.000000	17.875767
435.000000	18.262133
436.000000	18.637767
437.000000	18.994633
438.000000	19.359000
439.000000	19.705900
440.000000	20.038133
441.000000	20.376900
442.000000	20.698967
443.000000	21.025300
444.000000	21.338200
445.000000	21.636133
446.000000	21.911967
447.000000	22.185100
448.000000	22.450867
449.000000	22.715967
450.000000	22.988833
451.000000	23.240033
452.000000	23.489500
453.000000	23.741567
454.000000	23.979367
455.000000	24.211667
456.000000	24.433367
457.000000	24.635467
458.000000	24.845900
459.000000	25.046033
460.000000	25.251567
461.000000	25.445967
462.000000	25.614167
463.000000	25.793367
464.000000	25.959600
465.000000	26.105933
466.000000	26.240467
467.000000	26.367733
468.000000	26.477400
469.000000	26.564700
470.000000	26.640400
471.000000	26.695000
472.000000	26.733933
473.000000	26.755500
474.000000	26.745967
475.000000	26.728100
476.000000	26.696867
477.000000	26.647400
478.000000	26.594733
479.000000	26.552100
480.000000	26.497100
481.000000	26.469967
482.000000	26.450733
483.000000	26.444967
484.000000	26.455567
485.000000	26.480667
486.000000	26.532500
487.000000	26.616533
488.000000	26.742867
489.000000	26.922067
490.000000	27.150767
491.000000	27.429333
492.000000	27.761233
493.000000	28.151733
494.000000	28.610600
495.000000	29.146300
496.000000	29.734800
497.000000	30.384067
498.000000	31.083933
499.000000	31.847000
500.000000	32.645867
501.000000	33.506633
502.000000	34.411867
503.000000	35.350800
504.000000	36.343833
505.000000	37.369633
506.000000	38.420700
507.000000	39.493333
508.000000	40.590967
509.000000	41.706167
510.000000	42.865867
511.000000	44.051733
512.000000	45.260567
513.000000	46.480833
514.000000	47.724700
515.000000	48.961133
516.000000	50.217233
517.000000	51.454100
518.000000	52.696867
519.000000	53.961867
520.000000	55.226667
521.000000	56.491833
522.000000	57.766467
523.000000	59.014967
524.000000	60.256500
525.000000	61.478000
526.000000	62.698100
527.000000	63.887000
528.000000	65.054200
529.000000	66.187600
530.000000	67.297900
531.000000	68.414667
532.000000	69.481833
533.000000	70.512367
534.000000	71.493833
535.000000	72.463867
536.000000	73.374800
537.000000	74.222167
538.000000	75.053833
539.000000	75.841267
540.000000	76.583700
541.000000	77.273267
542.000000	77.934567
543.000000	78.515767
544.000000	79.069133
545.000000	79.583400
546.000000	80.055333
547.000000	80.483000
548.000000	80.878967
549.000000	81.246200
550.000000	81.626800
551.000000	81.950733
552.000000	82.291967
553.000000	82.597167
554.000000	82.900967
555.000000	83.171600
556.000000	83.431300
557.000000	83.683733
558.000000	83.913100
559.000000	84.133300
560.000000	84.292600
561.000000	84.513900
562.000000	84.720667
563.000000	84.896467
564.000000	85.054700
565.000000	85.238600
566.000000	85.385200
567.000000	85.518767
568.000000	85.614267
569.000000	85.709267
570.000000	85.821900
571.000000	85.895167
572.000000	85.935567
573.000000	85.955533
574.000000	85.988667
575.000000	86.018833
576.000000	86.010100
577.000000	85.974467
578.000000	85.938833
579.000000	85.862833
580.000000	85.805933
581.000000	85.721667
582.000000	85.581333
583.000000	85.441933
584.000000	85.342667
585.000000	85.153233
586.000000	84.943100
587.000000	84.739667
588.000000	84.544133
589.000000	84.265033
590.000000	84.026533
591.000000	83.729967
592.000000	83.371100
593.000000	83.027567
594.000000	82.649967
595.000000	82.248033
596.000000	81.781233
597.000000	81.310100
598.000000	80.794000
599.000000	80.191067
600.000000	79.614133
601.000000	78.949500
602.000000	78.259500
603.000000	77.506233
604.000000	76.736833
605.000000	75.937367
606.000000	75.120600
607.000000	74.248200
608.000000	73.362000
609.000000	72.429867
610.000000	71.472467
611.000000	70.499600
612.000000	69.471133
613.000000	68.408800
614.000000	67.330233
615.000000	66.233500
616.000000	65.053933
617.000000	63.875833
618.000000	62.679800
619.000000	61.521833
620.000000	60.327200
621.000000	59.124700
622.000000	57.969567
623.000000	56.892700
624.000000	55.888267
625.000000	54.980767
626.000000	54.225033
627.000000	53.606000
628.000000	53.087033
629.000000	52.717000
630.000000	52.510267
631.000000	52.423033
632.000000	52.486733
633.000000	52.694967
634.000000	53.018867
635.000000	53.438100
636.000000	53.983567
637.000000	54.631033
638.000000	55.371767
639.000000	56.125100
640.000000	56.933533
641.000000	57.854833
642.000000	58.769667
643.000000	59.688100
644.000000	60.627667
645.000000	61.541067
646.000000	62.455033
647.000000	63.313767
648.000000	64.186867
649.000000	64.996867
650.000000	65.775000
651.000000	66.517800
652.000000	67.185600
653.000000	67.859900
654.000000	68.403167
655.000000	68.924700
656.000000	69.436067
657.000000	69.895700
658.000000	70.297567
659.000000	70.659900
660.000000	71.050500
661.000000	71.390067
662.000000	71.675200
663.000000	71.955467
664.000000	72.252233
665.000000	72.522000
666.000000	72.733600
667.000000	72.914933
668.000000	73.072100
669.000000	73.239767
670.000000	73.370200
671.000000	73.467933
672.000000	73.557267
673.000000	73.648533
674.000000	73.653200
675.000000	73.639733
676.000000	73.702367
677.000000	73.733533
678.000000	73.739100
679.000000	73.726067
680.000000	73.743933
681.000000	73.738933
682.000000	73.762767
683.000000	73.775333
684.000000	73.777467
685.000000	73.820767
686.000000	73.822100
687.000000	73.817267
688.000000	73.847667
689.000000	73.873600
690.000000	73.896900
691.000000	73.962133
692.000000	74.052300
693.000000	74.065167
694.000000	74.122833
695.000000	74.244400
696.000000	74.374533
697.000000	74.509333
698.000000	74.678267
699.000000	74.906700
700.000000	75.134700
701.000000	75.372200
702.000000	75.664200
703.000000	76.004833
704.000000	76.379200
705.000000	76.751633
706.000000	77.107567
707.000000	77.455667
708.000000	77.801467
709.000000	78.184767
710.000000	78.618267
711.000000	78.989033
712.000000	79.343700
713.000000	79.709500
714.000000	80.061467
715.000000	80.410233
716.000000	80.745767
717.000000	81.016067
718.000000	81.322033
719.000000	81.589567
720.000000	81.901600
721.000000	82.152967
722.000000	82.367900
723.000000	82.621933
724.000000	82.820000
725.000000	83.002467
726.000000	83.089800
727.000000	83.200333
728.000000	83.320300
729.000000	83.397567
730.000000	83.498333
731.000000	83.602000
732.000000	83.650433
733.000000	83.703000
734.000000	83.727900
735.000000	83.770767
736.000000	83.829033
737.000000	83.876833
738.000000	83.922800
739.000000	84.023467
740.000000	84.107633
741.000000	84.165100
742.000000	84.205333
743.000000	84.285833
744.000000	84.334000
745.000000	84.349700
746.000000	84.392667
747.000000	84.448300
748.000000	84.509733
749.000000	84.510233
750.000000	84.481767
751.000000	84.486600
752.000000	84.492600
753.000000	84.475500
754.000000	84.438367
755.000000	84.450867
756.000000	84.424633
757.000000	84.405200
758.000000	84.408833
759.000000	84.367767
760.000000	84.321200
761.000000	84.253700
762.000000	84.137333
763.000000	84.036767
764.000000	83.925800
765.000000	83.802333
766.000000	83.728633
767.000000	83.647767
768.000000	83.572767
769.000000	83.496300
770.000000	83.351967
771.000000	83.289000
772.000000	83.347233
773.000000	83.346767
774.000000	83.344900
775.000000	83.367433
776.000000	83.406400
777.000000	83.501733
778.000000	83.628567
779.000000	83.702967
780.000000	83.782800
781.000000	83.867733
782.000000	83.981567
783.000000	84.095467
784.000000	84.185333
785.000000	84.247633
786.000000	84.297833
787.000000	84.429167
788.000000	84.533500
789.000000	84.644567
790.000000	84.683233
791.000000	84.714800
792.000000	84.675000
793.000000	84.673600
794.000000	84.731600
795.000000	84.728700
796.000000	84.626767
797.000000	84.492700
798.000000	84.428200
799.000000	84.276300
800.000000	84.214433
801.000000	84.052067
802.000000	83.961700
803.000000	83.748467
804.000000	83.587767
805.000000	83.407167
806.000000	83.271533
807.000000	83.187633
808.000000	83.080667
809.000000	82.955133
810.000000	82.862633
811.000000	82.693133
812.000000	82.623900
813.000000	82.600267
814.000000	82.596867
815.000000	82.519767
816.000000	82.377800
817.000000	82.189367
818.000000	82.301500
819.000000	82.270567
820.000000	82.209133
821.000000	82.234867
822.000000	82.135600
823.000000	82.150133
824.000000	82.106667
825.000000	82.304133
826.000000	82.251367
827.000000	82.364067
828.000000	82.437067
829.000000	82.391433
830.000000	82.494333
831.000000	82.718033
832.000000	82.795233
833.000000	82.756267
834.000000	82.787467
835.000000	82.778500
836.000000	82.885733
837.000000	83.052167
838.000000	83.000533
839.000000	83.079600
840.000000	83.124867
841.000000	83.089267
842.000000	83.163867
843.000000	83.332300
844.000000	83.383533
845.000000	83.461633
846.000000	83.561800
847.000000	83.413033
848.000000	83.639033
849.000000	83.652800
850.000000	83.547400
851.000000	83.430967
852.000000	83.602800
853.000000	83.751033
854.000000	83.485667
855.000000	83.600200
856.000000	83.461200
857.000000	83.833133
858.000000	83.631511
859.000000	83.470161
860.000000	83.455532
861.000000	83.421428
862.000000	83.390934
863.000000	83.356663
864.000000	83.354137
865.000000	83.352003
866.000000	83.365903
867.000000	83.355908
868.000000	83.354725
869.000000	83.322884
870.000000	83.270146
871.000000	83.223201
872.000000	83.159490
873.000000	83.116535
874.000000	83.070077
875.000000	83.007325
876.000000	82.941643
877.000000	82.865667
878.000000	82.798025
879.000000	82.717549
880.000000	82.637329
881.000000	82.571109
882.000000	82.515840
883.000000	82.458676
884.000000	82.405932
885.000000	82.353607
886.000000	82.285065
887.000000	82.252819
888.000000	82.202798
889.000000	82.159809
890.000000	82.137954
891.000000	82.101988
892.000000	82.076928
893.000000	82.043456
894.000000	82.024338
895.000000	81.991603
896.000000	81.977068
897.000000	81.948771
898.000000	81.931623
899.000000	81.918544
900.000000	81.878420
901.000000	81.848905
902.000000	81.830209
903.000000	81.792363
904.000000	81.759886
905.000000	81.719776
906.000000	81.692048
907.000000	81.660267
908.000000	81.624416
909.000000	81.576155
910.000000	81.556566
911.000000	81.503515
912.000000	81.484376
913.000000	81.448448
914.000000	81.372829
915.000000	81.328468
916.000000	81.297909
917.000000	81.233911
918.000000	81.186344
919.000000	81.135110
920.000000	81.090953
921.000000	81.031027
922.000000	80.984939
923.000000	80.929492
924.000000	80.874072
925.000000	80.843142
926.000000	80.754385
927.000000	80.714623
928.000000	80.656843
929.000000	80.634335
930.000000	80.560835
931.000000	80.516969
932.000000	80.481268
933.000000	80.422668
934.000000	80.379164
935.000000	80.320618
936.000000	80.263339
937.000000	80.218138
938.000000	80.196675
939.000000	80.124306
940.000000	80.088034
941.000000	80.038194
942.000000	80.003009
943.000000	79.956045
944.000000	79.925918
945.000000	79.894689
946.000000	79.846905
947.000000	79.798960
948.000000	79.755991
949.000000	79.715802
950.000000	79.679322
951.000000	79.633135
952.000000	79.584069
953.000000	79.533260
954.000000	79.485150
955.000000	79.434566
956.000000	79.382354
957.000000	79.327233
958.000000	79.269001
959.000000	79.209241
960.000000	79.144796
961.000000	79.087037
962.000000	79.011305
963.000000	78.946790
964.000000	78.881511
965.000000	78.820082
966.000000	78.746990
967.000000	78.681874
968.000000	78.612293
969.000000	78.537881
970.000000	78.474520
971.000000	78.410531
972.000000	78.336938
973.000000	78.258948
974.000000	78.189322
975.000000	78.109428
976.000000	78.039720
977.000000	77.968576
978.000000	77.898951
979.000000	77.829396
980.000000	77.750787
981.000000	77.679355
982.000000	77.615540
983.000000	77.550480
984.000000	77.492141
985.000000	77.427292
986.000000	77.368149
987.000000	77.327715
988.000000	77.282190
989.000000	77.229666
990.000000	77.187054
991.000000	77.143595
992.000000	77.110990
993.000000	77.072400
994.000000	77.037037
995.000000	77.012555
996.000000	76.984793
997.000000	76.952061
998.000000	76.918668
999.000000	76.902168
1000.000000	76.881748
1001.000000	76.861787
1002.000000	76.842831
1003.000000	76.816627
1004.000000	76.806384
1005.000000	76.795072
1006.000000	76.780562
1007.000000	76.760902
1008.000000	76.749491
1009.000000	76.738401
1010.000000	76.729916
1011.000000	76.722103
1012.000000	76.703492
1013.000000	76.691011
1014.000000	76.689705
1015.000000	76.682070
1016.000000	76.664550
1017.000000	76.647106
1018.000000	76.643401
1019.000000	76.641481
1020.000000	76.635615
1021.000000	76.633740
1022.000000	76.632509
1023.000000	76.637857
1024.000000	76.645893
1025.000000	76.636251
1026.000000	76.630121
1027.000000	76.645738
1028.000000	76.649000
1029.000000	76.642176
1030.000000	76.640441
1031.000000	76.643634
1032.000000	76.637638
1033.000000	76.635520
1034.000000	76.641658
1035.000000	76.634213
1036.000000	76.625887
1037.000000	76.626478
1038.000000	76.624426
1039.000000	76.618281
1040.000000	76.612643
1041.000000	76.613667
1042.000000	76.604245
1043.000000	76.600011
1044.000000	76.607755
1045.000000	76.611229
1046.000000	76.608159
1047.000000	76.612756
1048.000000	76.620877
1049.000000	76.623687
1050.000000	76.631847
1051.000000	76.641110
1052.000000	76.648764
1053.000000	76.667027
1054.000000	76.678602
1055.000000	76.685526
1056.000000	76.706151
1057.000000	76.728064
1058.000000	76.742815
1059.000000	76.756447
1060.000000	76.777735
1061.000000	76.798441
1062.000000	76.816907
1063.000000	76.837577
1064.000000	76.862246
1065.000000	76.880822
1066.000000	76.902734
1067.000000	76.935252
1068.000000	76.968468
1069.000000	77.002100
1070.000000	77.022457
1071.000000	77.049634
1072.000000	77.070228
1073.000000	77.105155
1074.000000	77.128474
1075.000000	77.151571
1076.000000	77.186706
1077.000000	77.197029
1078.000000	77.221008
1079.000000	77.258297
1080.000000	77.276379
1081.000000	77.297763
1082.000000	77.323201
1083.000000	77.340797
1084.000000	77.366339
1085.000000	77.388644
1086.000000	77.408081
1087.000000	77.427718
1088.000000	77.443796
1089.000000	77.467689
1090.000000	77.476585
1091.000000	77.488929
1092.000000	77.497549
1093.000000	77.512150
1094.000000	77.532785
1095.000000	77.541593
1096.000000	77.550387
1097.000000	77.559637
1098.000000	77.567366
1099.000000	77.580291
1100.000000	77.584802
1101.000000	77.594201
1102.000000	77.601341
1103.000000	77.602280
1104.000000	77.604108
1105.000000	77.603683
1106.000000	77.602784
1107.000000	77.614643
1108.000000	77.611572
1109.000000	77.615102
1110.000000	77.616023
1111.000000	77.609131
1112.000000	77.603450
1113.000000	77.604105
1114.000000	77.608364
1115.000000	77.603019
1116.000000	77.591152
1117.000000	77.594652
1118.000000	77.593617
1119.000000	77.577347
1120.000000	77.565983
1121.000000	77.554190
1122.000000	77.555857
1123.000000	77.527897
1124.000000	77.490592
1125.000000	77.447963
1126.000000	77.393167
1127.000000	77.326080
1128.000000	77.263012
1129.000000	77.182091
1130.000000	77.097196
1131.000000	76.992460
1132.000000	76.893668
1133.000000	76.809219
1134.000000	76.754619
1135.000000	76.657118
1136.000000	76.511655
1137.000000	76.372527
1138.000000	76.235988
1139.000000	76.126350
1140.000000	76.033950
1141.000000	75.934525
1142.000000	75.854434
1143.000000	75.769224
1144.000000	75.704731
1145.000000	75.668475
1146.000000	75.605882
1147.000000	75.539136
1148.000000	75.475359
1149.000000	75.394894
1150.000000	75.332567
1151.000000	75.261548
1152.000000	75.205091
1153.000000	75.110217
1154.000000	75.014576
1155.000000	74.898444
1156.000000	74.782061
1157.000000	74.649931
1158.000000	74.516441
1159.000000	74.381754
1160.000000	74.225065
1161.000000	74.076074
1162.000000	73.919851
1163.000000	73.758670
1164.000000	73.597511
1165.000000	73.443172
1166.000000	73.297551
1167.000000	73.146891
1168.000000	72.993996
1169.000000	72.870519
1170.000000	72.751456
1171.000000	72.638500
1172.000000	72.537016
1173.000000	72.442467
1174.000000	72.370789
1175.000000	72.292887
1176.000000	72.215063
1177.000000	72.161383
1178.000000	72.102927
1179.000000	72.034411
1180.000000	71.971906
1181.000000	71.904497
1182.000000	71.853357
1183.000000	71.802598
1184.000000	71.768264
1185.000000	71.753897
1186.000000	71.751584
1187.000000	71.753606
1188.000000	71.754246
1189.000000	71.799273
1190.000000	71.843325
1191.000000	71.917935
1192.000000	71.996755
1193.000000	72.077859
1194.000000	72.147239
1195.000000	72.235544
1196.000000	72.313339
1197.000000	72.388654
1198.000000	72.461270
1199.000000	72.531840
1200.000000	72.593200
1201.000000	72.650033
1202.000000	72.708411
1203.000000	72.766334
1204.000000	72.820914
1205.000000	72.868195
1206.000000	72.906709
1207.000000	72.969627
1208.000000	73.022748
1209.000000	73.063247
1210.000000	73.108636
1211.000000	73.149266
1212.000000	73.192155
1213.000000	73.229812
1214.000000	73.263545
1215.000000	73.297293
1216.000000	73.322428
1217.000000	73.341444
1218.000000	73.370310
1219.000000	73.401965
1220.000000	73.433946
1221.000000	73.459778
1222.000000	73.485394
1223.000000	73.510510
1224.000000	73.538638
1225.000000	73.569982
1226.000000	73.594994
1227.000000	73.633568
1228.000000	73.666940
1229.000000	73.702669
1230.000000	73.732805
1231.000000	73.768327
1232.000000	73.806850
1233.000000	73.839384
1234.000000	73.878446
1235.000000	73.912724
1236.000000	73.949288
1237.000000	73.990277
1238.000000	74.034164
1239.000000	74.077709
1240.000000	74.125179
1241.000000	74.170215
1242.000000	74.211590
1243.000000	74.269107
1244.000000	74.325510
1245.000000	74.377774
1246.000000	74.428930
1247.000000	74.477356
1248.000000	74.523384
1249.000000	74.566555
1250.000000	74.606503
1251.000000	74.648970
1252.000000	74.671816
1253.000000	74.688323
1254.000000	74.705372
1255.000000	74.721036
1256.000000	74.728113
1257.000000	74.726368
1258.000000	74.727213
1259.000000	74.725119
1260.000000	74.716767
1261.000000	74.713641
1262.000000	74.716793
1263.000000	74.719271
1264.000000	74.719125
1265.000000	74.716788
1266.000000	74.720793
1267.000000	74.719320
1268.000000	74.716332
1269.000000	74.716799
1270.000000	74.705679
1271.000000	74.705069
1272.000000	74.699504
1273.000000	74.700115
1274.000000	74.699973
1275.000000	74.705744
1276.000000	74.710233
1277.000000	74.718319
1278.000000	74.735043
1279.000000	74.751104
1280.000000	74.771615
1281.000000	74.803390
1282.000000	74.833816
1283.000000	74.860081
1284.000000	74.889945
1285.000000	74.912156
1286.000000	74.935085
1287.000000	74.972321
1288.000000	75.004209
1289.000000	75.024170
1290.000000	75.038904
1291.000000	75.055839
1292.000000	75.072188
1293.000000	75.076003
1294.000000	75.078053
1295.000000	75.081753
1296.000000	75.087807
1297.000000	75.089549
1298.000000	75.083365
1299.000000	75.079336
1300.000000	75.076503
1301.000000	75.061785
1302.000000	75.037588
1303.000000	75.021462
1304.000000	75.005256
1305.000000	74.984304
1306.000000	74.958647
1307.000000	74.932116
1308.000000	74.901835
1309.000000	74.866198
1310.000000	74.833765
1311.000000	74.800841
1312.000000	74.762535
1313.000000	74.719593
1314.000000	74.672189
1315.000000	74.623000
1316.000000	74.576722
1317.000000	74.527261
1318.000000	74.473049
1319.000000	74.426523
1320.000000	74.374848
1321.000000	74.321437
1322.000000	74.266961
1323.000000	74.206109
1324.000000	74.149212
1325.000000	74.081428
1326.000000	74.017610
1327.000000	73.952270
1328.000000	73.880222
1329.000000	73.797645
1330.000000	73.713365
1331.000000	73.621502
1332.000000	73.525273
1333.000000	73.422375
1334.000000	73.315248
1335.000000	73.198057
1336.000000	73.087630
1337.000000	72.960710
1338.000000	72.813098
1339.000000	72.675746
1340.000000	72.532296
1341.000000	72.369111
1342.000000	72.187020
1343.000000	72.020416
1344.000000	71.858632
1345.000000	71.660758
1346.000000	71.441246
1347.000000	71.259320
1348.000000	71.050468
1349.000000	70.814573
1350.000000	70.593745
1351.000000	70.392518
1352.000000	70.189836
1353.000000	69.977242
1354.000000	69.856275
1355.000000	69.735910
1356.000000	69.587522
1357.000000	69.458155
1358.000000	69.374806
1359.000000	69.320398
1360.000000	69.230334
1361.000000	69.265613
1362.000000	69.229746
1363.000000	69.098712
1364.000000	68.969345
1365.000000	68.880659
1366.000000	68.754344
1367.000000	68.634299
1368.000000	68.547534
1369.000000	68.413135
1370.000000	68.244763
1371.000000	68.118369
1372.000000	67.961930
1373.000000	67.804949
1374.000000	67.621394
1375.000000	67.494298
1376.000000	67.374555
1377.000000	67.272132
1378.000000	67.159452
1379.000000	67.073157
1380.000000	66.969473
1381.000000	66.863111
1382.000000	66.713249
1383.000000	66.486404
1384.000000	66.228628
1385.000000	65.950461
1386.000000	65.594924
1387.000000	65.294922
1388.000000	65.007411
1389.000000	64.650669
1390.000000	64.271603
1391.000000	63.992034
1392.000000	63.719540
1393.000000	63.377370
1394.000000	63.078514
1395.000000	62.832056
1396.000000	62.501097
1397.000000	62.003696
1398.000000	61.583031
1399.000000	61.299486
1400.000000	61.031354
1401.000000	60.621509
1402.000000	60.058792
1403.000000	59.592588
1404.000000	59.178053
1405.000000	58.750190
1406.000000	58.308448
1407.000000	57.831810
1408.000000	57.411428
1409.000000	56.946556
1410.000000	56.471918
1411.000000	55.953679
1412.000000	55.472263
1413.000000	55.123712
1414.000000	54.772114
1415.000000	54.341451
1416.000000	53.901145
1417.000000	53.504238
1418.000000	53.222033
1419.000000	52.922379
1420.000000	52.602572
1421.000000	52.241167
1422.000000	51.912015
1423.000000	51.656847
1424.000000	51.391977
1425.000000	51.109836
1426.000000	50.847806
1427.000000	50.597163
1428.000000	50.394242
1429.000000	50.164179
1430.000000	49.947508
1431.000000	49.765038
1432.000000	49.598031
1433.000000	49.424533
1434.000000	49.227286
1435.000000	49.074814
1436.000000	48.897382
1437.000000	48.739691
1438.000000	48.627120
1439.000000	48.465657
1440.000000	48.327186
1441.000000	48.179058
1442.000000	48.066677
1443.000000	47.927285
1444.000000	47.806690
1445.000000	47.711856
1446.000000	47.619685
1447.000000	47.458282
1448.000000	47.314287
1449.000000	47.182848
1450.000000	47.100470
1451.000000	47.013064
1452.000000	46.884831
1453.000000	46.748855
1454.000000	46.614706
1455.000000	46.482167
1456.000000	46.374726
1457.000000	46.251171
1458.000000	46.111939
1459.000000	45.982079
1460.000000	45.865801
1461.000000	45.741160
1462.000000	45.627088
1463.000000	45.494254
1464.000000	45.377839
1465.000000	45.256098
1466.000000	45.147479
1467.000000	45.039872
1468.000000	44.917217
1469.000000	44.787705
1470.000000	44.691827
1471.000000	44.597921
1472.000000	44.489115
1473.000000	44.384550
1474.000000	44.262684
1475.000000	44.159561
1476.000000	44.068537
1477.000000	43.994857
1478.000000	43.922255
1479.000000	43.857613
1480.000000	43.799002
1481.000000	43.751879
1482.000000	43.694626
1483.000000	43.643110
1484.000000	43.593239
1485.000000	43.553177
1486.000000	43.523119
1487.000000	43.489711
1488.000000	43.454068
1489.000000	43.419826
1490.000000	43.387661
1491.000000	43.366268
1492.000000	43.340368
1493.000000	43.313182
1494.000000	43.307033
1495.000000	43.301504
1496.000000	43.311247
1497.000000	43.326063
1498.000000	43.343440
1499.000000	43.389159
1500.000000	43.429108
1501.000000	43.481472
1502.000000	43.540579
1503.000000	43.615323
1504.000000	43.695914
1505.000000	43.779648
1506.000000	43.867496
1507.000000	43.957893
1508.000000	44.056189
1509.000000	44.153179
1510.000000	44.246920
1511.000000	44.352113
1512.000000	44.456924
1513.000000	44.560769
1514.000000	44.661788
1515.000000	44.758817
1516.000000	44.857224
1517.000000	44.947465
1518.000000	45.047052
1519.000000	45.135008
1520.000000	45.224469
1521.000000	45.304677
1522.000000	45.400181
1523.000000	45.488191
1524.000000	45.572180
1525.000000	45.656363
1526.000000	45.745158
1527.000000	45.840327
1528.000000	45.916018
1529.000000	45.993549
1530.000000	46.075256
1531.000000	46.153229
1532.000000	46.232698
1533.000000	46.298072
1534.000000	46.368477
1535.000000	46.437387
1536.000000	46.495946
1537.000000	46.548999
1538.000000	46.598907
1539.000000	46.656983
1540.000000	46.710901
1541.000000	46.752792
1542.000000	46.802719
1543.000000	46.861563
1544.000000	46.916836
1545.000000	46.984464
1546.000000	47.063330
1547.000000	47.145587
1548.000000	47.231697
1549.000000	47.324252
1550.000000	47.432437
1551.000000	47.533060
1552.000000	47.624953
1553.000000	47.709220
1554.000000	47.792633
1555.000000	47.868443
1556.000000	47.929093
1557.000000	47.983181
1558.000000	48.020552
1559.000000	48.054117
1560.000000	48.085638
1561.000000	48.103495
1562.000000	48.104186
1563.000000	48.098303
1564.000000	48.086004
1565.000000	48.063183
1566.000000	48.038565
1567.000000	48.006392
1568.000000	47.980538
1569.000000	47.952694
1570.000000	47.926633
1571.000000	47.904608
1572.000000	47.885879
1573.000000	47.872177
1574.000000	47.869017
1575.000000	47.869581
1576.000000	47.870509
1577.000000	47.881339
1578.000000	47.897177
1579.000000	47.912140
1580.000000	47.929754
1581.000000	47.963216
1582.000000	48.001340
1583.000000	48.046393
1584.000000	48.086004
1585.000000	48.126340
1586.000000	48.173533
1587.000000	48.232981
1588.000000	48.294383
1589.000000	48.347689
1590.000000	48.399254
1591.000000	48.452110
1592.000000	48.510732
1593.000000	48.563236
1594.000000	48.623987
1595.000000	48.694390
1596.000000	48.771238
1597.000000	48.843195
1598.000000	48.919048
1599.000000	49.000460
1600.000000	49.085914
1601.000000	49.177073
1602.000000	49.267548
1603.000000	49.364283
1604.000000	49.457498
1605.000000	49.543205
1606.000000	49.637581
1607.000000	49.720200
1608.000000	49.799807
1609.000000	49.883957
1610.000000	49.956214
1611.000000	50.022561
1612.000000	50.083636
1613.000000	50.149238
1614.000000	50.201217
1615.000000	50.258428
1616.000000	50.310873
1617.000000	50.361506
1618.000000	50.398478
1619.000000	50.436667
1620.000000	50.486318
1621.000000	50.535237
1622.000000	50.584896
1623.000000	50.628845
1624.000000	50.675028
1625.000000	50.729968
1626.000000	50.778650
1627.000000	50.829140
1628.000000	50.880528
1629.000000	50.934966
1630.000000	50.988794
1631.000000	51.033367
1632.000000	51.073407
1633.000000	51.109648
1634.000000	51.149017
1635.000000	51.186655
1636.000000	51.216147
1637.000000	51.231276
1638.000000	51.242318
1639.000000	51.259248
1640.000000	51.275590
1641.000000	51.279834
1642.000000	51.285582
1643.000000	51.296944
1644.000000	51.306620
1645.000000	51.311165
1646.000000	51.314511
1647.000000	51.330122
1648.000000	51.325325
1649.000000	51.316787
1650.000000	51.298883
1651.000000	51.275269
1652.000000	51.229453
1653.000000	51.177249
1654.000000	51.126621
1655.000000	51.062697
1656.000000	50.976663
1657.000000	50.879790
1658.000000	50.789444
1659.000000	50.660917
1660.000000	50.531109
1661.000000	50.380991
1662.000000	50.220702
1663.000000	50.047772
1664.000000	49.877146
1665.000000	49.679575
1666.000000	49.477266
1667.000000	49.287254
1668.000000	49.074704
1669.000000	48.849432
1670.000000	48.623548
1671.000000	48.407875
1672.000000	48.200210
1673.000000	47.993432
1674.000000	47.793819
1675.000000	47.614055
1676.000000	47.417028
1677.000000	47.220831
1678.000000	47.004863
1679.000000	46.778310
1680.000000	46.537907
1681.000000	46.293491
1682.000000	46.009802
1683.000000	45.739039
1684.000000	45.489184
1685.000000	45.236217
1686.000000	45.052031
1687.000000	44.904013
1688.000000	44.834328
1689.000000	44.834855
1690.000000	44.887372
1691.000000	45.001270
1692.000000	45.143755
1693.000000	45.281128
1694.000000	45.429217
1695.000000	45.557084
1696.000000	45.650788
1697.000000	45.708978
1698.000000	45.720497
1699.000000	45.747014
1700.000000	45.751464
1701.000000	45.718372
1702.000000	45.719379
1703.000000	45.682126
1704.000000	45.628781
1705.000000	45.559397
1706.000000	45.480860
1707.000000	45.381988
1708.000000	45.255122
1709.000000	45.113019
1710.000000	44.953476
1711.000000	44.773951
1712.000000	44.573225
1713.000000	44.344352
1714.000000	44.101441
1715.000000	43.825027
1716.000000	43.535666
1717.000000	43.229048
1718.000000	42.922382
1719.000000	42.614055
1720.000000	42.335640
1721.000000	42.111518
1722.000000	41.927999
1723.000000	41.812532
1724.000000	41.756296
1725.000000	41.746134
1726.000000	41.785329
1727.000000	41.840681
1728.000000	41.916234
1729.000000	41.999052
1730.000000	42.081281
1731.000000	42.165323
1732.000000	42.254751
1733.000000	42.331923
1734.000000	42.404678
1735.000000	42.500875
1736.000000	42.576814
1737.000000	42.674508
1738.000000	42.772899
1739.000000	42.880161
1740.000000	42.992209
1741.000000	43.115236
1742.000000	43.237862
1743.000000	43.356310
1744.000000	43.468338
1745.000000	43.575332
1746.000000	43.665459
1747.000000	43.751539
1748.000000	43.828386
1749.000000	43.890348
1750.000000	43.937302
1751.000000	43.974981
1752.000000	43.994128
1753.000000	44.009486
1754.000000	44.017153
1755.000000	44.024109
1756.000000	44.021650
1757.000000	44.007012
1758.000000	44.000521
1759.000000	44.004674
1760.000000	43.997404
1761.000000	44.003474
1762.000000	44.012569
1763.000000	44.026746
1764.000000	44.048921
1765.000000	44.082371
1766.000000	44.111272
1767.000000	44.149365
1768.000000	44.194640
1769.000000	44.252330
1770.000000	44.301490
1771.000000	44.353735
1772.000000	44.403838
1773.000000	44.465591
1774.000000	44.522024
1775.000000	44.586502
1776.000000	44.650215
1777.000000	44.707776
1778.000000	44.754915
1779.000000	44.802926
1780.000000	44.838770
1781.000000	44.868518
1782.000000	44.885008
1783.000000	44.897498
1784.000000	44.911914
1785.000000	44.921631
1786.000000	44.922771
1787.000000	44.917264
1788.000000	44.903533
1789.000000	44.901500
1790.000000	44.899756
1791.000000	44.903432
1792.000000	44.920118
1793.000000	44.938991
1794.000000	44.956471
1795.000000	44.982692
1796.000000	45.014757
1797.000000	45.046406
1798.000000	45.072550
1799.000000	45.094342
1800.000000	45.121780
1801.000000	45.171706
1802.000000	45.202996
1803.000000	45.217730
1804.000000	45.225335
1805.000000	45.248491
1806.000000	45.289847
1807.000000	45.324255
1808.000000	45.338459
1809.000000	45.357432
1810.000000	45.391929
1811.000000	45.434670
1812.000000	45.472225
1813.000000	45.493401
1814.000000	45.508118
1815.000000	45.522901
1816.000000	45.542158
1817.000000	45.541248
1818.000000	45.553181
1819.000000	45.586229
1820.000000	45.611429
1821.000000	45.607122
1822.000000	45.575843
1823.000000	45.517975
1824.000000	45.480232
1825.000000	45.497557
1826.000000	45.532232
1827.000000	45.550107
1828.000000	45.573930
1829.000000	45.618981
1830.000000	45.659395
1831.000000	45.687168
1832.000000	45.702761
1833.000000	45.729931
1834.000000	45.788485
1835.000000	45.876002
1836.000000	45.961301
1837.000000	46.026219
1838.000000	46.071670
1839.000000	46.108601
1840.000000	46.147437
1841.000000	46.183700
1842.000000	46.203467
1843.000000	46.182792
1844.000000	46.167626
1845.000000	46.213709
1846.000000	46.286532
1847.000000	46.357470
1848.000000	46.383928
1849.000000	46.365985
1850.000000	46.316423
1851.000000	46.268783
1852.000000	46.239111
1853.000000	46.224773
1854.000000	46.231509
1855.000000	46.197274
1856.000000	46.141060
1857.000000	46.105366
1858.000000	46.074300
1859.000000	46.013740
1860.000000	45.913195
1861.000000	45.798218
1862.000000	45.672107
1863.000000	45.549158
1864.000000	45.450015
1865.000000	45.379276
1866.000000	45.316130
1867.000000	45.253269
1868.000000	45.167874
1869.000000	45.056602
1870.000000	44.870840
1871.000000	44.676236
1872.000000	44.448774
1873.000000	44.176488
1874.000000	43.880602
1875.000000	43.568344
1876.000000	43.241508
1877.000000	42.915640
1878.000000	42.589346
1879.000000	42.218888
1880.000000	41.845555
1881.000000	41.481099
1882.000000	41.072102
1883.000000	40.637864
1884.000000	40.149779
1885.000000	39.605946
1886.000000	39.040783
1887.000000	38.489906
1888.000000	37.936415
1889.000000	37.325545
1890.000000	36.706785
1891.000000	36.054610
1892.000000	35.328513
1893.000000	34.557385
1894.000000	33.858384
1895.000000	33.215816
1896.000000	32.604580
1897.000000	32.019426
1898.000000	31.341478
1899.000000	30.672970
1900.000000	29.963682
1901.000000	29.259498
1902.000000	28.629834
1903.000000	28.044531
1904.000000	27.486816
1905.000000	26.944851
1906.000000	26.341333
1907.000000	25.761204
1908.000000	25.286895
1909.000000	24.862437
1910.000000	24.526180
1911.000000	24.195351
1912.000000	23.857974
1913.000000	23.499512
1914.000000	23.115843
1915.000000	22.774848
1916.000000	22.491666
1917.000000	22.265206
1918.000000	22.040293
1919.000000	21.832752
1920.000000	21.638645
1921.000000	21.423486
1922.000000	21.211681
1923.000000	21.030187
1924.000000	20.876105
1925.000000	20.755349
1926.000000	20.637198
1927.000000	20.533808
1928.000000	20.435304
1929.000000	20.342001
1930.000000	20.260522
1931.000000	20.189227
1932.000000	20.130403
1933.000000	20.100045
1934.000000	20.065540
1935.000000	20.052348
1936.000000	20.042149
1937.000000	20.061775
1938.000000	20.081364
1939.000000	20.102206
1940.000000	20.131949
1941.000000	20.174946
1942.000000	20.211707
1943.000000	20.260547
1944.000000	20.327645
1945.000000	20.390369
1946.000000	20.450518
1947.000000	20.541470
1948.000000	20.618060
1949.000000	20.703615
1950.000000	20.802386
1951.000000	20.884559
1952.000000	20.988020
1953.000000	21.066659
1954.000000	21.193575
1955.000000	21.296824
1956.000000	21.399746
1957.000000	21.503611
1958.000000	21.596136
1959.000000	21.701771
1960.000000	21.805703
1961.000000	21.919931
1962.000000	22.022018
1963.000000	22.122338
1964.000000	22.230115
1965.000000	22.324168
1966.000000	22.412670
1967.000000	22.501916
1968.000000	22.615383
1969.000000	22.715322
1970.000000	22.800571
1971.000000	22.899373
1972.000000	22.999475
1973.000000	23.092876
1974.000000	23.195489
1975.000000	23.295553
1976.000000	23.402099
1977.000000	23.491102
1978.000000	23.616767
1979.000000	23.713200
1980.000000	23.820346
1981.000000	23.936410
1982.000000	24.050918
1983.000000	24.150357
1984.000000	24.273069
1985.000000	24.379779
1986.000000	24.482324
1987.000000	24.591358
1988.000000	24.697700
1989.000000	24.801501
1990.000000	24.903355
1991.000000	25.003898
1992.000000	25.098596
1993.000000	25.186995
1994.000000	25.284035
1995.000000	25.375135
1996.000000	25.462649
1997.000000	25.533676
1998.000000	25.604241
1999.000000	25.672255
2000.000000	25.743587
2001.000000	25.796193
2002.000000	25.852842
2003.000000	25.898539
2004.000000	25.940447
2005.000000	25.975978
2006.000000	26.016627
2007.000000	26.023940
2008.000000	26.024104
2009.000000	26.031453
2010.000000	26.025994
2011.000000	26.011079
2012.000000	25.995344
2013.000000	25.964365
2014.000000	25.937756
2015.000000	25.897562
2016.000000	25.847210
2017.000000	25.795028
2018.000000	25.741402
2019.000000	25.657768
2020.000000	25.584496
2021.000000	25.502097
2022.000000	25.424988
2023.000000	25.336751
2024.000000	25.227288
2025.000000	25.128924
2026.000000	25.024288
2027.000000	24.922369
2028.000000	24.804672
2029.000000	24.672630
2030.000000	24.543791
2031.000000	24.423229
2032.000000	24.277566
2033.000000	24.134970
2034.000000	23.975931
2035.000000	23.818143
2036.000000	23.653886
2037.000000	23.476639
2038.000000	23.309739
2039.000000	23.131433
2040.000000	22.949805
2041.000000	22.759082
2042.000000	22.560748
2043.000000	22.381594
2044.000000	22.199970
2045.000000	22.011665
2046.000000	21.845729
2047.000000	21.681207
2048.000000	21.537330
2049.000000	21.404712
2050.000000	21.288139
2051.000000	21.193992
2052.000000	21.138465
2053.000000	21.102584
2054.000000	21.086881
2055.000000	21.093000
2056.000000	21.122434
2057.000000	21.171494
2058.000000	21.234355
2059.000000	21.321961
2060.000000	21.433558
2061.000000	21.551809
2062.000000	21.667900
2063.000000	21.801085
2064.000000	21.934254
2065.000000	22.068281
2066.000000	22.204238
2067.000000	22.336113
2068.000000	22.468906
2069.000000	22.607036
2070.000000	22.736405
2071.000000	22.856549
2072.000000	22.968300
2073.000000	23.076080
2074.000000	23.179484
2075.000000	23.275484
2076.000000	23.362307
2077.000000	23.437842
2078.000000	23.501870
2079.000000	23.556515
2080.000000	23.611130
2081.000000	23.642712
2082.000000	23.670184
2083.000000	23.696974
2084.000000	23.705836
2085.000000	23.705966
2086.000000	23.701383
2087.000000	23.692589
2088.000000	23.675276
2089.000000	23.651872
2090.000000	23.635065
2091.000000	23.606110
2092.000000	23.573180
2093.000000	23.549479
2094.000000	23.521960
2095.000000	23.499650
2096.000000	23.480744
2097.000000	23.460315
2098.000000	23.452019
2099.000000	23.444100
2100.000000	23.435418
2101.000000	23.439044
2102.000000	23.440315
2103.000000	23.442592
2104.000000	23.447230
2105.000000	23.442739
2106.000000	23.440076
2107.000000	23.443766
2108.000000	23.444716
2109.000000	23.445093
2110.000000	23.443426
2111.000000	23.430309
2112.000000	23.419628
2113.000000	23.407297
2114.000000	23.398439
2115.000000	23.387277
2116.000000	23.364789
2117.000000	23.338941
2118.000000	23.309763
2119.000000	23.279063
2120.000000	23.239350
2121.000000	23.196612
2122.000000	23.160890
2123.000000	23.104168
2124.000000	23.046970
2125.000000	22.995550
2126.000000	22.936309
2127.000000	22.877163
2128.000000	22.808725
2129.000000	22.726358
2130.000000	22.648083
2131.000000	22.570544
2132.000000	22.494772
2133.000000	22.402941
2134.000000	22.303030
2135.000000	22.205434
2136.000000	22.110638
2137.000000	21.998482
2138.000000	21.892301
2139.000000	21.784611
2140.000000	21.668891
2141.000000	21.554806
2142.000000	21.427199
2143.000000	21.299318
2144.000000	21.175206
2145.000000	21.052328
2146.000000	20.924258
2147.000000	20.797009
2148.000000	20.676769
2149.000000	20.548903
2150.000000	20.422047
2151.000000	20.293140
2152.000000	20.178532
2153.000000	20.064430
2154.000000	19.943026
2155.000000	19.838339
2156.000000	19.733244
2157.000000	19.631477
2158.000000	19.550586
2159.000000	19.467927
2160.000000	19.381548
2161.000000	19.315051
2162.000000	19.253829
2163.000000	19.202338
2164.000000	19.157437
2165.000000	19.108127
2166.000000	19.057344
2167.000000	19.028872
2168.000000	18.997594
2169.000000	18.974840
2170.000000	18.956292
2171.000000	18.927675
2172.000000	18.914728
2173.000000	18.907052
2174.000000	18.899381
2175.000000	18.904030
2176.000000	18.911341
2177.000000	18.916355
2178.000000	18.921679
2179.000000	18.936531
2180.000000	18.971607
2181.000000	18.987549
2182.000000	19.002502
2183.000000	19.030369
2184.000000	19.049266
2185.000000	19.081309
2186.000000	19.106252
2187.000000	19.121708
2188.000000	19.155679
2189.000000	19.179870
2190.000000	19.197529
2191.000000	19.226100
2192.000000	19.243435
2193.000000	19.270824
2194.000000	19.308172
2195.000000	19.334859
2196.000000	19.368816
2197.000000	19.401516
2198.000000	19.439449
2199.000000	19.493460
2200.000000	19.530723
2201.000000	19.579289
2202.000000	19.630494
2203.000000	19.676254
2204.000000	19.725481
2205.000000	19.781106
2206.000000	19.837130
2207.000000	19.906674
2208.000000	19.966744
2209.000000	20.029016
2210.000000	20.100030
2211.000000	20.171389
2212.000000	20.245797
2213.000000	20.321511
2214.000000	20.403306
2215.000000	20.496017
2216.000000	20.582726
2217.000000	20.680622
2218.000000	20.763798
2219.000000	20.844858
2220.000000	20.939419
2221.000000	21.023552
2222.000000	21.100526
2223.000000	21.182262
2224.000000	21.255080
2225.000000	21.338167
2226.000000	21.405459
2227.000000	21.466423
2228.000000	21.515499
2229.000000	21.551620
2230.000000	21.597813
2231.000000	21.632403
2232.000000	21.642105
2233.000000	21.639327
2234.000000	21.657328
2235.000000	21.637806
2236.000000	21.613525
2237.000000	21.574068
2238.000000	21.544034
2239.000000	21.488404
2240.000000	21.419621
2241.000000	21.329115
2242.000000	21.234096
2243.000000	21.129063
2244.000000	21.032535
2245.000000	20.890502
2246.000000	20.749787
2247.000000	20.603896
2248.000000	20.445670
2249.000000	20.265288
2250.000000	20.104204
2251.000000	19.924799
2252.000000	19.744962
2253.000000	19.553458
2254.000000	19.377629
2255.000000	19.195077
2256.000000	19.031977
2257.000000	18.848782
2258.000000	18.681703
2259.000000	18.529597
2260.000000	18.393183
2261.000000	18.258906
2262.000000	18.131962
2263.000000	18.026882
2264.000000	17.931368
2265.000000	17.849443
2266.000000	17.773945
2267.000000	17.720732
2268.000000	17.660304
2269.000000	17.610419
2270.000000	17.574038
2271.000000	17.552670
2272.000000	17.521670
2273.000000	17.496060
2274.000000	17.471570
2275.000000	17.458170
2276.000000	17.428322
2277.000000	17.393633
2278.000000	17.372765
2279.000000	17.345020
2280.000000	17.331858
2281.000000	17.292751
2282.000000	17.244579
2283.000000	17.213061
2284.000000	17.174714
2285.000000	17.147813
2286.000000	17.116425
2287.000000	17.076079
2288.000000	17.049297
2289.000000	17.015069
2290.000000	16.988352
2291.000000	16.972689
2292.000000	16.931319
2293.000000	16.907737
2294.000000	16.894782
2295.000000	16.873614
2296.000000	16.868355
2297.000000	16.853157
2298.000000	16.839575
2299.000000	16.836304
2300.000000	16.851507
2301.000000	16.857876
2302.000000	16.859930
2303.000000	16.880533
2304.000000	16.896289
2305.000000	16.921493
2306.000000	16.961056
2307.000000	16.994482
2308.000000	17.029976
2309.000000	17.075788
2310.000000	17.118740
2311.000000	17.151604
2312.000000	17.186331
2313.000000	17.222111
2314.000000	17.257604
2315.000000	17.290363
2316.000000	17.313363
2317.000000	17.338680
2318.000000	17.348102
2319.000000	17.352878
2320.000000	17.353942
2321.000000	17.352692
2322.000000	17.350714
2323.000000	17.341108
2324.000000	17.316131
2325.000000	17.296439
2326.000000	17.273705
2327.000000	17.260876
2328.000000	17.241899
2329.000000	17.220977
2330.000000	17.211062
2331.000000	17.196766
2332.000000	17.181429
2333.000000	17.178971
2334.000000	17.175163
2335.000000	17.182164
2336.000000	17.194044
2337.000000	17.204296
2338.000000	17.209153
2339.000000	17.227633
2340.000000	17.255244
2341.000000	17.282815
2342.000000	17.307788
2343.000000	17.329312
2344.000000	17.353358
2345.000000	17.389360
2346.000000	17.425286
2347.000000	17.459051
2348.000000	17.493166
2349.000000	17.526218
2350.000000	17.555635
2351.000000	17.591793
2352.000000	17.621229
2353.000000	17.652114
2354.000000	17.689921
2355.000000	17.721585
2356.000000	17.743255
2357.000000	17.764770
2358.000000	17.789884
2359.000000	17.809910
2360.000000	17.833091
2361.000000	17.857027
2362.000000	17.865970
2363.000000	17.866040
2364.000000	17.888702
2365.000000	17.914151
2366.000000	17.925141
2367.000000	17.928550
2368.000000	17.942721
2369.000000	17.970361
2370.000000	17.988889
2371.000000	18.005403
2372.000000	18.023534
2373.000000	18.046128
2374.000000	18.064086
2375.000000	18.087046
2376.000000	18.121410
2377.000000	18.140102
2378.000000	18.167334
2379.000000	18.192870
2380.000000	18.214027
2381.000000	18.240957
2382.000000	18.257019
2383.000000	18.269865
2384.000000	18.282866
2385.000000	18.295650
2386.000000	18.309116
2387.000000	18.321165
2388.000000	18.327995
2389.000000	18.333810
2390.000000	18.335303
2391.000000	18.329537
2392.000000	18.326083
2393.000000	18.323484
2394.000000	18.312867
2395.000000	18.305352
2396.000000	18.298266
2397.000000	18.289734
2398.000000	18.269334
2399.000000	18.250966
2400.000000	18.240452
2401.000000	18.231836
2402.000000	18.222446
2403.000000	18.206587
2404.000000	18.186615
2405.000000	18.167558
2406.000000	18.144324
2407.000000	18.115636
2408.000000	18.077479
2409.000000	18.038403
2410.000000	18.000057
2411.000000	17.976142
2412.000000	17.937091
2413.000000	17.891047
2414.000000	17.841996
2415.000000	17.786453
2416.000000	17.728408
2417.000000	17.660610
2418.000000	17.596358
2419.000000	17.519705
2420.000000	17.441361
2421.000000	17.364782
2422.000000	17.288339
2423.000000	17.201031
2424.000000	17.112532
2425.000000	17.016733
2426.000000	16.926399
2427.000000	16.829020
2428.000000	16.724610
2429.000000	16.625693
2430.000000	16.528749
2431.000000	16.418927
2432.000000	16.315861
2433.000000	16.197666
2434.000000	16.075490
2435.000000	15.974409
2436.000000	15.863114
2437.000000	15.742900
2438.000000	15.630557
2439.000000	15.500048
2440.000000	15.371810
2441.000000	15.275652
2442.000000	15.153315
2443.000000	15.028551
2444.000000	14.930991
2445.000000	14.817119
2446.000000	14.689846
2447.000000	14.579231
2448.000000	14.465134
2449.000000	14.353835
2450.000000	14.265014
2451.000000	14.164957
2452.000000	14.056659
2453.000000	13.966610
2454.000000	13.864194
2455.000000	13.775419
2456.000000	13.695010
2457.000000	13.603482
2458.000000	13.536412
2459.000000	13.452590
2460.000000	13.392492
2461.000000	13.319033
2462.000000	13.246896
2463.000000	13.207872
2464.000000	13.143854
2465.000000	13.067165
2466.000000	13.016910
2467.000000	12.987457
2468.000000	12.927584
2469.000000	12.861742
2470.000000	12.827574
2471.000000	12.791780
2472.000000	12.752170
2473.000000	12.722785
2474.000000	12.667358
2475.000000	12.645137
2476.000000	12.609859
2477.000000	12.585307
2478.000000	12.538673
2479.000000	12.558239
2480.000000	12.510541
2481.000000	12.489494
2482.000000	12.480662
2483.000000	12.454481
2484.000000	12.494167
2485.000000	12.455741
2486.000000	12.463725
2487.000000	12.443141
2488.000000	12.468858
2489.000000	12.469816
2490.000000	12.503678
2491.000000	12.440409
2492.000000	12.453268
2493.000000	12.503500
2494.000000	12.479699
2495.000000	12.532961
2496.000000	12.513112
2497.000000	12.534836
2498.000000	12.551394
2499.000000	12.670196
2500.000000	12.668753
