PE UV       SUBTECH     SPECTRUM    ASCII       PEDS        4.00        
   -1
INBUCR0146-3.Sample.ASC
24/04/29
15:55:43.00
24/04/29
15:55:43.00
Vinicio Soto Monge
Chrysina sp.
250,000000
1
Lambda 1050
1050L1511233
PerkinElmer UV WinLab 6.3.2.0749 / 2.02.05 Lambda 900 UV/VIS/NIR, Aug  7 2015 09:38:08

0
0
3350/servo 860,8/2
0
0
UV/VIS
1
1
1
DoubleDePol,CommonBeamDepol,RBeamAtt,SBeamAtt,60mm sphere, WB InGaAs Detector
0
0
0
0
Program
Program
3350/servo 860,8/2
3350/0,2 860,8/0,2
3350/0,2 860,8/0,2
0
15.00
 
 
 
0
 
860,8
319,2
860,8
Front
100
on
S:100 R:100
0
0
0
0
 
0
 
 
 
0
 
 
0
0
0
0
0
 
 
 
 
0
0


0
0
#HDR
-1
-1
#GR
nm
%R
1.0
0.0
2500,000000
-1,000000
2251
8
99,256500
5,999300
#DATA
250.000000	6.934600
251.000000	6.893233
252.000000	6.890700
253.000000	6.898933
254.000000	6.859900
255.000000	6.850567
256.000000	6.782667
257.000000	6.762333
258.000000	6.760967
259.000000	6.737433
260.000000	6.685767
261.000000	6.660133
262.000000	6.640033
263.000000	6.620000
264.000000	6.594067
265.000000	6.546133
266.000000	6.503900
267.000000	6.487333
268.000000	6.450700
269.000000	6.428633
270.000000	6.418100
271.000000	6.378067
272.000000	6.389433
273.000000	6.329100
274.000000	6.366833
275.000000	6.348800
276.000000	6.296133
277.000000	6.336933
278.000000	6.282533
279.000000	6.286833
280.000000	6.247233
281.000000	6.264500
282.000000	6.259933
283.000000	6.230400
284.000000	6.259600
285.000000	6.248433
286.000000	6.238900
287.000000	6.203300
288.000000	6.243067
289.000000	6.217767
290.000000	6.235800
291.000000	6.243167
292.000000	6.202433
293.000000	6.261467
294.000000	6.251033
295.000000	6.202233
296.000000	6.171000
297.000000	6.197400
298.000000	6.180600
299.000000	6.152233
300.000000	6.196000
301.000000	6.173200
302.000000	6.183167
303.000000	6.160367
304.000000	6.210467
305.000000	6.179600
306.000000	6.139867
307.000000	6.165200
308.000000	6.164300
309.000000	6.158100
310.000000	6.161300
311.000000	6.155333
312.000000	6.109167
313.000000	6.122600
314.000000	6.118533
315.000000	6.160267
316.000000	6.268100
317.000000	7.212233
318.000000	6.776700
319.000000	7.213533
320.000000	7.082167
321.000000	6.651033
322.000000	6.521900
323.000000	6.636933
324.000000	6.856933
325.000000	6.759800
326.000000	6.496733
327.000000	6.453800
328.000000	6.608433
329.000000	6.380167
330.000000	6.501667
331.000000	6.470700
332.000000	6.378500
333.000000	6.412600
334.000000	6.368400
335.000000	6.483833
336.000000	6.433533
337.000000	6.500667
338.000000	6.341567
339.000000	6.462267
340.000000	6.314267
341.000000	6.299167
342.000000	6.202533
343.000000	6.313533
344.000000	6.239533
345.000000	6.326867
346.000000	6.224133
347.000000	6.354233
348.000000	6.191367
349.000000	6.190967
350.000000	6.272767
351.000000	6.255067
352.000000	6.331467
353.000000	6.351000
354.000000	6.396967
355.000000	6.353967
356.000000	6.458933
357.000000	6.439300
358.000000	6.504267
359.000000	6.490867
360.000000	6.562567
361.000000	6.490467
362.000000	6.449567
363.000000	6.537467
364.000000	6.604467
365.000000	6.601533
366.000000	6.637033
367.000000	6.700433
368.000000	6.613233
369.000000	6.672533
370.000000	6.627700
371.000000	6.604300
372.000000	6.598167
373.000000	6.669867
374.000000	6.636100
375.000000	6.725500
376.000000	7.120733
377.000000	7.392933
378.000000	7.510933
379.000000	7.635567
380.000000	7.757133
381.000000	7.886833
382.000000	8.045000
383.000000	8.193100
384.000000	8.349900
385.000000	8.513533
386.000000	8.696167
387.000000	8.898233
388.000000	9.102700
389.000000	9.312767
390.000000	9.526100
391.000000	9.757333
392.000000	9.999500
393.000000	10.228500
394.000000	10.479167
395.000000	10.722933
396.000000	10.981967
397.000000	11.245000
398.000000	11.512500
399.000000	11.761800
400.000000	12.010633
401.000000	12.268600
402.000000	12.530100
403.000000	12.796667
404.000000	13.056767
405.000000	13.308500
406.000000	13.578367
407.000000	13.835733
408.000000	14.078067
409.000000	14.324633
410.000000	14.562000
411.000000	14.803933
412.000000	15.047400
413.000000	15.278867
414.000000	15.500133
415.000000	15.726400
416.000000	15.942800
417.000000	16.156433
418.000000	16.356333
419.000000	16.551300
420.000000	16.733433
421.000000	16.906933
422.000000	17.061967
423.000000	17.213733
424.000000	17.353933
425.000000	17.491333
426.000000	17.629700
427.000000	17.726400
428.000000	17.805733
429.000000	17.894000
430.000000	17.963967
431.000000	18.023700
432.000000	18.075667
433.000000	18.102300
434.000000	18.118567
435.000000	18.140933
436.000000	18.154500
437.000000	18.163367
438.000000	18.175333
439.000000	18.185400
440.000000	18.198133
441.000000	18.217800
442.000000	18.239967
443.000000	18.271700
444.000000	18.328833
445.000000	18.403867
446.000000	18.481600
447.000000	18.590933
448.000000	18.733700
449.000000	18.902133
450.000000	19.110567
451.000000	19.346167
452.000000	19.593933
453.000000	19.883533
454.000000	20.181467
455.000000	20.491400
456.000000	20.833600
457.000000	21.187067
458.000000	21.562967
459.000000	21.949600
460.000000	22.323067
461.000000	22.718267
462.000000	23.111900
463.000000	23.488400
464.000000	23.853533
465.000000	24.201333
466.000000	24.540433
467.000000	24.855900
468.000000	25.155800
469.000000	25.444467
470.000000	25.723800
471.000000	25.996833
472.000000	26.258867
473.000000	26.527400
474.000000	26.793500
475.000000	27.049300
476.000000	27.311167
477.000000	27.586033
478.000000	27.877767
479.000000	28.200633
480.000000	28.550733
481.000000	28.925100
482.000000	29.316567
483.000000	29.721167
484.000000	30.155133
485.000000	30.599400
486.000000	31.083367
487.000000	31.582533
488.000000	32.108367
489.000000	32.654200
490.000000	33.193033
491.000000	33.766967
492.000000	34.368967
493.000000	34.961100
494.000000	35.574400
495.000000	36.195500
496.000000	36.795333
497.000000	37.369633
498.000000	37.966900
499.000000	38.552233
500.000000	39.136333
501.000000	39.741067
502.000000	40.325000
503.000000	40.901533
504.000000	41.495100
505.000000	42.086867
506.000000	42.673333
507.000000	43.266900
508.000000	43.830067
509.000000	44.426600
510.000000	45.023933
511.000000	45.614667
512.000000	46.225133
513.000000	46.821500
514.000000	47.409300
515.000000	48.005200
516.000000	48.604900
517.000000	49.194300
518.000000	49.786333
519.000000	50.365667
520.000000	50.937067
521.000000	51.500900
522.000000	52.062233
523.000000	52.597733
524.000000	53.169000
525.000000	53.717767
526.000000	54.261767
527.000000	54.806967
528.000000	55.316233
529.000000	55.807333
530.000000	56.309367
531.000000	56.794400
532.000000	57.244400
533.000000	57.701500
534.000000	58.147367
535.000000	58.575100
536.000000	59.006300
537.000000	59.388967
538.000000	59.771433
539.000000	60.136133
540.000000	60.473167
541.000000	60.828933
542.000000	61.167667
543.000000	61.480067
544.000000	61.798700
545.000000	62.111000
546.000000	62.410733
547.000000	62.690733
548.000000	62.957067
549.000000	63.187167
550.000000	63.395100
551.000000	63.587833
552.000000	63.787333
553.000000	63.957067
554.000000	64.138833
555.000000	64.259933
556.000000	64.449500
557.000000	64.555367
558.000000	64.609000
559.000000	64.656633
560.000000	64.720567
561.000000	64.776467
562.000000	64.803567
563.000000	64.848700
564.000000	64.863900
565.000000	64.886300
566.000000	64.928967
567.000000	64.883167
568.000000	64.836633
569.000000	64.821267
570.000000	64.739033
571.000000	64.636967
572.000000	64.551367
573.000000	64.420867
574.000000	64.303700
575.000000	64.146967
576.000000	63.999667
577.000000	63.826100
578.000000	63.623300
579.000000	63.400233
580.000000	63.165000
581.000000	62.896833
582.000000	62.685100
583.000000	62.424967
584.000000	62.180267
585.000000	61.924933
586.000000	61.690900
587.000000	61.434600
588.000000	61.213867
589.000000	60.963367
590.000000	60.660033
591.000000	60.411800
592.000000	60.113300
593.000000	59.829433
594.000000	59.537467
595.000000	59.240033
596.000000	58.964700
597.000000	58.658700
598.000000	58.355067
599.000000	58.036667
600.000000	57.713067
601.000000	57.388267
602.000000	57.049267
603.000000	56.764233
604.000000	56.442733
605.000000	56.179333
606.000000	55.921300
607.000000	55.720767
608.000000	55.534067
609.000000	55.385367
610.000000	55.293067
611.000000	55.255100
612.000000	55.254500
613.000000	55.262433
614.000000	55.339767
615.000000	55.444033
616.000000	55.579400
617.000000	55.719600
618.000000	55.892700
619.000000	56.091467
620.000000	56.283733
621.000000	56.501667
622.000000	56.721967
623.000000	56.926567
624.000000	57.149800
625.000000	57.379933
626.000000	57.610433
627.000000	57.853667
628.000000	58.053100
629.000000	58.291700
630.000000	58.529000
631.000000	58.783900
632.000000	59.060067
633.000000	59.346200
634.000000	59.643333
635.000000	59.944700
636.000000	60.279367
637.000000	60.640967
638.000000	61.000233
639.000000	61.416800
640.000000	61.808267
641.000000	62.203100
642.000000	62.652000
643.000000	63.091033
644.000000	63.541900
645.000000	63.955133
646.000000	64.374933
647.000000	64.781700
648.000000	65.181667
649.000000	65.540967
650.000000	65.880067
651.000000	66.192467
652.000000	66.495367
653.000000	66.742233
654.000000	66.958933
655.000000	67.183600
656.000000	67.322000
657.000000	67.478033
658.000000	67.618900
659.000000	67.732633
660.000000	67.814900
661.000000	67.924400
662.000000	68.052967
663.000000	68.201967
664.000000	68.292567
665.000000	68.461633
666.000000	68.638333
667.000000	68.812600
668.000000	69.012467
669.000000	69.257833
670.000000	69.552633
671.000000	69.835300
672.000000	70.192067
673.000000	70.575167
674.000000	70.928533
675.000000	71.350233
676.000000	71.759233
677.000000	72.186333
678.000000	72.645233
679.000000	73.085067
680.000000	73.557633
681.000000	74.006767
682.000000	74.449200
683.000000	74.870167
684.000000	75.300200
685.000000	75.675367
686.000000	76.035867
687.000000	76.404333
688.000000	76.782467
689.000000	77.083900
690.000000	77.376633
691.000000	77.667900
692.000000	77.957833
693.000000	78.248733
694.000000	78.526233
695.000000	78.842333
696.000000	79.147367
697.000000	79.472700
698.000000	79.828000
699.000000	80.212500
700.000000	80.602333
701.000000	81.051867
702.000000	81.524200
703.000000	82.061833
704.000000	82.592633
705.000000	83.150867
706.000000	83.730000
707.000000	84.306700
708.000000	84.965967
709.000000	85.631000
710.000000	86.327100
711.000000	87.008367
712.000000	87.666700
713.000000	88.346700
714.000000	88.991967
715.000000	89.664333
716.000000	90.343733
717.000000	90.934533
718.000000	91.524667
719.000000	92.088133
720.000000	92.648500
721.000000	93.146867
722.000000	93.616367
723.000000	94.156833
724.000000	94.676000
725.000000	95.057300
726.000000	95.384933
727.000000	95.724900
728.000000	96.096333
729.000000	96.409700
730.000000	96.665967
731.000000	96.952667
732.000000	97.239533
733.000000	97.448633
734.000000	97.657800
735.000000	97.826200
736.000000	97.993400
737.000000	98.186100
738.000000	98.374033
739.000000	98.512300
740.000000	98.606433
741.000000	98.706467
742.000000	98.845067
743.000000	98.956533
744.000000	99.073200
745.000000	99.190400
746.000000	99.265200
747.000000	99.355167
748.000000	99.394600
749.000000	99.421133
750.000000	99.530500
751.000000	99.615433
752.000000	99.628767
753.000000	99.661000
754.000000	99.705700
755.000000	99.757433
756.000000	99.740567
757.000000	99.712733
758.000000	99.824600
759.000000	99.881200
760.000000	99.874967
761.000000	99.878467
762.000000	99.905167
763.000000	99.920333
764.000000	99.940800
765.000000	100.002033
766.000000	99.957200
767.000000	99.959433
768.000000	100.009067
769.000000	100.045767
770.000000	100.104800
771.000000	100.117133
772.000000	100.110200
773.000000	100.025567
774.000000	99.967733
775.000000	100.006433
776.000000	100.030967
777.000000	100.036367
778.000000	100.015867
779.000000	100.015567
780.000000	100.029567
781.000000	100.023067
782.000000	100.028567
783.000000	99.918467
784.000000	99.911700
785.000000	99.892000
786.000000	99.806033
787.000000	99.790000
788.000000	99.812233
789.000000	99.689367
790.000000	99.503633
791.000000	99.395833
792.000000	99.385167
793.000000	99.293433
794.000000	99.105200
795.000000	99.002600
796.000000	98.831200
797.000000	98.646633
798.000000	98.406067
799.000000	98.214400
800.000000	98.050267
801.000000	97.818067
802.000000	97.613233
803.000000	97.284433
804.000000	97.133333
805.000000	96.780133
806.000000	96.405700
807.000000	96.053600
808.000000	95.757033
809.000000	95.474600
810.000000	95.323433
811.000000	94.891867
812.000000	94.425467
813.000000	93.885533
814.000000	93.649567
815.000000	93.255400
816.000000	92.856467
817.000000	92.436400
818.000000	91.939867
819.000000	91.447233
820.000000	90.949467
821.000000	90.596100
822.000000	90.204633
823.000000	89.775867
824.000000	89.285667
825.000000	88.770200
826.000000	88.348067
827.000000	87.764500
828.000000	87.391167
829.000000	86.866700
830.000000	86.421567
831.000000	85.949467
832.000000	85.542267
833.000000	85.199200
834.000000	84.838967
835.000000	84.430367
836.000000	83.964667
837.000000	83.599367
838.000000	83.212100
839.000000	82.924467
840.000000	82.655167
841.000000	82.441667
842.000000	81.871767
843.000000	81.760267
844.000000	81.415533
845.000000	81.219533
846.000000	80.822433
847.000000	80.518400
848.000000	80.445767
849.000000	80.185633
850.000000	80.207733
851.000000	79.809800
852.000000	79.622967
853.000000	79.361167
854.000000	79.352633
855.000000	79.074067
856.000000	79.144467
857.000000	78.947500
858.000000	79.055345
859.000000	77.872705
860.000000	77.738155
861.000000	77.615979
862.000000	77.505665
863.000000	77.378129
864.000000	77.273170
865.000000	77.146041
866.000000	77.052075
867.000000	76.939128
868.000000	76.838725
869.000000	76.711973
870.000000	76.598095
871.000000	76.542118
872.000000	76.647162
873.000000	76.850135
874.000000	77.121570
875.000000	77.339646
876.000000	77.580937
877.000000	77.789406
878.000000	77.998638
879.000000	78.182936
880.000000	78.354633
881.000000	78.496977
882.000000	78.551318
883.000000	78.642952
884.000000	78.703677
885.000000	78.762591
886.000000	78.802136
887.000000	78.867274
888.000000	78.916091
889.000000	79.000384
890.000000	79.024430
891.000000	79.047930
892.000000	79.098149
893.000000	79.129215
894.000000	79.143991
895.000000	79.156120
896.000000	79.195752
897.000000	79.196673
898.000000	79.217382
899.000000	79.205134
900.000000	79.197602
901.000000	79.177936
902.000000	79.191220
903.000000	79.169345
904.000000	79.181917
905.000000	79.132626
906.000000	79.111920
907.000000	79.077319
908.000000	79.045321
909.000000	79.020104
910.000000	78.992281
911.000000	78.964858
912.000000	78.928692
913.000000	78.877165
914.000000	78.815889
915.000000	78.777796
916.000000	78.744168
917.000000	78.691114
918.000000	78.664075
919.000000	78.598889
920.000000	78.552583
921.000000	78.513051
922.000000	78.444350
923.000000	78.406869
924.000000	78.329424
925.000000	78.271483
926.000000	78.237387
927.000000	78.178511
928.000000	78.122846
929.000000	78.042067
930.000000	78.004480
931.000000	77.938629
932.000000	77.882313
933.000000	77.814504
934.000000	77.763682
935.000000	77.689375
936.000000	77.635888
937.000000	77.580516
938.000000	77.503533
939.000000	77.456409
940.000000	77.390432
941.000000	77.328499
942.000000	77.250457
943.000000	77.201443
944.000000	77.154075
945.000000	77.099177
946.000000	77.034956
947.000000	76.967437
948.000000	76.895768
949.000000	76.835757
950.000000	76.778198
951.000000	76.723509
952.000000	76.672818
953.000000	76.602089
954.000000	76.543035
955.000000	76.488523
956.000000	76.431788
957.000000	76.358385
958.000000	76.309368
959.000000	76.244396
960.000000	76.195393
961.000000	76.134048
962.000000	76.079192
963.000000	76.025828
964.000000	75.980277
965.000000	75.920434
966.000000	75.863798
967.000000	75.813769
968.000000	75.764589
969.000000	75.724483
970.000000	75.683917
971.000000	75.628667
972.000000	75.597231
973.000000	75.568879
974.000000	75.525894
975.000000	75.492080
976.000000	75.452083
977.000000	75.429495
978.000000	75.409026
979.000000	75.383799
980.000000	75.353052
981.000000	75.323598
982.000000	75.307739
983.000000	75.284965
984.000000	75.254948
985.000000	75.240387
986.000000	75.220874
987.000000	75.206710
988.000000	75.190248
989.000000	75.183879
990.000000	75.168196
991.000000	75.150907
992.000000	75.150977
993.000000	75.151590
994.000000	75.141793
995.000000	75.124858
996.000000	75.126594
997.000000	75.128103
998.000000	75.128862
999.000000	75.120214
1000.000000	75.112127
1001.000000	75.110259
1002.000000	75.116757
1003.000000	75.097661
1004.000000	75.084249
1005.000000	75.075734
1006.000000	75.070755
1007.000000	75.068967
1008.000000	75.061021
1009.000000	75.061328
1010.000000	75.054950
1011.000000	75.050328
1012.000000	75.063046
1013.000000	75.062773
1014.000000	75.059289
1015.000000	75.069573
1016.000000	75.084063
1017.000000	75.090978
1018.000000	75.087171
1019.000000	75.109959
1020.000000	75.136046
1021.000000	75.148053
1022.000000	75.167236
1023.000000	75.191769
1024.000000	75.213177
1025.000000	75.239310
1026.000000	75.267619
1027.000000	75.292982
1028.000000	75.322625
1029.000000	75.350578
1030.000000	75.380558
1031.000000	75.408738
1032.000000	75.441972
1033.000000	75.481304
1034.000000	75.520181
1035.000000	75.550277
1036.000000	75.582488
1037.000000	75.607444
1038.000000	75.633431
1039.000000	75.665845
1040.000000	75.697645
1041.000000	75.735732
1042.000000	75.764458
1043.000000	75.791083
1044.000000	75.825654
1045.000000	75.855540
1046.000000	75.888469
1047.000000	75.912066
1048.000000	75.938813
1049.000000	75.975464
1050.000000	76.005978
1051.000000	76.037679
1052.000000	76.071295
1053.000000	76.105011
1054.000000	76.135179
1055.000000	76.166127
1056.000000	76.206890
1057.000000	76.245554
1058.000000	76.278319
1059.000000	76.310748
1060.000000	76.348516
1061.000000	76.386287
1062.000000	76.428435
1063.000000	76.455165
1064.000000	76.493794
1065.000000	76.525481
1066.000000	76.565857
1067.000000	76.605788
1068.000000	76.642121
1069.000000	76.681384
1070.000000	76.722384
1071.000000	76.757692
1072.000000	76.795142
1073.000000	76.839548
1074.000000	76.888560
1075.000000	76.931098
1076.000000	76.965712
1077.000000	77.001188
1078.000000	77.039016
1079.000000	77.084750
1080.000000	77.130600
1081.000000	77.161936
1082.000000	77.197444
1083.000000	77.234162
1084.000000	77.270642
1085.000000	77.310703
1086.000000	77.351939
1087.000000	77.382351
1088.000000	77.423359
1089.000000	77.461238
1090.000000	77.488917
1091.000000	77.524698
1092.000000	77.556366
1093.000000	77.583675
1094.000000	77.618809
1095.000000	77.653854
1096.000000	77.679502
1097.000000	77.710400
1098.000000	77.746136
1099.000000	77.765887
1100.000000	77.787548
1101.000000	77.826388
1102.000000	77.842170
1103.000000	77.874377
1104.000000	77.884811
1105.000000	77.906883
1106.000000	77.935517
1107.000000	77.956724
1108.000000	77.985168
1109.000000	78.010688
1110.000000	78.024271
1111.000000	78.040490
1112.000000	78.063590
1113.000000	78.079664
1114.000000	78.102073
1115.000000	78.117852
1116.000000	78.137363
1117.000000	78.155435
1118.000000	78.168256
1119.000000	78.188260
1120.000000	78.203979
1121.000000	78.206735
1122.000000	78.216127
1123.000000	78.229718
1124.000000	78.211671
1125.000000	78.186459
1126.000000	78.155608
1127.000000	78.106097
1128.000000	78.075813
1129.000000	78.027439
1130.000000	77.980281
1131.000000	77.888026
1132.000000	77.820765
1133.000000	77.743101
1134.000000	77.716781
1135.000000	77.646651
1136.000000	77.523693
1137.000000	77.421779
1138.000000	77.318548
1139.000000	77.222538
1140.000000	77.137310
1141.000000	77.071220
1142.000000	76.997983
1143.000000	76.934665
1144.000000	76.879450
1145.000000	76.842612
1146.000000	76.801185
1147.000000	76.761103
1148.000000	76.705182
1149.000000	76.653015
1150.000000	76.596539
1151.000000	76.540687
1152.000000	76.477371
1153.000000	76.415956
1154.000000	76.350282
1155.000000	76.252315
1156.000000	76.147105
1157.000000	76.040791
1158.000000	75.921985
1159.000000	75.795888
1160.000000	75.657388
1161.000000	75.540061
1162.000000	75.407754
1163.000000	75.260220
1164.000000	75.128385
1165.000000	74.979205
1166.000000	74.851528
1167.000000	74.711473
1168.000000	74.601520
1169.000000	74.479672
1170.000000	74.370019
1171.000000	74.283938
1172.000000	74.200642
1173.000000	74.120142
1174.000000	74.065436
1175.000000	73.998812
1176.000000	73.940290
1177.000000	73.889804
1178.000000	73.827513
1179.000000	73.769553
1180.000000	73.719082
1181.000000	73.659661
1182.000000	73.615744
1183.000000	73.574267
1184.000000	73.539693
1185.000000	73.513880
1186.000000	73.508565
1187.000000	73.513309
1188.000000	73.519717
1189.000000	73.561652
1190.000000	73.608601
1191.000000	73.675414
1192.000000	73.752440
1193.000000	73.828665
1194.000000	73.912684
1195.000000	73.998466
1196.000000	74.084726
1197.000000	74.160050
1198.000000	74.245878
1199.000000	74.307014
1200.000000	74.377734
1201.000000	74.439034
1202.000000	74.504541
1203.000000	74.564859
1204.000000	74.633146
1205.000000	74.687875
1206.000000	74.738952
1207.000000	74.787622
1208.000000	74.856334
1209.000000	74.915110
1210.000000	74.962309
1211.000000	75.017018
1212.000000	75.073261
1213.000000	75.126375
1214.000000	75.181585
1215.000000	75.228409
1216.000000	75.269290
1217.000000	75.312272
1218.000000	75.364021
1219.000000	75.412306
1220.000000	75.458691
1221.000000	75.507017
1222.000000	75.554628
1223.000000	75.613839
1224.000000	75.665363
1225.000000	75.715050
1226.000000	75.769141
1227.000000	75.823589
1228.000000	75.868808
1229.000000	75.927278
1230.000000	75.977907
1231.000000	76.037144
1232.000000	76.089772
1233.000000	76.143735
1234.000000	76.195907
1235.000000	76.244387
1236.000000	76.303445
1237.000000	76.355680
1238.000000	76.409039
1239.000000	76.460671
1240.000000	76.523265
1241.000000	76.581355
1242.000000	76.649333
1243.000000	76.708839
1244.000000	76.769052
1245.000000	76.830401
1246.000000	76.897692
1247.000000	76.957168
1248.000000	77.015340
1249.000000	77.073324
1250.000000	77.116520
1251.000000	77.153889
1252.000000	77.206169
1253.000000	77.239000
1254.000000	77.257172
1255.000000	77.279287
1256.000000	77.288410
1257.000000	77.291845
1258.000000	77.307944
1259.000000	77.313562
1260.000000	77.309934
1261.000000	77.316951
1262.000000	77.320257
1263.000000	77.319718
1264.000000	77.318926
1265.000000	77.321331
1266.000000	77.322086
1267.000000	77.325071
1268.000000	77.316330
1269.000000	77.303093
1270.000000	77.299125
1271.000000	77.302965
1272.000000	77.307645
1273.000000	77.302968
1274.000000	77.306122
1275.000000	77.305837
1276.000000	77.309230
1277.000000	77.328927
1278.000000	77.342793
1279.000000	77.356935
1280.000000	77.381637
1281.000000	77.415312
1282.000000	77.451919
1283.000000	77.477767
1284.000000	77.510910
1285.000000	77.549750
1286.000000	77.580635
1287.000000	77.611656
1288.000000	77.643951
1289.000000	77.671632
1290.000000	77.696253
1291.000000	77.729576
1292.000000	77.752200
1293.000000	77.767415
1294.000000	77.783111
1295.000000	77.797916
1296.000000	77.814180
1297.000000	77.822358
1298.000000	77.832267
1299.000000	77.836174
1300.000000	77.829799
1301.000000	77.830326
1302.000000	77.830079
1303.000000	77.826846
1304.000000	77.824073
1305.000000	77.819714
1306.000000	77.809826
1307.000000	77.793516
1308.000000	77.772064
1309.000000	77.752955
1310.000000	77.724422
1311.000000	77.693773
1312.000000	77.670996
1313.000000	77.641358
1314.000000	77.610168
1315.000000	77.568552
1316.000000	77.528137
1317.000000	77.487046
1318.000000	77.451714
1319.000000	77.412597
1320.000000	77.365332
1321.000000	77.314202
1322.000000	77.258858
1323.000000	77.208154
1324.000000	77.154405
1325.000000	77.098543
1326.000000	77.040815
1327.000000	76.973725
1328.000000	76.900352
1329.000000	76.824459
1330.000000	76.747936
1331.000000	76.660312
1332.000000	76.566135
1333.000000	76.458987
1334.000000	76.358478
1335.000000	76.247961
1336.000000	76.117536
1337.000000	75.985729
1338.000000	75.849046
1339.000000	75.711330
1340.000000	75.568084
1341.000000	75.409725
1342.000000	75.245298
1343.000000	75.066792
1344.000000	74.892677
1345.000000	74.683326
1346.000000	74.469014
1347.000000	74.289058
1348.000000	74.088695
1349.000000	73.863550
1350.000000	73.643255
1351.000000	73.434400
1352.000000	73.225267
1353.000000	73.002051
1354.000000	72.879564
1355.000000	72.758478
1356.000000	72.613273
1357.000000	72.485669
1358.000000	72.390192
1359.000000	72.312296
1360.000000	72.214408
1361.000000	72.234886
1362.000000	72.183825
1363.000000	72.088174
1364.000000	71.948144
1365.000000	71.833113
1366.000000	71.706300
1367.000000	71.604951
1368.000000	71.491077
1369.000000	71.352202
1370.000000	71.196948
1371.000000	71.076774
1372.000000	70.932617
1373.000000	70.751356
1374.000000	70.583571
1375.000000	70.454030
1376.000000	70.340228
1377.000000	70.229626
1378.000000	70.109581
1379.000000	70.014349
1380.000000	69.901471
1381.000000	69.807510
1382.000000	69.647555
1383.000000	69.430245
1384.000000	69.168538
1385.000000	68.833491
1386.000000	68.546127
1387.000000	68.244660
1388.000000	67.968619
1389.000000	67.613822
1390.000000	67.229002
1391.000000	66.933939
1392.000000	66.643132
1393.000000	66.287274
1394.000000	65.996063
1395.000000	65.746613
1396.000000	65.420300
1397.000000	64.923532
1398.000000	64.496067
1399.000000	64.192155
1400.000000	63.914351
1401.000000	63.488243
1402.000000	62.947566
1403.000000	62.470197
1404.000000	62.080746
1405.000000	61.607468
1406.000000	61.135925
1407.000000	60.661263
1408.000000	60.215376
1409.000000	59.728835
1410.000000	59.249962
1411.000000	58.723967
1412.000000	58.235490
1413.000000	57.864147
1414.000000	57.484053
1415.000000	57.055288
1416.000000	56.588965
1417.000000	56.179694
1418.000000	55.872265
1419.000000	55.560654
1420.000000	55.225422
1421.000000	54.849978
1422.000000	54.511998
1423.000000	54.244096
1424.000000	53.983745
1425.000000	53.673210
1426.000000	53.396514
1427.000000	53.128728
1428.000000	52.913048
1429.000000	52.683078
1430.000000	52.434625
1431.000000	52.256920
1432.000000	52.080656
1433.000000	51.897068
1434.000000	51.709519
1435.000000	51.505006
1436.000000	51.342021
1437.000000	51.201118
1438.000000	51.046951
1439.000000	50.912503
1440.000000	50.763905
1441.000000	50.615217
1442.000000	50.503255
1443.000000	50.362825
1444.000000	50.232276
1445.000000	50.140931
1446.000000	50.038310
1447.000000	49.892399
1448.000000	49.741960
1449.000000	49.626220
1450.000000	49.543997
1451.000000	49.437955
1452.000000	49.322923
1453.000000	49.191052
1454.000000	49.053497
1455.000000	48.940425
1456.000000	48.822960
1457.000000	48.702299
1458.000000	48.560627
1459.000000	48.447508
1460.000000	48.329133
1461.000000	48.205373
1462.000000	48.088600
1463.000000	47.968345
1464.000000	47.849797
1465.000000	47.730243
1466.000000	47.629565
1467.000000	47.517423
1468.000000	47.404035
1469.000000	47.283709
1470.000000	47.198733
1471.000000	47.120024
1472.000000	47.004269
1473.000000	46.911381
1474.000000	46.797075
1475.000000	46.708986
1476.000000	46.643439
1477.000000	46.563535
1478.000000	46.509704
1479.000000	46.464244
1480.000000	46.407325
1481.000000	46.361146
1482.000000	46.322980
1483.000000	46.273850
1484.000000	46.223159
1485.000000	46.196091
1486.000000	46.177380
1487.000000	46.137590
1488.000000	46.114528
1489.000000	46.082193
1490.000000	46.046085
1491.000000	46.028439
1492.000000	46.001753
1493.000000	45.984418
1494.000000	45.981397
1495.000000	45.975225
1496.000000	45.980960
1497.000000	45.994043
1498.000000	46.028446
1499.000000	46.060966
1500.000000	46.100130
1501.000000	46.156993
1502.000000	46.222312
1503.000000	46.292410
1504.000000	46.366012
1505.000000	46.450853
1506.000000	46.538822
1507.000000	46.619002
1508.000000	46.718314
1509.000000	46.814813
1510.000000	46.916901
1511.000000	47.015044
1512.000000	47.111604
1513.000000	47.198290
1514.000000	47.297637
1515.000000	47.400430
1516.000000	47.490326
1517.000000	47.572609
1518.000000	47.656565
1519.000000	47.751725
1520.000000	47.833899
1521.000000	47.918651
1522.000000	48.002928
1523.000000	48.074806
1524.000000	48.158251
1525.000000	48.239990
1526.000000	48.319003
1527.000000	48.397399
1528.000000	48.479458
1529.000000	48.549221
1530.000000	48.618947
1531.000000	48.693920
1532.000000	48.761783
1533.000000	48.829634
1534.000000	48.890998
1535.000000	48.950259
1536.000000	49.007904
1537.000000	49.058654
1538.000000	49.107252
1539.000000	49.153644
1540.000000	49.199796
1541.000000	49.247435
1542.000000	49.294870
1543.000000	49.346542
1544.000000	49.401309
1545.000000	49.472625
1546.000000	49.548506
1547.000000	49.620959
1548.000000	49.714849
1549.000000	49.818986
1550.000000	49.913362
1551.000000	50.009461
1552.000000	50.105381
1553.000000	50.194509
1554.000000	50.270287
1555.000000	50.337680
1556.000000	50.396250
1557.000000	50.447848
1558.000000	50.490044
1559.000000	50.527422
1560.000000	50.543687
1561.000000	50.554109
1562.000000	50.563123
1563.000000	50.555266
1564.000000	50.537770
1565.000000	50.516233
1566.000000	50.484522
1567.000000	50.456665
1568.000000	50.429464
1569.000000	50.397322
1570.000000	50.369449
1571.000000	50.343977
1572.000000	50.322871
1573.000000	50.313982
1574.000000	50.302179
1575.000000	50.299770
1576.000000	50.304143
1577.000000	50.308384
1578.000000	50.321709
1579.000000	50.341456
1580.000000	50.364045
1581.000000	50.390023
1582.000000	50.427820
1583.000000	50.470058
1584.000000	50.519156
1585.000000	50.571243
1586.000000	50.616982
1587.000000	50.668674
1588.000000	50.722127
1589.000000	50.772186
1590.000000	50.823200
1591.000000	50.869545
1592.000000	50.929488
1593.000000	50.985243
1594.000000	51.036643
1595.000000	51.107770
1596.000000	51.176750
1597.000000	51.234189
1598.000000	51.315368
1599.000000	51.401204
1600.000000	51.485285
1601.000000	51.560264
1602.000000	51.643933
1603.000000	51.735022
1604.000000	51.829933
1605.000000	51.914188
1606.000000	51.996498
1607.000000	52.081645
1608.000000	52.158170
1609.000000	52.227539
1610.000000	52.295921
1611.000000	52.351603
1612.000000	52.404633
1613.000000	52.456950
1614.000000	52.500171
1615.000000	52.544882
1616.000000	52.594102
1617.000000	52.634385
1618.000000	52.668969
1619.000000	52.703156
1620.000000	52.740300
1621.000000	52.775129
1622.000000	52.817337
1623.000000	52.854741
1624.000000	52.898572
1625.000000	52.948097
1626.000000	52.985877
1627.000000	53.033208
1628.000000	53.081968
1629.000000	53.113276
1630.000000	53.158246
1631.000000	53.199889
1632.000000	53.228823
1633.000000	53.264408
1634.000000	53.297540
1635.000000	53.305173
1636.000000	53.331671
1637.000000	53.348617
1638.000000	53.353310
1639.000000	53.363039
1640.000000	53.369217
1641.000000	53.369808
1642.000000	53.365511
1643.000000	53.371639
1644.000000	53.372764
1645.000000	53.372868
1646.000000	53.379729
1647.000000	53.371174
1648.000000	53.356343
1649.000000	53.340375
1650.000000	53.311293
1651.000000	53.289878
1652.000000	53.238719
1653.000000	53.186418
1654.000000	53.125543
1655.000000	53.059018
1656.000000	52.967347
1657.000000	52.863720
1658.000000	52.752517
1659.000000	52.620640
1660.000000	52.473828
1661.000000	52.311888
1662.000000	52.131082
1663.000000	51.964438
1664.000000	51.768859
1665.000000	51.576755
1666.000000	51.364993
1667.000000	51.169953
1668.000000	50.929243
1669.000000	50.701316
1670.000000	50.475972
1671.000000	50.246580
1672.000000	50.016881
1673.000000	49.806829
1674.000000	49.607981
1675.000000	49.408683
1676.000000	49.202541
1677.000000	49.007353
1678.000000	48.795949
1679.000000	48.557727
1680.000000	48.305453
1681.000000	48.031100
1682.000000	47.757861
1683.000000	47.489071
1684.000000	47.208490
1685.000000	46.971413
1686.000000	46.783275
1687.000000	46.634041
1688.000000	46.555734
1689.000000	46.540870
1690.000000	46.571576
1691.000000	46.671217
1692.000000	46.776587
1693.000000	46.915130
1694.000000	47.022522
1695.000000	47.122888
1696.000000	47.187993
1697.000000	47.240554
1698.000000	47.265523
1699.000000	47.255673
1700.000000	47.241523
1701.000000	47.219181
1702.000000	47.185623
1703.000000	47.146151
1704.000000	47.095293
1705.000000	47.026371
1706.000000	46.936341
1707.000000	46.822049
1708.000000	46.693682
1709.000000	46.557195
1710.000000	46.392488
1711.000000	46.198039
1712.000000	46.006240
1713.000000	45.783766
1714.000000	45.534092
1715.000000	45.266490
1716.000000	44.975285
1717.000000	44.675734
1718.000000	44.363425
1719.000000	44.078675
1720.000000	43.805120
1721.000000	43.570784
1722.000000	43.384429
1723.000000	43.259362
1724.000000	43.217609
1725.000000	43.199180
1726.000000	43.226014
1727.000000	43.270310
1728.000000	43.329648
1729.000000	43.414530
1730.000000	43.484166
1731.000000	43.554660
1732.000000	43.636351
1733.000000	43.716074
1734.000000	43.797364
1735.000000	43.875820
1736.000000	43.961528
1737.000000	44.055448
1738.000000	44.145804
1739.000000	44.258987
1740.000000	44.360419
1741.000000	44.480670
1742.000000	44.605358
1743.000000	44.709744
1744.000000	44.822379
1745.000000	44.924421
1746.000000	45.006827
1747.000000	45.091867
1748.000000	45.161736
1749.000000	45.211670
1750.000000	45.257532
1751.000000	45.288791
1752.000000	45.305592
1753.000000	45.312174
1754.000000	45.314219
1755.000000	45.305025
1756.000000	45.306309
1757.000000	45.307459
1758.000000	45.301578
1759.000000	45.293531
1760.000000	45.304534
1761.000000	45.314655
1762.000000	45.317222
1763.000000	45.334636
1764.000000	45.350112
1765.000000	45.382441
1766.000000	45.421773
1767.000000	45.471589
1768.000000	45.515200
1769.000000	45.555208
1770.000000	45.619611
1771.000000	45.683376
1772.000000	45.735242
1773.000000	45.795767
1774.000000	45.857069
1775.000000	45.916006
1776.000000	45.977241
1777.000000	46.022572
1778.000000	46.074777
1779.000000	46.127857
1780.000000	46.162868
1781.000000	46.185463
1782.000000	46.211760
1783.000000	46.222668
1784.000000	46.233934
1785.000000	46.242919
1786.000000	46.242797
1787.000000	46.238914
1788.000000	46.235427
1789.000000	46.220711
1790.000000	46.214013
1791.000000	46.219128
1792.000000	46.235671
1793.000000	46.257609
1794.000000	46.268125
1795.000000	46.295348
1796.000000	46.326990
1797.000000	46.352965
1798.000000	46.376334
1799.000000	46.398782
1800.000000	46.429576
1801.000000	46.475644
1802.000000	46.514527
1803.000000	46.516679
1804.000000	46.519813
1805.000000	46.541611
1806.000000	46.582732
1807.000000	46.623427
1808.000000	46.637037
1809.000000	46.659858
1810.000000	46.697246
1811.000000	46.745732
1812.000000	46.782087
1813.000000	46.802097
1814.000000	46.814442
1815.000000	46.830100
1816.000000	46.848233
1817.000000	46.853821
1818.000000	46.854586
1819.000000	46.887781
1820.000000	46.934601
1821.000000	46.931217
1822.000000	46.896640
1823.000000	46.843353
1824.000000	46.813087
1825.000000	46.833319
1826.000000	46.868312
1827.000000	46.892257
1828.000000	46.925586
1829.000000	46.982038
1830.000000	47.012633
1831.000000	47.035096
1832.000000	47.058495
1833.000000	47.105473
1834.000000	47.167767
1835.000000	47.244485
1836.000000	47.329727
1837.000000	47.382659
1838.000000	47.427968
1839.000000	47.478762
1840.000000	47.521720
1841.000000	47.560830
1842.000000	47.571042
1843.000000	47.549849
1844.000000	47.545365
1845.000000	47.593689
1846.000000	47.657281
1847.000000	47.724836
1848.000000	47.759170
1849.000000	47.726804
1850.000000	47.689117
1851.000000	47.658419
1852.000000	47.632020
1853.000000	47.613204
1854.000000	47.615494
1855.000000	47.584447
1856.000000	47.534813
1857.000000	47.505040
1858.000000	47.455958
1859.000000	47.382149
1860.000000	47.284009
1861.000000	47.175947
1862.000000	47.053881
1863.000000	46.928956
1864.000000	46.841987
1865.000000	46.773699
1866.000000	46.698207
1867.000000	46.630652
1868.000000	46.533478
1869.000000	46.409945
1870.000000	46.215452
1871.000000	46.008113
1872.000000	45.778272
1873.000000	45.510154
1874.000000	45.203736
1875.000000	44.879805
1876.000000	44.550425
1877.000000	44.210903
1878.000000	43.873698
1879.000000	43.485970
1880.000000	43.103144
1881.000000	42.732112
1882.000000	42.301611
1883.000000	41.855131
1884.000000	41.354553
1885.000000	40.786380
1886.000000	40.208631
1887.000000	39.638706
1888.000000	39.061829
1889.000000	38.422165
1890.000000	37.775267
1891.000000	37.100715
1892.000000	36.352513
1893.000000	35.556102
1894.000000	34.835356
1895.000000	34.167927
1896.000000	33.540094
1897.000000	32.916614
1898.000000	32.220623
1899.000000	31.520851
1900.000000	30.765112
1901.000000	30.034721
1902.000000	29.373255
1903.000000	28.748338
1904.000000	28.173473
1905.000000	27.578575
1906.000000	26.956659
1907.000000	26.357397
1908.000000	25.869065
1909.000000	25.432541
1910.000000	25.067947
1911.000000	24.688184
1912.000000	24.345124
1913.000000	23.965381
1914.000000	23.578251
1915.000000	23.213469
1916.000000	22.936313
1917.000000	22.697978
1918.000000	22.467071
1919.000000	22.253896
1920.000000	22.055901
1921.000000	21.834131
1922.000000	21.618768
1923.000000	21.424056
1924.000000	21.281285
1925.000000	21.154070
1926.000000	21.038653
1927.000000	20.921802
1928.000000	20.827045
1929.000000	20.728007
1930.000000	20.645588
1931.000000	20.571179
1932.000000	20.532580
1933.000000	20.502265
1934.000000	20.474283
1935.000000	20.453100
1936.000000	20.459130
1937.000000	20.466576
1938.000000	20.487554
1939.000000	20.526901
1940.000000	20.538753
1941.000000	20.595581
1942.000000	20.633127
1943.000000	20.695730
1944.000000	20.761183
1945.000000	20.838400
1946.000000	20.912815
1947.000000	21.000822
1948.000000	21.095200
1949.000000	21.191389
1950.000000	21.283973
1951.000000	21.372900
1952.000000	21.481728
1953.000000	21.607806
1954.000000	21.712134
1955.000000	21.828221
1956.000000	21.935130
1957.000000	22.039650
1958.000000	22.160581
1959.000000	22.276079
1960.000000	22.367644
1961.000000	22.501545
1962.000000	22.603840
1963.000000	22.715579
1964.000000	22.822374
1965.000000	22.938650
1966.000000	23.039968
1967.000000	23.147221
1968.000000	23.252943
1969.000000	23.365110
1970.000000	23.453530
1971.000000	23.563084
1972.000000	23.687844
1973.000000	23.793602
1974.000000	23.894933
1975.000000	24.005901
1976.000000	24.112515
1977.000000	24.226970
1978.000000	24.345450
1979.000000	24.468581
1980.000000	24.592838
1981.000000	24.707745
1982.000000	24.832275
1983.000000	24.943919
1984.000000	25.060640
1985.000000	25.180774
1986.000000	25.308156
1987.000000	25.415797
1988.000000	25.545470
1989.000000	25.653381
1990.000000	25.775377
1991.000000	25.885949
1992.000000	25.988501
1993.000000	26.087466
1994.000000	26.189218
1995.000000	26.282435
1996.000000	26.384057
1997.000000	26.472840
1998.000000	26.554154
1999.000000	26.621684
2000.000000	26.702510
2001.000000	26.772233
2002.000000	26.834179
2003.000000	26.880516
2004.000000	26.942287
2005.000000	26.982172
2006.000000	27.018819
2007.000000	27.040895
2008.000000	27.060124
2009.000000	27.079009
2010.000000	27.087402
2011.000000	27.075970
2012.000000	27.065968
2013.000000	27.050590
2014.000000	27.035796
2015.000000	26.988742
2016.000000	26.956454
2017.000000	26.907433
2018.000000	26.863561
2019.000000	26.806889
2020.000000	26.731304
2021.000000	26.664465
2022.000000	26.582689
2023.000000	26.497811
2024.000000	26.416779
2025.000000	26.315090
2026.000000	26.217152
2027.000000	26.109337
2028.000000	26.000453
2029.000000	25.875180
2030.000000	25.751473
2031.000000	25.613799
2032.000000	25.473052
2033.000000	25.331274
2034.000000	25.190496
2035.000000	25.030092
2036.000000	24.852827
2037.000000	24.694167
2038.000000	24.507838
2039.000000	24.324204
2040.000000	24.137306
2041.000000	23.950639
2042.000000	23.770951
2043.000000	23.574835
2044.000000	23.380581
2045.000000	23.202396
2046.000000	23.029542
2047.000000	22.868046
2048.000000	22.714396
2049.000000	22.590413
2050.000000	22.482774
2051.000000	22.391946
2052.000000	22.334221
2053.000000	22.297007
2054.000000	22.274064
2055.000000	22.286361
2056.000000	22.323986
2057.000000	22.372739
2058.000000	22.447177
2059.000000	22.537973
2060.000000	22.648078
2061.000000	22.765564
2062.000000	22.885309
2063.000000	23.015416
2064.000000	23.152039
2065.000000	23.301376
2066.000000	23.439934
2067.000000	23.573913
2068.000000	23.719388
2069.000000	23.851135
2070.000000	23.969668
2071.000000	24.090595
2072.000000	24.220598
2073.000000	24.328484
2074.000000	24.431338
2075.000000	24.528404
2076.000000	24.613663
2077.000000	24.689090
2078.000000	24.756500
2079.000000	24.816248
2080.000000	24.874069
2081.000000	24.920307
2082.000000	24.952324
2083.000000	24.968025
2084.000000	24.979721
2085.000000	24.988463
2086.000000	24.984997
2087.000000	24.976730
2088.000000	24.965514
2089.000000	24.949530
2090.000000	24.933852
2091.000000	24.912383
2092.000000	24.884594
2093.000000	24.856867
2094.000000	24.838438
2095.000000	24.812799
2096.000000	24.800049
2097.000000	24.790221
2098.000000	24.776908
2099.000000	24.774133
2100.000000	24.770270
2101.000000	24.766431
2102.000000	24.763037
2103.000000	24.769039
2104.000000	24.772896
2105.000000	24.771434
2106.000000	24.774916
2107.000000	24.785504
2108.000000	24.783702
2109.000000	24.771745
2110.000000	24.773226
2111.000000	24.774368
2112.000000	24.764078
2113.000000	24.757704
2114.000000	24.745501
2115.000000	24.722133
2116.000000	24.697017
2117.000000	24.676247
2118.000000	24.647018
2119.000000	24.611563
2120.000000	24.579895
2121.000000	24.537670
2122.000000	24.483804
2123.000000	24.435599
2124.000000	24.380718
2125.000000	24.317512
2126.000000	24.266546
2127.000000	24.207274
2128.000000	24.126367
2129.000000	24.050260
2130.000000	23.982204
2131.000000	23.897538
2132.000000	23.802213
2133.000000	23.711211
2134.000000	23.611944
2135.000000	23.515831
2136.000000	23.415044
2137.000000	23.302491
2138.000000	23.201041
2139.000000	23.079797
2140.000000	22.954974
2141.000000	22.831701
2142.000000	22.701633
2143.000000	22.584991
2144.000000	22.459092
2145.000000	22.334809
2146.000000	22.207190
2147.000000	22.080633
2148.000000	21.948613
2149.000000	21.815141
2150.000000	21.694299
2151.000000	21.573006
2152.000000	21.440532
2153.000000	21.318637
2154.000000	21.218398
2155.000000	21.105375
2156.000000	20.991552
2157.000000	20.881936
2158.000000	20.781942
2159.000000	20.698577
2160.000000	20.621835
2161.000000	20.549387
2162.000000	20.489785
2163.000000	20.419947
2164.000000	20.367578
2165.000000	20.331081
2166.000000	20.271831
2167.000000	20.220964
2168.000000	20.185502
2169.000000	20.162075
2170.000000	20.131119
2171.000000	20.108939
2172.000000	20.101679
2173.000000	20.082483
2174.000000	20.066125
2175.000000	20.064886
2176.000000	20.064948
2177.000000	20.073106
2178.000000	20.084092
2179.000000	20.098383
2180.000000	20.113368
2181.000000	20.121649
2182.000000	20.149639
2183.000000	20.174896
2184.000000	20.191386
2185.000000	20.217394
2186.000000	20.239600
2187.000000	20.259706
2188.000000	20.288050
2189.000000	20.306486
2190.000000	20.326494
2191.000000	20.356173
2192.000000	20.374611
2193.000000	20.407361
2194.000000	20.440057
2195.000000	20.465767
2196.000000	20.496718
2197.000000	20.535579
2198.000000	20.566226
2199.000000	20.603529
2200.000000	20.652602
2201.000000	20.690787
2202.000000	20.726188
2203.000000	20.787598
2204.000000	20.840457
2205.000000	20.891203
2206.000000	20.954297
2207.000000	21.006265
2208.000000	21.064094
2209.000000	21.125700
2210.000000	21.192431
2211.000000	21.266957
2212.000000	21.353141
2213.000000	21.427121
2214.000000	21.491498
2215.000000	21.565670
2216.000000	21.650976
2217.000000	21.752128
2218.000000	21.845265
2219.000000	21.922076
2220.000000	22.012067
2221.000000	22.082587
2222.000000	22.164699
2223.000000	22.237502
2224.000000	22.298260
2225.000000	22.376364
2226.000000	22.433293
2227.000000	22.487285
2228.000000	22.508346
2229.000000	22.560481
2230.000000	22.592772
2231.000000	22.606022
2232.000000	22.625008
2233.000000	22.625106
2234.000000	22.611662
2235.000000	22.596438
2236.000000	22.570004
2237.000000	22.532222
2238.000000	22.483313
2239.000000	22.416492
2240.000000	22.350739
2241.000000	22.250461
2242.000000	22.157544
2243.000000	22.047031
2244.000000	21.920983
2245.000000	21.792491
2246.000000	21.661532
2247.000000	21.497217
2248.000000	21.344066
2249.000000	21.168640
2250.000000	20.996512
2251.000000	20.815826
2252.000000	20.636491
2253.000000	20.454516
2254.000000	20.275808
2255.000000	20.092350
2256.000000	19.911986
2257.000000	19.732737
2258.000000	19.582356
2259.000000	19.435288
2260.000000	19.287598
2261.000000	19.151452
2262.000000	19.022230
2263.000000	18.910950
2264.000000	18.825263
2265.000000	18.724011
2266.000000	18.644291
2267.000000	18.573580
2268.000000	18.535837
2269.000000	18.479830
2270.000000	18.431922
2271.000000	18.383683
2272.000000	18.362531
2273.000000	18.335561
2274.000000	18.289627
2275.000000	18.277157
2276.000000	18.254205
2277.000000	18.219859
2278.000000	18.185070
2279.000000	18.137290
2280.000000	18.111050
2281.000000	18.071022
2282.000000	18.039725
2283.000000	18.005955
2284.000000	17.972657
2285.000000	17.924012
2286.000000	17.880849
2287.000000	17.861627
2288.000000	17.840445
2289.000000	17.802343
2290.000000	17.767249
2291.000000	17.745554
2292.000000	17.708447
2293.000000	17.686520
2294.000000	17.675623
2295.000000	17.656450
2296.000000	17.644040
2297.000000	17.638298
2298.000000	17.642839
2299.000000	17.635601
2300.000000	17.619062
2301.000000	17.638953
2302.000000	17.662582
2303.000000	17.674928
2304.000000	17.706394
2305.000000	17.721588
2306.000000	17.754304
2307.000000	17.800234
2308.000000	17.840791
2309.000000	17.870654
2310.000000	17.915820
2311.000000	17.960788
2312.000000	18.006297
2313.000000	18.051208
2314.000000	18.083667
2315.000000	18.118384
2316.000000	18.150249
2317.000000	18.188774
2318.000000	18.202837
2319.000000	18.209103
2320.000000	18.217995
2321.000000	18.223617
2322.000000	18.230919
2323.000000	18.208613
2324.000000	18.200219
2325.000000	18.192373
2326.000000	18.172694
2327.000000	18.157214
2328.000000	18.136333
2329.000000	18.122819
2330.000000	18.118188
2331.000000	18.095523
2332.000000	18.086862
2333.000000	18.083753
2334.000000	18.083380
2335.000000	18.089395
2336.000000	18.096895
2337.000000	18.111253
2338.000000	18.117319
2339.000000	18.138918
2340.000000	18.151957
2341.000000	18.177288
2342.000000	18.199903
2343.000000	18.225882
2344.000000	18.253641
2345.000000	18.283576
2346.000000	18.326788
2347.000000	18.359570
2348.000000	18.375302
2349.000000	18.418769
2350.000000	18.466898
2351.000000	18.500169
2352.000000	18.544826
2353.000000	18.577103
2354.000000	18.596432
2355.000000	18.640690
2356.000000	18.673184
2357.000000	18.694237
2358.000000	18.722685
2359.000000	18.757931
2360.000000	18.775654
2361.000000	18.787731
2362.000000	18.802766
2363.000000	18.819575
2364.000000	18.846245
2365.000000	18.870299
2366.000000	18.880738
2367.000000	18.880212
2368.000000	18.900571
2369.000000	18.929346
2370.000000	18.945796
2371.000000	18.957899
2372.000000	18.978240
2373.000000	19.005509
2374.000000	19.033751
2375.000000	19.054372
2376.000000	19.073435
2377.000000	19.090076
2378.000000	19.111419
2379.000000	19.145340
2380.000000	19.166723
2381.000000	19.187110
2382.000000	19.207971
2383.000000	19.220724
2384.000000	19.236475
2385.000000	19.255545
2386.000000	19.265900
2387.000000	19.276441
2388.000000	19.280341
2389.000000	19.274966
2390.000000	19.276151
2391.000000	19.282328
2392.000000	19.291926
2393.000000	19.289099
2394.000000	19.269541
2395.000000	19.256265
2396.000000	19.247957
2397.000000	19.230092
2398.000000	19.223089
2399.000000	19.221585
2400.000000	19.224767
2401.000000	19.219284
2402.000000	19.195123
2403.000000	19.170541
2404.000000	19.137221
2405.000000	19.117395
2406.000000	19.083907
2407.000000	19.054480
2408.000000	19.019692
2409.000000	18.980153
2410.000000	18.941134
2411.000000	18.906305
2412.000000	18.854208
2413.000000	18.805175
2414.000000	18.759517
2415.000000	18.716543
2416.000000	18.656374
2417.000000	18.589488
2418.000000	18.526080
2419.000000	18.458790
2420.000000	18.389911
2421.000000	18.311964
2422.000000	18.235330
2423.000000	18.156970
2424.000000	18.074588
2425.000000	17.989410
2426.000000	17.893228
2427.000000	17.806444
2428.000000	17.709188
2429.000000	17.611279
2430.000000	17.514850
2431.000000	17.412999
2432.000000	17.315017
2433.000000	17.208445
2434.000000	17.089582
2435.000000	16.988724
2436.000000	16.869580
2437.000000	16.762444
2438.000000	16.649695
2439.000000	16.545329
2440.000000	16.419613
2441.000000	16.313436
2442.000000	16.191653
2443.000000	16.080012
2444.000000	15.957845
2445.000000	15.856507
2446.000000	15.722709
2447.000000	15.613123
2448.000000	15.510268
2449.000000	15.391901
2450.000000	15.305223
2451.000000	15.206813
2452.000000	15.104945
2453.000000	14.996532
2454.000000	14.909003
2455.000000	14.823702
2456.000000	14.728377
2457.000000	14.629408
2458.000000	14.554520
2459.000000	14.485278
2460.000000	14.401487
2461.000000	14.302421
2462.000000	14.268260
2463.000000	14.187782
2464.000000	14.117856
2465.000000	14.046592
2466.000000	14.021250
2467.000000	13.954666
2468.000000	13.880048
2469.000000	13.840673
2470.000000	13.815526
2471.000000	13.757870
2472.000000	13.706734
2473.000000	13.685071
2474.000000	13.610534
2475.000000	13.637849
2476.000000	13.585717
2477.000000	13.509089
2478.000000	13.526682
2479.000000	13.504540
2480.000000	13.455279
2481.000000	13.474322
2482.000000	13.477981
2483.000000	13.474026
2484.000000	13.417275
2485.000000	13.439300
2486.000000	13.437615
2487.000000	13.391691
2488.000000	13.407941
2489.000000	13.451904
2490.000000	13.436377
2491.000000	13.447840
2492.000000	13.419926
2493.000000	13.463723
2494.000000	13.486628
2495.000000	13.466292
2496.000000	13.466814
2497.000000	13.568563
2498.000000	13.548273
2499.000000	13.579914
2500.000000	13.634175
