PE UV       SUBTECH     SPECTRUM    ASCII       PEDS        4.00        
   -1
INBUCR0143-4.Sample.ASC
24/04/29
16:11:28.00
24/04/29
16:11:28.00
Vinicio Soto Monge
C. kalinini
250,000000
1
Lambda 1050
1050L1511233
PerkinElmer UV WinLab 6.3.2.0749 / 2.02.05 Lambda 900 UV/VIS/NIR, Aug  7 2015 09:38:08

0
0
3350/servo 860,8/2
0
0
UV/VIS
1
1
1
DoubleDePol,CommonBeamDepol,RBeamAtt,SBeamAtt,60mm sphere, WB InGaAs Detector
0
0
0
0
Program
Program
3350/servo 860,8/2
3350/0,2 860,8/0,2
3350/0,2 860,8/0,2
0
15.00
 
 
 
0
 
860,8
319,2
860,8
Front
100
on
S:100 R:100
0
0
0
0
 
0
 
 
 
0
 
 
0
0
0
0
0
 
 
 
 
0
0


0
0
#HDR
-1
-1
#GR
nm
%R
1.0
0.0
2500,000000
-1,000000
2251
8
91,524600
5,274700
#DATA
250.000000	6.361125
251.000000	6.354800
252.000000	6.332675
253.000000	6.315250
254.000000	6.308150
255.000000	6.259975
256.000000	6.266050
257.000000	6.242500
258.000000	6.222475
259.000000	6.187300
260.000000	6.142700
261.000000	6.146575
262.000000	6.111200
263.000000	6.108125
264.000000	6.048875
265.000000	6.025100
266.000000	6.010375
267.000000	5.980525
268.000000	5.932850
269.000000	5.955425
270.000000	5.926450
271.000000	5.936025
272.000000	5.873100
273.000000	5.857800
274.000000	5.885925
275.000000	5.834800
276.000000	5.837725
277.000000	5.828425
278.000000	5.838075
279.000000	5.814800
280.000000	5.804025
281.000000	5.803000
282.000000	5.780950
283.000000	5.824800
284.000000	5.803675
285.000000	5.796725
286.000000	5.808300
287.000000	5.804000
288.000000	5.761775
289.000000	5.767200
290.000000	5.773450
291.000000	5.809625
292.000000	5.784525
293.000000	5.794550
294.000000	5.759125
295.000000	5.777700
296.000000	5.788450
297.000000	5.756725
298.000000	5.766575
299.000000	5.795900
300.000000	5.754975
301.000000	5.745200
302.000000	5.749925
303.000000	5.757350
304.000000	5.768150
305.000000	5.775075
306.000000	5.725500
307.000000	5.688800
308.000000	5.770450
309.000000	5.718950
310.000000	5.788250
311.000000	5.733700
312.000000	5.722575
313.000000	5.777575
314.000000	5.770900
315.000000	5.741525
316.000000	6.209575
317.000000	10.442250
318.000000	9.943725
319.000000	9.476450
320.000000	8.805550
321.000000	7.459825
322.000000	7.096025
323.000000	7.050825
324.000000	6.485900
325.000000	6.462750
326.000000	6.438375
327.000000	6.388775
328.000000	6.265525
329.000000	6.374425
330.000000	6.241950
331.000000	6.276775
332.000000	6.273875
333.000000	6.163900
334.000000	6.274500
335.000000	6.294775
336.000000	6.250725
337.000000	5.958025
338.000000	6.221400
339.000000	5.992800
340.000000	6.093400
341.000000	6.088075
342.000000	5.954325
343.000000	5.978450
344.000000	6.123925
345.000000	5.861100
346.000000	6.038900
347.000000	5.861800
348.000000	5.853350
349.000000	5.814650
350.000000	5.940975
351.000000	5.872125
352.000000	5.743475
353.000000	5.903825
354.000000	5.922125
355.000000	5.930600
356.000000	5.727350
357.000000	5.880000
358.000000	5.871500
359.000000	5.925350
360.000000	5.914750
361.000000	5.914500
362.000000	5.908800
363.000000	5.833400
364.000000	5.783575
365.000000	5.770125
366.000000	5.787000
367.000000	5.819750
368.000000	5.827325
369.000000	5.777750
370.000000	5.738050
371.000000	5.663750
372.000000	5.595625
373.000000	5.437575
374.000000	5.365775
375.000000	5.506925
376.000000	5.874050
377.000000	6.104875
378.000000	6.144625
379.000000	6.166825
380.000000	6.210775
381.000000	6.258525
382.000000	6.305725
383.000000	6.351775
384.000000	6.392675
385.000000	6.452250
386.000000	6.523800
387.000000	6.592050
388.000000	6.673900
389.000000	6.745800
390.000000	6.824675
391.000000	6.921025
392.000000	7.025850
393.000000	7.134400
394.000000	7.253350
395.000000	7.371925
396.000000	7.495650
397.000000	7.647175
398.000000	7.785025
399.000000	7.941300
400.000000	8.110950
401.000000	8.277900
402.000000	8.465950
403.000000	8.660425
404.000000	8.858000
405.000000	9.069550
406.000000	9.294000
407.000000	9.524800
408.000000	9.760550
409.000000	10.006950
410.000000	10.269725
411.000000	10.534650
412.000000	10.800650
413.000000	11.083625
414.000000	11.353775
415.000000	11.637825
416.000000	11.925400
417.000000	12.212500
418.000000	12.503975
419.000000	12.792325
420.000000	13.086950
421.000000	13.370775
422.000000	13.655050
423.000000	13.941700
424.000000	14.221250
425.000000	14.499775
426.000000	14.779025
427.000000	15.053200
428.000000	15.319425
429.000000	15.567950
430.000000	15.822975
431.000000	16.081575
432.000000	16.331200
433.000000	16.582025
434.000000	16.827325
435.000000	17.051400
436.000000	17.266825
437.000000	17.482350
438.000000	17.701125
439.000000	17.918775
440.000000	18.122950
441.000000	18.305900
442.000000	18.483300
443.000000	18.660125
444.000000	18.830075
445.000000	18.988825
446.000000	19.122825
447.000000	19.244075
448.000000	19.361675
449.000000	19.479525
450.000000	19.603950
451.000000	19.701175
452.000000	19.768150
453.000000	19.835800
454.000000	19.905150
455.000000	19.954250
456.000000	19.995475
457.000000	20.032225
458.000000	20.051525
459.000000	20.062700
460.000000	20.072200
461.000000	20.089300
462.000000	20.090825
463.000000	20.067225
464.000000	20.050950
465.000000	20.038200
466.000000	20.030525
467.000000	20.024950
468.000000	20.016400
469.000000	20.027600
470.000000	20.053775
471.000000	20.083300
472.000000	20.125875
473.000000	20.188700
474.000000	20.285725
475.000000	20.400650
476.000000	20.529325
477.000000	20.686500
478.000000	20.877550
479.000000	21.091800
480.000000	21.344775
481.000000	21.637850
482.000000	21.959400
483.000000	22.304075
484.000000	22.660700
485.000000	23.050200
486.000000	23.453475
487.000000	23.882075
488.000000	24.331725
489.000000	24.797100
490.000000	25.263525
491.000000	25.749325
492.000000	26.260375
493.000000	26.755000
494.000000	27.262600
495.000000	27.781125
496.000000	28.292725
497.000000	28.812450
498.000000	29.331150
499.000000	29.857525
500.000000	30.404375
501.000000	30.966850
502.000000	31.535475
503.000000	32.123750
504.000000	32.705300
505.000000	33.317325
506.000000	33.927725
507.000000	34.563175
508.000000	35.212700
509.000000	35.903400
510.000000	36.614150
511.000000	37.340775
512.000000	38.082025
513.000000	38.833650
514.000000	39.595675
515.000000	40.362600
516.000000	41.140825
517.000000	41.930050
518.000000	42.752875
519.000000	43.564100
520.000000	44.382200
521.000000	45.206750
522.000000	46.039475
523.000000	46.876875
524.000000	47.711375
525.000000	48.529200
526.000000	49.352525
527.000000	50.157850
528.000000	50.963400
529.000000	51.747475
530.000000	52.517800
531.000000	53.253300
532.000000	53.990150
533.000000	54.690800
534.000000	55.358900
535.000000	56.010875
536.000000	56.642000
537.000000	57.285575
538.000000	57.876175
539.000000	58.480250
540.000000	59.035600
541.000000	59.559325
542.000000	60.082325
543.000000	60.592325
544.000000	61.092725
545.000000	61.599150
546.000000	62.066875
547.000000	62.507400
548.000000	62.939250
549.000000	63.336650
550.000000	63.703275
551.000000	64.063475
552.000000	64.427500
553.000000	64.733550
554.000000	65.094425
555.000000	65.385300
556.000000	65.692475
557.000000	65.953250
558.000000	66.196325
559.000000	66.416450
560.000000	66.539325
561.000000	66.728150
562.000000	66.918350
563.000000	67.103625
564.000000	67.292725
565.000000	67.417150
566.000000	67.563225
567.000000	67.689675
568.000000	67.783600
569.000000	67.876575
570.000000	67.924175
571.000000	67.961900
572.000000	67.954350
573.000000	67.950575
574.000000	67.926475
575.000000	67.837425
576.000000	67.784675
577.000000	67.719900
578.000000	67.592875
579.000000	67.482150
580.000000	67.299225
581.000000	67.126250
582.000000	66.921675
583.000000	66.672150
584.000000	66.407900
585.000000	66.132000
586.000000	65.839325
587.000000	65.540650
588.000000	65.200175
589.000000	64.852300
590.000000	64.513650
591.000000	64.093725
592.000000	63.657550
593.000000	63.194425
594.000000	62.705300
595.000000	62.185325
596.000000	61.663425
597.000000	61.093500
598.000000	60.529125
599.000000	59.945400
600.000000	59.323050
601.000000	58.692300
602.000000	58.059500
603.000000	57.412575
604.000000	56.782200
605.000000	56.153850
606.000000	55.543400
607.000000	54.930150
608.000000	54.342375
609.000000	53.758550
610.000000	53.247275
611.000000	52.723350
612.000000	52.247975
613.000000	51.797500
614.000000	51.395750
615.000000	51.017825
616.000000	50.737150
617.000000	50.518675
618.000000	50.318825
619.000000	50.187625
620.000000	50.116000
621.000000	50.137900
622.000000	50.219650
623.000000	50.341975
624.000000	50.513350
625.000000	50.779125
626.000000	51.090600
627.000000	51.435100
628.000000	51.804125
629.000000	52.208150
630.000000	52.626425
631.000000	53.083625
632.000000	53.507000
633.000000	53.953900
634.000000	54.379125
635.000000	54.790250
636.000000	55.171150
637.000000	55.517325
638.000000	55.888250
639.000000	56.210100
640.000000	56.487975
641.000000	56.731575
642.000000	56.981025
643.000000	57.225400
644.000000	57.398650
645.000000	57.554475
646.000000	57.721075
647.000000	57.853500
648.000000	57.960600
649.000000	58.091875
650.000000	58.172925
651.000000	58.249225
652.000000	58.361300
653.000000	58.429400
654.000000	58.517600
655.000000	58.664950
656.000000	58.738725
657.000000	58.838250
658.000000	58.912350
659.000000	59.048800
660.000000	59.228250
661.000000	59.376650
662.000000	59.570525
663.000000	59.764825
664.000000	60.012100
665.000000	60.270900
666.000000	60.545500
667.000000	60.805475
668.000000	61.102075
669.000000	61.411875
670.000000	61.700800
671.000000	62.013275
672.000000	62.332975
673.000000	62.646775
674.000000	62.945425
675.000000	63.270050
676.000000	63.560750
677.000000	63.807525
678.000000	64.125275
679.000000	64.375175
680.000000	64.650275
681.000000	64.874650
682.000000	65.141125
683.000000	65.379875
684.000000	65.621475
685.000000	65.885525
686.000000	66.120850
687.000000	66.373925
688.000000	66.623875
689.000000	66.887550
690.000000	67.212125
691.000000	67.568000
692.000000	67.906975
693.000000	68.270925
694.000000	68.623525
695.000000	69.029550
696.000000	69.408900
697.000000	69.816200
698.000000	70.273325
699.000000	70.745725
700.000000	71.275300
701.000000	71.817450
702.000000	72.349725
703.000000	72.890700
704.000000	73.444875
705.000000	74.032150
706.000000	74.626950
707.000000	75.188000
708.000000	75.744525
709.000000	76.336375
710.000000	76.905825
711.000000	77.466100
712.000000	78.038375
713.000000	78.539225
714.000000	79.027375
715.000000	79.582500
716.000000	80.074100
717.000000	80.515975
718.000000	80.896800
719.000000	81.307400
720.000000	81.675125
721.000000	82.006850
722.000000	82.373550
723.000000	82.690425
724.000000	82.924775
725.000000	83.170125
726.000000	83.403575
727.000000	83.590850
728.000000	83.783100
729.000000	83.945775
730.000000	84.068300
731.000000	84.191550
732.000000	84.323875
733.000000	84.450950
734.000000	84.530450
735.000000	84.602875
736.000000	84.721650
737.000000	84.807175
738.000000	84.884825
739.000000	84.961425
740.000000	85.049200
741.000000	85.158425
742.000000	85.261850
743.000000	85.329300
744.000000	85.363550
745.000000	85.478600
746.000000	85.628450
747.000000	85.688550
748.000000	85.822475
749.000000	85.929950
750.000000	85.974025
751.000000	86.072875
752.000000	86.179875
753.000000	86.267400
754.000000	86.410375
755.000000	86.524125
756.000000	86.613225
757.000000	86.735450
758.000000	86.823350
759.000000	86.931400
760.000000	87.054025
761.000000	87.140875
762.000000	87.266550
763.000000	87.324050
764.000000	87.368850
765.000000	87.485350
766.000000	87.523350
767.000000	87.574175
768.000000	87.653950
769.000000	87.817525
770.000000	87.882900
771.000000	87.905575
772.000000	87.983050
773.000000	88.069150
774.000000	88.206700
775.000000	88.321225
776.000000	88.407950
777.000000	88.447100
778.000000	88.518650
779.000000	88.599075
780.000000	88.704450
781.000000	88.840650
782.000000	88.909250
783.000000	88.957575
784.000000	89.052600
785.000000	89.095750
786.000000	89.062100
787.000000	89.186100
788.000000	89.194850
789.000000	89.103225
790.000000	89.155225
791.000000	89.227025
792.000000	89.172825
793.000000	89.150925
794.000000	89.176050
795.000000	89.167775
796.000000	89.087825
797.000000	88.956300
798.000000	88.911700
799.000000	88.902075
800.000000	88.847750
801.000000	88.681200
802.000000	88.468825
803.000000	88.432075
804.000000	88.250200
805.000000	88.039575
806.000000	87.978875
807.000000	87.727700
808.000000	87.361950
809.000000	87.191550
810.000000	87.013200
811.000000	86.777975
812.000000	86.509850
813.000000	86.236925
814.000000	85.885150
815.000000	85.600675
816.000000	85.256050
817.000000	84.951075
818.000000	84.711025
819.000000	84.291225
820.000000	84.023650
821.000000	83.745225
822.000000	83.363175
823.000000	83.032975
824.000000	82.620150
825.000000	82.266700
826.000000	81.927175
827.000000	81.642650
828.000000	81.375525
829.000000	80.911150
830.000000	80.690375
831.000000	80.195900
832.000000	79.810500
833.000000	79.612500
834.000000	79.386900
835.000000	78.986300
836.000000	78.639100
837.000000	78.339275
838.000000	78.011750
839.000000	77.703575
840.000000	77.487775
841.000000	77.122550
842.000000	76.918250
843.000000	76.837750
844.000000	76.410050
845.000000	76.078725
846.000000	76.098025
847.000000	75.873850
848.000000	75.772625
849.000000	75.645400
850.000000	75.439175
851.000000	75.346075
852.000000	75.052225
853.000000	74.916450
854.000000	74.665350
855.000000	74.643100
856.000000	74.726375
857.000000	74.570875
858.000000	74.646783
859.000000	73.892668
860.000000	73.812801
861.000000	73.730311
862.000000	73.675785
863.000000	73.608554
864.000000	73.553076
865.000000	73.489295
866.000000	73.443926
867.000000	73.388859
868.000000	73.335286
869.000000	73.259689
870.000000	73.204617
871.000000	73.164799
872.000000	73.224732
873.000000	73.389820
874.000000	73.616303
875.000000	73.808801
876.000000	73.930037
877.000000	74.063581
878.000000	74.202357
879.000000	74.326845
880.000000	74.397420
881.000000	74.498720
882.000000	74.562868
883.000000	74.653164
884.000000	74.726204
885.000000	74.774351
886.000000	74.865066
887.000000	74.929774
888.000000	75.024574
889.000000	75.079811
890.000000	75.138138
891.000000	75.244383
892.000000	75.275313
893.000000	75.351455
894.000000	75.437630
895.000000	75.492225
896.000000	75.516964
897.000000	75.558403
898.000000	75.604315
899.000000	75.639663
900.000000	75.685777
901.000000	75.707114
902.000000	75.728906
903.000000	75.738254
904.000000	75.799405
905.000000	75.813658
906.000000	75.830291
907.000000	75.873755
908.000000	75.895982
909.000000	75.914378
910.000000	75.911914
911.000000	75.914621
912.000000	75.954606
913.000000	75.970961
914.000000	75.995724
915.000000	75.977711
916.000000	76.011508
917.000000	76.000019
918.000000	76.005203
919.000000	76.016306
920.000000	76.031742
921.000000	76.017284
922.000000	76.031419
923.000000	76.044469
924.000000	76.024297
925.000000	76.049802
926.000000	76.049556
927.000000	76.055632
928.000000	76.068424
929.000000	76.051854
930.000000	76.055600
931.000000	76.060225
932.000000	76.066010
933.000000	76.056695
934.000000	76.052596
935.000000	76.043398
936.000000	76.042910
937.000000	76.022698
938.000000	76.001557
939.000000	75.988574
940.000000	76.008129
941.000000	75.990702
942.000000	75.979285
943.000000	75.983889
944.000000	75.963966
945.000000	75.954671
946.000000	75.932582
947.000000	75.912132
948.000000	75.884507
949.000000	75.855593
950.000000	75.854319
951.000000	75.831349
952.000000	75.812502
953.000000	75.781443
954.000000	75.743072
955.000000	75.706063
956.000000	75.685740
957.000000	75.651438
958.000000	75.619351
959.000000	75.582745
960.000000	75.538785
961.000000	75.519188
962.000000	75.486379
963.000000	75.447828
964.000000	75.426740
965.000000	75.382854
966.000000	75.340625
967.000000	75.312742
968.000000	75.289786
969.000000	75.254603
970.000000	75.231765
971.000000	75.191514
972.000000	75.149522
973.000000	75.119169
974.000000	75.096203
975.000000	75.059624
976.000000	75.033626
977.000000	74.991122
978.000000	74.955752
979.000000	74.921014
980.000000	74.887870
981.000000	74.858760
982.000000	74.836200
983.000000	74.808596
984.000000	74.776552
985.000000	74.746523
986.000000	74.712296
987.000000	74.688712
988.000000	74.658486
989.000000	74.624063
990.000000	74.599912
991.000000	74.577419
992.000000	74.551185
993.000000	74.518530
994.000000	74.497546
995.000000	74.459605
996.000000	74.432889
997.000000	74.415117
998.000000	74.387897
999.000000	74.354204
1000.000000	74.323965
1001.000000	74.290377
1002.000000	74.273492
1003.000000	74.249135
1004.000000	74.205458
1005.000000	74.180457
1006.000000	74.151493
1007.000000	74.111343
1008.000000	74.088416
1009.000000	74.057280
1010.000000	74.024904
1011.000000	73.999593
1012.000000	73.978072
1013.000000	73.948769
1014.000000	73.919001
1015.000000	73.895740
1016.000000	73.872976
1017.000000	73.847783
1018.000000	73.825199
1019.000000	73.811670
1020.000000	73.801606
1021.000000	73.781800
1022.000000	73.767043
1023.000000	73.757532
1024.000000	73.745633
1025.000000	73.736057
1026.000000	73.724295
1027.000000	73.710702
1028.000000	73.701714
1029.000000	73.697938
1030.000000	73.692746
1031.000000	73.686384
1032.000000	73.682713
1033.000000	73.674553
1034.000000	73.663003
1035.000000	73.658759
1036.000000	73.651841
1037.000000	73.643146
1038.000000	73.645826
1039.000000	73.647887
1040.000000	73.640602
1041.000000	73.638184
1042.000000	73.637852
1043.000000	73.633301
1044.000000	73.628980
1045.000000	73.627922
1046.000000	73.631899
1047.000000	73.628972
1048.000000	73.626755
1049.000000	73.623343
1050.000000	73.622788
1051.000000	73.625933
1052.000000	73.626304
1053.000000	73.634137
1054.000000	73.642194
1055.000000	73.644740
1056.000000	73.648423
1057.000000	73.648036
1058.000000	73.655651
1059.000000	73.665087
1060.000000	73.662500
1061.000000	73.673348
1062.000000	73.683396
1063.000000	73.690903
1064.000000	73.695571
1065.000000	73.707893
1066.000000	73.719098
1067.000000	73.723004
1068.000000	73.734357
1069.000000	73.746756
1070.000000	73.750289
1071.000000	73.758709
1072.000000	73.769502
1073.000000	73.773824
1074.000000	73.780470
1075.000000	73.796678
1076.000000	73.809200
1077.000000	73.826218
1078.000000	73.837565
1079.000000	73.850678
1080.000000	73.858420
1081.000000	73.869157
1082.000000	73.874901
1083.000000	73.886460
1084.000000	73.905729
1085.000000	73.914891
1086.000000	73.930025
1087.000000	73.947767
1088.000000	73.954639
1089.000000	73.974120
1090.000000	73.991687
1091.000000	74.001719
1092.000000	74.011044
1093.000000	74.024123
1094.000000	74.025370
1095.000000	74.034658
1096.000000	74.036051
1097.000000	74.045391
1098.000000	74.065343
1099.000000	74.078655
1100.000000	74.081577
1101.000000	74.088875
1102.000000	74.094975
1103.000000	74.099271
1104.000000	74.105954
1105.000000	74.106912
1106.000000	74.102779
1107.000000	74.094586
1108.000000	74.094329
1109.000000	74.104197
1110.000000	74.105030
1111.000000	74.106335
1112.000000	74.104868
1113.000000	74.093798
1114.000000	74.080661
1115.000000	74.076513
1116.000000	74.075112
1117.000000	74.080727
1118.000000	74.066369
1119.000000	74.052524
1120.000000	74.055724
1121.000000	74.035417
1122.000000	74.027371
1123.000000	74.005745
1124.000000	73.966963
1125.000000	73.921490
1126.000000	73.873020
1127.000000	73.824059
1128.000000	73.757920
1129.000000	73.686911
1130.000000	73.604686
1131.000000	73.510593
1132.000000	73.428162
1133.000000	73.361199
1134.000000	73.300618
1135.000000	73.198304
1136.000000	73.056264
1137.000000	72.923577
1138.000000	72.793643
1139.000000	72.691084
1140.000000	72.594555
1141.000000	72.512030
1142.000000	72.418894
1143.000000	72.339040
1144.000000	72.271275
1145.000000	72.217533
1146.000000	72.153534
1147.000000	72.088767
1148.000000	72.016468
1149.000000	71.941776
1150.000000	71.874530
1151.000000	71.804924
1152.000000	71.733520
1153.000000	71.661321
1154.000000	71.561603
1155.000000	71.457928
1156.000000	71.353123
1157.000000	71.219952
1158.000000	71.090066
1159.000000	70.960654
1160.000000	70.822526
1161.000000	70.667112
1162.000000	70.511896
1163.000000	70.354332
1164.000000	70.203523
1165.000000	70.046599
1166.000000	69.891199
1167.000000	69.739115
1168.000000	69.593653
1169.000000	69.450791
1170.000000	69.325910
1171.000000	69.214309
1172.000000	69.117891
1173.000000	69.001687
1174.000000	68.913331
1175.000000	68.826324
1176.000000	68.758399
1177.000000	68.678184
1178.000000	68.602732
1179.000000	68.520711
1180.000000	68.435855
1181.000000	68.371699
1182.000000	68.297022
1183.000000	68.228288
1184.000000	68.188758
1185.000000	68.150862
1186.000000	68.128290
1187.000000	68.109052
1188.000000	68.098388
1189.000000	68.136976
1190.000000	68.178913
1191.000000	68.229430
1192.000000	68.289603
1193.000000	68.347462
1194.000000	68.425901
1195.000000	68.502904
1196.000000	68.571124
1197.000000	68.647216
1198.000000	68.714076
1199.000000	68.784667
1200.000000	68.847622
1201.000000	68.909084
1202.000000	68.967342
1203.000000	69.019596
1204.000000	69.067707
1205.000000	69.121718
1206.000000	69.181693
1207.000000	69.230293
1208.000000	69.290189
1209.000000	69.341381
1210.000000	69.393384
1211.000000	69.433737
1212.000000	69.484085
1213.000000	69.536672
1214.000000	69.584964
1215.000000	69.628942
1216.000000	69.664041
1217.000000	69.708017
1218.000000	69.739062
1219.000000	69.779743
1220.000000	69.810439
1221.000000	69.854049
1222.000000	69.888744
1223.000000	69.924509
1224.000000	69.955487
1225.000000	69.993942
1226.000000	70.024461
1227.000000	70.058840
1228.000000	70.094915
1229.000000	70.135031
1230.000000	70.170450
1231.000000	70.203228
1232.000000	70.234728
1233.000000	70.262945
1234.000000	70.293821
1235.000000	70.330501
1236.000000	70.356310
1237.000000	70.376233
1238.000000	70.409436
1239.000000	70.453389
1240.000000	70.497186
1241.000000	70.533675
1242.000000	70.576147
1243.000000	70.627119
1244.000000	70.666653
1245.000000	70.715087
1246.000000	70.760299
1247.000000	70.806909
1248.000000	70.847049
1249.000000	70.886610
1250.000000	70.920145
1251.000000	70.960675
1252.000000	70.991704
1253.000000	71.021369
1254.000000	71.039191
1255.000000	71.048093
1256.000000	71.053801
1257.000000	71.066670
1258.000000	71.067509
1259.000000	71.061132
1260.000000	71.061116
1261.000000	71.058267
1262.000000	71.051202
1263.000000	71.055016
1264.000000	71.054182
1265.000000	71.046964
1266.000000	71.045938
1267.000000	71.039533
1268.000000	71.032751
1269.000000	71.024362
1270.000000	71.004945
1271.000000	70.997642
1272.000000	70.985205
1273.000000	70.977528
1274.000000	70.967947
1275.000000	70.961864
1276.000000	70.965033
1277.000000	70.969712
1278.000000	70.973157
1279.000000	70.989851
1280.000000	71.004134
1281.000000	71.023499
1282.000000	71.038790
1283.000000	71.055705
1284.000000	71.081367
1285.000000	71.095316
1286.000000	71.114283
1287.000000	71.139549
1288.000000	71.163746
1289.000000	71.181234
1290.000000	71.197314
1291.000000	71.209202
1292.000000	71.214689
1293.000000	71.226626
1294.000000	71.231599
1295.000000	71.231568
1296.000000	71.236165
1297.000000	71.233417
1298.000000	71.227905
1299.000000	71.219973
1300.000000	71.211820
1301.000000	71.203672
1302.000000	71.191874
1303.000000	71.180487
1304.000000	71.168561
1305.000000	71.156512
1306.000000	71.142466
1307.000000	71.117878
1308.000000	71.087884
1309.000000	71.060810
1310.000000	71.037030
1311.000000	71.007987
1312.000000	70.970867
1313.000000	70.935734
1314.000000	70.899311
1315.000000	70.862560
1316.000000	70.822212
1317.000000	70.779618
1318.000000	70.725606
1319.000000	70.673315
1320.000000	70.633888
1321.000000	70.588042
1322.000000	70.538022
1323.000000	70.488270
1324.000000	70.437954
1325.000000	70.381310
1326.000000	70.317268
1327.000000	70.251421
1328.000000	70.181942
1329.000000	70.111580
1330.000000	70.026384
1331.000000	69.943656
1332.000000	69.860456
1333.000000	69.768441
1334.000000	69.660928
1335.000000	69.555691
1336.000000	69.445702
1337.000000	69.332011
1338.000000	69.204873
1339.000000	69.066342
1340.000000	68.924815
1341.000000	68.780474
1342.000000	68.623969
1343.000000	68.471204
1344.000000	68.326416
1345.000000	68.142916
1346.000000	67.943510
1347.000000	67.785061
1348.000000	67.599921
1349.000000	67.394090
1350.000000	67.195088
1351.000000	67.011561
1352.000000	66.821131
1353.000000	66.622163
1354.000000	66.521865
1355.000000	66.407743
1356.000000	66.250726
1357.000000	66.109455
1358.000000	66.030953
1359.000000	65.972725
1360.000000	65.895438
1361.000000	65.907851
1362.000000	65.822085
1363.000000	65.676297
1364.000000	65.569583
1365.000000	65.472348
1366.000000	65.351129
1367.000000	65.250200
1368.000000	65.147331
1369.000000	65.002659
1370.000000	64.841390
1371.000000	64.731681
1372.000000	64.577947
1373.000000	64.399021
1374.000000	64.249856
1375.000000	64.147643
1376.000000	64.023031
1377.000000	63.917569
1378.000000	63.803912
1379.000000	63.740373
1380.000000	63.645199
1381.000000	63.567182
1382.000000	63.416557
1383.000000	63.162912
1384.000000	62.882344
1385.000000	62.621942
1386.000000	62.352408
1387.000000	62.083519
1388.000000	61.843122
1389.000000	61.518248
1390.000000	61.151114
1391.000000	60.925557
1392.000000	60.670022
1393.000000	60.365649
1394.000000	60.104220
1395.000000	59.890295
1396.000000	59.593156
1397.000000	59.120081
1398.000000	58.765973
1399.000000	58.547830
1400.000000	58.332009
1401.000000	57.922514
1402.000000	57.415904
1403.000000	57.038435
1404.000000	56.721158
1405.000000	56.332982
1406.000000	55.925838
1407.000000	55.520218
1408.000000	55.155389
1409.000000	54.744574
1410.000000	54.335070
1411.000000	53.881405
1412.000000	53.487568
1413.000000	53.178127
1414.000000	52.876050
1415.000000	52.492883
1416.000000	52.101528
1417.000000	51.766026
1418.000000	51.517302
1419.000000	51.256383
1420.000000	50.965867
1421.000000	50.640512
1422.000000	50.356656
1423.000000	50.143079
1424.000000	49.909441
1425.000000	49.638123
1426.000000	49.404065
1427.000000	49.192447
1428.000000	48.987209
1429.000000	48.783108
1430.000000	48.584475
1431.000000	48.419959
1432.000000	48.255451
1433.000000	48.106946
1434.000000	47.931683
1435.000000	47.776528
1436.000000	47.617894
1437.000000	47.478297
1438.000000	47.366894
1439.000000	47.224187
1440.000000	47.107870
1441.000000	46.973871
1442.000000	46.859894
1443.000000	46.733176
1444.000000	46.618841
1445.000000	46.534365
1446.000000	46.432235
1447.000000	46.294741
1448.000000	46.163198
1449.000000	46.063670
1450.000000	45.976008
1451.000000	45.893165
1452.000000	45.766081
1453.000000	45.653215
1454.000000	45.523009
1455.000000	45.420551
1456.000000	45.309462
1457.000000	45.191515
1458.000000	45.074574
1459.000000	44.956591
1460.000000	44.854965
1461.000000	44.735775
1462.000000	44.642030
1463.000000	44.519468
1464.000000	44.421034
1465.000000	44.325522
1466.000000	44.227479
1467.000000	44.131648
1468.000000	44.032328
1469.000000	43.943597
1470.000000	43.853571
1471.000000	43.771072
1472.000000	43.685667
1473.000000	43.594252
1474.000000	43.502285
1475.000000	43.416702
1476.000000	43.353862
1477.000000	43.296918
1478.000000	43.244767
1479.000000	43.197265
1480.000000	43.151115
1481.000000	43.115232
1482.000000	43.076661
1483.000000	43.043019
1484.000000	43.011480
1485.000000	42.980030
1486.000000	42.959566
1487.000000	42.936368
1488.000000	42.908921
1489.000000	42.878431
1490.000000	42.854456
1491.000000	42.831847
1492.000000	42.818194
1493.000000	42.801675
1494.000000	42.803885
1495.000000	42.804550
1496.000000	42.803512
1497.000000	42.813092
1498.000000	42.839736
1499.000000	42.860701
1500.000000	42.897257
1501.000000	42.940354
1502.000000	42.998446
1503.000000	43.052701
1504.000000	43.117000
1505.000000	43.182570
1506.000000	43.252294
1507.000000	43.321238
1508.000000	43.391485
1509.000000	43.474269
1510.000000	43.554947
1511.000000	43.634488
1512.000000	43.706300
1513.000000	43.784227
1514.000000	43.866088
1515.000000	43.939747
1516.000000	44.012962
1517.000000	44.088334
1518.000000	44.158016
1519.000000	44.221017
1520.000000	44.287643
1521.000000	44.357526
1522.000000	44.425108
1523.000000	44.485876
1524.000000	44.540319
1525.000000	44.599349
1526.000000	44.663708
1527.000000	44.715685
1528.000000	44.779845
1529.000000	44.841590
1530.000000	44.895279
1531.000000	44.946201
1532.000000	44.992859
1533.000000	45.042393
1534.000000	45.083213
1535.000000	45.124961
1536.000000	45.168023
1537.000000	45.204500
1538.000000	45.237986
1539.000000	45.269246
1540.000000	45.301126
1541.000000	45.332752
1542.000000	45.365794
1543.000000	45.400582
1544.000000	45.444482
1545.000000	45.497373
1546.000000	45.558363
1547.000000	45.623188
1548.000000	45.695659
1549.000000	45.771130
1550.000000	45.845943
1551.000000	45.929276
1552.000000	46.000643
1553.000000	46.068338
1554.000000	46.133939
1555.000000	46.195631
1556.000000	46.245663
1557.000000	46.285216
1558.000000	46.319951
1559.000000	46.341597
1560.000000	46.353130
1561.000000	46.360104
1562.000000	46.357467
1563.000000	46.346325
1564.000000	46.328978
1565.000000	46.314085
1566.000000	46.284814
1567.000000	46.250119
1568.000000	46.218604
1569.000000	46.188661
1570.000000	46.168919
1571.000000	46.151746
1572.000000	46.134714
1573.000000	46.119892
1574.000000	46.113633
1575.000000	46.115170
1576.000000	46.117100
1577.000000	46.122971
1578.000000	46.132916
1579.000000	46.154024
1580.000000	46.178932
1581.000000	46.206526
1582.000000	46.236243
1583.000000	46.274983
1584.000000	46.324371
1585.000000	46.372116
1586.000000	46.418107
1587.000000	46.467115
1588.000000	46.526090
1589.000000	46.571810
1590.000000	46.618078
1591.000000	46.666189
1592.000000	46.724091
1593.000000	46.781340
1594.000000	46.833487
1595.000000	46.894792
1596.000000	46.959074
1597.000000	47.027131
1598.000000	47.101962
1599.000000	47.172621
1600.000000	47.247297
1601.000000	47.321818
1602.000000	47.401194
1603.000000	47.484652
1604.000000	47.564618
1605.000000	47.640322
1606.000000	47.721162
1607.000000	47.791176
1608.000000	47.860125
1609.000000	47.924939
1610.000000	47.979753
1611.000000	48.036610
1612.000000	48.081926
1613.000000	48.129995
1614.000000	48.179951
1615.000000	48.221188
1616.000000	48.258071
1617.000000	48.287938
1618.000000	48.323014
1619.000000	48.361436
1620.000000	48.390137
1621.000000	48.417982
1622.000000	48.462073
1623.000000	48.496724
1624.000000	48.535861
1625.000000	48.568997
1626.000000	48.598585
1627.000000	48.638359
1628.000000	48.681860
1629.000000	48.719627
1630.000000	48.748070
1631.000000	48.779331
1632.000000	48.809827
1633.000000	48.835717
1634.000000	48.851800
1635.000000	48.863326
1636.000000	48.879519
1637.000000	48.899276
1638.000000	48.906882
1639.000000	48.915448
1640.000000	48.914036
1641.000000	48.910787
1642.000000	48.910581
1643.000000	48.904879
1644.000000	48.905280
1645.000000	48.897382
1646.000000	48.895169
1647.000000	48.891378
1648.000000	48.881430
1649.000000	48.870874
1650.000000	48.856736
1651.000000	48.830591
1652.000000	48.786611
1653.000000	48.750103
1654.000000	48.696163
1655.000000	48.629872
1656.000000	48.572126
1657.000000	48.490677
1658.000000	48.391358
1659.000000	48.282184
1660.000000	48.158823
1661.000000	48.033226
1662.000000	47.895811
1663.000000	47.744524
1664.000000	47.583957
1665.000000	47.416858
1666.000000	47.237026
1667.000000	47.073548
1668.000000	46.853613
1669.000000	46.654912
1670.000000	46.466103
1671.000000	46.261968
1672.000000	46.070149
1673.000000	45.878233
1674.000000	45.694541
1675.000000	45.510254
1676.000000	45.325766
1677.000000	45.147392
1678.000000	44.937539
1679.000000	44.721922
1680.000000	44.483203
1681.000000	44.251359
1682.000000	43.998196
1683.000000	43.753262
1684.000000	43.520685
1685.000000	43.303117
1686.000000	43.122092
1687.000000	42.981972
1688.000000	42.898368
1689.000000	42.873857
1690.000000	42.884968
1691.000000	42.948459
1692.000000	43.030040
1693.000000	43.130519
1694.000000	43.223724
1695.000000	43.312694
1696.000000	43.360738
1697.000000	43.410451
1698.000000	43.417601
1699.000000	43.431936
1700.000000	43.424413
1701.000000	43.417721
1702.000000	43.391908
1703.000000	43.367133
1704.000000	43.324432
1705.000000	43.277630
1706.000000	43.211477
1707.000000	43.126154
1708.000000	43.033843
1709.000000	42.923003
1710.000000	42.791820
1711.000000	42.651252
1712.000000	42.486654
1713.000000	42.297796
1714.000000	42.098706
1715.000000	41.888498
1716.000000	41.638386
1717.000000	41.391672
1718.000000	41.144409
1719.000000	40.898054
1720.000000	40.672664
1721.000000	40.486216
1722.000000	40.346153
1723.000000	40.239996
1724.000000	40.189176
1725.000000	40.189297
1726.000000	40.207363
1727.000000	40.250312
1728.000000	40.298719
1729.000000	40.365818
1730.000000	40.417452
1731.000000	40.491237
1732.000000	40.557391
1733.000000	40.610413
1734.000000	40.674454
1735.000000	40.743565
1736.000000	40.809968
1737.000000	40.891896
1738.000000	40.972001
1739.000000	41.058974
1740.000000	41.152400
1741.000000	41.251693
1742.000000	41.349381
1743.000000	41.445844
1744.000000	41.537552
1745.000000	41.621092
1746.000000	41.705610
1747.000000	41.774201
1748.000000	41.836484
1749.000000	41.886869
1750.000000	41.925315
1751.000000	41.952718
1752.000000	41.971316
1753.000000	41.985117
1754.000000	41.994744
1755.000000	41.996902
1756.000000	42.002608
1757.000000	41.990077
1758.000000	41.991414
1759.000000	41.995540
1760.000000	41.994052
1761.000000	41.997406
1762.000000	42.000355
1763.000000	42.008499
1764.000000	42.027247
1765.000000	42.050523
1766.000000	42.075168
1767.000000	42.109599
1768.000000	42.139804
1769.000000	42.186552
1770.000000	42.232815
1771.000000	42.277384
1772.000000	42.327443
1773.000000	42.380639
1774.000000	42.415179
1775.000000	42.460734
1776.000000	42.508848
1777.000000	42.550731
1778.000000	42.584920
1779.000000	42.621721
1780.000000	42.647143
1781.000000	42.659720
1782.000000	42.669598
1783.000000	42.679956
1784.000000	42.681377
1785.000000	42.686710
1786.000000	42.679005
1787.000000	42.662356
1788.000000	42.653503
1789.000000	42.650338
1790.000000	42.644711
1791.000000	42.647108
1792.000000	42.646816
1793.000000	42.656542
1794.000000	42.676305
1795.000000	42.689145
1796.000000	42.699392
1797.000000	42.718285
1798.000000	42.742388
1799.000000	42.761838
1800.000000	42.787863
1801.000000	42.828612
1802.000000	42.845559
1803.000000	42.841753
1804.000000	42.854197
1805.000000	42.869672
1806.000000	42.905225
1807.000000	42.934482
1808.000000	42.947171
1809.000000	42.980281
1810.000000	43.013854
1811.000000	43.050057
1812.000000	43.079966
1813.000000	43.093751
1814.000000	43.104815
1815.000000	43.127407
1816.000000	43.144847
1817.000000	43.146609
1818.000000	43.169020
1819.000000	43.213235
1820.000000	43.250298
1821.000000	43.234676
1822.000000	43.181377
1823.000000	43.133627
1824.000000	43.127364
1825.000000	43.170164
1826.000000	43.212565
1827.000000	43.232558
1828.000000	43.264777
1829.000000	43.306588
1830.000000	43.331098
1831.000000	43.352785
1832.000000	43.374358
1833.000000	43.421219
1834.000000	43.500186
1835.000000	43.591257
1836.000000	43.667877
1837.000000	43.697387
1838.000000	43.727720
1839.000000	43.778507
1840.000000	43.815228
1841.000000	43.841618
1842.000000	43.851303
1843.000000	43.815458
1844.000000	43.815208
1845.000000	43.898488
1846.000000	43.974018
1847.000000	44.039921
1848.000000	44.052053
1849.000000	43.981041
1850.000000	43.936037
1851.000000	43.926047
1852.000000	43.922069
1853.000000	43.925391
1854.000000	43.932488
1855.000000	43.895179
1856.000000	43.845769
1857.000000	43.826083
1858.000000	43.790095
1859.000000	43.721427
1860.000000	43.634798
1861.000000	43.529562
1862.000000	43.418895
1863.000000	43.318828
1864.000000	43.263041
1865.000000	43.219201
1866.000000	43.170538
1867.000000	43.132969
1868.000000	43.059434
1869.000000	42.962570
1870.000000	42.788489
1871.000000	42.581575
1872.000000	42.359859
1873.000000	42.113184
1874.000000	41.826397
1875.000000	41.531398
1876.000000	41.248083
1877.000000	40.956128
1878.000000	40.679499
1879.000000	40.355573
1880.000000	40.036319
1881.000000	39.723614
1882.000000	39.369523
1883.000000	38.972871
1884.000000	38.554499
1885.000000	38.077909
1886.000000	37.592935
1887.000000	37.103503
1888.000000	36.617825
1889.000000	36.102128
1890.000000	35.565822
1891.000000	34.989250
1892.000000	34.338890
1893.000000	33.650745
1894.000000	33.038241
1895.000000	32.497497
1896.000000	31.983722
1897.000000	31.468294
1898.000000	30.909926
1899.000000	30.318694
1900.000000	29.659327
1901.000000	29.017111
1902.000000	28.457361
1903.000000	27.920025
1904.000000	27.425801
1905.000000	26.908441
1906.000000	26.378059
1907.000000	25.842312
1908.000000	25.393855
1909.000000	25.020781
1910.000000	24.703128
1911.000000	24.395268
1912.000000	24.085994
1913.000000	23.735202
1914.000000	23.361667
1915.000000	23.023053
1916.000000	22.774361
1917.000000	22.565395
1918.000000	22.343581
1919.000000	22.132109
1920.000000	21.951591
1921.000000	21.737492
1922.000000	21.518838
1923.000000	21.318850
1924.000000	21.183099
1925.000000	21.065601
1926.000000	20.947705
1927.000000	20.846251
1928.000000	20.724259
1929.000000	20.630018
1930.000000	20.540663
1931.000000	20.459248
1932.000000	20.416260
1933.000000	20.371740
1934.000000	20.340919
1935.000000	20.314493
1936.000000	20.305451
1937.000000	20.316910
1938.000000	20.329029
1939.000000	20.330517
1940.000000	20.336676
1941.000000	20.373166
1942.000000	20.404740
1943.000000	20.459715
1944.000000	20.499319
1945.000000	20.554456
1946.000000	20.613537
1947.000000	20.685598
1948.000000	20.756556
1949.000000	20.827355
1950.000000	20.901299
1951.000000	21.000449
1952.000000	21.080277
1953.000000	21.169333
1954.000000	21.253336
1955.000000	21.348886
1956.000000	21.452268
1957.000000	21.530555
1958.000000	21.620610
1959.000000	21.726350
1960.000000	21.830725
1961.000000	21.919857
1962.000000	22.022833
1963.000000	22.106806
1964.000000	22.205955
1965.000000	22.305549
1966.000000	22.377388
1967.000000	22.476799
1968.000000	22.575468
1969.000000	22.657875
1970.000000	22.752384
1971.000000	22.846152
1972.000000	22.930858
1973.000000	23.034703
1974.000000	23.116236
1975.000000	23.223635
1976.000000	23.312508
1977.000000	23.421813
1978.000000	23.518653
1979.000000	23.622367
1980.000000	23.729821
1981.000000	23.836785
1982.000000	23.935685
1983.000000	24.043752
1984.000000	24.136701
1985.000000	24.247365
1986.000000	24.350348
1987.000000	24.457945
1988.000000	24.553408
1989.000000	24.648697
1990.000000	24.750660
1991.000000	24.836186
1992.000000	24.943320
1993.000000	25.033992
1994.000000	25.122311
1995.000000	25.207596
1996.000000	25.277386
1997.000000	25.351695
1998.000000	25.429234
1999.000000	25.504190
2000.000000	25.565033
2001.000000	25.621279
2002.000000	25.672638
2003.000000	25.726616
2004.000000	25.774663
2005.000000	25.822328
2006.000000	25.846133
2007.000000	25.881551
2008.000000	25.898191
2009.000000	25.911520
2010.000000	25.921001
2011.000000	25.915854
2012.000000	25.922038
2013.000000	25.911275
2014.000000	25.886080
2015.000000	25.870206
2016.000000	25.850175
2017.000000	25.809849
2018.000000	25.769039
2019.000000	25.718681
2020.000000	25.671521
2021.000000	25.614790
2022.000000	25.547368
2023.000000	25.482682
2024.000000	25.408040
2025.000000	25.336965
2026.000000	25.253218
2027.000000	25.165136
2028.000000	25.082504
2029.000000	24.984979
2030.000000	24.875619
2031.000000	24.766005
2032.000000	24.651796
2033.000000	24.530231
2034.000000	24.407052
2035.000000	24.268673
2036.000000	24.139301
2037.000000	23.991858
2038.000000	23.838029
2039.000000	23.681622
2040.000000	23.519461
2041.000000	23.349631
2042.000000	23.186137
2043.000000	23.016343
2044.000000	22.859002
2045.000000	22.694544
2046.000000	22.534333
2047.000000	22.394277
2048.000000	22.265124
2049.000000	22.141092
2050.000000	22.040041
2051.000000	21.956612
2052.000000	21.893197
2053.000000	21.864276
2054.000000	21.842800
2055.000000	21.836973
2056.000000	21.862102
2057.000000	21.896285
2058.000000	21.951298
2059.000000	22.030547
2060.000000	22.107255
2061.000000	22.198779
2062.000000	22.311939
2063.000000	22.420797
2064.000000	22.535027
2065.000000	22.654990
2066.000000	22.773336
2067.000000	22.900473
2068.000000	23.015371
2069.000000	23.131345
2070.000000	23.246373
2071.000000	23.349463
2072.000000	23.448762
2073.000000	23.547719
2074.000000	23.638918
2075.000000	23.720887
2076.000000	23.788321
2077.000000	23.858309
2078.000000	23.920122
2079.000000	23.968993
2080.000000	24.014489
2081.000000	24.050358
2082.000000	24.071395
2083.000000	24.085983
2084.000000	24.099780
2085.000000	24.102746
2086.000000	24.108106
2087.000000	24.101865
2088.000000	24.082030
2089.000000	24.066777
2090.000000	24.043999
2091.000000	24.016729
2092.000000	23.998481
2093.000000	23.973844
2094.000000	23.950223
2095.000000	23.931472
2096.000000	23.907003
2097.000000	23.890085
2098.000000	23.878024
2099.000000	23.865079
2100.000000	23.864715
2101.000000	23.855824
2102.000000	23.842003
2103.000000	23.840795
2104.000000	23.844842
2105.000000	23.842301
2106.000000	23.836749
2107.000000	23.835572
2108.000000	23.835023
2109.000000	23.823293
2110.000000	23.813852
2111.000000	23.808426
2112.000000	23.795976
2113.000000	23.783450
2114.000000	23.770353
2115.000000	23.752528
2116.000000	23.727886
2117.000000	23.707708
2118.000000	23.686566
2119.000000	23.652946
2120.000000	23.619466
2121.000000	23.578326
2122.000000	23.535877
2123.000000	23.493104
2124.000000	23.443297
2125.000000	23.386643
2126.000000	23.330800
2127.000000	23.270404
2128.000000	23.205834
2129.000000	23.141496
2130.000000	23.072183
2131.000000	22.994526
2132.000000	22.915057
2133.000000	22.837769
2134.000000	22.747934
2135.000000	22.661390
2136.000000	22.566746
2137.000000	22.475931
2138.000000	22.369968
2139.000000	22.269899
2140.000000	22.163356
2141.000000	22.061278
2142.000000	21.954932
2143.000000	21.846215
2144.000000	21.733591
2145.000000	21.628971
2146.000000	21.514713
2147.000000	21.402940
2148.000000	21.286219
2149.000000	21.176675
2150.000000	21.066896
2151.000000	20.962439
2152.000000	20.856740
2153.000000	20.742344
2154.000000	20.643290
2155.000000	20.547821
2156.000000	20.453640
2157.000000	20.359075
2158.000000	20.280833
2159.000000	20.204890
2160.000000	20.125513
2161.000000	20.060075
2162.000000	20.005630
2163.000000	19.948817
2164.000000	19.908655
2165.000000	19.853229
2166.000000	19.805833
2167.000000	19.777215
2168.000000	19.754756
2169.000000	19.726709
2170.000000	19.699309
2171.000000	19.680066
2172.000000	19.659460
2173.000000	19.657816
2174.000000	19.649889
2175.000000	19.647313
2176.000000	19.652987
2177.000000	19.651514
2178.000000	19.663815
2179.000000	19.670177
2180.000000	19.690189
2181.000000	19.710248
2182.000000	19.726403
2183.000000	19.751841
2184.000000	19.768849
2185.000000	19.792282
2186.000000	19.808324
2187.000000	19.835536
2188.000000	19.854902
2189.000000	19.866798
2190.000000	19.886540
2191.000000	19.914459
2192.000000	19.936670
2193.000000	19.952922
2194.000000	19.975894
2195.000000	20.011095
2196.000000	20.039111
2197.000000	20.077407
2198.000000	20.104878
2199.000000	20.134977
2200.000000	20.172278
2201.000000	20.206506
2202.000000	20.250810
2203.000000	20.282115
2204.000000	20.319468
2205.000000	20.376916
2206.000000	20.412446
2207.000000	20.466819
2208.000000	20.517765
2209.000000	20.571874
2210.000000	20.629048
2211.000000	20.703602
2212.000000	20.757835
2213.000000	20.821199
2214.000000	20.897988
2215.000000	20.961608
2216.000000	21.037378
2217.000000	21.111881
2218.000000	21.191275
2219.000000	21.258481
2220.000000	21.338033
2221.000000	21.407821
2222.000000	21.480421
2223.000000	21.548003
2224.000000	21.608320
2225.000000	21.667741
2226.000000	21.717769
2227.000000	21.765529
2228.000000	21.801639
2229.000000	21.839033
2230.000000	21.854938
2231.000000	21.870955
2232.000000	21.886960
2233.000000	21.890474
2234.000000	21.884439
2235.000000	21.868782
2236.000000	21.836760
2237.000000	21.811315
2238.000000	21.756835
2239.000000	21.706081
2240.000000	21.641272
2241.000000	21.567093
2242.000000	21.483303
2243.000000	21.387174
2244.000000	21.275125
2245.000000	21.162600
2246.000000	21.032924
2247.000000	20.904581
2248.000000	20.772254
2249.000000	20.625755
2250.000000	20.469849
2251.000000	20.322547
2252.000000	20.159065
2253.000000	20.002698
2254.000000	19.843325
2255.000000	19.673076
2256.000000	19.518454
2257.000000	19.376598
2258.000000	19.231062
2259.000000	19.097502
2260.000000	18.961963
2261.000000	18.850870
2262.000000	18.742445
2263.000000	18.634987
2264.000000	18.549346
2265.000000	18.476562
2266.000000	18.389577
2267.000000	18.333798
2268.000000	18.270378
2269.000000	18.225733
2270.000000	18.189405
2271.000000	18.147253
2272.000000	18.110376
2273.000000	18.087438
2274.000000	18.064633
2275.000000	18.040438
2276.000000	18.002284
2277.000000	17.988067
2278.000000	17.958567
2279.000000	17.920510
2280.000000	17.888277
2281.000000	17.845620
2282.000000	17.821208
2283.000000	17.786160
2284.000000	17.754125
2285.000000	17.715370
2286.000000	17.685336
2287.000000	17.653457
2288.000000	17.617476
2289.000000	17.582979
2290.000000	17.552085
2291.000000	17.532968
2292.000000	17.513061
2293.000000	17.484105
2294.000000	17.466873
2295.000000	17.445039
2296.000000	17.438024
2297.000000	17.417460
2298.000000	17.416736
2299.000000	17.413341
2300.000000	17.409018
2301.000000	17.411873
2302.000000	17.424443
2303.000000	17.437233
2304.000000	17.453692
2305.000000	17.469371
2306.000000	17.495791
2307.000000	17.516595
2308.000000	17.550193
2309.000000	17.594187
2310.000000	17.621901
2311.000000	17.650873
2312.000000	17.676069
2313.000000	17.710200
2314.000000	17.735184
2315.000000	17.762306
2316.000000	17.786178
2317.000000	17.807716
2318.000000	17.819907
2319.000000	17.825563
2320.000000	17.825866
2321.000000	17.821161
2322.000000	17.816834
2323.000000	17.806073
2324.000000	17.790689
2325.000000	17.779891
2326.000000	17.764626
2327.000000	17.744219
2328.000000	17.724271
2329.000000	17.705853
2330.000000	17.687444
2331.000000	17.673188
2332.000000	17.659173
2333.000000	17.638630
2334.000000	17.626946
2335.000000	17.635008
2336.000000	17.641364
2337.000000	17.634540
2338.000000	17.636056
2339.000000	17.644509
2340.000000	17.656846
2341.000000	17.670440
2342.000000	17.685809
2343.000000	17.699448
2344.000000	17.715991
2345.000000	17.739044
2346.000000	17.755373
2347.000000	17.768137
2348.000000	17.795664
2349.000000	17.819833
2350.000000	17.841423
2351.000000	17.868222
2352.000000	17.886822
2353.000000	17.909358
2354.000000	17.945346
2355.000000	17.965324
2356.000000	17.982203
2357.000000	18.000973
2358.000000	18.014316
2359.000000	18.024795
2360.000000	18.037329
2361.000000	18.050379
2362.000000	18.064977
2363.000000	18.073190
2364.000000	18.079094
2365.000000	18.090552
2366.000000	18.100311
2367.000000	18.110574
2368.000000	18.114950
2369.000000	18.121849
2370.000000	18.135461
2371.000000	18.150116
2372.000000	18.168656
2373.000000	18.178587
2374.000000	18.191853
2375.000000	18.207251
2376.000000	18.222019
2377.000000	18.238173
2378.000000	18.250152
2379.000000	18.264122
2380.000000	18.283828
2381.000000	18.297277
2382.000000	18.313080
2383.000000	18.326857
2384.000000	18.333163
2385.000000	18.337866
2386.000000	18.340538
2387.000000	18.346500
2388.000000	18.342713
2389.000000	18.340166
2390.000000	18.336720
2391.000000	18.329486
2392.000000	18.318360
2393.000000	18.311187
2394.000000	18.299483
2395.000000	18.290246
2396.000000	18.275444
2397.000000	18.259108
2398.000000	18.240328
2399.000000	18.214925
2400.000000	18.184760
2401.000000	18.155075
2402.000000	18.124045
2403.000000	18.104195
2404.000000	18.083239
2405.000000	18.061430
2406.000000	18.024506
2407.000000	17.990497
2408.000000	17.964394
2409.000000	17.934593
2410.000000	17.906239
2411.000000	17.865516
2412.000000	17.825244
2413.000000	17.784905
2414.000000	17.744608
2415.000000	17.690575
2416.000000	17.637373
2417.000000	17.589626
2418.000000	17.537544
2419.000000	17.471797
2420.000000	17.405770
2421.000000	17.351619
2422.000000	17.287221
2423.000000	17.214192
2424.000000	17.133399
2425.000000	17.066815
2426.000000	16.991933
2427.000000	16.908133
2428.000000	16.827295
2429.000000	16.739092
2430.000000	16.646337
2431.000000	16.559762
2432.000000	16.483953
2433.000000	16.386628
2434.000000	16.297721
2435.000000	16.196632
2436.000000	16.104875
2437.000000	16.014763
2438.000000	15.916356
2439.000000	15.799548
2440.000000	15.707104
2441.000000	15.608166
2442.000000	15.512668
2443.000000	15.405818
2444.000000	15.301638
2445.000000	15.207631
2446.000000	15.105082
2447.000000	15.015500
2448.000000	14.929282
2449.000000	14.832402
2450.000000	14.732285
2451.000000	14.641448
2452.000000	14.552548
2453.000000	14.470383
2454.000000	14.389001
2455.000000	14.309481
2456.000000	14.253120
2457.000000	14.163052
2458.000000	14.090568
2459.000000	14.031824
2460.000000	13.980472
2461.000000	13.908556
2462.000000	13.849998
2463.000000	13.768666
2464.000000	13.710949
2465.000000	13.689136
2466.000000	13.645269
2467.000000	13.592957
2468.000000	13.563677
2469.000000	13.520427
2470.000000	13.474925
2471.000000	13.454797
2472.000000	13.429231
2473.000000	13.382639
2474.000000	13.345697
2475.000000	13.334457
2476.000000	13.319611
2477.000000	13.303657
2478.000000	13.228192
2479.000000	13.234314
2480.000000	13.208347
2481.000000	13.211955
2482.000000	13.178247
2483.000000	13.175701
2484.000000	13.181218
2485.000000	13.195693
2486.000000	13.183785
2487.000000	13.177956
2488.000000	13.176507
2489.000000	13.193233
2490.000000	13.183067
2491.000000	13.169050
2492.000000	13.204307
2493.000000	13.226968
2494.000000	13.214636
2495.000000	13.284905
2496.000000	13.235687
2497.000000	13.313379
2498.000000	13.316575
2499.000000	13.350886
2500.000000	13.386197
