PE UV       SUBTECH     SPECTRUM    ASCII       PEDS        4.00        
   -1
INBUCR0145-3.Sample.ASC
24/04/29
15:39:56.00
24/04/29
15:39:56.00
Vinicio Soto Monge
C. kalinini
250,000000
1
Lambda 1050
1050L1511233
PerkinElmer UV WinLab 6.3.2.0749 / 2.02.05 Lambda 900 UV/VIS/NIR, Aug  7 2015 09:38:08

0
0
3350/servo 860,8/2
0
0
UV/VIS
1
1
1
DoubleDePol,CommonBeamDepol,RBeamAtt,SBeamAtt,60mm sphere, WB InGaAs Detector
0
0
0
0
Program
Program
3350/servo 860,8/2
3350/0,2 860,8/0,2
3350/0,2 860,8/0,2
0
15.00
 
 
 
0
 
860,8
319,2
860,8
Front
100
on
S:100 R:100
0
0
0
0
 
0
 
 
 
0
 
 
0
0
0
0
0
 
 
 
 
0
0


0
0
#HDR
-1
-1
#GR
nm
%R
1.0
0.0
2500,000000
-1,000000
2251
8
88,998600
5,964700
#DATA
250.000000	7.025633
251.000000	7.005900
252.000000	6.950000
253.000000	6.904867
254.000000	6.879700
255.000000	6.922233
256.000000	6.853533
257.000000	6.857700
258.000000	6.789433
259.000000	6.809767
260.000000	6.739367
261.000000	6.722600
262.000000	6.705133
263.000000	6.629933
264.000000	6.612167
265.000000	6.579867
266.000000	6.539833
267.000000	6.499567
268.000000	6.496200
269.000000	6.444900
270.000000	6.426133
271.000000	6.407700
272.000000	6.382967
273.000000	6.385833
274.000000	6.342033
275.000000	6.332067
276.000000	6.325633
277.000000	6.329467
278.000000	6.312333
279.000000	6.314867
280.000000	6.291967
281.000000	6.301600
282.000000	6.317500
283.000000	6.331000
284.000000	6.293967
285.000000	6.293100
286.000000	6.273067
287.000000	6.309100
288.000000	6.285267
289.000000	6.265567
290.000000	6.300733
291.000000	6.267900
292.000000	6.219000
293.000000	6.281133
294.000000	6.275000
295.000000	6.269733
296.000000	6.230867
297.000000	6.227067
298.000000	6.212833
299.000000	6.206867
300.000000	6.221167
301.000000	6.241200
302.000000	6.199967
303.000000	6.204767
304.000000	6.202900
305.000000	6.225900
306.000000	6.188833
307.000000	6.163667
308.000000	6.144133
309.000000	6.201600
310.000000	6.175267
311.000000	6.142933
312.000000	6.164700
313.000000	6.170000
314.000000	6.116900
315.000000	6.125100
316.000000	6.343267
317.000000	8.228100
318.000000	7.573000
319.000000	7.055667
320.000000	8.018900
321.000000	7.359633
322.000000	7.125267
323.000000	7.666300
324.000000	7.284500
325.000000	7.263467
326.000000	6.809633
327.000000	6.932900
328.000000	6.650767
329.000000	6.486867
330.000000	6.525333
331.000000	6.905767
332.000000	6.354867
333.000000	6.548900
334.000000	6.401867
335.000000	6.575700
336.000000	6.618233
337.000000	6.489967
338.000000	6.487800
339.000000	6.592133
340.000000	6.399500
341.000000	6.488067
342.000000	6.638400
343.000000	6.567200
344.000000	6.434567
345.000000	6.295467
346.000000	6.334133
347.000000	6.366500
348.000000	6.330300
349.000000	6.326500
350.000000	6.408733
351.000000	6.371333
352.000000	6.369800
353.000000	6.379933
354.000000	6.321333
355.000000	6.347400
356.000000	6.533000
357.000000	6.485533
358.000000	6.417167
359.000000	6.312267
360.000000	6.416000
361.000000	6.408467
362.000000	6.404900
363.000000	6.244700
364.000000	6.261467
365.000000	6.351067
366.000000	6.349567
367.000000	6.411300
368.000000	6.303767
369.000000	6.324000
370.000000	6.272933
371.000000	6.193667
372.000000	6.084567
373.000000	5.991000
374.000000	6.069667
375.000000	6.315233
376.000000	6.775767
377.000000	6.926633
378.000000	7.002900
379.000000	7.088833
380.000000	7.169233
381.000000	7.232567
382.000000	7.325433
383.000000	7.424033
384.000000	7.536600
385.000000	7.650533
386.000000	7.775300
387.000000	7.897400
388.000000	8.038133
389.000000	8.199867
390.000000	8.359033
391.000000	8.535333
392.000000	8.719800
393.000000	8.909900
394.000000	9.105567
395.000000	9.309400
396.000000	9.524467
397.000000	9.741833
398.000000	9.971733
399.000000	10.207667
400.000000	10.446567
401.000000	10.696533
402.000000	10.954667
403.000000	11.234433
404.000000	11.516900
405.000000	11.794000
406.000000	12.044100
407.000000	12.311033
408.000000	12.604500
409.000000	12.882200
410.000000	13.160533
411.000000	13.453900
412.000000	13.759300
413.000000	14.044467
414.000000	14.326400
415.000000	14.610233
416.000000	14.900467
417.000000	15.171867
418.000000	15.427267
419.000000	15.692933
420.000000	15.962600
421.000000	16.244367
422.000000	16.484433
423.000000	16.711067
424.000000	16.940733
425.000000	17.169033
426.000000	17.405500
427.000000	17.614833
428.000000	17.811367
429.000000	18.011933
430.000000	18.200233
431.000000	18.377500
432.000000	18.550200
433.000000	18.706733
434.000000	18.853400
435.000000	18.997533
436.000000	19.113033
437.000000	19.208833
438.000000	19.323867
439.000000	19.433000
440.000000	19.533867
441.000000	19.628333
442.000000	19.700333
443.000000	19.771533
444.000000	19.851100
445.000000	19.927533
446.000000	20.017133
447.000000	20.099367
448.000000	20.166300
449.000000	20.249367
450.000000	20.354933
451.000000	20.469833
452.000000	20.580133
453.000000	20.703900
454.000000	20.879000
455.000000	21.047000
456.000000	21.211800
457.000000	21.395167
458.000000	21.595067
459.000000	21.819500
460.000000	22.047833
461.000000	22.279433
462.000000	22.529567
463.000000	22.797833
464.000000	23.072433
465.000000	23.349933
466.000000	23.615067
467.000000	23.888900
468.000000	24.166933
469.000000	24.445100
470.000000	24.739467
471.000000	25.015367
472.000000	25.290633
473.000000	25.583800
474.000000	25.876833
475.000000	26.148700
476.000000	26.424100
477.000000	26.711800
478.000000	27.009000
479.000000	27.298567
480.000000	27.608033
481.000000	27.925167
482.000000	28.231667
483.000000	28.554100
484.000000	28.888500
485.000000	29.213700
486.000000	29.569067
487.000000	29.963900
488.000000	30.382533
489.000000	30.807867
490.000000	31.255667
491.000000	31.753733
492.000000	32.251400
493.000000	32.759300
494.000000	33.299200
495.000000	33.861033
496.000000	34.452000
497.000000	35.047600
498.000000	35.655133
499.000000	36.276700
500.000000	36.918633
501.000000	37.573933
502.000000	38.235800
503.000000	38.893533
504.000000	39.574700
505.000000	40.255067
506.000000	40.914333
507.000000	41.547267
508.000000	42.181100
509.000000	42.816700
510.000000	43.443433
511.000000	44.101067
512.000000	44.737533
513.000000	45.375433
514.000000	46.046733
515.000000	46.697500
516.000000	47.354833
517.000000	48.003233
518.000000	48.669100
519.000000	49.331500
520.000000	49.992600
521.000000	50.646600
522.000000	51.313900
523.000000	51.962333
524.000000	52.607767
525.000000	53.239500
526.000000	53.857533
527.000000	54.479900
528.000000	55.096267
529.000000	55.718133
530.000000	56.328733
531.000000	56.948933
532.000000	57.575600
533.000000	58.176367
534.000000	58.768333
535.000000	59.349000
536.000000	59.910300
537.000000	60.453800
538.000000	60.952867
539.000000	61.451967
540.000000	61.932667
541.000000	62.386967
542.000000	62.808133
543.000000	63.230467
544.000000	63.634833
545.000000	64.013133
546.000000	64.396900
547.000000	64.767500
548.000000	65.167433
549.000000	65.542967
550.000000	65.919367
551.000000	66.279800
552.000000	66.636300
553.000000	66.989967
554.000000	67.326833
555.000000	67.669067
556.000000	67.953233
557.000000	68.233800
558.000000	68.507133
559.000000	68.772667
560.000000	69.082700
561.000000	69.302800
562.000000	69.526400
563.000000	69.737867
564.000000	69.894167
565.000000	70.083100
566.000000	70.271533
567.000000	70.419567
568.000000	70.594467
569.000000	70.730733
570.000000	70.874200
571.000000	71.015800
572.000000	71.153700
573.000000	71.299933
574.000000	71.383067
575.000000	71.506767
576.000000	71.581533
577.000000	71.678933
578.000000	71.730367
579.000000	71.756900
580.000000	71.817233
581.000000	71.794967
582.000000	71.825367
583.000000	71.841700
584.000000	71.822767
585.000000	71.778967
586.000000	71.722267
587.000000	71.698333
588.000000	71.611133
589.000000	71.507200
590.000000	71.449500
591.000000	71.333100
592.000000	71.228167
593.000000	71.100400
594.000000	71.005700
595.000000	70.875200
596.000000	70.741733
597.000000	70.609533
598.000000	70.451600
599.000000	70.294667
600.000000	70.135267
601.000000	69.906267
602.000000	69.740633
603.000000	69.538600
604.000000	69.326467
605.000000	69.073967
606.000000	68.813767
607.000000	68.571733
608.000000	68.261267
609.000000	67.971300
610.000000	67.696933
611.000000	67.431167
612.000000	67.113767
613.000000	66.848000
614.000000	66.583967
615.000000	66.336767
616.000000	66.113867
617.000000	65.841900
618.000000	65.635767
619.000000	65.406600
620.000000	65.210500
621.000000	65.003167
622.000000	64.808067
623.000000	64.579167
624.000000	64.373333
625.000000	64.123233
626.000000	63.900300
627.000000	63.617267
628.000000	63.399100
629.000000	63.110633
630.000000	62.860600
631.000000	62.635200
632.000000	62.337467
633.000000	62.079233
634.000000	61.827533
635.000000	61.597500
636.000000	61.346467
637.000000	61.141967
638.000000	60.922333
639.000000	60.707767
640.000000	60.486267
641.000000	60.241667
642.000000	59.981367
643.000000	59.738733
644.000000	59.490500
645.000000	59.262700
646.000000	59.002567
647.000000	58.779867
648.000000	58.545333
649.000000	58.301533
650.000000	58.098267
651.000000	57.895833
652.000000	57.728633
653.000000	57.571100
654.000000	57.414167
655.000000	57.280633
656.000000	57.140900
657.000000	57.042267
658.000000	56.974667
659.000000	56.920833
660.000000	56.856300
661.000000	56.806267
662.000000	56.837667
663.000000	56.908900
664.000000	56.960367
665.000000	57.062933
666.000000	57.164067
667.000000	57.308800
668.000000	57.507667
669.000000	57.697500
670.000000	57.932900
671.000000	58.224600
672.000000	58.483700
673.000000	58.765533
674.000000	59.096967
675.000000	59.449200
676.000000	59.819867
677.000000	60.187067
678.000000	60.577067
679.000000	61.006833
680.000000	61.462067
681.000000	61.934833
682.000000	62.387200
683.000000	62.860800
684.000000	63.378500
685.000000	63.873433
686.000000	64.390367
687.000000	64.926433
688.000000	65.427633
689.000000	65.970700
690.000000	66.512167
691.000000	67.059033
692.000000	67.605833
693.000000	68.168367
694.000000	68.712633
695.000000	69.247633
696.000000	69.805100
697.000000	70.357300
698.000000	70.879300
699.000000	71.415700
700.000000	71.949133
701.000000	72.465200
702.000000	72.965367
703.000000	73.513500
704.000000	74.001367
705.000000	74.481333
706.000000	74.958933
707.000000	75.374833
708.000000	75.753233
709.000000	76.158667
710.000000	76.554467
711.000000	76.935467
712.000000	77.255433
713.000000	77.571800
714.000000	77.908800
715.000000	78.161067
716.000000	78.439067
717.000000	78.700133
718.000000	78.924233
719.000000	79.094000
720.000000	79.230567
721.000000	79.396500
722.000000	79.546167
723.000000	79.709733
724.000000	79.807667
725.000000	79.889267
726.000000	79.977933
727.000000	80.075300
728.000000	80.160067
729.000000	80.259000
730.000000	80.298400
731.000000	80.338133
732.000000	80.410900
733.000000	80.432333
734.000000	80.443733
735.000000	80.508033
736.000000	80.586067
737.000000	80.650800
738.000000	80.722900
739.000000	80.824367
740.000000	80.839533
741.000000	80.884967
742.000000	81.011000
743.000000	81.129433
744.000000	81.221500
745.000000	81.317433
746.000000	81.446700
747.000000	81.535900
748.000000	81.674633
749.000000	81.834833
750.000000	81.912633
751.000000	81.972867
752.000000	82.171233
753.000000	82.388900
754.000000	82.451367
755.000000	82.545700
756.000000	82.690567
757.000000	82.818867
758.000000	82.885267
759.000000	82.997433
760.000000	83.161300
761.000000	83.304767
762.000000	83.433133
763.000000	83.562400
764.000000	83.629500
765.000000	83.756000
766.000000	83.866267
767.000000	84.004233
768.000000	84.122267
769.000000	84.212567
770.000000	84.343467
771.000000	84.467967
772.000000	84.529067
773.000000	84.606533
774.000000	84.736833
775.000000	84.892967
776.000000	85.021100
777.000000	85.144567
778.000000	85.303933
779.000000	85.449167
780.000000	85.580500
781.000000	85.693633
782.000000	85.857367
783.000000	86.028367
784.000000	86.157100
785.000000	86.257867
786.000000	86.343700
787.000000	86.409700
788.000000	86.527900
789.000000	86.608600
790.000000	86.652267
791.000000	86.731833
792.000000	86.694167
793.000000	86.708667
794.000000	86.740933
795.000000	86.857500
796.000000	86.895967
797.000000	86.947000
798.000000	86.965033
799.000000	86.961400
800.000000	86.937300
801.000000	86.960033
802.000000	86.931900
803.000000	87.073267
804.000000	87.172133
805.000000	87.262933
806.000000	87.256033
807.000000	87.280800
808.000000	87.508200
809.000000	87.558367
810.000000	87.695633
811.000000	87.836933
812.000000	87.888167
813.000000	88.092333
814.000000	88.162800
815.000000	88.353300
816.000000	88.424433
817.000000	88.480300
818.000000	88.606367
819.000000	88.898233
820.000000	88.966800
821.000000	88.884067
822.000000	88.923267
823.000000	89.083967
824.000000	89.130333
825.000000	89.101733
826.000000	89.157700
827.000000	88.967867
828.000000	88.919567
829.000000	89.032233
830.000000	88.917967
831.000000	88.645200
832.000000	88.455533
833.000000	88.258700
834.000000	88.214100
835.000000	87.945733
836.000000	87.571533
837.000000	87.402833
838.000000	87.192300
839.000000	86.931133
840.000000	86.632400
841.000000	86.332400
842.000000	86.151800
843.000000	85.917667
844.000000	85.466500
845.000000	85.486233
846.000000	84.938767
847.000000	84.731400
848.000000	84.421533
849.000000	84.257500
850.000000	84.226900
851.000000	83.861133
852.000000	83.604500
853.000000	83.559067
854.000000	83.264333
855.000000	83.340200
856.000000	83.067100
857.000000	83.058467
858.000000	83.155256
859.000000	80.943678
860.000000	80.866299
861.000000	80.781636
862.000000	80.717253
863.000000	80.626732
864.000000	80.548007
865.000000	80.473530
866.000000	80.399175
867.000000	80.302472
868.000000	80.223808
869.000000	80.120094
870.000000	79.995261
871.000000	79.898777
872.000000	79.980995
873.000000	80.354769
874.000000	80.865953
875.000000	81.316429
876.000000	81.814424
877.000000	82.159223
878.000000	82.586800
879.000000	82.892769
880.000000	83.130539
881.000000	83.419570
882.000000	83.627853
883.000000	83.890333
884.000000	84.086500
885.000000	84.315218
886.000000	84.506995
887.000000	84.703628
888.000000	84.809607
889.000000	84.958853
890.000000	85.100378
891.000000	85.177667
892.000000	85.230183
893.000000	85.281914
894.000000	85.348681
895.000000	85.409303
896.000000	85.408679
897.000000	85.457329
898.000000	85.432568
899.000000	85.409968
900.000000	85.396906
901.000000	85.354759
902.000000	85.303602
903.000000	85.246383
904.000000	85.213341
905.000000	85.150471
906.000000	85.087434
907.000000	85.001538
908.000000	84.925998
909.000000	84.857186
910.000000	84.790728
911.000000	84.694560
912.000000	84.587604
913.000000	84.492273
914.000000	84.404319
915.000000	84.305221
916.000000	84.226984
917.000000	84.124048
918.000000	84.046477
919.000000	83.927806
920.000000	83.842782
921.000000	83.728508
922.000000	83.607822
923.000000	83.515925
924.000000	83.417586
925.000000	83.306979
926.000000	83.223064
927.000000	83.101836
928.000000	82.975654
929.000000	82.871660
930.000000	82.769932
931.000000	82.630889
932.000000	82.514372
933.000000	82.409839
934.000000	82.311605
935.000000	82.198734
936.000000	82.070874
937.000000	81.949718
938.000000	81.845014
939.000000	81.743008
940.000000	81.622201
941.000000	81.493343
942.000000	81.390782
943.000000	81.293662
944.000000	81.187080
945.000000	81.058304
946.000000	80.956618
947.000000	80.853967
948.000000	80.729465
949.000000	80.625540
950.000000	80.533229
951.000000	80.427910
952.000000	80.341687
953.000000	80.230262
954.000000	80.108208
955.000000	80.015482
956.000000	79.920714
957.000000	79.822836
958.000000	79.723300
959.000000	79.631770
960.000000	79.517101
961.000000	79.412120
962.000000	79.303437
963.000000	79.188839
964.000000	79.072450
965.000000	78.954949
966.000000	78.824500
967.000000	78.700938
968.000000	78.562866
969.000000	78.434165
970.000000	78.327522
971.000000	78.186753
972.000000	78.044737
973.000000	77.935117
974.000000	77.825041
975.000000	77.704237
976.000000	77.584663
977.000000	77.472935
978.000000	77.379324
979.000000	77.279834
980.000000	77.183291
981.000000	77.074577
982.000000	76.990148
983.000000	76.909966
984.000000	76.822977
985.000000	76.731407
986.000000	76.665080
987.000000	76.591800
988.000000	76.516587
989.000000	76.455291
990.000000	76.396012
991.000000	76.323035
992.000000	76.279151
993.000000	76.224232
994.000000	76.172121
995.000000	76.117421
996.000000	76.072626
997.000000	76.022732
998.000000	75.981676
999.000000	75.934840
1000.000000	75.882265
1001.000000	75.834438
1002.000000	75.779297
1003.000000	75.731225
1004.000000	75.676738
1005.000000	75.615284
1006.000000	75.555648
1007.000000	75.502049
1008.000000	75.449067
1009.000000	75.388011
1010.000000	75.328982
1011.000000	75.285682
1012.000000	75.225422
1013.000000	75.166343
1014.000000	75.109800
1015.000000	75.055835
1016.000000	75.015272
1017.000000	74.972206
1018.000000	74.937020
1019.000000	74.902223
1020.000000	74.864384
1021.000000	74.823761
1022.000000	74.793715
1023.000000	74.771787
1024.000000	74.751653
1025.000000	74.736625
1026.000000	74.718562
1027.000000	74.710282
1028.000000	74.700792
1029.000000	74.690723
1030.000000	74.690480
1031.000000	74.693586
1032.000000	74.686766
1033.000000	74.679819
1034.000000	74.686517
1035.000000	74.701986
1036.000000	74.703367
1037.000000	74.698542
1038.000000	74.709666
1039.000000	74.722599
1040.000000	74.733833
1041.000000	74.740538
1042.000000	74.751589
1043.000000	74.775736
1044.000000	74.781925
1045.000000	74.781748
1046.000000	74.807469
1047.000000	74.825742
1048.000000	74.831857
1049.000000	74.857089
1050.000000	74.881141
1051.000000	74.901027
1052.000000	74.915797
1053.000000	74.943889
1054.000000	74.970969
1055.000000	74.999838
1056.000000	75.017519
1057.000000	75.046410
1058.000000	75.086204
1059.000000	75.111718
1060.000000	75.142214
1061.000000	75.182541
1062.000000	75.207414
1063.000000	75.239161
1064.000000	75.283170
1065.000000	75.318860
1066.000000	75.348612
1067.000000	75.372325
1068.000000	75.414238
1069.000000	75.461202
1070.000000	75.499468
1071.000000	75.545114
1072.000000	75.584298
1073.000000	75.623367
1074.000000	75.658830
1075.000000	75.705098
1076.000000	75.755130
1077.000000	75.791417
1078.000000	75.820681
1079.000000	75.868825
1080.000000	75.913036
1081.000000	75.943098
1082.000000	75.971725
1083.000000	76.010916
1084.000000	76.061249
1085.000000	76.096244
1086.000000	76.126687
1087.000000	76.154967
1088.000000	76.180299
1089.000000	76.219488
1090.000000	76.259500
1091.000000	76.290901
1092.000000	76.315449
1093.000000	76.354731
1094.000000	76.387333
1095.000000	76.421754
1096.000000	76.440336
1097.000000	76.471576
1098.000000	76.502057
1099.000000	76.527416
1100.000000	76.550190
1101.000000	76.581537
1102.000000	76.608219
1103.000000	76.639586
1104.000000	76.662874
1105.000000	76.698730
1106.000000	76.716591
1107.000000	76.739697
1108.000000	76.766417
1109.000000	76.796589
1110.000000	76.820947
1111.000000	76.843089
1112.000000	76.863693
1113.000000	76.894264
1114.000000	76.925024
1115.000000	76.945385
1116.000000	76.973525
1117.000000	77.012486
1118.000000	77.038557
1119.000000	77.053199
1120.000000	77.069925
1121.000000	77.090809
1122.000000	77.116559
1123.000000	77.129415
1124.000000	77.146936
1125.000000	77.130292
1126.000000	77.111022
1127.000000	77.095256
1128.000000	77.069519
1129.000000	77.051641
1130.000000	77.024158
1131.000000	76.957354
1132.000000	76.903866
1133.000000	76.839345
1134.000000	76.822809
1135.000000	76.783910
1136.000000	76.708204
1137.000000	76.635565
1138.000000	76.549994
1139.000000	76.454449
1140.000000	76.399291
1141.000000	76.337771
1142.000000	76.276052
1143.000000	76.222939
1144.000000	76.190161
1145.000000	76.169441
1146.000000	76.125068
1147.000000	76.083110
1148.000000	76.036308
1149.000000	75.998862
1150.000000	75.946865
1151.000000	75.912264
1152.000000	75.869598
1153.000000	75.820769
1154.000000	75.759281
1155.000000	75.674841
1156.000000	75.616987
1157.000000	75.538857
1158.000000	75.449578
1159.000000	75.339953
1160.000000	75.250999
1161.000000	75.119369
1162.000000	75.026864
1163.000000	74.906131
1164.000000	74.789213
1165.000000	74.679173
1166.000000	74.589177
1167.000000	74.474707
1168.000000	74.373695
1169.000000	74.264351
1170.000000	74.180924
1171.000000	74.099269
1172.000000	74.035451
1173.000000	73.963100
1174.000000	73.899966
1175.000000	73.851196
1176.000000	73.795986
1177.000000	73.739348
1178.000000	73.680393
1179.000000	73.641481
1180.000000	73.589529
1181.000000	73.541597
1182.000000	73.499557
1183.000000	73.467115
1184.000000	73.424930
1185.000000	73.420641
1186.000000	73.411750
1187.000000	73.416029
1188.000000	73.395789
1189.000000	73.425300
1190.000000	73.476056
1191.000000	73.530858
1192.000000	73.588693
1193.000000	73.651900
1194.000000	73.736135
1195.000000	73.809091
1196.000000	73.882235
1197.000000	73.950930
1198.000000	74.020388
1199.000000	74.098962
1200.000000	74.161030
1201.000000	74.226199
1202.000000	74.293897
1203.000000	74.348595
1204.000000	74.416560
1205.000000	74.473018
1206.000000	74.535109
1207.000000	74.596223
1208.000000	74.654845
1209.000000	74.715355
1210.000000	74.773963
1211.000000	74.830648
1212.000000	74.882629
1213.000000	74.930888
1214.000000	74.980049
1215.000000	75.028811
1216.000000	75.061485
1217.000000	75.113449
1218.000000	75.158836
1219.000000	75.203148
1220.000000	75.238067
1221.000000	75.279339
1222.000000	75.317832
1223.000000	75.361141
1224.000000	75.404944
1225.000000	75.445061
1226.000000	75.487142
1227.000000	75.522996
1228.000000	75.566945
1229.000000	75.613785
1230.000000	75.660218
1231.000000	75.697646
1232.000000	75.748727
1233.000000	75.786510
1234.000000	75.829722
1235.000000	75.864216
1236.000000	75.915440
1237.000000	75.960423
1238.000000	76.000969
1239.000000	76.054403
1240.000000	76.104551
1241.000000	76.148978
1242.000000	76.209259
1243.000000	76.257132
1244.000000	76.316985
1245.000000	76.369371
1246.000000	76.420806
1247.000000	76.473380
1248.000000	76.520854
1249.000000	76.566099
1250.000000	76.604922
1251.000000	76.645504
1252.000000	76.674838
1253.000000	76.699200
1254.000000	76.729282
1255.000000	76.740260
1256.000000	76.750868
1257.000000	76.762139
1258.000000	76.768993
1259.000000	76.772117
1260.000000	76.774226
1261.000000	76.774643
1262.000000	76.785235
1263.000000	76.781237
1264.000000	76.774225
1265.000000	76.774989
1266.000000	76.773740
1267.000000	76.773960
1268.000000	76.767564
1269.000000	76.764874
1270.000000	76.757653
1271.000000	76.745074
1272.000000	76.747912
1273.000000	76.747030
1274.000000	76.745499
1275.000000	76.748193
1276.000000	76.757672
1277.000000	76.768012
1278.000000	76.784638
1279.000000	76.806111
1280.000000	76.830709
1281.000000	76.849307
1282.000000	76.868274
1283.000000	76.898676
1284.000000	76.933902
1285.000000	76.965860
1286.000000	76.995009
1287.000000	77.020669
1288.000000	77.056573
1289.000000	77.082134
1290.000000	77.100212
1291.000000	77.121505
1292.000000	77.148407
1293.000000	77.168598
1294.000000	77.184253
1295.000000	77.196754
1296.000000	77.199044
1297.000000	77.207673
1298.000000	77.218099
1299.000000	77.225187
1300.000000	77.223735
1301.000000	77.223478
1302.000000	77.226710
1303.000000	77.218348
1304.000000	77.213563
1305.000000	77.212709
1306.000000	77.203222
1307.000000	77.184615
1308.000000	77.165858
1309.000000	77.149022
1310.000000	77.132765
1311.000000	77.115059
1312.000000	77.088590
1313.000000	77.051019
1314.000000	77.020793
1315.000000	77.000351
1316.000000	76.962200
1317.000000	76.925853
1318.000000	76.889772
1319.000000	76.846812
1320.000000	76.803187
1321.000000	76.762599
1322.000000	76.727984
1323.000000	76.676573
1324.000000	76.632566
1325.000000	76.586043
1326.000000	76.533504
1327.000000	76.476263
1328.000000	76.416913
1329.000000	76.350578
1330.000000	76.289750
1331.000000	76.218326
1332.000000	76.146671
1333.000000	76.055260
1334.000000	75.961565
1335.000000	75.867802
1336.000000	75.772521
1337.000000	75.664963
1338.000000	75.547746
1339.000000	75.441987
1340.000000	75.328228
1341.000000	75.186603
1342.000000	75.049986
1343.000000	74.910560
1344.000000	74.761942
1345.000000	74.603970
1346.000000	74.434820
1347.000000	74.270733
1348.000000	74.116729
1349.000000	73.949595
1350.000000	73.771064
1351.000000	73.598809
1352.000000	73.426665
1353.000000	73.228885
1354.000000	73.137252
1355.000000	73.059155
1356.000000	72.950417
1357.000000	72.834002
1358.000000	72.741633
1359.000000	72.659960
1360.000000	72.576228
1361.000000	72.591915
1362.000000	72.567197
1363.000000	72.489995
1364.000000	72.366283
1365.000000	72.283433
1366.000000	72.151780
1367.000000	72.049307
1368.000000	71.952717
1369.000000	71.838345
1370.000000	71.700582
1371.000000	71.582508
1372.000000	71.481154
1373.000000	71.337870
1374.000000	71.179008
1375.000000	71.061818
1376.000000	70.956054
1377.000000	70.851290
1378.000000	70.735433
1379.000000	70.645977
1380.000000	70.520710
1381.000000	70.451449
1382.000000	70.335535
1383.000000	70.190471
1384.000000	69.963919
1385.000000	69.704833
1386.000000	69.421152
1387.000000	69.150176
1388.000000	68.911898
1389.000000	68.615411
1390.000000	68.289103
1391.000000	68.006768
1392.000000	67.741147
1393.000000	67.456390
1394.000000	67.199316
1395.000000	66.978300
1396.000000	66.714680
1397.000000	66.309123
1398.000000	65.918435
1399.000000	65.614617
1400.000000	65.373271
1401.000000	65.051747
1402.000000	64.613564
1403.000000	64.173682
1404.000000	63.771185
1405.000000	63.414160
1406.000000	63.009372
1407.000000	62.604434
1408.000000	62.230918
1409.000000	61.819722
1410.000000	61.406246
1411.000000	60.945356
1412.000000	60.509015
1413.000000	60.164572
1414.000000	59.853580
1415.000000	59.512287
1416.000000	59.101291
1417.000000	58.713103
1418.000000	58.413692
1419.000000	58.141868
1420.000000	57.852982
1421.000000	57.520744
1422.000000	57.197898
1423.000000	56.944277
1424.000000	56.696694
1425.000000	56.425833
1426.000000	56.174025
1427.000000	55.932425
1428.000000	55.730817
1429.000000	55.510501
1430.000000	55.286492
1431.000000	55.102592
1432.000000	54.932892
1433.000000	54.782060
1434.000000	54.603589
1435.000000	54.435984
1436.000000	54.265880
1437.000000	54.127570
1438.000000	54.002021
1439.000000	53.848559
1440.000000	53.747990
1441.000000	53.592250
1442.000000	53.477651
1443.000000	53.356624
1444.000000	53.229227
1445.000000	53.148596
1446.000000	53.064734
1447.000000	52.940868
1448.000000	52.787402
1449.000000	52.661904
1450.000000	52.583248
1451.000000	52.511463
1452.000000	52.386873
1453.000000	52.274942
1454.000000	52.140188
1455.000000	52.035278
1456.000000	51.938615
1457.000000	51.812026
1458.000000	51.690121
1459.000000	51.584761
1460.000000	51.465554
1461.000000	51.356563
1462.000000	51.253394
1463.000000	51.132032
1464.000000	51.043797
1465.000000	50.942395
1466.000000	50.838265
1467.000000	50.748180
1468.000000	50.642115
1469.000000	50.541964
1470.000000	50.460810
1471.000000	50.385059
1472.000000	50.291996
1473.000000	50.205990
1474.000000	50.105858
1475.000000	50.015391
1476.000000	49.947274
1477.000000	49.881193
1478.000000	49.836625
1479.000000	49.772933
1480.000000	49.730347
1481.000000	49.685725
1482.000000	49.651015
1483.000000	49.608857
1484.000000	49.563389
1485.000000	49.517677
1486.000000	49.482944
1487.000000	49.443174
1488.000000	49.413964
1489.000000	49.373906
1490.000000	49.342916
1491.000000	49.301868
1492.000000	49.281468
1493.000000	49.252193
1494.000000	49.241361
1495.000000	49.227685
1496.000000	49.231579
1497.000000	49.240263
1498.000000	49.248683
1499.000000	49.269064
1500.000000	49.303136
1501.000000	49.345430
1502.000000	49.391855
1503.000000	49.454944
1504.000000	49.508318
1505.000000	49.571413
1506.000000	49.639316
1507.000000	49.699579
1508.000000	49.781348
1509.000000	49.857661
1510.000000	49.928688
1511.000000	50.006714
1512.000000	50.091003
1513.000000	50.171518
1514.000000	50.248141
1515.000000	50.323107
1516.000000	50.397862
1517.000000	50.468945
1518.000000	50.546151
1519.000000	50.623094
1520.000000	50.692308
1521.000000	50.759508
1522.000000	50.826197
1523.000000	50.898370
1524.000000	50.969606
1525.000000	51.035284
1526.000000	51.092364
1527.000000	51.162244
1528.000000	51.222877
1529.000000	51.285241
1530.000000	51.344902
1531.000000	51.402658
1532.000000	51.470712
1533.000000	51.531862
1534.000000	51.584266
1535.000000	51.639465
1536.000000	51.683159
1537.000000	51.715725
1538.000000	51.758302
1539.000000	51.814930
1540.000000	51.850870
1541.000000	51.882090
1542.000000	51.934679
1543.000000	51.982333
1544.000000	52.027313
1545.000000	52.084854
1546.000000	52.157370
1547.000000	52.238270
1548.000000	52.318150
1549.000000	52.402402
1550.000000	52.490617
1551.000000	52.580376
1552.000000	52.667078
1553.000000	52.747989
1554.000000	52.829301
1555.000000	52.898298
1556.000000	52.949752
1557.000000	52.999341
1558.000000	53.037443
1559.000000	53.064429
1560.000000	53.088605
1561.000000	53.100417
1562.000000	53.103808
1563.000000	53.107317
1564.000000	53.098673
1565.000000	53.080955
1566.000000	53.063405
1567.000000	53.040434
1568.000000	53.014669
1569.000000	52.995213
1570.000000	52.979156
1571.000000	52.957025
1572.000000	52.944002
1573.000000	52.939819
1574.000000	52.935951
1575.000000	52.942796
1576.000000	52.953990
1577.000000	52.970117
1578.000000	52.986601
1579.000000	53.008583
1580.000000	53.032403
1581.000000	53.063044
1582.000000	53.101117
1583.000000	53.146826
1584.000000	53.194357
1585.000000	53.243761
1586.000000	53.298659
1587.000000	53.346953
1588.000000	53.399930
1589.000000	53.451193
1590.000000	53.506314
1591.000000	53.566247
1592.000000	53.612265
1593.000000	53.664908
1594.000000	53.728693
1595.000000	53.791014
1596.000000	53.857609
1597.000000	53.919696
1598.000000	53.988729
1599.000000	54.074429
1600.000000	54.157400
1601.000000	54.219362
1602.000000	54.302804
1603.000000	54.393435
1604.000000	54.470569
1605.000000	54.545090
1606.000000	54.623318
1607.000000	54.695502
1608.000000	54.766459
1609.000000	54.839686
1610.000000	54.899380
1611.000000	54.949346
1612.000000	54.995513
1613.000000	55.042905
1614.000000	55.084122
1615.000000	55.127193
1616.000000	55.167822
1617.000000	55.200747
1618.000000	55.231527
1619.000000	55.276405
1620.000000	55.299326
1621.000000	55.327697
1622.000000	55.365137
1623.000000	55.407468
1624.000000	55.447192
1625.000000	55.494206
1626.000000	55.528149
1627.000000	55.576443
1628.000000	55.615142
1629.000000	55.648381
1630.000000	55.692092
1631.000000	55.732635
1632.000000	55.763832
1633.000000	55.799136
1634.000000	55.835538
1635.000000	55.857609
1636.000000	55.878484
1637.000000	55.901575
1638.000000	55.908773
1639.000000	55.918797
1640.000000	55.925973
1641.000000	55.930800
1642.000000	55.931765
1643.000000	55.938467
1644.000000	55.948270
1645.000000	55.948489
1646.000000	55.958277
1647.000000	55.966141
1648.000000	55.965683
1649.000000	55.968116
1650.000000	55.967215
1651.000000	55.944466
1652.000000	55.923772
1653.000000	55.886944
1654.000000	55.845436
1655.000000	55.798893
1656.000000	55.734247
1657.000000	55.674542
1658.000000	55.594207
1659.000000	55.473472
1660.000000	55.369117
1661.000000	55.256930
1662.000000	55.132501
1663.000000	54.985548
1664.000000	54.835508
1665.000000	54.678060
1666.000000	54.513673
1667.000000	54.357678
1668.000000	54.158824
1669.000000	53.971530
1670.000000	53.780783
1671.000000	53.584386
1672.000000	53.378249
1673.000000	53.182015
1674.000000	52.982759
1675.000000	52.792418
1676.000000	52.597273
1677.000000	52.392360
1678.000000	52.170617
1679.000000	51.966527
1680.000000	51.710711
1681.000000	51.469670
1682.000000	51.212398
1683.000000	50.955048
1684.000000	50.714812
1685.000000	50.485871
1686.000000	50.302258
1687.000000	50.155342
1688.000000	50.052998
1689.000000	49.997887
1690.000000	50.014422
1691.000000	50.021868
1692.000000	50.093225
1693.000000	50.180082
1694.000000	50.255466
1695.000000	50.313663
1696.000000	50.362728
1697.000000	50.379978
1698.000000	50.386889
1699.000000	50.400074
1700.000000	50.393667
1701.000000	50.364665
1702.000000	50.348406
1703.000000	50.322136
1704.000000	50.278988
1705.000000	50.232572
1706.000000	50.160660
1707.000000	50.091542
1708.000000	50.002930
1709.000000	49.876229
1710.000000	49.754113
1711.000000	49.600194
1712.000000	49.454780
1713.000000	49.269708
1714.000000	49.063636
1715.000000	48.845967
1716.000000	48.595969
1717.000000	48.359572
1718.000000	48.104841
1719.000000	47.860210
1720.000000	47.634189
1721.000000	47.443867
1722.000000	47.301185
1723.000000	47.197951
1724.000000	47.148852
1725.000000	47.140649
1726.000000	47.152189
1727.000000	47.189193
1728.000000	47.220936
1729.000000	47.276524
1730.000000	47.317260
1731.000000	47.373408
1732.000000	47.428402
1733.000000	47.472709
1734.000000	47.536012
1735.000000	47.579157
1736.000000	47.631429
1737.000000	47.700531
1738.000000	47.772101
1739.000000	47.838533
1740.000000	47.918259
1741.000000	48.011162
1742.000000	48.109785
1743.000000	48.190158
1744.000000	48.266561
1745.000000	48.356067
1746.000000	48.440360
1747.000000	48.516080
1748.000000	48.559442
1749.000000	48.616658
1750.000000	48.670310
1751.000000	48.700830
1752.000000	48.731771
1753.000000	48.746743
1754.000000	48.758717
1755.000000	48.768077
1756.000000	48.778209
1757.000000	48.785172
1758.000000	48.794854
1759.000000	48.791735
1760.000000	48.793420
1761.000000	48.803918
1762.000000	48.820815
1763.000000	48.846238
1764.000000	48.858469
1765.000000	48.881534
1766.000000	48.908310
1767.000000	48.951233
1768.000000	49.000710
1769.000000	49.039661
1770.000000	49.085834
1771.000000	49.129449
1772.000000	49.174580
1773.000000	49.228613
1774.000000	49.272810
1775.000000	49.318475
1776.000000	49.365200
1777.000000	49.413260
1778.000000	49.448746
1779.000000	49.480020
1780.000000	49.503601
1781.000000	49.527477
1782.000000	49.538401
1783.000000	49.542859
1784.000000	49.552233
1785.000000	49.549833
1786.000000	49.547063
1787.000000	49.542170
1788.000000	49.540767
1789.000000	49.529770
1790.000000	49.521944
1791.000000	49.526137
1792.000000	49.538484
1793.000000	49.546956
1794.000000	49.564721
1795.000000	49.581115
1796.000000	49.600411
1797.000000	49.618827
1798.000000	49.641145
1799.000000	49.654510
1800.000000	49.677164
1801.000000	49.712546
1802.000000	49.748279
1803.000000	49.766071
1804.000000	49.770411
1805.000000	49.783017
1806.000000	49.817540
1807.000000	49.849945
1808.000000	49.866581
1809.000000	49.884521
1810.000000	49.901398
1811.000000	49.940538
1812.000000	49.983668
1813.000000	50.002763
1814.000000	50.007270
1815.000000	50.016696
1816.000000	50.033759
1817.000000	50.032272
1818.000000	50.020887
1819.000000	50.036708
1820.000000	50.085523
1821.000000	50.113646
1822.000000	50.113903
1823.000000	50.076745
1824.000000	50.028729
1825.000000	50.018980
1826.000000	50.038029
1827.000000	50.055709
1828.000000	50.096855
1829.000000	50.162015
1830.000000	50.196402
1831.000000	50.219283
1832.000000	50.245881
1833.000000	50.269301
1834.000000	50.298026
1835.000000	50.353656
1836.000000	50.429031
1837.000000	50.480698
1838.000000	50.533705
1839.000000	50.585641
1840.000000	50.623935
1841.000000	50.664478
1842.000000	50.703620
1843.000000	50.691989
1844.000000	50.661447
1845.000000	50.659323
1846.000000	50.675776
1847.000000	50.733590
1848.000000	50.788814
1849.000000	50.790229
1850.000000	50.773558
1851.000000	50.728343
1852.000000	50.668008
1853.000000	50.634754
1854.000000	50.633578
1855.000000	50.604520
1856.000000	50.554428
1857.000000	50.523291
1858.000000	50.471366
1859.000000	50.410275
1860.000000	50.342948
1861.000000	50.246338
1862.000000	50.138535
1863.000000	50.019428
1864.000000	49.914210
1865.000000	49.816717
1866.000000	49.713139
1867.000000	49.616804
1868.000000	49.517248
1869.000000	49.400694
1870.000000	49.226760
1871.000000	49.055615
1872.000000	48.853990
1873.000000	48.623428
1874.000000	48.360988
1875.000000	48.073308
1876.000000	47.781692
1877.000000	47.479262
1878.000000	47.158418
1879.000000	46.798910
1880.000000	46.441220
1881.000000	46.078417
1882.000000	45.663888
1883.000000	45.237898
1884.000000	44.804038
1885.000000	44.295450
1886.000000	43.772974
1887.000000	43.252395
1888.000000	42.719809
1889.000000	42.138601
1890.000000	41.560062
1891.000000	40.944804
1892.000000	40.270938
1893.000000	39.568004
1894.000000	38.924762
1895.000000	38.314295
1896.000000	37.725846
1897.000000	37.147743
1898.000000	36.518935
1899.000000	35.871964
1900.000000	35.190021
1901.000000	34.521214
1902.000000	33.917178
1903.000000	33.342796
1904.000000	32.792287
1905.000000	32.236137
1906.000000	31.664386
1907.000000	31.096967
1908.000000	30.619602
1909.000000	30.193345
1910.000000	29.812027
1911.000000	29.416958
1912.000000	29.070536
1913.000000	28.692416
1914.000000	28.292905
1915.000000	27.930590
1916.000000	27.639161
1917.000000	27.374037
1918.000000	27.102903
1919.000000	26.842596
1920.000000	26.629940
1921.000000	26.396140
1922.000000	26.161423
1923.000000	25.956995
1924.000000	25.793987
1925.000000	25.647494
1926.000000	25.501854
1927.000000	25.362689
1928.000000	25.252374
1929.000000	25.133299
1930.000000	25.041237
1931.000000	24.969976
1932.000000	24.902460
1933.000000	24.844223
1934.000000	24.799728
1935.000000	24.767924
1936.000000	24.753091
1937.000000	24.738391
1938.000000	24.743537
1939.000000	24.773984
1940.000000	24.779421
1941.000000	24.821946
1942.000000	24.859026
1943.000000	24.895994
1944.000000	24.943822
1945.000000	25.019581
1946.000000	25.078643
1947.000000	25.157470
1948.000000	25.239286
1949.000000	25.327231
1950.000000	25.398544
1951.000000	25.498881
1952.000000	25.594541
1953.000000	25.684721
1954.000000	25.796595
1955.000000	25.893010
1956.000000	25.998466
1957.000000	26.109801
1958.000000	26.206719
1959.000000	26.316981
1960.000000	26.414184
1961.000000	26.522719
1962.000000	26.624392
1963.000000	26.733530
1964.000000	26.840617
1965.000000	26.923057
1966.000000	27.015508
1967.000000	27.131083
1968.000000	27.232494
1969.000000	27.320147
1970.000000	27.417641
1971.000000	27.510435
1972.000000	27.616856
1973.000000	27.710017
1974.000000	27.809580
1975.000000	27.917971
1976.000000	28.022418
1977.000000	28.123192
1978.000000	28.236943
1979.000000	28.349389
1980.000000	28.466472
1981.000000	28.573173
1982.000000	28.685522
1983.000000	28.789012
1984.000000	28.907345
1985.000000	29.015691
1986.000000	29.121706
1987.000000	29.235901
1988.000000	29.349561
1989.000000	29.462479
1990.000000	29.573781
1991.000000	29.658435
1992.000000	29.768912
1993.000000	29.864774
1994.000000	29.952845
1995.000000	30.053354
1996.000000	30.140147
1997.000000	30.216711
1998.000000	30.293585
1999.000000	30.366951
2000.000000	30.445002
2001.000000	30.505662
2002.000000	30.567376
2003.000000	30.620066
2004.000000	30.672567
2005.000000	30.708618
2006.000000	30.749100
2007.000000	30.783113
2008.000000	30.800805
2009.000000	30.813375
2010.000000	30.818650
2011.000000	30.819095
2012.000000	30.814203
2013.000000	30.813974
2014.000000	30.787099
2015.000000	30.764475
2016.000000	30.727124
2017.000000	30.690643
2018.000000	30.654319
2019.000000	30.588879
2020.000000	30.535912
2021.000000	30.472325
2022.000000	30.410871
2023.000000	30.325827
2024.000000	30.239177
2025.000000	30.171864
2026.000000	30.077131
2027.000000	29.979192
2028.000000	29.858931
2029.000000	29.763556
2030.000000	29.644708
2031.000000	29.525434
2032.000000	29.404538
2033.000000	29.257363
2034.000000	29.117493
2035.000000	28.975354
2036.000000	28.822597
2037.000000	28.661763
2038.000000	28.495742
2039.000000	28.324150
2040.000000	28.153980
2041.000000	27.971128
2042.000000	27.792065
2043.000000	27.608151
2044.000000	27.425193
2045.000000	27.252851
2046.000000	27.077423
2047.000000	26.927605
2048.000000	26.787177
2049.000000	26.648225
2050.000000	26.544825
2051.000000	26.451356
2052.000000	26.385033
2053.000000	26.342435
2054.000000	26.322189
2055.000000	26.329935
2056.000000	26.356381
2057.000000	26.400466
2058.000000	26.473735
2059.000000	26.554208
2060.000000	26.647800
2061.000000	26.759516
2062.000000	26.863705
2063.000000	26.982591
2064.000000	27.117241
2065.000000	27.245001
2066.000000	27.368741
2067.000000	27.499511
2068.000000	27.640280
2069.000000	27.773975
2070.000000	27.898341
2071.000000	28.005000
2072.000000	28.118197
2073.000000	28.225520
2074.000000	28.324070
2075.000000	28.414347
2076.000000	28.503728
2077.000000	28.574712
2078.000000	28.638722
2079.000000	28.698634
2080.000000	28.748420
2081.000000	28.795325
2082.000000	28.822090
2083.000000	28.842373
2084.000000	28.856275
2085.000000	28.861325
2086.000000	28.873267
2087.000000	28.868997
2088.000000	28.855360
2089.000000	28.841289
2090.000000	28.812833
2091.000000	28.791957
2092.000000	28.774838
2093.000000	28.748555
2094.000000	28.730325
2095.000000	28.719618
2096.000000	28.699816
2097.000000	28.673829
2098.000000	28.660232
2099.000000	28.653315
2100.000000	28.652779
2101.000000	28.656574
2102.000000	28.653403
2103.000000	28.651721
2104.000000	28.650605
2105.000000	28.643393
2106.000000	28.626343
2107.000000	28.623357
2108.000000	28.631627
2109.000000	28.626777
2110.000000	28.616828
2111.000000	28.601696
2112.000000	28.587742
2113.000000	28.580528
2114.000000	28.565139
2115.000000	28.536806
2116.000000	28.507762
2117.000000	28.477040
2118.000000	28.456084
2119.000000	28.426444
2120.000000	28.384066
2121.000000	28.331991
2122.000000	28.280896
2123.000000	28.235840
2124.000000	28.178019
2125.000000	28.117428
2126.000000	28.063265
2127.000000	27.985954
2128.000000	27.908964
2129.000000	27.841277
2130.000000	27.766885
2131.000000	27.674351
2132.000000	27.579806
2133.000000	27.503895
2134.000000	27.386606
2135.000000	27.278904
2136.000000	27.191024
2137.000000	27.075573
2138.000000	26.962532
2139.000000	26.848418
2140.000000	26.735260
2141.000000	26.606341
2142.000000	26.480305
2143.000000	26.357181
2144.000000	26.231327
2145.000000	26.109293
2146.000000	25.991856
2147.000000	25.864436
2148.000000	25.734811
2149.000000	25.614805
2150.000000	25.478202
2151.000000	25.343463
2152.000000	25.226950
2153.000000	25.106007
2154.000000	24.976014
2155.000000	24.867799
2156.000000	24.760320
2157.000000	24.657918
2158.000000	24.559958
2159.000000	24.472543
2160.000000	24.383972
2161.000000	24.309938
2162.000000	24.241419
2163.000000	24.173846
2164.000000	24.114823
2165.000000	24.057345
2166.000000	24.008638
2167.000000	23.960877
2168.000000	23.923788
2169.000000	23.897553
2170.000000	23.878329
2171.000000	23.853272
2172.000000	23.819193
2173.000000	23.809836
2174.000000	23.812497
2175.000000	23.818224
2176.000000	23.811579
2177.000000	23.815814
2178.000000	23.813015
2179.000000	23.819934
2180.000000	23.857582
2181.000000	23.860180
2182.000000	23.881630
2183.000000	23.919458
2184.000000	23.933106
2185.000000	23.951647
2186.000000	23.971430
2187.000000	24.006266
2188.000000	24.004363
2189.000000	24.038091
2190.000000	24.062482
2191.000000	24.087048
2192.000000	24.110123
2193.000000	24.133185
2194.000000	24.146688
2195.000000	24.182504
2196.000000	24.211447
2197.000000	24.235687
2198.000000	24.279291
2199.000000	24.316267
2200.000000	24.355052
2201.000000	24.407432
2202.000000	24.440379
2203.000000	24.479371
2204.000000	24.514641
2205.000000	24.573596
2206.000000	24.626036
2207.000000	24.682151
2208.000000	24.764328
2209.000000	24.808783
2210.000000	24.877278
2211.000000	24.930522
2212.000000	25.023755
2213.000000	25.099016
2214.000000	25.168656
2215.000000	25.252227
2216.000000	25.342020
2217.000000	25.416691
2218.000000	25.502062
2219.000000	25.578096
2220.000000	25.666173
2221.000000	25.751072
2222.000000	25.832333
2223.000000	25.907293
2224.000000	25.973769
2225.000000	26.036611
2226.000000	26.095685
2227.000000	26.146773
2228.000000	26.190578
2229.000000	26.217506
2230.000000	26.241253
2231.000000	26.266763
2232.000000	26.280978
2233.000000	26.291374
2234.000000	26.270409
2235.000000	26.226385
2236.000000	26.214793
2237.000000	26.179971
2238.000000	26.125176
2239.000000	26.051052
2240.000000	25.967433
2241.000000	25.901205
2242.000000	25.811603
2243.000000	25.712602
2244.000000	25.586184
2245.000000	25.434366
2246.000000	25.307728
2247.000000	25.182482
2248.000000	25.020783
2249.000000	24.859880
2250.000000	24.678173
2251.000000	24.527770
2252.000000	24.361191
2253.000000	24.196634
2254.000000	23.999085
2255.000000	23.828210
2256.000000	23.660100
2257.000000	23.503356
2258.000000	23.357483
2259.000000	23.193737
2260.000000	23.055385
2261.000000	22.932423
2262.000000	22.819949
2263.000000	22.701290
2264.000000	22.596377
2265.000000	22.515778
2266.000000	22.446842
2267.000000	22.367659
2268.000000	22.297007
2269.000000	22.239727
2270.000000	22.203527
2271.000000	22.165900
2272.000000	22.107621
2273.000000	22.070164
2274.000000	22.043711
2275.000000	22.004634
2276.000000	21.961743
2277.000000	21.922146
2278.000000	21.891945
2279.000000	21.870048
2280.000000	21.796880
2281.000000	21.757469
2282.000000	21.720617
2283.000000	21.667947
2284.000000	21.624236
2285.000000	21.583424
2286.000000	21.551733
2287.000000	21.513095
2288.000000	21.465355
2289.000000	21.433504
2290.000000	21.402269
2291.000000	21.356420
2292.000000	21.338711
2293.000000	21.326712
2294.000000	21.303541
2295.000000	21.285291
2296.000000	21.277636
2297.000000	21.273954
2298.000000	21.257610
2299.000000	21.264529
2300.000000	21.258295
2301.000000	21.270449
2302.000000	21.281272
2303.000000	21.298108
2304.000000	21.316035
2305.000000	21.336415
2306.000000	21.367448
2307.000000	21.389429
2308.000000	21.426390
2309.000000	21.449147
2310.000000	21.480403
2311.000000	21.510251
2312.000000	21.550786
2313.000000	21.570467
2314.000000	21.577776
2315.000000	21.595762
2316.000000	21.604460
2317.000000	21.620955
2318.000000	21.628438
2319.000000	21.615917
2320.000000	21.605448
2321.000000	21.597816
2322.000000	21.593307
2323.000000	21.559765
2324.000000	21.527240
2325.000000	21.519398
2326.000000	21.486239
2327.000000	21.442338
2328.000000	21.410809
2329.000000	21.393585
2330.000000	21.357681
2331.000000	21.331260
2332.000000	21.310656
2333.000000	21.297858
2334.000000	21.280195
2335.000000	21.264969
2336.000000	21.259745
2337.000000	21.261208
2338.000000	21.260914
2339.000000	21.254476
2340.000000	21.261904
2341.000000	21.260099
2342.000000	21.264848
2343.000000	21.267366
2344.000000	21.270079
2345.000000	21.281588
2346.000000	21.302696
2347.000000	21.318880
2348.000000	21.328572
2349.000000	21.347436
2350.000000	21.365857
2351.000000	21.365514
2352.000000	21.376876
2353.000000	21.394487
2354.000000	21.410575
2355.000000	21.432836
2356.000000	21.447500
2357.000000	21.453987
2358.000000	21.465174
2359.000000	21.468489
2360.000000	21.475117
2361.000000	21.480165
2362.000000	21.483411
2363.000000	21.491873
2364.000000	21.501087
2365.000000	21.502683
2366.000000	21.509248
2367.000000	21.516116
2368.000000	21.510428
2369.000000	21.513600
2370.000000	21.523141
2371.000000	21.529439
2372.000000	21.531776
2373.000000	21.545817
2374.000000	21.562954
2375.000000	21.569841
2376.000000	21.582013
2377.000000	21.593301
2378.000000	21.602812
2379.000000	21.615719
2380.000000	21.633304
2381.000000	21.641793
2382.000000	21.645896
2383.000000	21.645086
2384.000000	21.641532
2385.000000	21.640613
2386.000000	21.642603
2387.000000	21.634893
2388.000000	21.618119
2389.000000	21.605182
2390.000000	21.602248
2391.000000	21.582926
2392.000000	21.540120
2393.000000	21.520483
2394.000000	21.504185
2395.000000	21.494684
2396.000000	21.484193
2397.000000	21.460308
2398.000000	21.426007
2399.000000	21.365863
2400.000000	21.293116
2401.000000	21.243356
2402.000000	21.212415
2403.000000	21.184511
2404.000000	21.146160
2405.000000	21.108579
2406.000000	21.089424
2407.000000	21.042628
2408.000000	20.997120
2409.000000	20.977312
2410.000000	20.940370
2411.000000	20.891255
2412.000000	20.847133
2413.000000	20.803228
2414.000000	20.744073
2415.000000	20.674755
2416.000000	20.616307
2417.000000	20.550409
2418.000000	20.485779
2419.000000	20.436064
2420.000000	20.363120
2421.000000	20.280995
2422.000000	20.209746
2423.000000	20.123523
2424.000000	20.036499
2425.000000	19.953319
2426.000000	19.864624
2427.000000	19.763905
2428.000000	19.667921
2429.000000	19.569240
2430.000000	19.477849
2431.000000	19.364351
2432.000000	19.243823
2433.000000	19.138361
2434.000000	19.044187
2435.000000	18.927107
2436.000000	18.808274
2437.000000	18.704581
2438.000000	18.600839
2439.000000	18.475977
2440.000000	18.357153
2441.000000	18.243577
2442.000000	18.118305
2443.000000	18.005162
2444.000000	17.901960
2445.000000	17.775644
2446.000000	17.659630
2447.000000	17.560388
2448.000000	17.440398
2449.000000	17.337585
2450.000000	17.222355
2451.000000	17.107381
2452.000000	17.022708
2453.000000	16.912680
2454.000000	16.832671
2455.000000	16.722211
2456.000000	16.626013
2457.000000	16.560189
2458.000000	16.461265
2459.000000	16.392095
2460.000000	16.319432
2461.000000	16.250710
2462.000000	16.170366
2463.000000	16.075693
2464.000000	16.042529
2465.000000	15.980370
2466.000000	15.905013
2467.000000	15.858646
2468.000000	15.842511
2469.000000	15.754683
2470.000000	15.708332
2471.000000	15.662190
2472.000000	15.596605
2473.000000	15.589450
2474.000000	15.533108
2475.000000	15.526814
2476.000000	15.491187
2477.000000	15.455124
2478.000000	15.420985
2479.000000	15.375134
2480.000000	15.389563
2481.000000	15.373264
2482.000000	15.321862
2483.000000	15.315855
2484.000000	15.299591
2485.000000	15.297691
2486.000000	15.268416
2487.000000	15.298420
2488.000000	15.290670
2489.000000	15.310159
2490.000000	15.365312
2491.000000	15.298643
2492.000000	15.342330
2493.000000	15.393322
2494.000000	15.410559
2495.000000	15.351643
2496.000000	15.383608
2497.000000	15.452238
2498.000000	15.430490
2499.000000	15.511660
2500.000000	15.571900
