PE UV       SUBTECH     SPECTRUM    ASCII       PEDS        4.00        
   -1
CICIMAUCR0258-3.ASC
24/07/01
16:22:41.00
24/07/01
16:22:41.00
Vinicio Soto Monge
C. resplendens. Sex M. Ventral
250,000000
1
Lambda 1050
1050L1511233
PerkinElmer UV WinLab 6.3.2.0749 / 2.02.05 Lambda 900 UV/VIS/NIR, Aug  7 2015 09:38:08

0
0
3350/servo 860,8/2
0
0
UV/VIS
1
1
1
DoubleDePol,CommonBeamDepol,RBeamAtt,SBeamAtt,60mm sphere, WB InGaAs Detector
0
0
0
0
Program
Program
3350/servo 860,8/2
3350/0,2 860,8/0,2
3350/0,2 860,8/0,2
0
15.00
 
 
 
0
 
860,8
319,2
860,8
Front
100
on
S:100 R:100
0
0
0
0
 
0
 
 
 
0
 
 
0
0
0
0
0
 
 
 
 
0
0


0
0
#HDR
-1
-1
#GR
nm
%R
1.0
0.0
2500,000000
-1,000000
2251
8
58,614300
3,808100
#DATA
2482.000000	6.447822
2481.000000	6.475614
2480.000000	6.439034
2479.000000	6.426620
2478.000000	6.451996
2477.000000	6.459246
2476.000000	6.430685
2475.000000	6.463420
2474.000000	6.395313
2473.000000	6.376309
2472.000000	6.388722
2471.000000	6.393775
2470.000000	6.394324
2469.000000	6.475284
2468.000000	6.447492
2467.000000	6.487478
2466.000000	6.421457
2465.000000	6.437605
2464.000000	6.464519
2463.000000	6.510986
2462.000000	6.572722
2461.000000	6.539108
2460.000000	6.544381
2459.000000	6.574480
2458.000000	6.582170
2457.000000	6.613148
2456.000000	6.646652
2455.000000	6.637315
2454.000000	6.697294
2453.000000	6.708059
2452.000000	6.736840
2451.000000	6.754416
2450.000000	6.813736
2449.000000	6.890082
2448.000000	6.870089
2447.000000	6.921060
2446.000000	6.971811
2445.000000	6.987960
2444.000000	7.029593
2443.000000	7.048378
2442.000000	7.125603
2441.000000	7.142191
2440.000000	7.172290
2439.000000	7.203597
2438.000000	7.243473
2437.000000	7.276209
2436.000000	7.301804
2435.000000	7.338495
2434.000000	7.370022
2433.000000	7.402757
2432.000000	7.459001
2431.000000	7.488331
2430.000000	7.500745
2429.000000	7.545015
2428.000000	7.580606
2427.000000	7.580826
2426.000000	7.624547
2425.000000	7.671453
2424.000000	7.698257
2423.000000	7.723303
2422.000000	7.749887
2421.000000	7.778119
2420.000000	7.797123
2419.000000	7.812173
2418.000000	7.846995
2417.000000	7.861825
2416.000000	7.864572
2415.000000	7.890716
2414.000000	7.924221
2413.000000	7.952452
2412.000000	7.967502
2411.000000	7.992328
2410.000000	8.007598
2409.000000	8.023306
2408.000000	8.053186
2407.000000	8.067467
2406.000000	8.071421
2405.000000	8.084603
2404.000000	8.128873
2403.000000	8.174352
2402.000000	8.197860
2401.000000	8.230705
2400.000000	8.247513
2399.000000	8.257399
2398.000000	8.273328
2397.000000	8.287279
2396.000000	8.312544
2395.000000	8.340776
2394.000000	8.348685
2393.000000	8.353189
2392.000000	8.361538
2391.000000	8.387353
2390.000000	8.398558
2389.000000	8.403501
2388.000000	8.424593
2387.000000	8.440960
2386.000000	8.464249
2385.000000	8.471938
2384.000000	8.471499
2383.000000	8.467325
2382.000000	8.472268
2381.000000	8.487867
2380.000000	8.490174
2379.000000	8.483363
2378.000000	8.497973
2377.000000	8.502587
2376.000000	8.489734
2375.000000	8.489295
2374.000000	8.490943
2373.000000	8.498522
2372.000000	8.482155
2371.000000	8.475234
2370.000000	8.492041
2369.000000	8.475454
2368.000000	8.468094
2367.000000	8.461722
2366.000000	8.445135
2365.000000	8.436347
2364.000000	8.440191
2363.000000	8.439203
2362.000000	8.433161
2361.000000	8.411520
2360.000000	8.385376
2359.000000	8.369997
2358.000000	8.362307
2357.000000	8.363735
2356.000000	8.351102
2355.000000	8.321552
2354.000000	8.311336
2353.000000	8.313643
2352.000000	8.298813
2351.000000	8.293211
2350.000000	8.287498
2349.000000	8.284972
2348.000000	8.292332
2347.000000	8.300461
2346.000000	8.296836
2345.000000	8.304306
2344.000000	8.332977
2343.000000	8.340996
2342.000000	8.355716
2341.000000	8.382080
2340.000000	8.400316
2339.000000	8.408554
2338.000000	8.426899
2337.000000	8.421077
2336.000000	8.424373
2335.000000	8.455241
2334.000000	8.476662
2333.000000	8.483363
2332.000000	8.488746
2331.000000	8.480287
2330.000000	8.476003
2329.000000	8.480287
2328.000000	8.470840
2327.000000	8.474355
2326.000000	8.472488
2325.000000	8.442608
2324.000000	8.423933
2323.000000	8.409873
2322.000000	8.393944
2321.000000	8.368569
2320.000000	8.328033
2319.000000	8.293760
2318.000000	8.263002
2317.000000	8.217853
2316.000000	8.175450
2315.000000	8.151722
2314.000000	8.097236
2313.000000	8.050110
2312.000000	8.017155
2311.000000	7.963328
2310.000000	7.919717
2309.000000	7.869625
2308.000000	7.858749
2307.000000	7.835791
2306.000000	7.804922
2305.000000	7.808657
2304.000000	7.795256
2303.000000	7.793388
2302.000000	7.796903
2301.000000	7.804703
2300.000000	7.817445
2299.000000	7.848314
2298.000000	7.875667
2297.000000	7.910709
2296.000000	7.942126
2295.000000	7.974423
2294.000000	8.027481
2293.000000	8.058459
2292.000000	8.082187
2291.000000	8.116131
2290.000000	8.137112
2289.000000	8.170287
2288.000000	8.166552
2287.000000	8.184348
2286.000000	8.221698
2285.000000	8.234550
2284.000000	8.238175
2283.000000	8.232683
2282.000000	8.235649
2281.000000	8.232463
2280.000000	8.242130
2279.000000	8.219830
2278.000000	8.217853
2277.000000	8.214777
2276.000000	8.189182
2275.000000	8.176768
2274.000000	8.179075
2273.000000	8.164905
2272.000000	8.178197
2271.000000	8.182481
2270.000000	8.181272
2269.000000	8.181931
2268.000000	8.201485
2267.000000	8.233561
2266.000000	8.264979
2265.000000	8.330121
2264.000000	8.394603
2263.000000	8.457658
2262.000000	8.501708
2261.000000	8.597498
2260.000000	8.680216
2259.000000	8.796878
2258.000000	8.886736
2257.000000	9.000981
2256.000000	9.106768
2255.000000	9.216180
2254.000000	9.348331
2253.000000	9.452030
2252.000000	9.601208
2251.000000	9.708533
2250.000000	9.846176
2249.000000	9.953281
2248.000000	10.043798
2247.000000	10.150134
2246.000000	10.260754
2245.000000	10.342593
2244.000000	10.421027
2243.000000	10.501877
2242.000000	10.588111
2241.000000	10.653582
2240.000000	10.709276
2239.000000	10.779801
2238.000000	10.840219
2237.000000	10.852412
2236.000000	10.905141
2235.000000	10.938865
2234.000000	10.991923
2233.000000	10.993791
2232.000000	11.032019
2231.000000	11.056406
2230.000000	11.057944
2229.000000	11.079035
2228.000000	11.078156
2227.000000	11.067830
2226.000000	11.047069
2225.000000	11.068050
2224.000000	11.041356
2223.000000	11.049925
2222.000000	11.037292
2221.000000	11.013564
2220.000000	10.978082
2219.000000	10.955892
2218.000000	10.897561
2217.000000	10.886466
2216.000000	10.857026
2215.000000	10.823961
2214.000000	10.808472
2213.000000	10.772660
2212.000000	10.739046
2211.000000	10.722019
2210.000000	10.700269
2209.000000	10.669181
2208.000000	10.665556
2207.000000	10.617441
2206.000000	10.621066
2205.000000	10.603929
2204.000000	10.579982
2203.000000	10.566580
2202.000000	10.552958
2201.000000	10.546697
2200.000000	10.530549
2199.000000	10.485510
2198.000000	10.482104
2197.000000	10.490233
2196.000000	10.480896
2195.000000	10.473536
2194.000000	10.449698
2193.000000	10.437065
2192.000000	10.432122
2191.000000	10.414326
2190.000000	10.398507
2189.000000	10.413557
2188.000000	10.413118
2187.000000	10.365772
2186.000000	10.363026
2185.000000	10.361597
2184.000000	10.332707
2183.000000	10.336661
2182.000000	10.325566
2181.000000	10.314142
2180.000000	10.285910
2179.000000	10.286349
2178.000000	10.288876
2177.000000	10.277891
2176.000000	10.269323
2175.000000	10.253504
2174.000000	10.274815
2173.000000	10.265588
2172.000000	10.256140
2171.000000	10.261523
2170.000000	10.250099
2169.000000	10.273607
2168.000000	10.289865
2167.000000	10.287887
2166.000000	10.290524
2165.000000	10.297554
2164.000000	10.309198
2163.000000	10.323040
2162.000000	10.337101
2161.000000	10.363355
2160.000000	10.390269
2159.000000	10.405428
2158.000000	10.433550
2157.000000	10.466395
2156.000000	10.487047
2155.000000	10.523848
2154.000000	10.557352
2153.000000	10.592614
2152.000000	10.641059
2151.000000	10.665775
2150.000000	10.680056
2149.000000	10.721140
2148.000000	10.763653
2147.000000	10.794960
2146.000000	10.856806
2145.000000	10.887565
2144.000000	10.927990
2143.000000	10.963362
2142.000000	10.988957
2141.000000	11.009499
2140.000000	11.057175
2139.000000	11.092657
2138.000000	11.115725
2137.000000	11.143188
2136.000000	11.175924
2135.000000	11.203716
2134.000000	11.251392
2133.000000	11.274350
2132.000000	11.280392
2131.000000	11.295881
2130.000000	11.308404
2129.000000	11.318511
2128.000000	11.342678
2127.000000	11.369152
2126.000000	11.381565
2125.000000	11.379148
2124.000000	11.399141
2123.000000	11.400130
2122.000000	11.398922
2121.000000	11.412104
2120.000000	11.425176
2119.000000	11.423418
2118.000000	11.405842
2117.000000	11.412983
2116.000000	11.418475
2115.000000	11.390243
2114.000000	11.379478
2113.000000	11.379478
2112.000000	11.373985
2111.000000	11.370360
2110.000000	11.342129
2109.000000	11.335538
2108.000000	11.336307
2107.000000	11.332352
2106.000000	11.326090
2105.000000	11.310601
2104.000000	11.296321
2103.000000	11.270616
2102.000000	11.246229
2101.000000	11.241835
2100.000000	11.241615
2099.000000	11.219095
2098.000000	11.203716
2097.000000	11.192511
2096.000000	11.188007
2095.000000	11.172958
2094.000000	11.154723
2093.000000	11.154503
2092.000000	11.158128
2091.000000	11.134180
2090.000000	11.118362
2089.000000	11.119790
2088.000000	11.112759
2087.000000	11.101994
2086.000000	11.097600
2085.000000	11.081781
2084.000000	11.055417
2083.000000	11.040258
2082.000000	11.018178
2081.000000	11.012905
2080.000000	11.010598
2079.000000	10.974567
2078.000000	10.933043
2077.000000	10.903713
2076.000000	10.866034
2075.000000	10.827696
2074.000000	10.796498
2073.000000	10.760577
2072.000000	10.699060
2071.000000	10.643585
2070.000000	10.609202
2069.000000	10.564822
2068.000000	10.512203
2067.000000	10.480127
2066.000000	10.434648
2065.000000	10.373571
2064.000000	10.326445
2063.000000	10.282065
2062.000000	10.239004
2061.000000	10.190559
2060.000000	10.151123
2059.000000	10.120255
2058.000000	10.083125
2057.000000	10.064780
2056.000000	10.042700
2055.000000	10.015676
2054.000000	10.009964
2053.000000	10.007767
2052.000000	10.013150
2051.000000	10.020729
2050.000000	10.033143
2049.000000	10.078621
2048.000000	10.119046
2047.000000	10.142994
2046.000000	10.182101
2045.000000	10.231094
2044.000000	10.281955
2043.000000	10.336002
2042.000000	10.391477
2041.000000	10.436955
2040.000000	10.488036
2039.000000	10.540875
2038.000000	10.597118
2037.000000	10.640070
2036.000000	10.686317
2035.000000	10.733224
2034.000000	10.779911
2033.000000	10.821105
2032.000000	10.844723
2031.000000	10.887345
2030.000000	10.921399
2029.000000	10.955782
2028.000000	10.978741
2027.000000	11.004996
2026.000000	11.018617
2025.000000	11.043883
2024.000000	11.070467
2023.000000	11.072884
2022.000000	11.089910
2021.000000	11.093536
2020.000000	11.111112
2019.000000	11.117373
2018.000000	11.116494
2017.000000	11.112540
2016.000000	11.096721
2015.000000	11.112650
2014.000000	11.113199
2013.000000	11.106059
2012.000000	11.076728
2011.000000	11.085626
2010.000000	11.066183
2009.000000	11.058603
2008.000000	11.047618
2007.000000	11.027185
2006.000000	10.998954
2005.000000	10.979620
2004.000000	10.945127
2003.000000	10.900857
2002.000000	10.889981
2001.000000	10.874053
2000.000000	10.845711
1999.000000	10.810449
1998.000000	10.753876
1997.000000	10.721140
1996.000000	10.681814
1995.000000	10.645563
1994.000000	10.606016
1993.000000	10.569546
1992.000000	10.506931
1991.000000	10.455300
1990.000000	10.422125
1989.000000	10.354018
1988.000000	10.305024
1987.000000	10.260754
1986.000000	10.198029
1985.000000	10.175729
1984.000000	10.102239
1983.000000	10.033582
1982.000000	10.018752
1981.000000	9.969319
1980.000000	9.911208
1979.000000	9.867707
1978.000000	9.808058
1977.000000	9.760163
1976.000000	9.726768
1975.000000	9.662066
1974.000000	9.635591
1973.000000	9.584620
1972.000000	9.519589
1971.000000	9.493774
1970.000000	9.431488
1969.000000	9.390184
1968.000000	9.339872
1967.000000	9.303402
1966.000000	9.267920
1965.000000	9.246828
1964.000000	9.192782
1963.000000	9.130496
1962.000000	9.098090
1961.000000	9.058214
1960.000000	9.009550
1959.000000	8.986811
1958.000000	8.916286
1957.000000	8.910135
1956.000000	8.847410
1955.000000	8.817420
1954.000000	8.800503
1953.000000	8.751070
1952.000000	8.698122
1951.000000	8.664617
1950.000000	8.648249
1949.000000	8.611340
1948.000000	8.585525
1947.000000	8.544880
1946.000000	8.552130
1945.000000	8.502038
1944.000000	8.487647
1943.000000	8.469961
1942.000000	8.433491
1941.000000	8.403721
1940.000000	8.408444
1939.000000	8.400316
1938.000000	8.415695
1937.000000	8.391857
1936.000000	8.396031
1935.000000	8.410532
1934.000000	8.412619
1933.000000	8.405588
1932.000000	8.424153
1931.000000	8.431184
1930.000000	8.460184
1929.000000	8.513572
1928.000000	8.512803
1927.000000	8.575967
1926.000000	8.608374
1925.000000	8.661541
1924.000000	8.715698
1923.000000	8.743051
1922.000000	8.800723
1921.000000	8.843894
1920.000000	8.958249
1919.000000	9.021963
1918.000000	9.090181
1917.000000	9.176304
1916.000000	9.257044
1915.000000	9.333171
1914.000000	9.434674
1913.000000	9.552434
1912.000000	9.676017
1911.000000	9.818164
1910.000000	9.919776
1909.000000	10.028309
1908.000000	10.135963
1907.000000	10.271849
1906.000000	10.433550
1905.000000	10.631612
1904.000000	10.818578
1903.000000	11.047947
1902.000000	11.215251
1901.000000	11.400569
1900.000000	11.616097
1899.000000	11.849092
1898.000000	12.098454
1897.000000	12.372642
1896.000000	12.643864
1895.000000	12.848407
1894.000000	13.085905
1893.000000	13.353503
1892.000000	13.630108
1891.000000	13.982510
1890.000000	14.357542
1889.000000	14.707308
1888.000000	15.038399
1887.000000	15.377839
1886.000000	15.718597
1885.000000	16.110217
1884.000000	16.480525
1883.000000	16.907077
1882.000000	17.350436
1881.000000	17.735903
1880.000000	18.124117
1879.000000	18.520680
1878.000000	18.896261
1877.000000	19.272062
1876.000000	19.668404
1875.000000	20.016303
1874.000000	20.384085
1873.000000	20.736707
1872.000000	21.138322
1871.000000	21.511596
1870.000000	21.871688
1869.000000	22.200143
1868.000000	22.521018
1867.000000	22.779938
1866.000000	23.007769
1865.000000	23.199898
1864.000000	23.396861
1863.000000	23.549555
1862.000000	23.686759
1861.000000	23.861532
1860.000000	24.051794
1859.000000	24.221514
1858.000000	24.382665
1857.000000	24.531514
1856.000000	24.641035
1855.000000	24.717821
1854.000000	24.811085
1853.000000	24.888200
1852.000000	24.953232
1851.000000	24.991351
1850.000000	25.035950
1849.000000	25.037268
1848.000000	25.086042
1847.000000	25.175791
1846.000000	25.227860
1845.000000	25.228299
1844.000000	25.176669
1843.000000	25.134706
1842.000000	25.115592
1841.000000	25.168870
1840.000000	25.207538
1839.000000	25.207098
1838.000000	25.179635
1837.000000	25.163707
1836.000000	25.162608
1835.000000	25.143385
1834.000000	25.116691
1833.000000	25.066379
1832.000000	24.998161
1831.000000	24.970039
1830.000000	24.947081
1829.000000	24.900723
1828.000000	24.867109
1827.000000	24.833824
1826.000000	24.796365
1825.000000	24.765277
1824.000000	24.709363
1823.000000	24.657293
1822.000000	24.636861
1821.000000	24.637410
1820.000000	24.634554
1819.000000	24.632906
1818.000000	24.591932
1817.000000	24.541291
1816.000000	24.524264
1815.000000	24.528767
1814.000000	24.502293
1813.000000	24.471205
1812.000000	24.454398
1811.000000	24.421553
1810.000000	24.404855
1809.000000	24.387279
1808.000000	24.344657
1807.000000	24.308186
1806.000000	24.278197
1805.000000	24.233927
1804.000000	24.183176
1803.000000	24.136819
1802.000000	24.106390
1801.000000	24.079586
1800.000000	24.048389
1799.000000	24.001043
1798.000000	23.945019
1797.000000	23.898332
1796.000000	23.860104
1795.000000	23.818470
1794.000000	23.795182
1793.000000	23.766620
1792.000000	23.715979
1791.000000	23.677202
1790.000000	23.637216
1789.000000	23.585256
1788.000000	23.555047
1787.000000	23.536263
1786.000000	23.497925
1785.000000	23.454753
1784.000000	23.419601
1783.000000	23.371925
1782.000000	23.336114
1781.000000	23.302170
1780.000000	23.246365
1779.000000	23.206929
1778.000000	23.170348
1777.000000	23.120037
1776.000000	23.064232
1775.000000	23.007439
1774.000000	22.939881
1773.000000	22.876936
1772.000000	22.816628
1771.000000	22.749069
1770.000000	22.680412
1769.000000	22.611756
1768.000000	22.545955
1767.000000	22.470817
1766.000000	22.398864
1765.000000	22.346575
1764.000000	22.313510
1763.000000	22.286816
1762.000000	22.262099
1761.000000	22.247819
1760.000000	22.256717
1759.000000	22.282312
1758.000000	22.314389
1757.000000	22.372500
1756.000000	22.421493
1755.000000	22.467521
1754.000000	22.525193
1753.000000	22.544746
1752.000000	22.555072
1751.000000	22.588028
1750.000000	22.597035
1749.000000	22.593081
1748.000000	22.583524
1747.000000	22.562542
1746.000000	22.519261
1745.000000	22.471695
1744.000000	22.408860
1743.000000	22.343938
1742.000000	22.243315
1741.000000	22.150930
1740.000000	22.051295
1739.000000	21.920462
1738.000000	21.779743
1737.000000	21.669233
1736.000000	21.543014
1735.000000	21.428439
1734.000000	21.361979
1733.000000	21.303978
1732.000000	21.256302
1731.000000	21.223237
1730.000000	21.227521
1729.000000	21.225764
1728.000000	21.257401
1727.000000	21.288709
1726.000000	21.337592
1725.000000	21.401306
1724.000000	21.433163
1723.000000	21.481827
1722.000000	21.553889
1721.000000	21.602773
1720.000000	21.669782
1719.000000	21.764364
1718.000000	21.851805
1717.000000	21.938478
1716.000000	22.034817
1715.000000	22.172900
1714.000000	22.296153
1713.000000	22.400512
1712.000000	22.501575
1711.000000	22.602528
1710.000000	22.654927
1709.000000	22.725122
1708.000000	22.785760
1707.000000	22.829920
1706.000000	22.836291
1705.000000	22.830799
1704.000000	22.812563
1703.000000	22.798832
1702.000000	22.768403
1701.000000	22.704580
1700.000000	22.631419
1699.000000	22.569573
1698.000000	22.482461
1697.000000	22.405235
1696.000000	22.321639
1695.000000	22.241667
1694.000000	22.204428
1693.000000	22.177075
1692.000000	22.198715
1691.000000	22.237273
1690.000000	22.283630
1689.000000	22.362174
1688.000000	22.420724
1687.000000	22.522227
1686.000000	22.600990
1685.000000	22.684587
1684.000000	22.781036
1683.000000	22.869796
1682.000000	23.082138
1681.000000	23.275037
1680.000000	23.521872
1679.000000	23.824732
1678.000000	24.123856
1677.000000	24.472853
1676.000000	24.823059
1675.000000	25.124490
1674.000000	25.410652
1673.000000	25.689894
1672.000000	25.926074
1671.000000	26.165220
1670.000000	26.345705
1669.000000	26.523334
1668.000000	26.724362
1667.000000	26.885514
1666.000000	27.002725
1665.000000	27.120046
1664.000000	27.211771
1663.000000	27.325577
1662.000000	27.420708
1661.000000	27.493649
1660.000000	27.567579
1659.000000	27.644585
1658.000000	27.706980
1657.000000	27.747186
1656.000000	27.799475
1655.000000	27.818150
1654.000000	27.841328
1653.000000	27.842646
1652.000000	27.848908
1651.000000	27.837374
1650.000000	27.835836
1649.000000	27.810130
1648.000000	27.811998
1647.000000	27.778493
1646.000000	27.723568
1645.000000	27.715439
1644.000000	27.677101
1643.000000	27.615694
1642.000000	27.582299
1641.000000	27.566700
1640.000000	27.505733
1639.000000	27.459595
1638.000000	27.432902
1637.000000	27.400166
1636.000000	27.336452
1635.000000	27.287569
1634.000000	27.242090
1633.000000	27.178157
1632.000000	27.088409
1631.000000	27.046665
1630.000000	26.989872
1629.000000	26.931431
1628.000000	26.856183
1627.000000	26.776431
1626.000000	26.709202
1625.000000	26.656364
1624.000000	26.574305
1623.000000	26.491148
1622.000000	26.419745
1621.000000	26.356690
1620.000000	26.303303
1619.000000	26.217289
1618.000000	26.149621
1617.000000	26.086237
1616.000000	26.025928
1615.000000	25.952109
1614.000000	25.886088
1613.000000	25.827098
1612.000000	25.761077
1611.000000	25.695496
1610.000000	25.616623
1609.000000	25.554228
1608.000000	25.494469
1607.000000	25.432623
1606.000000	25.353200
1605.000000	25.259827
1604.000000	25.174692
1603.000000	25.110649
1602.000000	25.026613
1601.000000	24.950706
1600.000000	24.880621
1599.000000	24.788016
1598.000000	24.711340
1597.000000	24.651801
1596.000000	24.599072
1595.000000	24.507017
1594.000000	24.424189
1593.000000	24.366298
1592.000000	24.309175
1591.000000	24.245681
1590.000000	24.186911
1589.000000	24.127921
1588.000000	24.056188
1587.000000	23.984345
1586.000000	23.937329
1585.000000	23.871418
1584.000000	23.835167
1583.000000	23.765961
1582.000000	23.690603
1581.000000	23.647542
1580.000000	23.591188
1579.000000	23.529672
1578.000000	23.508251
1577.000000	23.464749
1576.000000	23.422127
1575.000000	23.397081
1574.000000	23.361380
1573.000000	23.332818
1572.000000	23.293931
1571.000000	23.277893
1570.000000	23.248123
1569.000000	23.243290
1568.000000	23.216266
1567.000000	23.199789
1566.000000	23.193527
1565.000000	23.179137
1564.000000	23.164197
1563.000000	23.151674
1562.000000	23.127397
1561.000000	23.102131
1560.000000	23.087191
1559.000000	23.060937
1558.000000	23.022159
1557.000000	22.989863
1556.000000	22.953722
1555.000000	22.913187
1554.000000	22.873860
1553.000000	22.813882
1552.000000	22.770490
1551.000000	22.710622
1550.000000	22.656904
1549.000000	22.603627
1548.000000	22.548811
1547.000000	22.477188
1546.000000	22.421384
1545.000000	22.352836
1544.000000	22.318453
1543.000000	22.269350
1542.000000	22.221784
1541.000000	22.175537
1540.000000	22.139286
1539.000000	22.105232
1538.000000	22.063598
1537.000000	22.022404
1536.000000	21.984176
1535.000000	21.948365
1534.000000	21.891681
1533.000000	21.845434
1532.000000	21.799406
1531.000000	21.743382
1530.000000	21.691533
1529.000000	21.657259
1528.000000	21.609584
1527.000000	21.541806
1526.000000	21.488418
1525.000000	21.429538
1524.000000	21.363627
1523.000000	21.302989
1522.000000	21.244109
1521.000000	21.180286
1520.000000	21.121735
1519.000000	21.072302
1518.000000	21.008808
1517.000000	20.932571
1516.000000	20.860289
1515.000000	20.791303
1514.000000	20.728907
1513.000000	20.672224
1512.000000	20.600931
1511.000000	20.527770
1510.000000	20.450215
1509.000000	20.370573
1508.000000	20.310265
1507.000000	20.239960
1506.000000	20.177674
1505.000000	20.120991
1504.000000	20.051895
1503.000000	19.998068
1502.000000	19.935672
1501.000000	19.863171
1500.000000	19.808575
1499.000000	19.740906
1498.000000	19.676643
1497.000000	19.628968
1496.000000	19.567122
1495.000000	19.512855
1494.000000	19.465290
1493.000000	19.417505
1492.000000	19.398720
1491.000000	19.373125
1490.000000	19.333359
1489.000000	19.301062
1488.000000	19.264702
1487.000000	19.226803
1486.000000	19.200768
1485.000000	19.165945
1484.000000	19.136176
1483.000000	19.103001
1482.000000	19.083557
1481.000000	19.075758
1480.000000	19.051371
1479.000000	19.033355
1478.000000	19.008529
1477.000000	19.003915
1476.000000	19.000619
1475.000000	18.981945
1474.000000	18.973376
1473.000000	18.985021
1472.000000	18.993369
1471.000000	19.007320
1470.000000	19.019074
1469.000000	19.012264
1468.000000	18.989634
1467.000000	19.005014
1466.000000	19.023469
1465.000000	19.036321
1464.000000	19.052689
1463.000000	19.097838
1462.000000	19.121456
1461.000000	19.149907
1460.000000	19.174624
1459.000000	19.208018
1458.000000	19.240644
1457.000000	19.272831
1456.000000	19.330393
1455.000000	19.377848
1454.000000	19.432774
1453.000000	19.483086
1452.000000	19.535155
1451.000000	19.604801
1450.000000	19.668075
1449.000000	19.722232
1448.000000	19.768479
1447.000000	19.824173
1446.000000	19.894698
1445.000000	20.001363
1444.000000	20.064637
1443.000000	20.114839
1442.000000	20.173720
1441.000000	20.269180
1440.000000	20.338936
1439.000000	20.431430
1438.000000	20.523595
1437.000000	20.601041
1436.000000	20.710452
1435.000000	20.802947
1434.000000	20.906976
1433.000000	21.005183
1432.000000	21.124042
1431.000000	21.247075
1430.000000	21.363627
1429.000000	21.485781
1428.000000	21.614637
1427.000000	21.777326
1426.000000	21.902776
1425.000000	22.070409
1424.000000	22.249357
1423.000000	22.440937
1422.000000	22.639108
1421.000000	22.801798
1420.000000	23.011504
1419.000000	23.237468
1418.000000	23.485402
1417.000000	23.709827
1416.000000	23.915688
1415.000000	24.159558
1414.000000	24.437261
1413.000000	24.728477
1412.000000	25.031886
1411.000000	25.281577
1410.000000	25.592895
1409.000000	25.958919
1408.000000	26.343398
1407.000000	26.733040
1406.000000	27.068196
1405.000000	27.455531
1404.000000	27.900428
1403.000000	28.304021
1402.000000	28.699485
1401.000000	29.072649
1400.000000	29.605537
1399.000000	30.108985
1398.000000	30.508184
1397.000000	30.798740
1396.000000	31.186295
1395.000000	31.738407
1394.000000	32.264044
1393.000000	32.638966
1392.000000	33.036847
1391.000000	33.555564
1390.000000	34.052091
1389.000000	34.472272
1388.000000	35.045804
1387.000000	35.645921
1386.000000	36.200010
1385.000000	36.776619
1384.000000	37.351470
1383.000000	37.930055
1382.000000	38.510619
1381.000000	39.108758
1380.000000	39.617369
1379.000000	39.991192
1378.000000	40.326568
1377.000000	40.590540
1376.000000	40.868024
1375.000000	41.124197
1374.000000	41.391794
1373.000000	41.612155
1372.000000	41.916882
1371.000000	42.207439
1370.000000	42.585766
1369.000000	42.856329
1368.000000	43.105581
1367.000000	43.403827
1366.000000	43.673292
1365.000000	43.833784
1364.000000	44.072491
1363.000000	44.293182
1362.000000	44.468504
1361.000000	44.643827
1360.000000	44.869351
1359.000000	44.989968
1358.000000	45.037753
1357.000000	45.181548
1356.000000	45.325453
1355.000000	45.516814
1354.000000	45.758376
1353.000000	46.057611
1352.000000	46.296537
1351.000000	46.668822
1350.000000	47.044513
1349.000000	47.407571
1348.000000	47.757667
1347.000000	48.086561
1346.000000	48.414796
1345.000000	48.731717
1344.000000	49.042925
1343.000000	49.374565
1342.000000	49.672701
1341.000000	49.968311
1340.000000	50.281826
1339.000000	50.565352
1338.000000	50.862828
1337.000000	51.148991
1336.000000	51.454267
1335.000000	51.746471
1334.000000	52.026921
1333.000000	52.298253
1332.000000	52.578483
1331.000000	52.846081
1330.000000	53.107416
1329.000000	53.352165
1328.000000	53.603065
1327.000000	53.852976
1326.000000	54.085311
1325.000000	54.319074
1324.000000	54.530757
1323.000000	54.736838
1322.000000	54.962692
1321.000000	55.150647
1320.000000	55.341898
1319.000000	55.534138
1318.000000	55.706274
1317.000000	55.903677
1316.000000	56.064719
1315.000000	56.226529
1314.000000	56.368457
1313.000000	56.540923
1312.000000	56.699878
1311.000000	56.821044
1310.000000	56.963520
1309.000000	57.105778
1308.000000	57.220682
1307.000000	57.328336
1306.000000	57.442252
1305.000000	57.557815
1304.000000	57.631415
1303.000000	57.713364
1302.000000	57.799817
1301.000000	57.884402
1300.000000	57.940756
1299.000000	58.019300
1298.000000	58.062801
1297.000000	58.109707
1296.000000	58.155405
1295.000000	58.191766
1294.000000	58.232301
1293.000000	58.256578
1292.000000	58.286677
1291.000000	58.305901
1290.000000	58.318754
1289.000000	58.339076
1288.000000	58.337648
1287.000000	58.335671
1286.000000	58.322928
1285.000000	58.304583
1284.000000	58.301178
1283.000000	58.277779
1282.000000	58.248779
1281.000000	58.209342
1280.000000	58.168148
1279.000000	58.141124
1278.000000	58.104324
1277.000000	58.080597
1276.000000	58.048081
1275.000000	58.019409
1274.000000	57.987553
1273.000000	57.961957
1272.000000	57.939548
1271.000000	57.922521
1270.000000	57.906482
1269.000000	57.880887
1268.000000	57.856940
1267.000000	57.848261
1266.000000	57.821568
1265.000000	57.795313
1264.000000	57.754229
1263.000000	57.719516
1262.000000	57.694689
1261.000000	57.673269
1260.000000	57.626362
1259.000000	57.585278
1258.000000	57.546061
1257.000000	57.494431
1256.000000	57.449282
1255.000000	57.412372
1254.000000	57.363159
1253.000000	57.306036
1252.000000	57.227163
1251.000000	57.156089
1250.000000	57.102482
1249.000000	57.031628
1248.000000	56.944516
1247.000000	56.844552
1246.000000	56.764690
1245.000000	56.681533
1244.000000	56.567068
1243.000000	56.465346
1242.000000	56.354945
1241.000000	56.249488
1240.000000	56.141504
1239.000000	56.038574
1238.000000	55.948606
1237.000000	55.847763
1236.000000	55.730551
1235.000000	55.610924
1234.000000	55.504258
1233.000000	55.394517
1232.000000	55.280821
1231.000000	55.161523
1230.000000	55.034095
1229.000000	54.903482
1228.000000	54.767047
1227.000000	54.631711
1226.000000	54.491211
1225.000000	54.350602
1224.000000	54.209553
1223.000000	54.058947
1222.000000	53.908121
1221.000000	53.750705
1220.000000	53.599110
1219.000000	53.458501
1218.000000	53.320088
1217.000000	53.185850
1216.000000	53.050953
1215.000000	52.897051
1214.000000	52.761825
1213.000000	52.635496
1212.000000	52.503455
1211.000000	52.388331
1210.000000	52.243767
1209.000000	52.097555
1208.000000	51.961449
1207.000000	51.848193
1206.000000	51.739221
1205.000000	51.621350
1204.000000	51.529515
1203.000000	51.430649
1202.000000	51.342658
1201.000000	51.278835
1200.000000	51.210617
1199.000000	51.130865
1198.000000	51.046939
1197.000000	50.965319
1196.000000	50.849646
1195.000000	50.732984
1194.000000	50.580731
1193.000000	50.380582
1192.000000	50.169228
1191.000000	49.924260
1190.000000	49.668088
1189.000000	49.412903
1188.000000	49.168045
1187.000000	48.941093
1186.000000	48.789718
1185.000000	48.702276
1184.000000	48.687886
1183.000000	48.763024
1182.000000	48.925604
1181.000000	49.133772
1180.000000	49.404665
1179.000000	49.744324
1178.000000	50.068055
1177.000000	50.390359
1176.000000	50.676081
1175.000000	50.934122
1174.000000	51.177222
1173.000000	51.407141
1172.000000	51.616956
1171.000000	51.838196
1170.000000	52.076024
1169.000000	52.291662
1168.000000	52.518285
1167.000000	52.770503
1166.000000	53.034585
1165.000000	53.303610
1164.000000	53.570988
1163.000000	53.836828
1162.000000	54.127384
1161.000000	54.430683
1160.000000	54.730137
1159.000000	55.011905
1158.000000	55.289829
1157.000000	55.587965
1156.000000	55.862592
1155.000000	56.139747
1154.000000	56.378893
1153.000000	56.613425
1152.000000	56.802369
1151.000000	56.975604
1150.000000	57.135987
1149.000000	57.310101
1148.000000	57.449172
1147.000000	57.601865
1146.000000	57.786964
1145.000000	57.981950
1144.000000	58.229335
1143.000000	58.481883
1142.000000	58.736078
1141.000000	59.058272
1140.000000	59.367832
1139.000000	59.723200
1138.000000	60.085599
1137.000000	60.451294
1136.000000	60.812924
1135.000000	61.225744
1134.000000	61.657789
1133.000000	62.069730
1132.000000	62.387969
1131.000000	62.676438
1130.000000	62.984021
1129.000000	63.240853
1128.000000	63.477253
1127.000000	63.672458
1126.000000	63.812518
1125.000000	63.962355
1124.000000	64.040130
1123.000000	64.149651
1122.000000	64.225998
1121.000000	64.268401
1120.000000	64.318602
1119.000000	64.344747
1118.000000	64.346285
1117.000000	64.348372
1116.000000	64.388468
1115.000000	64.363422
1114.000000	64.361444
1113.000000	64.342989
1112.000000	64.353975
1111.000000	64.333432
1110.000000	64.325633
1109.000000	64.299598
1108.000000	64.258624
1107.000000	64.257415
1106.000000	64.241048
1105.000000	64.221933
1104.000000	64.193812
1103.000000	64.175686
1102.000000	64.173599
1101.000000	64.158330
1100.000000	64.131636
1099.000000	64.095055
1098.000000	64.093408
1097.000000	64.056278
1096.000000	64.016732
1095.000000	63.991026
1094.000000	63.950162
1093.000000	63.919403
1092.000000	63.873376
1091.000000	63.808564
1090.000000	63.785715
1089.000000	63.738259
1088.000000	63.691353
1087.000000	63.619620
1086.000000	63.582710
1085.000000	63.501310
1084.000000	63.435729
1083.000000	63.391569
1082.000000	63.345102
1081.000000	63.264142
1080.000000	63.216027
1079.000000	63.130782
1078.000000	63.068716
1077.000000	63.018734
1076.000000	62.939531
1075.000000	62.880541
1074.000000	62.817157
1073.000000	62.731364
1072.000000	62.675230
1071.000000	62.607012
1070.000000	62.515177
1069.000000	62.448717
1068.000000	62.382806
1067.000000	62.302724
1066.000000	62.239999
1065.000000	62.152119
1064.000000	62.065226
1063.000000	61.989319
1062.000000	61.930219
1061.000000	61.847501
1060.000000	61.765992
1059.000000	61.680747
1058.000000	61.576279
1057.000000	61.509380
1056.000000	61.412930
1055.000000	61.329444
1054.000000	61.228820
1053.000000	61.153352
1052.000000	61.075687
1051.000000	60.975833
1050.000000	60.894653
1049.000000	60.827424
1048.000000	60.727899
1047.000000	60.632658
1046.000000	60.581357
1045.000000	60.488533
1044.000000	60.406914
1043.000000	60.338916
1042.000000	60.234887
1041.000000	60.143051
1040.000000	60.080876
1039.000000	60.006287
1038.000000	59.913133
1037.000000	59.853923
1036.000000	59.755826
1035.000000	59.663551
1034.000000	59.579295
1033.000000	59.499543
1032.000000	59.401446
1031.000000	59.293573
1030.000000	59.214040
1029.000000	59.120337
1028.000000	59.024108
1027.000000	58.947542
1026.000000	58.842853
1025.000000	58.736627
1024.000000	58.653800
1023.000000	58.559877
1022.000000	58.463647
1021.000000	58.355664
1020.000000	58.257017
1019.000000	58.190887
1018.000000	58.105313
1017.000000	58.004799
1016.000000	57.909778
1015.000000	57.819151
1014.000000	57.751373
1013.000000	57.701830
1012.000000	57.636249
1011.000000	57.560561
1010.000000	57.467188
1009.000000	57.415668
1008.000000	57.366344
1007.000000	57.321525
1006.000000	57.256384
1005.000000	57.199151
1004.000000	57.169821
1003.000000	57.139392
1002.000000	57.075239
1001.000000	57.001309
1000.000000	56.946823
999.000000	56.897829
998.000000	56.872344
997.000000	56.825547
996.000000	56.762932
995.000000	56.714817
994.000000	56.691419
993.000000	56.664396
992.000000	56.616281
991.000000	56.575636
990.000000	56.540264
989.000000	56.498740
988.000000	56.462380
987.000000	56.418110
986.000000	56.407234
985.000000	56.381419
984.000000	56.368677
983.000000	56.328361
982.000000	56.286837
981.000000	56.281674
980.000000	56.272117
979.000000	56.237404
978.000000	56.210930
977.000000	56.179183
976.000000	56.165232
975.000000	56.150842
974.000000	56.132936
973.000000	56.082734
972.000000	56.053624
971.000000	56.062961
970.000000	56.045604
969.000000	56.005289
968.000000	55.985516
967.000000	55.970576
966.000000	55.949485
965.000000	55.958163
964.000000	55.939598
963.000000	55.925867
962.000000	55.942784
961.000000	55.930151
960.000000	55.897855
959.000000	55.882695
958.000000	55.882475
957.000000	55.898074
956.000000	55.913234
955.000000	55.893570
954.000000	55.868305
953.000000	55.863142
952.000000	55.882256
951.000000	55.899942
950.000000	55.877203
949.000000	55.847982
948.000000	55.839743
947.000000	55.822167
946.000000	55.808106
945.000000	55.801186
944.000000	55.770427
943.000000	55.738900
942.000000	55.716271
941.000000	55.681448
940.000000	55.620481
939.000000	55.566873
938.000000	55.526997
937.000000	55.507114
936.000000	55.469325
935.000000	55.393968
934.000000	55.344095
933.000000	55.321466
932.000000	55.268078
931.000000	55.205683
930.000000	55.160094
929.000000	55.088472
928.000000	55.041455
927.000000	54.972139
926.000000	54.892497
925.000000	54.819995
924.000000	54.773089
923.000000	54.693667
922.000000	54.614244
921.000000	54.527901
920.000000	54.439471
919.000000	54.359939
918.000000	54.272607
917.000000	54.185056
916.000000	54.098383
915.000000	54.050488
914.000000	53.967001
913.000000	53.846605
912.000000	53.736863
911.000000	53.627452
910.000000	53.533968
909.000000	53.474759
908.000000	53.389404
907.000000	53.302512
906.000000	53.206502
905.000000	53.127080
904.000000	53.046779
903.000000	52.975265
902.000000	52.909904
901.000000	52.846740
900.000000	52.788848
899.000000	52.725244
898.000000	52.637363
897.000000	52.536191
896.000000	52.480057
895.000000	52.420957
894.000000	52.357792
893.000000	52.290783
892.000000	52.215096
891.000000	52.125897
890.000000	52.055592
889.000000	51.962109
888.000000	51.885762
887.000000	51.815347
886.000000	51.729444
885.000000	51.646396
884.000000	51.547640
883.000000	51.456134
882.000000	51.387587
881.000000	51.260160
880.000000	51.163051
879.000000	51.071216
878.000000	50.971691
877.000000	50.857116
876.000000	50.736829
875.000000	50.612587
874.000000	50.466046
873.000000	50.284572
872.000000	50.119466
871.000000	49.923162
870.000000	49.750586
869.000000	49.633594
868.000000	49.572517
867.000000	49.545164
866.000000	49.525501
865.000000	49.523853
864.000000	49.503091
863.000000	49.456734
862.000000	49.444540
861.000000	49.397634
860.000000	49.385221
859.000000	49.339633
858.000000	49.304700
857.000000	48.713800
856.000000	49.555900
855.000000	49.644400
854.000000	49.829200
853.000000	50.006300
852.000000	49.828300
851.000000	49.953300
850.000000	49.745000
849.000000	49.448900
848.000000	49.640100
847.000000	49.748900
846.000000	49.508300
845.000000	49.465800
844.000000	49.643900
843.000000	49.402200
842.000000	49.124700
841.000000	49.381300
840.000000	49.057400
839.000000	49.187000
838.000000	49.136400
837.000000	48.939700
836.000000	48.874000
835.000000	48.903800
834.000000	48.888800
833.000000	48.647300
832.000000	48.598900
831.000000	48.631000
830.000000	48.495100
829.000000	48.391600
828.000000	48.263500
827.000000	48.349200
826.000000	48.196500
825.000000	47.996300
824.000000	48.192900
823.000000	47.923200
822.000000	47.861900
821.000000	47.808400
820.000000	47.798400
819.000000	47.699700
818.000000	47.694800
817.000000	47.392900
816.000000	47.419100
815.000000	47.268100
814.000000	47.322800
813.000000	47.058800
812.000000	47.121200
811.000000	47.023400
810.000000	47.033000
809.000000	46.837100
808.000000	46.830600
807.000000	46.779300
806.000000	46.704300
805.000000	46.840000
804.000000	46.401100
803.000000	46.335800
802.000000	46.279300
801.000000	46.130600
800.000000	46.134400
799.000000	46.083000
798.000000	45.967000
797.000000	45.793300
796.000000	45.734600
795.000000	45.759700
794.000000	45.540600
793.000000	45.470700
792.000000	45.203800
791.000000	45.391300
790.000000	45.166900
789.000000	45.200200
788.000000	44.906500
787.000000	44.997000
786.000000	44.734400
785.000000	44.620500
784.000000	44.500700
783.000000	44.516300
782.000000	44.262000
781.000000	44.139100
780.000000	44.058400
779.000000	43.940600
778.000000	43.839900
777.000000	43.743900
776.000000	43.619600
775.000000	43.524600
774.000000	43.458000
773.000000	43.253200
772.000000	43.082300
771.000000	43.054000
770.000000	42.865800
769.000000	42.823900
768.000000	42.648000
767.000000	42.545100
766.000000	42.456200
765.000000	42.286900
764.000000	42.240200
763.000000	42.085100
762.000000	41.966600
761.000000	41.801700
760.000000	41.650800
759.000000	41.554500
758.000000	41.428900
757.000000	41.302100
756.000000	41.135200
755.000000	41.019300
754.000000	40.914400
753.000000	40.764100
752.000000	40.646000
751.000000	40.483600
750.000000	40.335300
749.000000	40.195700
748.000000	40.059900
747.000000	39.946100
746.000000	39.710800
745.000000	39.629700
744.000000	39.458000
743.000000	39.298300
742.000000	39.136500
741.000000	38.952400
740.000000	38.829900
739.000000	38.634400
738.000000	38.503300
737.000000	38.316200
736.000000	38.139200
735.000000	37.982300
734.000000	37.778800
733.000000	37.610400
732.000000	37.411400
731.000000	37.237500
730.000000	37.042300
729.000000	36.864300
728.000000	36.651200
727.000000	36.472200
726.000000	36.245600
725.000000	36.050100
724.000000	35.875300
723.000000	35.672900
722.000000	35.470000
721.000000	35.273100
720.000000	35.043000
719.000000	34.823700
718.000000	34.618900
717.000000	34.441500
716.000000	34.262200
715.000000	34.051200
714.000000	33.824900
713.000000	33.618700
712.000000	33.422200
711.000000	33.206700
710.000000	33.035800
709.000000	32.794300
708.000000	32.565700
707.000000	32.403600
706.000000	32.197800
705.000000	31.998900
704.000000	31.830100
703.000000	31.620800
702.000000	31.433200
701.000000	31.219300
700.000000	31.027100
699.000000	30.865900
698.000000	30.680200
697.000000	30.485300
696.000000	30.329200
695.000000	30.156100
694.000000	29.991000
693.000000	29.799500
692.000000	29.626800
691.000000	29.455300
690.000000	29.304400
689.000000	29.145800
688.000000	29.011900
687.000000	28.816300
686.000000	28.643300
685.000000	28.493500
684.000000	28.326700
683.000000	28.197100
682.000000	28.048400
681.000000	27.886600
680.000000	27.720600
679.000000	27.591900
678.000000	27.464700
677.000000	27.333800
676.000000	27.211000
675.000000	27.077500
674.000000	26.931800
673.000000	26.817500
672.000000	26.690100
671.000000	26.538300
670.000000	26.419800
669.000000	26.336300
668.000000	26.216800
667.000000	26.110100
666.000000	25.975400
665.000000	25.871400
664.000000	25.780200
663.000000	25.677000
662.000000	25.593400
661.000000	25.507800
660.000000	25.408400
659.000000	25.312200
658.000000	25.225700
657.000000	25.157000
656.000000	25.064000
655.000000	24.990700
654.000000	24.916800
653.000000	24.824500
652.000000	24.764600
651.000000	24.703200
650.000000	24.641400
649.000000	24.593700
648.000000	24.513500
647.000000	24.452800
646.000000	24.418900
645.000000	24.369600
644.000000	24.302300
643.000000	24.251400
642.000000	24.209100
641.000000	24.141200
640.000000	24.086200
639.000000	24.054400
638.000000	24.015100
637.000000	23.974900
636.000000	23.946300
635.000000	23.911100
634.000000	23.868900
633.000000	23.853400
632.000000	23.840600
631.000000	23.799900
630.000000	23.789400
629.000000	23.775200
628.000000	23.747600
627.000000	23.732000
626.000000	23.723300
625.000000	23.737500
624.000000	23.734600
623.000000	23.726300
622.000000	23.707700
621.000000	23.704100
620.000000	23.715600
619.000000	23.716500
618.000000	23.710400
617.000000	23.719000
616.000000	23.731700
615.000000	23.742300
614.000000	23.751500
613.000000	23.752600
612.000000	23.743600
611.000000	23.743000
610.000000	23.746000
609.000000	23.737600
608.000000	23.737800
607.000000	23.740600
606.000000	23.746100
605.000000	23.731100
604.000000	23.731200
603.000000	23.752600
602.000000	23.736900
601.000000	23.725600
600.000000	23.733300
599.000000	23.715500
598.000000	23.700100
597.000000	23.711500
596.000000	23.704900
595.000000	23.687700
594.000000	23.686000
593.000000	23.676200
592.000000	23.654000
591.000000	23.643200
590.000000	23.645600
589.000000	23.631900
588.000000	23.595100
587.000000	23.579200
586.000000	23.546500
585.000000	23.526900
584.000000	23.499700
583.000000	23.445200
582.000000	23.412500
581.000000	23.384700
580.000000	23.359000
579.000000	23.318400
578.000000	23.263700
577.000000	23.190800
576.000000	23.144400
575.000000	23.079900
574.000000	23.012900
573.000000	22.942800
572.000000	22.877700
571.000000	22.799200
570.000000	22.720900
569.000000	22.634900
568.000000	22.543400
567.000000	22.447400
566.000000	22.380400
565.000000	22.266000
564.000000	22.149800
563.000000	22.048300
562.000000	21.941600
561.000000	21.825900
560.000000	21.678700
559.000000	21.551500
558.000000	21.424900
557.000000	21.288600
556.000000	21.170000
555.000000	21.027000
554.000000	20.859000
553.000000	20.724100
552.000000	20.567400
551.000000	20.411800
550.000000	20.269200
549.000000	20.111500
548.000000	19.943500
547.000000	19.777800
546.000000	19.617600
545.000000	19.449100
544.000000	19.277100
543.000000	19.095500
542.000000	18.913500
541.000000	18.738600
540.000000	18.551400
539.000000	18.370300
538.000000	18.189100
537.000000	18.000200
536.000000	17.813600
535.000000	17.621100
534.000000	17.418300
533.000000	17.239400
532.000000	17.048500
531.000000	16.865600
530.000000	16.656500
529.000000	16.467600
528.000000	16.278800
527.000000	16.080000
526.000000	15.886900
525.000000	15.685000
524.000000	15.503000
523.000000	15.314000
522.000000	15.124400
521.000000	14.937300
520.000000	14.744900
519.000000	14.554400
518.000000	14.387800
517.000000	14.208400
516.000000	14.036600
515.000000	13.862000
514.000000	13.709200
513.000000	13.543400
512.000000	13.407100
511.000000	13.238600
510.000000	13.129200
509.000000	12.975600
508.000000	12.835000
507.000000	12.724600
506.000000	12.606300
505.000000	12.479600
504.000000	12.364100
503.000000	12.279600
502.000000	12.160500
501.000000	12.075700
500.000000	11.979800
499.000000	11.873000
498.000000	11.813600
497.000000	11.717400
496.000000	11.650600
495.000000	11.581900
494.000000	11.508500
493.000000	11.438300
492.000000	11.369100
491.000000	11.319200
490.000000	11.262300
489.000000	11.191500
488.000000	11.132700
487.000000	11.075000
486.000000	11.037600
485.000000	10.984600
484.000000	10.933500
483.000000	10.878500
482.000000	10.802900
481.000000	10.730600
480.000000	10.663600
479.000000	10.593200
478.000000	10.523400
477.000000	10.457600
476.000000	10.381700
475.000000	10.322000
474.000000	10.257600
473.000000	10.187700
472.000000	10.126400
471.000000	10.068300
470.000000	10.005800
469.000000	9.956300
468.000000	9.903700
467.000000	9.843300
466.000000	9.811900
465.000000	9.766600
464.000000	9.730000
463.000000	9.663100
462.000000	9.627400
461.000000	9.585400
460.000000	9.536700
459.000000	9.498500
458.000000	9.458500
457.000000	9.434100
456.000000	9.397800
455.000000	9.381600
454.000000	9.328200
453.000000	9.300200
452.000000	9.269800
451.000000	9.244500
450.000000	9.217000
449.000000	9.204600
448.000000	9.180800
447.000000	9.127600
446.000000	9.106100
445.000000	9.083400
444.000000	9.066700
443.000000	9.041400
442.000000	9.022400
441.000000	8.988700
440.000000	8.955900
439.000000	8.925500
438.000000	8.902300
437.000000	8.860700
436.000000	8.822600
435.000000	8.785300
434.000000	8.747100
433.000000	8.693700
432.000000	8.667800
431.000000	8.612100
430.000000	8.568200
429.000000	8.531500
428.000000	8.506700
427.000000	8.455700
426.000000	8.400200
425.000000	8.343200
424.000000	8.302100
423.000000	8.254600
422.000000	8.185200
421.000000	8.114400
420.000000	8.054900
419.000000	7.996200
418.000000	7.947000
417.000000	7.877300
416.000000	7.806400
415.000000	7.749900
414.000000	7.676100
413.000000	7.600600
412.000000	7.532100
411.000000	7.453300
410.000000	7.361500
409.000000	7.287500
408.000000	7.215100
407.000000	7.129500
406.000000	7.074200
405.000000	6.983800
404.000000	6.889300
403.000000	6.792600
402.000000	6.721300
401.000000	6.643500
400.000000	6.546300
399.000000	6.462500
398.000000	6.377800
397.000000	6.313300
396.000000	6.225700
395.000000	6.144200
394.000000	6.060900
393.000000	5.956900
392.000000	5.886600
391.000000	5.803900
390.000000	5.718600
389.000000	5.637400
388.000000	5.545100
387.000000	5.473500
386.000000	5.416300
385.000000	5.337700
384.000000	5.260600
383.000000	5.189000
382.000000	5.142700
381.000000	5.066500
380.000000	5.006300
379.000000	4.927500
378.000000	4.872600
377.000000	4.833500
376.000000	4.733900
375.000000	4.615200
374.000000	4.566000
373.000000	4.511600
372.000000	4.493900
371.000000	4.412900
370.000000	4.371800
369.000000	4.362500
368.000000	4.290200
367.000000	4.252700
366.000000	4.261000
365.000000	4.250900
364.000000	4.249300
363.000000	4.207200
362.000000	4.193500
361.000000	4.223900
360.000000	4.186700
359.000000	4.052500
358.000000	4.070300
357.000000	4.072500
356.000000	4.018800
355.000000	3.980400
354.000000	3.998700
353.000000	3.999800
352.000000	3.973500
351.000000	4.022200
350.000000	3.987600
349.000000	4.000800
348.000000	4.026900
347.000000	3.970900
346.000000	3.960300
345.000000	4.000900
344.000000	3.992300
343.000000	3.934100
342.000000	3.944800
341.000000	3.931300
340.000000	3.887600
339.000000	3.838700
338.000000	3.852900
337.000000	3.861800
336.000000	3.919300
335.000000	3.948800
334.000000	3.878300
333.000000	3.886200
332.000000	3.949600
331.000000	3.892500
330.000000	3.880600
329.000000	3.899000
328.000000	3.881700
327.000000	3.826300
326.000000	3.819900
325.000000	3.867100
324.000000	3.892900
323.000000	3.912700
322.000000	3.921100
321.000000	3.912700
320.000000	3.903300
319.000000	3.944100
318.000000	3.865500
317.000000	3.808100
316.000000	3.883400
315.000000	3.921800
314.000000	3.909800
313.000000	3.927300
312.000000	3.920300
311.000000	3.921800
310.000000	3.932600
309.000000	3.932300
308.000000	3.942000
307.000000	3.945700
306.000000	3.977400
305.000000	3.948900
304.000000	3.917000
303.000000	3.946900
302.000000	3.960600
301.000000	3.961300
300.000000	3.970300
299.000000	3.976300
298.000000	3.970100
297.000000	3.959100
296.000000	3.969900
295.000000	3.964300
294.000000	3.972300
293.000000	3.961700
292.000000	3.967400
291.000000	3.970400
290.000000	3.982300
289.000000	3.979200
288.000000	3.971400
287.000000	3.993800
286.000000	3.985700
285.000000	3.988500
284.000000	3.996800
283.000000	4.011700
282.000000	4.007100
281.000000	4.018400
280.000000	4.028600
279.000000	4.024200
278.000000	4.009400
277.000000	4.010700
276.000000	4.016100
275.000000	4.038200
274.000000	4.039100
273.000000	4.042100
272.000000	4.047000
271.000000	4.060800
270.000000	4.084000
269.000000	4.098900
268.000000	4.090400
267.000000	4.098600
266.000000	4.130400
265.000000	4.135100
264.000000	4.127500
263.000000	4.145700
262.000000	4.174800
261.000000	4.191800
260.000000	4.216400
259.000000	4.228800
258.000000	4.239300
257.000000	4.222500
256.000000	4.216000
255.000000	4.226000
254.000000	4.268600
253.000000	4.229400
252.000000	4.246900
251.000000	4.285600
250.000000	4.252000
