PE UV       SUBTECH     SPECTRUM    ASCII       PEDS        4.00        
   -1
CICIMAUCR0212-3.Sample.ASC
24/06/12
14:09:41.00
24/06/12
14:09:41.00
Vinicio Soto Monge
C. resplendens. Sex F. Ventral
250,000000
1
Lambda 1050
1050L1511233
PerkinElmer UV WinLab 6.3.2.0749 / 2.02.05 Lambda 900 UV/VIS/NIR, Aug  7 2015 09:38:08

0
0
3350/servo 860,8/2
0
0
UV/VIS
1
1
1
DoubleDePol,CommonBeamDepol,RBeamAtt,SBeamAtt,60mm sphere, WB InGaAs Detector
0
0
0
0
Program
Program
3350/servo 860,8/2
3350/0,2 860,8/0,2
3350/0,2 860,8/0,2
0
15.00
 
 
 
0
 
860,8
319,2
860,8
Front
100
on
S:100 R:100
0
0
0
0
 
0
 
 
 
0
 
 
0
0
0
0
0
 
 
 
 
0
0


0
0
#HDR
-1
-1
#GR
nm
%R
1.0
0.0
2500,000000
-1,000000
2251
8
63,644600
3,723400
#DATA
2482.000000	6.072030
2481.000000	6.212573
2480.000000	6.235161
2479.000000	6.146275
2478.000000	6.161333
2477.000000	6.236938
2476.000000	6.182352
2475.000000	6.143870
2474.000000	6.189254
2473.000000	6.204521
2472.000000	6.194692
2471.000000	6.201384
2470.000000	6.146694
2469.000000	6.166980
2468.000000	6.257225
2467.000000	6.228886
2466.000000	6.243736
2465.000000	6.066697
2464.000000	6.176705
2463.000000	6.183189
2462.000000	6.197306
2461.000000	6.215188
2460.000000	6.189777
2459.000000	6.206299
2458.000000	6.245200
2457.000000	6.299577
2456.000000	6.335549
2455.000000	6.281799
2454.000000	6.317667
2453.000000	6.337431
2452.000000	6.332935
2451.000000	6.417219
2450.000000	6.460512
2449.000000	6.465845
2448.000000	6.472224
2447.000000	6.524927
2446.000000	6.517817
2445.000000	6.611512
2444.000000	6.650413
2443.000000	6.704058
2442.000000	6.704685
2441.000000	6.719534
2440.000000	6.774330
2439.000000	6.835295
2438.000000	6.889776
2437.000000	6.910377
2436.000000	6.911632
2435.000000	6.953460
2434.000000	6.986714
2433.000000	6.993929
2432.000000	7.040359
2431.000000	7.021013
2430.000000	7.108435
2429.000000	7.104461
2428.000000	7.137924
2427.000000	7.156014
2426.000000	7.199725
2425.000000	7.239149
2424.000000	7.264455
2423.000000	7.307538
2422.000000	7.310884
2421.000000	7.321028
2420.000000	7.340896
2419.000000	7.355850
2418.000000	7.388476
2417.000000	7.436788
2416.000000	7.479035
2415.000000	7.474852
2414.000000	7.467114
2413.000000	7.504341
2412.000000	7.529438
2411.000000	7.542196
2410.000000	7.581828
2409.000000	7.586743
2408.000000	7.575659
2407.000000	7.608494
2406.000000	7.619265
2405.000000	7.640179
2404.000000	7.661825
2403.000000	7.675629
2402.000000	7.687236
2401.000000	7.714006
2400.000000	7.726136
2399.000000	7.707523
2398.000000	7.724568
2397.000000	7.758972
2396.000000	7.790448
2395.000000	7.821610
2394.000000	7.823388
2393.000000	7.842942
2392.000000	7.870340
2391.000000	7.878392
2390.000000	7.887490
2389.000000	7.910495
2388.000000	7.920953
2387.000000	7.913319
2386.000000	7.922312
2385.000000	7.939566
2384.000000	7.939253
2383.000000	7.939880
2382.000000	7.949082
2381.000000	7.949291
2380.000000	7.950755
2379.000000	7.957866
2378.000000	7.957971
2377.000000	7.959016
2376.000000	7.968846
2375.000000	7.968532
2374.000000	7.956089
2373.000000	7.962676
2372.000000	7.958807
2371.000000	7.937161
2370.000000	7.939566
2369.000000	7.956089
2368.000000	7.935593
2367.000000	7.937789
2366.000000	7.952742
2365.000000	7.946886
2364.000000	7.942913
2363.000000	7.894287
2362.000000	7.870236
2361.000000	7.876824
2360.000000	7.851831
2359.000000	7.828930
2358.000000	7.817009
2357.000000	7.796304
2356.000000	7.777690
2355.000000	7.758449
2354.000000	7.733456
2353.000000	7.730633
2352.000000	7.736698
2351.000000	7.748828
2350.000000	7.743077
2349.000000	7.737430
2348.000000	7.744436
2347.000000	7.759286
2346.000000	7.778422
2345.000000	7.800591
2344.000000	7.822760
2343.000000	7.832590
2342.000000	7.859674
2341.000000	7.882680
2340.000000	7.904639
2339.000000	7.893137
2338.000000	7.918966
2337.000000	7.944586
2336.000000	7.936534
2335.000000	7.960167
2334.000000	7.957448
2333.000000	7.937057
2332.000000	7.940507
2331.000000	7.939253
2330.000000	7.921475
2329.000000	7.913214
2328.000000	7.904430
2327.000000	7.890313
2326.000000	7.874209
2325.000000	7.861242
2324.000000	7.849112
2323.000000	7.827675
2322.000000	7.797349
2321.000000	7.750920
2320.000000	7.714529
2319.000000	7.688491
2318.000000	7.655237
2317.000000	7.600233
2316.000000	7.557777
2315.000000	7.516785
2314.000000	7.473911
2313.000000	7.442330
2312.000000	7.396528
2311.000000	7.353549
2310.000000	7.301891
2309.000000	7.262259
2308.000000	7.243227
2307.000000	7.215306
2306.000000	7.214993
2305.000000	7.198052
2304.000000	7.183308
2303.000000	7.186968
2302.000000	7.200666
2301.000000	7.218548
2300.000000	7.247933
2299.000000	7.252115
2298.000000	7.309002
2297.000000	7.328139
2296.000000	7.356164
2295.000000	7.412737
2294.000000	7.467009
2293.000000	7.491793
2292.000000	7.527660
2291.000000	7.547006
2290.000000	7.574195
2289.000000	7.589253
2288.000000	7.612572
2287.000000	7.627630
2286.000000	7.622925
2285.000000	7.628572
2284.000000	7.640493
2283.000000	7.641852
2282.000000	7.627003
2281.000000	7.618742
2280.000000	7.598455
2279.000000	7.596259
2278.000000	7.565411
2277.000000	7.562901
2276.000000	7.567293
2275.000000	7.544915
2274.000000	7.526196
2273.000000	7.495139
2272.000000	7.513857
2271.000000	7.514066
2270.000000	7.510197
2269.000000	7.508210
2268.000000	7.530902
2267.000000	7.556208
2266.000000	7.597305
2265.000000	7.629826
2264.000000	7.699471
2263.000000	7.748724
2262.000000	7.830708
2261.000000	7.922103
2260.000000	8.013080
2259.000000	8.131036
2258.000000	8.239058
2257.000000	8.325120
2256.000000	8.462631
2255.000000	8.568457
2254.000000	8.716844
2253.000000	8.822670
2252.000000	8.957880
2251.000000	9.069876
2250.000000	9.180303
2249.000000	9.309762
2248.000000	9.422385
2247.000000	9.514199
2246.000000	9.612914
2245.000000	9.733694
2244.000000	9.811181
2243.000000	9.883335
2242.000000	9.951725
2241.000000	10.031303
2240.000000	10.095092
2239.000000	10.153024
2238.000000	10.207715
2237.000000	10.245988
2236.000000	10.317933
2235.000000	10.354324
2234.000000	10.385486
2233.000000	10.419053
2232.000000	10.458686
2231.000000	10.451052
2230.000000	10.471443
2229.000000	10.498632
2228.000000	10.517350
2227.000000	10.510762
2226.000000	10.522683
2225.000000	10.509194
2224.000000	10.499155
2223.000000	10.502501
2222.000000	10.496645
2221.000000	10.488802
2220.000000	10.464856
2219.000000	10.450948
2218.000000	10.410792
2217.000000	10.404832
2216.000000	10.370219
2215.000000	10.377016
2214.000000	10.353383
2213.000000	10.313541
2212.000000	10.291790
2211.000000	10.256968
2210.000000	10.250798
2209.000000	10.233439
2208.000000	10.226747
2207.000000	10.204160
2206.000000	10.190252
2205.000000	10.173207
2204.000000	10.166409
2203.000000	10.161181
2202.000000	10.148423
2201.000000	10.133679
2200.000000	10.113078
2199.000000	10.131378
2198.000000	10.086203
2197.000000	10.072191
2196.000000	10.084530
2195.000000	10.057133
2194.000000	10.065707
2193.000000	10.070831
2192.000000	10.053577
2191.000000	10.038414
2190.000000	10.030258
2189.000000	10.018546
2188.000000	10.022729
2187.000000	9.999827
2186.000000	9.992612
2185.000000	9.990730
2184.000000	9.964901
2183.000000	9.973162
2182.000000	9.925687
2181.000000	9.924641
2180.000000	9.922027
2179.000000	9.915752
2178.000000	9.910628
2177.000000	9.884485
2176.000000	9.868277
2175.000000	9.862212
2174.000000	9.845167
2173.000000	9.852905
2172.000000	9.857924
2171.000000	9.855938
2170.000000	9.853323
2169.000000	9.863258
2168.000000	9.854055
2167.000000	9.853742
2166.000000	9.859702
2165.000000	9.858343
2164.000000	9.870891
2163.000000	9.883231
2162.000000	9.868904
2161.000000	9.912092
2160.000000	9.920772
2159.000000	9.928510
2158.000000	9.954653
2157.000000	9.965214
2156.000000	9.979122
2155.000000	10.010494
2154.000000	10.031513
2153.000000	10.063930
2152.000000	10.083171
2151.000000	10.109000
2150.000000	10.120398
2149.000000	10.140057
2148.000000	10.169442
2147.000000	10.192866
2146.000000	10.229989
2145.000000	10.252681
2144.000000	10.265857
2143.000000	10.303502
2142.000000	10.324312
2141.000000	10.361330
2140.000000	10.376075
2139.000000	10.380780
2138.000000	10.405668
2137.000000	10.419890
2136.000000	10.437667
2135.000000	10.471339
2134.000000	10.482737
2133.000000	10.497273
2132.000000	10.501455
2131.000000	10.526657
2130.000000	10.538055
2129.000000	10.541820
2128.000000	10.565244
2127.000000	10.582394
2126.000000	10.572564
2125.000000	10.571309
2124.000000	10.578420
2123.000000	10.585635
2122.000000	10.579988
2121.000000	10.564512
2120.000000	10.566080
2119.000000	10.567858
2118.000000	10.563884
2117.000000	10.556460
2116.000000	10.552277
2115.000000	10.542447
2114.000000	10.536696
2113.000000	10.528121
2112.000000	10.532408
2111.000000	10.524147
2110.000000	10.495913
2109.000000	10.488279
2108.000000	10.480332
2107.000000	10.462764
2106.000000	10.449693
2105.000000	10.418112
2104.000000	10.411210
2103.000000	10.415393
2102.000000	10.409014
2101.000000	10.379944
2100.000000	10.378375
2099.000000	10.376075
2098.000000	10.345331
2097.000000	10.328495
2096.000000	10.298796
2095.000000	10.297332
2094.000000	10.291476
2093.000000	10.282693
2092.000000	10.273490
2091.000000	10.260628
2090.000000	10.235635
2089.000000	10.220159
2088.000000	10.227479
2087.000000	10.221309
2086.000000	10.205728
2085.000000	10.191297
2084.000000	10.177076
2083.000000	10.165364
2082.000000	10.141312
2081.000000	10.121235
2080.000000	10.093523
2079.000000	10.061838
2078.000000	10.035068
2077.000000	10.016036
2076.000000	10.010389
2075.000000	9.973685
2074.000000	9.937712
2073.000000	9.910419
2072.000000	9.880721
2071.000000	9.842239
2070.000000	9.786816
2069.000000	9.756386
2068.000000	9.731393
2067.000000	9.694898
2066.000000	9.659448
2065.000000	9.623162
2064.000000	9.584471
2063.000000	9.554668
2062.000000	9.521937
2061.000000	9.485337
2060.000000	9.469443
2059.000000	9.459404
2058.000000	9.432215
2057.000000	9.399380
2056.000000	9.383903
2055.000000	9.369159
2054.000000	9.362152
2053.000000	9.357447
2052.000000	9.376583
2051.000000	9.397288
2050.000000	9.419667
2049.000000	9.445391
2048.000000	9.457940
2047.000000	9.467979
2046.000000	9.510644
2045.000000	9.562302
2044.000000	9.582902
2043.000000	9.633828
2042.000000	9.664468
2041.000000	9.705041
2040.000000	9.749902
2039.000000	9.799574
2038.000000	9.832618
2037.000000	9.845271
2036.000000	9.874342
2035.000000	9.904563
2034.000000	9.919831
2033.000000	9.963018
2032.000000	9.974940
2031.000000	10.002128
2030.000000	10.002023
2029.000000	10.013735
2028.000000	10.028898
2027.000000	10.033186
2026.000000	10.059642
2025.000000	10.068949
2024.000000	10.075328
2023.000000	10.067276
2022.000000	10.079092
2021.000000	10.081498
2020.000000	10.076792
2019.000000	10.067590
2018.000000	10.068844
2017.000000	10.060583
2016.000000	10.051799
2015.000000	10.053054
2014.000000	10.041029
2013.000000	10.011435
2012.000000	10.013526
2011.000000	9.985606
2010.000000	9.966574
2009.000000	9.946601
2008.000000	9.937189
2007.000000	9.911047
2006.000000	9.895779
2005.000000	9.872251
2004.000000	9.831259
2003.000000	9.809613
2002.000000	9.772071
2001.000000	9.744256
2000.000000	9.708597
1999.000000	9.667814
1998.000000	9.642717
1997.000000	9.602666
1996.000000	9.556550
1995.000000	9.506774
1994.000000	9.481991
1993.000000	9.426882
1992.000000	9.405759
1991.000000	9.352846
1990.000000	9.304115
1989.000000	9.268038
1988.000000	9.233321
1987.000000	9.174134
1986.000000	9.124776
1985.000000	9.077405
1984.000000	9.038505
1983.000000	8.994480
1982.000000	8.938326
1981.000000	8.906536
1980.000000	8.873701
1979.000000	8.808657
1978.000000	8.773835
1977.000000	8.727092
1976.000000	8.685995
1975.000000	8.636010
1974.000000	8.607358
1973.000000	8.576718
1972.000000	8.519204
1971.000000	8.502055
1970.000000	8.446632
1969.000000	8.379288
1968.000000	8.360884
1967.000000	8.339237
1966.000000	8.292703
1965.000000	8.250247
1964.000000	8.230170
1963.000000	8.178198
1962.000000	8.150486
1961.000000	8.124030
1960.000000	8.062333
1959.000000	8.047484
1958.000000	8.025419
1957.000000	7.989447
1956.000000	7.965500
1955.000000	7.910077
1954.000000	7.888117
1953.000000	7.861661
1952.000000	7.823806
1951.000000	7.794317
1950.000000	7.769743
1949.000000	7.756044
1948.000000	7.707105
1947.000000	7.706373
1946.000000	7.658374
1945.000000	7.652623
1944.000000	7.643525
1943.000000	7.617173
1942.000000	7.588416
1941.000000	7.574299
1940.000000	7.579528
1939.000000	7.566352
1938.000000	7.548888
1937.000000	7.557463
1936.000000	7.546588
1935.000000	7.566770
1934.000000	7.564574
1933.000000	7.561019
1932.000000	7.593227
1931.000000	7.614559
1930.000000	7.636519
1929.000000	7.650636
1928.000000	7.676151
1927.000000	7.712438
1926.000000	7.721849
1925.000000	7.781873
1924.000000	7.816068
1923.000000	7.877346
1922.000000	7.900561
1921.000000	7.960690
1920.000000	8.030648
1919.000000	8.104161
1918.000000	8.157806
1917.000000	8.235189
1916.000000	8.323342
1915.000000	8.358269
1914.000000	8.459703
1913.000000	8.557164
1912.000000	8.655565
1911.000000	8.771848
1910.000000	8.868786
1909.000000	8.964155
1908.000000	9.050635
1907.000000	9.179571
1906.000000	9.322311
1905.000000	9.451561
1904.000000	9.622639
1903.000000	9.778241
1902.000000	9.918262
1901.000000	10.103771
1900.000000	10.281019
1899.000000	10.462973
1898.000000	10.676298
1897.000000	10.905414
1896.000000	11.134216
1895.000000	11.330391
1894.000000	11.538697
1893.000000	11.783289
1892.000000	12.032691
1891.000000	12.346195
1890.000000	12.640982
1889.000000	12.939323
1888.000000	13.262030
1887.000000	13.598540
1886.000000	13.921665
1885.000000	14.296343
1884.000000	14.687335
1883.000000	15.096836
1882.000000	15.501735
1881.000000	15.924203
1880.000000	16.346147
1879.000000	16.749374
1878.000000	17.119974
1877.000000	17.548088
1876.000000	17.937721
1875.000000	18.336032
1874.000000	18.721377
1873.000000	19.120734
1872.000000	19.539437
1871.000000	19.919972
1870.000000	20.318179
1869.000000	20.678008
1868.000000	21.052791
1867.000000	21.315160
1866.000000	21.571883
1865.000000	21.771509
1864.000000	21.967789
1863.000000	22.125378
1862.000000	22.288718
1861.000000	22.501625
1860.000000	22.677304
1859.000000	22.852461
1858.000000	23.043408
1857.000000	23.175482
1856.000000	23.279321
1855.000000	23.368102
1854.000000	23.469536
1853.000000	23.573061
1852.000000	23.627124
1851.000000	23.653058
1850.000000	23.695723
1849.000000	23.707017
1848.000000	23.775720
1847.000000	23.865547
1846.000000	23.915323
1845.000000	23.890853
1844.000000	23.845678
1843.000000	23.799144
1842.000000	23.801549
1841.000000	23.845469
1840.000000	23.880396
1839.000000	23.876318
1838.000000	23.868998
1837.000000	23.829783
1836.000000	23.836790
1835.000000	23.852998
1834.000000	23.813993
1833.000000	23.741421
1832.000000	23.682233
1831.000000	23.636640
1830.000000	23.614994
1829.000000	23.570761
1828.000000	23.529246
1827.000000	23.483339
1826.000000	23.431681
1825.000000	23.397068
1824.000000	23.344050
1823.000000	23.282144
1822.000000	23.238433
1821.000000	23.233832
1820.000000	23.245335
1819.000000	23.231950
1818.000000	23.204866
1817.000000	23.142542
1816.000000	23.113053
1815.000000	23.119850
1814.000000	23.106569
1813.000000	23.079276
1812.000000	23.051146
1811.000000	23.032846
1810.000000	23.006181
1809.000000	22.967594
1808.000000	22.917923
1807.000000	22.879127
1806.000000	22.857271
1805.000000	22.809482
1804.000000	22.757092
1803.000000	22.718610
1802.000000	22.678246
1801.000000	22.633698
1800.000000	22.597935
1799.000000	22.557570
1798.000000	22.500056
1797.000000	22.448189
1796.000000	22.402073
1795.000000	22.367878
1794.000000	22.319462
1793.000000	22.272300
1792.000000	22.232040
1791.000000	22.181010
1790.000000	22.141482
1789.000000	22.092333
1788.000000	22.050505
1787.000000	22.008572
1786.000000	21.968521
1785.000000	21.927947
1784.000000	21.886433
1783.000000	21.827036
1782.000000	21.771718
1781.000000	21.724347
1780.000000	21.663696
1779.000000	21.614025
1778.000000	21.566236
1777.000000	21.518238
1776.000000	21.465220
1775.000000	21.404360
1774.000000	21.341617
1773.000000	21.271136
1772.000000	21.199714
1771.000000	21.126305
1770.000000	21.064190
1769.000000	20.989839
1768.000000	20.910679
1767.000000	20.835179
1766.000000	20.785612
1765.000000	20.738346
1764.000000	20.686374
1763.000000	20.655839
1762.000000	20.644964
1761.000000	20.666401
1760.000000	20.687420
1759.000000	20.707602
1758.000000	20.757169
1757.000000	20.825872
1756.000000	20.874393
1755.000000	20.919358
1754.000000	20.985134
1753.000000	21.032818
1752.000000	21.053628
1751.000000	21.059588
1750.000000	21.073601
1749.000000	21.094097
1748.000000	21.073706
1747.000000	21.042125
1746.000000	21.005839
1745.000000	20.965265
1744.000000	20.913921
1743.000000	20.819598
1742.000000	20.715236
1741.000000	20.627605
1740.000000	20.516027
1739.000000	20.353315
1738.000000	20.231280
1737.000000	20.085822
1736.000000	19.957722
1735.000000	19.837883
1734.000000	19.763847
1733.000000	19.690752
1732.000000	19.662099
1731.000000	19.667014
1730.000000	19.696817
1729.000000	19.733208
1728.000000	19.788526
1727.000000	19.857334
1726.000000	19.915266
1725.000000	19.990557
1724.000000	20.073273
1723.000000	20.121899
1722.000000	20.175335
1721.000000	20.227620
1720.000000	20.306362
1719.000000	20.375798
1718.000000	20.433521
1717.000000	20.511008
1716.000000	20.585881
1715.000000	20.657303
1714.000000	20.764175
1713.000000	20.867073
1712.000000	20.937763
1711.000000	20.997891
1710.000000	21.062412
1709.000000	21.110305
1708.000000	21.134043
1707.000000	21.135716
1706.000000	21.107587
1705.000000	21.098489
1704.000000	21.060843
1703.000000	21.005107
1702.000000	20.931802
1701.000000	20.873556
1700.000000	20.772227
1699.000000	20.667028
1698.000000	20.585986
1697.000000	20.454330
1696.000000	20.353838
1695.000000	20.290154
1694.000000	20.233894
1693.000000	20.230862
1692.000000	20.281579
1691.000000	20.333132
1690.000000	20.439168
1689.000000	20.530040
1688.000000	20.617775
1687.000000	20.700282
1686.000000	20.810186
1685.000000	20.861740
1684.000000	20.944978
1683.000000	21.058229
1682.000000	21.182982
1681.000000	21.404778
1680.000000	21.671643
1679.000000	21.995500
1678.000000	22.368087
1677.000000	22.756465
1676.000000	23.133235
1675.000000	23.470895
1674.000000	23.813575
1673.000000	24.123628
1672.000000	24.363933
1671.000000	24.592735
1670.000000	24.800622
1669.000000	24.959570
1668.000000	25.150936
1667.000000	25.263559
1666.000000	25.373986
1665.000000	25.459002
1664.000000	25.590971
1663.000000	25.660929
1662.000000	25.734547
1661.000000	25.771565
1660.000000	25.836922
1659.000000	25.877078
1658.000000	25.902907
1657.000000	25.945154
1656.000000	25.959689
1655.000000	25.987505
1654.000000	25.975270
1653.000000	25.962199
1652.000000	25.971610
1651.000000	25.954774
1650.000000	25.915769
1649.000000	25.878855
1648.000000	25.851249
1647.000000	25.806178
1646.000000	25.776794
1645.000000	25.737162
1644.000000	25.685608
1643.000000	25.626525
1642.000000	25.588775
1641.000000	25.544855
1640.000000	25.472283
1639.000000	25.417697
1638.000000	25.378692
1637.000000	25.304132
1636.000000	25.267951
1635.000000	25.188163
1634.000000	25.129080
1633.000000	25.058076
1632.000000	25.005582
1631.000000	24.932486
1630.000000	24.862005
1629.000000	24.774270
1628.000000	24.691764
1627.000000	24.617413
1626.000000	24.542854
1625.000000	24.472164
1624.000000	24.396036
1623.000000	24.338313
1622.000000	24.250578
1621.000000	24.190763
1620.000000	24.113276
1619.000000	24.044154
1618.000000	23.971791
1617.000000	23.908212
1616.000000	23.826228
1615.000000	23.761498
1614.000000	23.690913
1613.000000	23.623046
1612.000000	23.566473
1611.000000	23.500280
1610.000000	23.417250
1609.000000	23.347815
1608.000000	23.260707
1607.000000	23.213023
1606.000000	23.149234
1605.000000	23.092661
1604.000000	23.010677
1603.000000	22.920223
1602.000000	22.846605
1601.000000	22.775497
1600.000000	22.718505
1599.000000	22.635685
1598.000000	22.561649
1597.000000	22.482802
1596.000000	22.418073
1595.000000	22.335984
1594.000000	22.303776
1593.000000	22.219283
1592.000000	22.139495
1591.000000	22.069223
1590.000000	22.011813
1589.000000	21.953044
1588.000000	21.901386
1587.000000	21.839166
1586.000000	21.778097
1585.000000	21.715250
1584.000000	21.679800
1583.000000	21.609633
1582.000000	21.537583
1581.000000	21.486657
1580.000000	21.443992
1579.000000	21.404255
1578.000000	21.359185
1577.000000	21.320075
1576.000000	21.276678
1575.000000	21.232026
1574.000000	21.199086
1573.000000	21.162696
1572.000000	21.144814
1571.000000	21.129860
1570.000000	21.099953
1569.000000	21.049340
1568.000000	21.042230
1567.000000	21.037838
1566.000000	21.012950
1565.000000	20.990885
1564.000000	20.977082
1563.000000	20.950102
1562.000000	20.912352
1561.000000	20.902523
1560.000000	20.886314
1559.000000	20.856407
1558.000000	20.830264
1557.000000	20.788331
1556.000000	20.754136
1555.000000	20.703733
1554.000000	20.669224
1553.000000	20.630324
1552.000000	20.579816
1551.000000	20.536942
1550.000000	20.498669
1549.000000	20.446069
1548.000000	20.386673
1547.000000	20.337629
1546.000000	20.291513
1545.000000	20.248639
1544.000000	20.204092
1543.000000	20.155989
1542.000000	20.120958
1541.000000	20.080593
1540.000000	20.042215
1539.000000	19.995263
1538.000000	19.966192
1537.000000	19.932625
1536.000000	19.887241
1535.000000	19.848968
1534.000000	19.809545
1533.000000	19.764997
1532.000000	19.710097
1531.000000	19.658544
1530.000000	19.610755
1529.000000	19.567462
1528.000000	19.513504
1527.000000	19.463728
1526.000000	19.409037
1525.000000	19.348804
1524.000000	19.288780
1523.000000	19.230011
1522.000000	19.167373
1521.000000	19.111114
1520.000000	19.057573
1519.000000	18.986674
1518.000000	18.920899
1517.000000	18.861398
1516.000000	18.803361
1515.000000	18.743964
1514.000000	18.677248
1513.000000	18.616910
1512.000000	18.554272
1511.000000	18.488392
1510.000000	18.416970
1509.000000	18.349940
1508.000000	18.293263
1507.000000	18.219645
1506.000000	18.144667
1505.000000	18.086107
1504.000000	18.020436
1503.000000	17.958426
1502.000000	17.892441
1501.000000	17.819137
1500.000000	17.770511
1499.000000	17.703063
1498.000000	17.634360
1497.000000	17.591695
1496.000000	17.535749
1495.000000	17.475098
1494.000000	17.426263
1493.000000	17.390186
1492.000000	17.358919
1491.000000	17.304542
1490.000000	17.263550
1489.000000	17.227473
1488.000000	17.182717
1487.000000	17.131895
1486.000000	17.092472
1485.000000	17.051689
1484.000000	17.021782
1483.000000	17.000658
1482.000000	16.977548
1481.000000	16.948477
1480.000000	16.916374
1479.000000	16.882388
1478.000000	16.869735
1477.000000	16.848507
1476.000000	16.831567
1475.000000	16.808875
1474.000000	16.787961
1473.000000	16.779909
1472.000000	16.787229
1471.000000	16.781373
1470.000000	16.786183
1469.000000	16.783359
1468.000000	16.764118
1467.000000	16.754707
1466.000000	16.756066
1465.000000	16.772798
1464.000000	16.767569
1463.000000	16.784614
1462.000000	16.796745
1461.000000	16.809921
1460.000000	16.824665
1459.000000	16.875800
1458.000000	16.888349
1457.000000	16.922439
1456.000000	16.974620
1455.000000	17.007978
1454.000000	17.037572
1453.000000	17.095714
1452.000000	17.142561
1451.000000	17.190978
1450.000000	17.247760
1449.000000	17.297954
1448.000000	17.340201
1447.000000	17.402630
1446.000000	17.472274
1445.000000	17.541082
1444.000000	17.608426
1443.000000	17.657156
1442.000000	17.732238
1441.000000	17.811294
1440.000000	17.882402
1439.000000	17.977667
1438.000000	18.062056
1437.000000	18.142262
1436.000000	18.226755
1435.000000	18.323484
1434.000000	18.422303
1433.000000	18.519659
1432.000000	18.636047
1431.000000	18.762578
1430.000000	18.860875
1429.000000	18.977263
1428.000000	19.096892
1427.000000	19.255108
1426.000000	19.404227
1425.000000	19.556587
1424.000000	19.738122
1423.000000	19.902718
1422.000000	20.067417
1421.000000	20.245606
1420.000000	20.432998
1419.000000	20.673930
1418.000000	20.915698
1417.000000	21.120031
1416.000000	21.311709
1415.000000	21.559020
1414.000000	21.839689
1413.000000	22.129142
1412.000000	22.420478
1411.000000	22.652417
1410.000000	22.965921
1409.000000	23.323241
1408.000000	23.681920
1407.000000	24.071343
1406.000000	24.413918
1405.000000	24.819131
1404.000000	25.226540
1403.000000	25.645139
1402.000000	26.028915
1401.000000	26.409659
1400.000000	26.926240
1399.000000	27.443136
1398.000000	27.798050
1397.000000	28.132783
1396.000000	28.565916
1395.000000	29.093060
1394.000000	29.617589
1393.000000	29.984738
1392.000000	30.419963
1391.000000	30.936649
1390.000000	31.447898
1389.000000	31.873712
1388.000000	32.447598
1387.000000	33.100750
1386.000000	33.688126
1385.000000	34.290874
1384.000000	34.874381
1383.000000	35.534539
1382.000000	36.179743
1381.000000	36.856633
1380.000000	37.360352
1379.000000	37.755422
1378.000000	38.110964
1377.000000	38.369777
1376.000000	38.671152
1375.000000	38.923795
1374.000000	39.205929
1373.000000	39.468088
1372.000000	39.778247
1371.000000	40.132638
1370.000000	40.492154
1369.000000	40.833370
1368.000000	41.140286
1367.000000	41.482861
1366.000000	41.732891
1365.000000	41.950817
1364.000000	42.195409
1363.000000	42.382173
1362.000000	42.581904
1361.000000	42.808928
1360.000000	43.032606
1359.000000	43.109466
1358.000000	43.233487
1357.000000	43.346633
1356.000000	43.508719
1355.000000	43.692764
1354.000000	43.984727
1353.000000	44.337341
1352.000000	44.635577
1351.000000	45.063901
1350.000000	45.494839
1349.000000	45.879138
1348.000000	46.236771
1347.000000	46.643239
1346.000000	47.001919
1345.000000	47.365617
1344.000000	47.718022
1343.000000	48.045225
1342.000000	48.376507
1341.000000	48.697645
1340.000000	49.037083
1339.000000	49.361776
1338.000000	49.683333
1337.000000	49.994014
1336.000000	50.334916
1335.000000	50.661700
1334.000000	50.964852
1333.000000	51.268945
1332.000000	51.569797
1331.000000	51.870961
1330.000000	52.158846
1329.000000	52.466599
1328.000000	52.731687
1327.000000	52.994160
1326.000000	53.253183
1325.000000	53.512938
1324.000000	53.764536
1323.000000	53.993338
1322.000000	54.229355
1321.000000	54.449268
1320.000000	54.659666
1319.000000	54.887108
1318.000000	55.084434
1317.000000	55.273498
1316.000000	55.456498
1315.000000	55.650059
1314.000000	55.836509
1313.000000	56.001209
1312.000000	56.162040
1311.000000	56.331759
1310.000000	56.480040
1309.000000	56.613264
1308.000000	56.775872
1307.000000	56.896338
1306.000000	57.009693
1305.000000	57.118029
1304.000000	57.225110
1303.000000	57.323616
1302.000000	57.391901
1301.000000	57.483819
1300.000000	57.566640
1299.000000	57.628337
1298.000000	57.687524
1297.000000	57.753613
1296.000000	57.812277
1295.000000	57.854733
1294.000000	57.900954
1293.000000	57.930861
1292.000000	57.964847
1291.000000	57.986075
1290.000000	58.004584
1289.000000	58.016818
1288.000000	58.021838
1287.000000	58.014727
1286.000000	58.018596
1285.000000	57.990362
1284.000000	57.979905
1283.000000	57.956376
1282.000000	57.932011
1281.000000	57.901895
1280.000000	57.860066
1279.000000	57.834133
1278.000000	57.805480
1277.000000	57.772436
1276.000000	57.743365
1275.000000	57.704883
1274.000000	57.677590
1273.000000	57.651133
1272.000000	57.620703
1271.000000	57.589854
1270.000000	57.569149
1269.000000	57.551163
1268.000000	57.519478
1267.000000	57.489048
1266.000000	57.457258
1265.000000	57.428710
1264.000000	57.397234
1263.000000	57.359902
1262.000000	57.310754
1261.000000	57.269135
1260.000000	57.222182
1259.000000	57.180981
1258.000000	57.136852
1257.000000	57.094396
1256.000000	57.051313
1255.000000	56.994635
1254.000000	56.940154
1253.000000	56.888600
1252.000000	56.835060
1251.000000	56.762278
1250.000000	56.683745
1249.000000	56.613473
1248.000000	56.535881
1247.000000	56.445427
1246.000000	56.343052
1245.000000	56.242978
1244.000000	56.139766
1243.000000	56.032058
1242.000000	55.926545
1241.000000	55.817687
1240.000000	55.714057
1239.000000	55.603839
1238.000000	55.482536
1237.000000	55.371063
1236.000000	55.253630
1235.000000	55.131072
1234.000000	55.007783
1233.000000	54.878742
1232.000000	54.741545
1231.000000	54.613759
1230.000000	54.473111
1229.000000	54.327966
1228.000000	54.174874
1227.000000	54.016344
1226.000000	53.865134
1225.000000	53.704722
1224.000000	53.553825
1223.000000	53.399583
1222.000000	53.232478
1221.000000	53.066837
1220.000000	52.910608
1219.000000	52.758980
1218.000000	52.599404
1217.000000	52.445894
1216.000000	52.298867
1215.000000	52.154245
1214.000000	52.001885
1213.000000	51.847119
1212.000000	51.715150
1211.000000	51.577744
1210.000000	51.437723
1209.000000	51.299585
1208.000000	51.159668
1207.000000	51.038470
1206.000000	50.914344
1205.000000	50.805695
1204.000000	50.709489
1203.000000	50.633989
1202.000000	50.567377
1201.000000	50.493341
1200.000000	50.436140
1199.000000	50.369842
1198.000000	50.292669
1197.000000	50.188830
1196.000000	50.067213
1195.000000	49.930539
1194.000000	49.750154
1193.000000	49.539756
1192.000000	49.276237
1191.000000	48.963360
1190.000000	48.623504
1189.000000	48.288144
1188.000000	47.970352
1187.000000	47.707042
1186.000000	47.534290
1185.000000	47.448124
1184.000000	47.455548
1183.000000	47.569426
1182.000000	47.774281
1181.000000	48.085171
1180.000000	48.467170
1179.000000	48.878553
1178.000000	49.289204
1177.000000	49.692744
1176.000000	50.071292
1175.000000	50.377685
1174.000000	50.671635
1173.000000	50.969453
1172.000000	51.251064
1171.000000	51.529118
1170.000000	51.831747
1169.000000	52.109802
1168.000000	52.402183
1167.000000	52.708263
1166.000000	53.027205
1165.000000	53.359428
1164.000000	53.660174
1163.000000	54.020840
1162.000000	54.376487
1161.000000	54.731192
1160.000000	55.078264
1159.000000	55.416133
1158.000000	55.756826
1157.000000	56.106094
1156.000000	56.431101
1155.000000	56.736344
1154.000000	57.020151
1153.000000	57.272063
1152.000000	57.499191
1151.000000	57.689824
1150.000000	57.864040
1149.000000	58.019328
1148.000000	58.192498
1147.000000	58.360439
1146.000000	58.553687
1145.000000	58.783325
1144.000000	59.052596
1143.000000	59.337866
1142.000000	59.673017
1141.000000	60.065577
1140.000000	60.453013
1139.000000	60.880186
1138.000000	61.312797
1137.000000	61.748754
1136.000000	62.191300
1135.000000	62.685294
1134.000000	63.198634
1133.000000	63.669622
1132.000000	64.067411
1131.000000	64.412391
1130.000000	64.769711
1129.000000	65.073804
1128.000000	65.361270
1127.000000	65.583066
1126.000000	65.765961
1125.000000	65.925954
1124.000000	66.046211
1123.000000	66.163749
1122.000000	66.253471
1121.000000	66.331272
1120.000000	66.391192
1119.000000	66.425805
1118.000000	66.477254
1117.000000	66.502769
1116.000000	66.514376
1115.000000	66.537591
1114.000000	66.553904
1113.000000	66.533827
1112.000000	66.520232
1111.000000	66.539264
1110.000000	66.535082
1109.000000	66.519814
1108.000000	66.540415
1107.000000	66.547212
1106.000000	66.535814
1105.000000	66.543134
1104.000000	66.531317
1103.000000	66.538532
1102.000000	66.528284
1101.000000	66.529016
1100.000000	66.517514
1099.000000	66.521906
1098.000000	66.512180
1097.000000	66.509462
1096.000000	66.491162
1095.000000	66.482587
1094.000000	66.441386
1093.000000	66.429569
1092.000000	66.418903
1091.000000	66.372264
1090.000000	66.302515
1089.000000	66.308999
1088.000000	66.279614
1087.000000	66.229315
1086.000000	66.195748
1085.000000	66.139907
1084.000000	66.103203
1083.000000	66.077583
1082.000000	66.025506
1081.000000	65.972907
1080.000000	65.924909
1079.000000	65.875342
1078.000000	65.831213
1077.000000	65.785202
1076.000000	65.720681
1075.000000	65.686905
1074.000000	65.617992
1073.000000	65.567903
1072.000000	65.518754
1071.000000	65.439489
1070.000000	65.397452
1069.000000	65.336382
1068.000000	65.283051
1067.000000	65.227105
1066.000000	65.170428
1065.000000	65.095555
1064.000000	65.039818
1063.000000	64.974880
1062.000000	64.907850
1061.000000	64.840819
1060.000000	64.779854
1059.000000	64.691910
1058.000000	64.611809
1057.000000	64.540596
1056.000000	64.479526
1055.000000	64.396183
1054.000000	64.321414
1053.000000	64.249469
1052.000000	64.162362
1051.000000	64.088221
1050.000000	64.027779
1049.000000	63.971938
1048.000000	63.882425
1047.000000	63.795212
1046.000000	63.753698
1045.000000	63.679870
1044.000000	63.611690
1043.000000	63.536399
1042.000000	63.472401
1041.000000	63.418129
1040.000000	63.335517
1039.000000	63.259599
1038.000000	63.204594
1037.000000	63.128153
1036.000000	63.061332
1035.000000	62.964290
1034.000000	62.895064
1033.000000	62.819145
1032.000000	62.728273
1031.000000	62.628303
1030.000000	62.568174
1029.000000	62.478766
1028.000000	62.388521
1027.000000	62.308942
1026.000000	62.209913
1025.000000	62.108793
1024.000000	62.025763
1023.000000	61.938656
1022.000000	61.840150
1021.000000	61.753356
1020.000000	61.668130
1019.000000	61.567951
1018.000000	61.480320
1017.000000	61.405656
1016.000000	61.315830
1015.000000	61.248172
1014.000000	61.182397
1013.000000	61.112439
1012.000000	61.048441
1011.000000	61.001489
1010.000000	60.960183
1009.000000	60.917309
1008.000000	60.875585
1007.000000	60.840449
1006.000000	60.791614
1005.000000	60.777707
1004.000000	60.729290
1003.000000	60.689344
1002.000000	60.661528
1001.000000	60.632353
1000.000000	60.599413
999.000000	60.564904
998.000000	60.539598
997.000000	60.507390
996.000000	60.481979
995.000000	60.457614
994.000000	60.427184
993.000000	60.402714
992.000000	60.382532
991.000000	60.373016
990.000000	60.360468
989.000000	60.335266
988.000000	60.322090
987.000000	60.312051
986.000000	60.309332
985.000000	60.294379
984.000000	60.285072
983.000000	60.279007
982.000000	60.283921
981.000000	60.295215
980.000000	60.302535
979.000000	60.295633
978.000000	60.280889
977.000000	60.286117
976.000000	60.281412
975.000000	60.301176
974.000000	60.313201
973.000000	60.306300
972.000000	60.327423
971.000000	60.347292
970.000000	60.346350
969.000000	60.336730
968.000000	60.345723
967.000000	60.364023
966.000000	60.375421
965.000000	60.396858
964.000000	60.425825
963.000000	60.431785
962.000000	60.437327
961.000000	60.454268
960.000000	60.480515
959.000000	60.513978
958.000000	60.523599
957.000000	60.554447
956.000000	60.592511
955.000000	60.615935
954.000000	60.638836
953.000000	60.655986
952.000000	60.679828
951.000000	60.711722
950.000000	60.739747
949.000000	60.774465
948.000000	60.793810
947.000000	60.797366
946.000000	60.819953
945.000000	60.834384
944.000000	60.820790
943.000000	60.810437
942.000000	60.826437
941.000000	60.817234
940.000000	60.773105
939.000000	60.737551
938.000000	60.734309
937.000000	60.719879
936.000000	60.686311
935.000000	60.664247
934.000000	60.637895
933.000000	60.619281
932.000000	60.585609
931.000000	60.524958
930.000000	60.471940
929.000000	60.451758
928.000000	60.390166
927.000000	60.320521
926.000000	60.280993
925.000000	60.216787
924.000000	60.177154
923.000000	60.129784
922.000000	60.060035
921.000000	59.983488
920.000000	59.906629
919.000000	59.831756
918.000000	59.759915
917.000000	59.681696
916.000000	59.593020
915.000000	59.508317
914.000000	59.458750
913.000000	59.383250
912.000000	59.284953
911.000000	59.179859
910.000000	59.083654
909.000000	59.006166
908.000000	58.929934
907.000000	58.850355
906.000000	58.768371
905.000000	58.691616
904.000000	58.639226
903.000000	58.585372
902.000000	58.524721
901.000000	58.466893
900.000000	58.428724
899.000000	58.373092
898.000000	58.312127
897.000000	58.264966
896.000000	58.216027
895.000000	58.210275
894.000000	58.208393
893.000000	58.196890
892.000000	58.205674
891.000000	58.195635
890.000000	58.180577
889.000000	58.170329
888.000000	58.122331
887.000000	58.107168
886.000000	58.073496
885.000000	58.046935
884.000000	58.032086
883.000000	57.998937
882.000000	57.951880
881.000000	57.916012
880.000000	57.880458
879.000000	57.822943
878.000000	57.785716
877.000000	57.746816
876.000000	57.715235
875.000000	57.671943
874.000000	57.598743
873.000000	57.544993
872.000000	57.511635
871.000000	57.471793
870.000000	57.426828
869.000000	57.371196
868.000000	57.334492
867.000000	57.255959
866.000000	57.206915
865.000000	57.149505
864.000000	57.109245
863.000000	57.046816
862.000000	56.994112
861.000000	56.921958
860.000000	56.882117
859.000000	56.822093
858.000000	56.752867
857.000000	56.155400
856.000000	56.726800
855.000000	57.376400
854.000000	56.292100
853.000000	56.656700
852.000000	56.667200
851.000000	56.140900
850.000000	56.730200
849.000000	56.832800
848.000000	56.487400
847.000000	55.969100
846.000000	55.950800
845.000000	55.914200
844.000000	55.847400
843.000000	55.633700
842.000000	55.683800
841.000000	55.859300
840.000000	55.388400
839.000000	55.323900
838.000000	55.505200
837.000000	55.275700
836.000000	55.168600
835.000000	55.220900
834.000000	54.852900
833.000000	55.041600
832.000000	54.781100
831.000000	54.199000
830.000000	54.016200
829.000000	54.229400
828.000000	54.313500
827.000000	54.232200
826.000000	53.825300
825.000000	53.754300
824.000000	54.077800
823.000000	53.829100
822.000000	53.475100
821.000000	53.066200
820.000000	53.297000
819.000000	52.883600
818.000000	52.840500
817.000000	52.639800
816.000000	52.453300
815.000000	52.859700
814.000000	52.438700
813.000000	52.270400
812.000000	52.176900
811.000000	52.144400
810.000000	51.770900
809.000000	52.092200
808.000000	51.442500
807.000000	51.588500
806.000000	51.582700
805.000000	51.227800
804.000000	50.847300
803.000000	50.873900
802.000000	50.963900
801.000000	50.465400
800.000000	50.378100
799.000000	50.378900
798.000000	50.132700
797.000000	49.891900
796.000000	49.849900
795.000000	49.647400
794.000000	49.475400
793.000000	49.534900
792.000000	49.475300
791.000000	49.296900
790.000000	48.969700
789.000000	48.867400
788.000000	49.049700
787.000000	48.804200
786.000000	48.367000
785.000000	48.114200
784.000000	48.313700
783.000000	48.060800
782.000000	48.092000
781.000000	47.570700
780.000000	47.632300
779.000000	47.541200
778.000000	47.248100
777.000000	47.122700
776.000000	47.052400
775.000000	46.752700
774.000000	46.743900
773.000000	46.651600
772.000000	46.391600
771.000000	46.217400
770.000000	46.183500
769.000000	45.981400
768.000000	45.822700
767.000000	45.818200
766.000000	45.705900
765.000000	45.380500
764.000000	45.250300
763.000000	45.137800
762.000000	44.975800
761.000000	44.851700
760.000000	44.689000
759.000000	44.438500
758.000000	44.199100
757.000000	44.235500
756.000000	44.029700
755.000000	43.972200
754.000000	43.768200
753.000000	43.605400
752.000000	43.435000
751.000000	43.197300
750.000000	43.127600
749.000000	42.945300
748.000000	42.849500
747.000000	42.725600
746.000000	42.621500
745.000000	42.425600
744.000000	42.184800
743.000000	42.076000
742.000000	41.917500
741.000000	41.564700
740.000000	41.511700
739.000000	41.341200
738.000000	41.215700
737.000000	40.998600
736.000000	40.931700
735.000000	40.796900
734.000000	40.611500
733.000000	40.430200
732.000000	40.264000
731.000000	40.083900
730.000000	39.991300
729.000000	39.876900
728.000000	39.585700
727.000000	39.574000
726.000000	39.380200
725.000000	39.121600
724.000000	38.921400
723.000000	38.753800
722.000000	38.549500
721.000000	38.444700
720.000000	38.161300
719.000000	37.979400
718.000000	37.761200
717.000000	37.601700
716.000000	37.453600
715.000000	37.227900
714.000000	37.108800
713.000000	37.009400
712.000000	36.829100
711.000000	36.560600
710.000000	36.438000
709.000000	36.243800
708.000000	35.967900
707.000000	35.738100
706.000000	35.593300
705.000000	35.397900
704.000000	35.157000
703.000000	34.941400
702.000000	34.712300
701.000000	34.513000
700.000000	34.347400
699.000000	34.146200
698.000000	33.940300
697.000000	33.686500
696.000000	33.530900
695.000000	33.366200
694.000000	33.099300
693.000000	32.898500
692.000000	32.621100
691.000000	32.432600
690.000000	32.219000
689.000000	32.004400
688.000000	31.786500
687.000000	31.506300
686.000000	31.305000
685.000000	31.079600
684.000000	30.944000
683.000000	30.772600
682.000000	30.533200
681.000000	30.317200
680.000000	30.130500
679.000000	29.927400
678.000000	29.718500
677.000000	29.493300
676.000000	29.310400
675.000000	29.084800
674.000000	28.849100
673.000000	28.698000
672.000000	28.514700
671.000000	28.302400
670.000000	28.092500
669.000000	27.938900
668.000000	27.801500
667.000000	27.614300
666.000000	27.428200
665.000000	27.304900
664.000000	27.157400
663.000000	26.994100
662.000000	26.792500
661.000000	26.604500
660.000000	26.450600
659.000000	26.267100
658.000000	26.083600
657.000000	25.921600
656.000000	25.783200
655.000000	25.684900
654.000000	25.549000
653.000000	25.377400
652.000000	25.212800
651.000000	25.074800
650.000000	24.949100
649.000000	24.809500
648.000000	24.692800
647.000000	24.543400
646.000000	24.393300
645.000000	24.304400
644.000000	24.178100
643.000000	24.057200
642.000000	23.956900
641.000000	23.824200
640.000000	23.722700
639.000000	23.616200
638.000000	23.511700
637.000000	23.419600
636.000000	23.321900
635.000000	23.257600
634.000000	23.158700
633.000000	23.018500
632.000000	22.930300
631.000000	22.856000
630.000000	22.739600
629.000000	22.638000
628.000000	22.549000
627.000000	22.474800
626.000000	22.400100
625.000000	22.305700
624.000000	22.223900
623.000000	22.161000
622.000000	22.104000
621.000000	22.030000
620.000000	21.979300
619.000000	21.899600
618.000000	21.804700
617.000000	21.756100
616.000000	21.671000
615.000000	21.617700
614.000000	21.559000
613.000000	21.513300
612.000000	21.470200
611.000000	21.393900
610.000000	21.313400
609.000000	21.262400
608.000000	21.203100
607.000000	21.140100
606.000000	21.063200
605.000000	21.024700
604.000000	21.011600
603.000000	20.957500
602.000000	20.904900
601.000000	20.900800
600.000000	20.810700
599.000000	20.736300
598.000000	20.693500
597.000000	20.654600
596.000000	20.619400
595.000000	20.564800
594.000000	20.506100
593.000000	20.446200
592.000000	20.395300
591.000000	20.349500
590.000000	20.285900
589.000000	20.232400
588.000000	20.200300
587.000000	20.110900
586.000000	20.086700
585.000000	20.035300
584.000000	19.963700
583.000000	19.925700
582.000000	19.883300
581.000000	19.813800
580.000000	19.723600
579.000000	19.687000
578.000000	19.640400
577.000000	19.585000
576.000000	19.520100
575.000000	19.439600
574.000000	19.399300
573.000000	19.301500
572.000000	19.246700
571.000000	19.198900
570.000000	19.123300
569.000000	19.055000
568.000000	18.987400
567.000000	18.908000
566.000000	18.841300
565.000000	18.766200
564.000000	18.692400
563.000000	18.603600
562.000000	18.537300
561.000000	18.440800
560.000000	18.350200
559.000000	18.224700
558.000000	18.124300
557.000000	18.059700
556.000000	17.969100
555.000000	17.863900
554.000000	17.768500
553.000000	17.661400
552.000000	17.581500
551.000000	17.461100
550.000000	17.349900
549.000000	17.228500
548.000000	17.139600
547.000000	17.029700
546.000000	16.937300
545.000000	16.821000
544.000000	16.700600
543.000000	16.582500
542.000000	16.429000
541.000000	16.323000
540.000000	16.188900
539.000000	16.059300
538.000000	15.933400
537.000000	15.797800
536.000000	15.677200
535.000000	15.545200
534.000000	15.390800
533.000000	15.243000
532.000000	15.113700
531.000000	14.982000
530.000000	14.824400
529.000000	14.678200
528.000000	14.538500
527.000000	14.401900
526.000000	14.245700
525.000000	14.073900
524.000000	13.913500
523.000000	13.755000
522.000000	13.604200
521.000000	13.450500
520.000000	13.300200
519.000000	13.144300
518.000000	12.968400
517.000000	12.795300
516.000000	12.652200
515.000000	12.478500
514.000000	12.337500
513.000000	12.198400
512.000000	12.048400
511.000000	11.857700
510.000000	11.722700
509.000000	11.583100
508.000000	11.477800
507.000000	11.326900
506.000000	11.186300
505.000000	11.043000
504.000000	10.959100
503.000000	10.829600
502.000000	10.706200
501.000000	10.560400
500.000000	10.486000
499.000000	10.359400
498.000000	10.242800
497.000000	10.154900
496.000000	10.053600
495.000000	9.963700
494.000000	9.903400
493.000000	9.777900
492.000000	9.722900
491.000000	9.642900
490.000000	9.535200
489.000000	9.476100
488.000000	9.399900
487.000000	9.332600
486.000000	9.254400
485.000000	9.192700
484.000000	9.137200
483.000000	9.085100
482.000000	9.006000
481.000000	8.932300
480.000000	8.853900
479.000000	8.815400
478.000000	8.740300
477.000000	8.667000
476.000000	8.600500
475.000000	8.556200
474.000000	8.499600
473.000000	8.434300
472.000000	8.361600
471.000000	8.317500
470.000000	8.229400
469.000000	8.181100
468.000000	8.130300
467.000000	8.089000
466.000000	8.039100
465.000000	8.013400
464.000000	7.970300
463.000000	7.915300
462.000000	7.857700
461.000000	7.842900
460.000000	7.780000
459.000000	7.768400
458.000000	7.724200
457.000000	7.715800
456.000000	7.628100
455.000000	7.636300
454.000000	7.589800
453.000000	7.548100
452.000000	7.523100
451.000000	7.505100
450.000000	7.473100
449.000000	7.428100
448.000000	7.417400
447.000000	7.372900
446.000000	7.337200
445.000000	7.303700
444.000000	7.262000
443.000000	7.253600
442.000000	7.217300
441.000000	7.168600
440.000000	7.150900
439.000000	7.100300
438.000000	7.087900
437.000000	7.040200
436.000000	7.028600
435.000000	6.998500
434.000000	6.951400
433.000000	6.910000
432.000000	6.888200
431.000000	6.855700
430.000000	6.842800
429.000000	6.765300
428.000000	6.756500
427.000000	6.722800
426.000000	6.704400
425.000000	6.689700
424.000000	6.648400
423.000000	6.592700
422.000000	6.607400
421.000000	6.567400
420.000000	6.523700
419.000000	6.508600
418.000000	6.471100
417.000000	6.447000
416.000000	6.388000
415.000000	6.363400
414.000000	6.324800
413.000000	6.305700
412.000000	6.259500
411.000000	6.229700
410.000000	6.203800
409.000000	6.140300
408.000000	6.108500
407.000000	6.092100
406.000000	6.022300
405.000000	5.991000
404.000000	5.961900
403.000000	5.929000
402.000000	5.892300
401.000000	5.845700
400.000000	5.791300
399.000000	5.735600
398.000000	5.698800
397.000000	5.646500
396.000000	5.606700
395.000000	5.564100
394.000000	5.529900
393.000000	5.484400
392.000000	5.436600
391.000000	5.381800
390.000000	5.325000
389.000000	5.263700
388.000000	5.188500
387.000000	5.137000
386.000000	5.108500
385.000000	5.063500
384.000000	5.006900
383.000000	4.953300
382.000000	4.953000
381.000000	4.959000
380.000000	4.877800
379.000000	4.827500
378.000000	4.761400
377.000000	4.723300
376.000000	4.725000
375.000000	4.587600
374.000000	4.393900
373.000000	4.559000
372.000000	4.193700
371.000000	4.081800
370.000000	4.202500
369.000000	4.053300
368.000000	4.174000
367.000000	4.211500
366.000000	4.164600
365.000000	3.943300
364.000000	4.111300
363.000000	4.286300
362.000000	4.286000
361.000000	3.967900
360.000000	4.054100
359.000000	4.109800
358.000000	4.162600
357.000000	4.338900
356.000000	4.227400
355.000000	4.196400
354.000000	4.331400
353.000000	4.057200
352.000000	4.218500
351.000000	4.103000
350.000000	4.051800
349.000000	4.339000
348.000000	4.022100
347.000000	3.855000
346.000000	3.895200
345.000000	3.985400
344.000000	4.306800
343.000000	3.865000
342.000000	3.794400
341.000000	4.142500
340.000000	4.075300
339.000000	4.331300
338.000000	4.212700
337.000000	3.723400
336.000000	3.901600
335.000000	4.291800
334.000000	3.968500
333.000000	3.854700
332.000000	4.028600
331.000000	4.396600
330.000000	4.411900
329.000000	4.000900
328.000000	4.527700
327.000000	4.527400
326.000000	4.081900
325.000000	4.133700
324.000000	4.506500
323.000000	4.061500
322.000000	4.129600
321.000000	4.663200
320.000000	4.356700
319.000000	4.641900
318.000000	4.639800
317.000000	4.473900
316.000000	4.179200
315.000000	3.923500
314.000000	3.969300
313.000000	3.984800
312.000000	3.963900
311.000000	3.911800
310.000000	3.961000
309.000000	4.006200
308.000000	4.023300
307.000000	4.001000
306.000000	3.942900
305.000000	3.948300
304.000000	3.940900
303.000000	3.971400
302.000000	4.060200
301.000000	4.127300
300.000000	4.056500
299.000000	4.042300
298.000000	4.068500
297.000000	4.007900
296.000000	3.969100
295.000000	3.948400
294.000000	4.016300
293.000000	4.125900
292.000000	4.092100
291.000000	4.035700
290.000000	4.013800
289.000000	4.021400
288.000000	3.997000
287.000000	3.972200
286.000000	4.054900
285.000000	4.007000
284.000000	4.013500
283.000000	4.048500
282.000000	4.082600
281.000000	4.064200
280.000000	4.123500
279.000000	4.112000
278.000000	4.060700
277.000000	4.095100
276.000000	4.126100
275.000000	4.042000
274.000000	4.090000
273.000000	4.149500
272.000000	4.160400
271.000000	4.148900
270.000000	4.142000
269.000000	4.195700
268.000000	4.196500
267.000000	4.136400
266.000000	4.109400
265.000000	4.172800
264.000000	4.329700
263.000000	4.345600
262.000000	4.304800
261.000000	4.324100
260.000000	4.335700
259.000000	4.301300
258.000000	4.291900
257.000000	4.257100
256.000000	4.318800
255.000000	4.375200
254.000000	4.355100
253.000000	4.372200
252.000000	4.392100
251.000000	4.379900
250.000000	4.395200
