PE UV       SUBTECH     SPECTRUM    ASCII       PEDS        4.00        
   -1
CICIMAUCR0141-1.Sample.ASC
24/04/04
12:21:23.00
24/04/04
12:21:23.00
Vinicio Soto Monge
C. kalinini
250,000000
1
Lambda 1050
1050L1511233
PerkinElmer UV WinLab 6.3.2.0749 / 2.02.05 Lambda 900 UV/VIS/NIR, Aug  7 2015 09:38:08

0
0
3350/servo 860,8/2
0
0
UV/VIS
1
1
1
DoubleDePol,CommonBeamDepol,RBeamAtt,SBeamAtt,60mm sphere, WB InGaAs Detector
0
0
0
0
Program
Program
3350/servo 860,8/2
3350/0,2 860,8/0,2
3350/0,2 860,8/0,2
0
15.00
 
 
 
0
 
860,8
319,2
860,8
Front
100
on
S:100 R:100
0
0
0
0
 
0
 
 
 
0
 
 
0
0
0
0
0
 
 
 
 
0
0


0
0
#HDR
-1
-1
#GR
nm
%R
1.0
0.0
2500,000000
-1,000000
2251
8
80,492200
5,685100
#DATA
2500.000000	6.635500
2499.000000	6.665900
2498.000000	6.638100
2497.000000	6.629700
2496.000000	6.621000
2495.000000	6.503200
2494.000000	6.547900
2493.000000	6.493200
2492.000000	6.572400
2491.000000	6.585400
2490.000000	6.573900
2489.000000	6.581500
2488.000000	6.626000
2487.000000	6.557300
2486.000000	6.523200
2485.000000	6.597300
2484.000000	6.664800
2483.000000	6.667700
2482.000000	6.631500
2481.000000	6.605500
2480.000000	6.615800
2479.000000	6.693400
2478.000000	6.721000
2477.000000	6.689600
2476.000000	6.739800
2475.000000	6.728700
2474.000000	6.767600
2473.000000	6.742900
2472.000000	6.849100
2471.000000	6.791800
2470.000000	6.788600
2469.000000	6.869700
2468.000000	6.896100
2467.000000	6.913300
2466.000000	6.942900
2465.000000	6.964900
2464.000000	6.979500
2463.000000	7.032300
2462.000000	7.095500
2461.000000	7.144300
2460.000000	7.163700
2459.000000	7.196700
2458.000000	7.241900
2457.000000	7.306200
2456.000000	7.309800
2455.000000	7.392300
2454.000000	7.441900
2453.000000	7.493300
2452.000000	7.546000
2451.000000	7.603300
2450.000000	7.680200
2449.000000	7.738300
2448.000000	7.810100
2447.000000	7.873300
2446.000000	7.937500
2445.000000	7.987400
2444.000000	8.044700
2443.000000	8.116800
2442.000000	8.186500
2441.000000	8.240900
2440.000000	8.325200
2439.000000	8.388800
2438.000000	8.459100
2437.000000	8.532500
2436.000000	8.615200
2435.000000	8.679900
2434.000000	8.761000
2433.000000	8.823700
2432.000000	8.868900
2431.000000	8.943900
2430.000000	9.000900
2429.000000	9.069800
2428.000000	9.150200
2427.000000	9.214700
2426.000000	9.266800
2425.000000	9.336300
2424.000000	9.395800
2423.000000	9.451400
2422.000000	9.518600
2421.000000	9.579500
2420.000000	9.635400
2419.000000	9.696500
2418.000000	9.738000
2417.000000	9.793800
2416.000000	9.847500
2415.000000	9.903100
2414.000000	9.939800
2413.000000	9.984800
2412.000000	10.033600
2411.000000	10.069700
2410.000000	10.081800
2409.000000	10.125800
2408.000000	10.180900
2407.000000	10.207200
2406.000000	10.244000
2405.000000	10.267700
2404.000000	10.304600
2403.000000	10.330300
2402.000000	10.344800
2401.000000	10.377300
2400.000000	10.407900
2399.000000	10.425600
2398.000000	10.452600
2397.000000	10.473000
2396.000000	10.493700
2395.000000	10.509600
2394.000000	10.533200
2393.000000	10.552300
2392.000000	10.562300
2391.000000	10.575600
2390.000000	10.590400
2389.000000	10.601800
2388.000000	10.611600
2387.000000	10.626400
2386.000000	10.625300
2385.000000	10.623000
2384.000000	10.628500
2383.000000	10.627800
2382.000000	10.624000
2381.000000	10.627000
2380.000000	10.628700
2379.000000	10.625900
2378.000000	10.614700
2377.000000	10.606800
2376.000000	10.604500
2375.000000	10.591000
2374.000000	10.576700
2373.000000	10.564700
2372.000000	10.562700
2371.000000	10.564100
2370.000000	10.564900
2369.000000	10.555400
2368.000000	10.542700
2367.000000	10.540200
2366.000000	10.537400
2365.000000	10.529900
2364.000000	10.531900
2363.000000	10.532200
2362.000000	10.528700
2361.000000	10.522500
2360.000000	10.524900
2359.000000	10.520300
2358.000000	10.502700
2357.000000	10.490900
2356.000000	10.487200
2355.000000	10.481300
2354.000000	10.470200
2353.000000	10.449100
2352.000000	10.425300
2351.000000	10.415300
2350.000000	10.397100
2349.000000	10.382000
2348.000000	10.370600
2347.000000	10.353300
2346.000000	10.347900
2345.000000	10.350600
2344.000000	10.337500
2343.000000	10.316100
2342.000000	10.303500
2341.000000	10.306500
2340.000000	10.294000
2339.000000	10.285200
2338.000000	10.270200
2337.000000	10.255900
2336.000000	10.265000
2335.000000	10.249100
2334.000000	10.259200
2333.000000	10.265900
2332.000000	10.262100
2331.000000	10.263700
2330.000000	10.268000
2329.000000	10.280900
2328.000000	10.279700
2327.000000	10.273700
2326.000000	10.291300
2325.000000	10.295900
2324.000000	10.309000
2323.000000	10.311000
2322.000000	10.306400
2321.000000	10.297300
2320.000000	10.285200
2319.000000	10.285900
2318.000000	10.262000
2317.000000	10.241200
2316.000000	10.202500
2315.000000	10.189300
2314.000000	10.158500
2313.000000	10.124700
2312.000000	10.101100
2311.000000	10.077600
2310.000000	10.038200
2309.000000	9.990000
2308.000000	9.955100
2307.000000	9.928100
2306.000000	9.882300
2305.000000	9.848200
2304.000000	9.799700
2303.000000	9.767200
2302.000000	9.752300
2301.000000	9.728900
2300.000000	9.703800
2299.000000	9.681200
2298.000000	9.655000
2297.000000	9.637300
2296.000000	9.607400
2295.000000	9.603400
2294.000000	9.578100
2293.000000	9.564500
2292.000000	9.562400
2291.000000	9.553800
2290.000000	9.529800
2289.000000	9.513200
2288.000000	9.527800
2287.000000	9.508500
2286.000000	9.501600
2285.000000	9.495900
2284.000000	9.466900
2283.000000	9.473700
2282.000000	9.464600
2281.000000	9.447000
2280.000000	9.416800
2279.000000	9.404100
2278.000000	9.396800
2277.000000	9.387500
2276.000000	9.365600
2275.000000	9.341800
2274.000000	9.305000
2273.000000	9.283000
2272.000000	9.257200
2271.000000	9.236700
2270.000000	9.223700
2269.000000	9.209200
2268.000000	9.176100
2267.000000	9.162800
2266.000000	9.136300
2265.000000	9.130500
2264.000000	9.141500
2263.000000	9.146300
2262.000000	9.150900
2261.000000	9.182700
2260.000000	9.174500
2259.000000	9.207500
2258.000000	9.246700
2257.000000	9.267900
2256.000000	9.298800
2255.000000	9.356200
2254.000000	9.396100
2253.000000	9.458900
2252.000000	9.489800
2251.000000	9.556100
2250.000000	9.593000
2249.000000	9.660900
2248.000000	9.693000
2247.000000	9.745400
2246.000000	9.771300
2245.000000	9.819100
2244.000000	9.879400
2243.000000	9.889400
2242.000000	9.934900
2241.000000	9.961000
2240.000000	9.975800
2239.000000	9.997400
2238.000000	10.007500
2237.000000	10.013400
2236.000000	10.016000
2235.000000	9.987900
2234.000000	9.979500
2233.000000	9.988000
2232.000000	9.925900
2231.000000	9.906400
2230.000000	9.856500
2229.000000	9.806900
2228.000000	9.773800
2227.000000	9.705600
2226.000000	9.615800
2225.000000	9.554500
2224.000000	9.496600
2223.000000	9.406500
2222.000000	9.287700
2221.000000	9.233100
2220.000000	9.152600
2219.000000	9.066000
2218.000000	8.978700
2217.000000	8.907900
2216.000000	8.824600
2215.000000	8.749500
2214.000000	8.671000
2213.000000	8.648800
2212.000000	8.595500
2211.000000	8.560600
2210.000000	8.549500
2209.000000	8.549200
2208.000000	8.545800
2207.000000	8.606700
2206.000000	8.642400
2205.000000	8.704200
2204.000000	8.795400
2203.000000	8.851300
2202.000000	8.968900
2201.000000	9.080000
2200.000000	9.186600
2199.000000	9.320700
2198.000000	9.441500
2197.000000	9.547900
2196.000000	9.667000
2195.000000	9.807500
2194.000000	9.932900
2193.000000	10.014000
2192.000000	10.104500
2191.000000	10.230400
2190.000000	10.328900
2189.000000	10.401700
2188.000000	10.463400
2187.000000	10.543800
2186.000000	10.607400
2185.000000	10.655800
2184.000000	10.689400
2183.000000	10.731000
2182.000000	10.774800
2181.000000	10.805000
2180.000000	10.840800
2179.000000	10.854000
2178.000000	10.882100
2177.000000	10.897600
2176.000000	10.920100
2175.000000	10.951400
2174.000000	10.987100
2173.000000	11.006600
2172.000000	11.039000
2171.000000	11.077300
2170.000000	11.104800
2169.000000	11.136300
2168.000000	11.152000
2167.000000	11.192000
2166.000000	11.248100
2165.000000	11.274300
2164.000000	11.327600
2163.000000	11.379800
2162.000000	11.442400
2161.000000	11.487000
2160.000000	11.532000
2159.000000	11.595200
2158.000000	11.660000
2157.000000	11.721900
2156.000000	11.789400
2155.000000	11.862400
2154.000000	11.938800
2153.000000	12.028700
2152.000000	12.112600
2151.000000	12.182400
2150.000000	12.269200
2149.000000	12.339800
2148.000000	12.435300
2147.000000	12.522800
2146.000000	12.610700
2145.000000	12.674800
2144.000000	12.762600
2143.000000	12.865500
2142.000000	12.940500
2141.000000	13.007100
2140.000000	13.081800
2139.000000	13.158200
2138.000000	13.243300
2137.000000	13.320400
2136.000000	13.388300
2135.000000	13.469700
2134.000000	13.530400
2133.000000	13.586400
2132.000000	13.652700
2131.000000	13.710300
2130.000000	13.773000
2129.000000	13.827000
2128.000000	13.868300
2127.000000	13.919400
2126.000000	13.964000
2125.000000	14.010200
2124.000000	14.047900
2123.000000	14.088300
2122.000000	14.131900
2121.000000	14.158800
2120.000000	14.183800
2119.000000	14.212700
2118.000000	14.241700
2117.000000	14.259400
2116.000000	14.278600
2115.000000	14.307400
2114.000000	14.323300
2113.000000	14.339500
2112.000000	14.350600
2111.000000	14.362600
2110.000000	14.367700
2109.000000	14.373100
2108.000000	14.382200
2107.000000	14.386800
2106.000000	14.392100
2105.000000	14.387000
2104.000000	14.388700
2103.000000	14.400200
2102.000000	14.411800
2101.000000	14.401600
2100.000000	14.402100
2099.000000	14.413900
2098.000000	14.421600
2097.000000	14.427900
2096.000000	14.421700
2095.000000	14.417400
2094.000000	14.427400
2093.000000	14.435800
2092.000000	14.446500
2091.000000	14.459000
2090.000000	14.468500
2089.000000	14.470700
2088.000000	14.468600
2087.000000	14.472900
2086.000000	14.469400
2085.000000	14.462400
2084.000000	14.461800
2083.000000	14.440700
2082.000000	14.415200
2081.000000	14.406200
2080.000000	14.383700
2079.000000	14.351000
2078.000000	14.301800
2077.000000	14.256000
2076.000000	14.207600
2075.000000	14.156100
2074.000000	14.091000
2073.000000	14.020900
2072.000000	13.964700
2071.000000	13.903100
2070.000000	13.816300
2069.000000	13.737800
2068.000000	13.647900
2067.000000	13.579300
2066.000000	13.507100
2065.000000	13.410600
2064.000000	13.322900
2063.000000	13.246800
2062.000000	13.171500
2061.000000	13.088500
2060.000000	13.029400
2059.000000	12.955600
2058.000000	12.899700
2057.000000	12.863800
2056.000000	12.830400
2055.000000	12.797800
2054.000000	12.772700
2053.000000	12.758300
2052.000000	12.780700
2051.000000	12.808800
2050.000000	12.836100
2049.000000	12.888400
2048.000000	12.952400
2047.000000	13.020700
2046.000000	13.102800
2045.000000	13.176000
2044.000000	13.277500
2043.000000	13.374800
2042.000000	13.470200
2041.000000	13.555700
2040.000000	13.661500
2039.000000	13.753300
2038.000000	13.839300
2037.000000	13.936800
2036.000000	14.031600
2035.000000	14.119100
2034.000000	14.178400
2033.000000	14.252000
2032.000000	14.345700
2031.000000	14.400900
2030.000000	14.476800
2029.000000	14.508500
2028.000000	14.586600
2027.000000	14.663700
2026.000000	14.718100
2025.000000	14.756800
2024.000000	14.798700
2023.000000	14.855600
2022.000000	14.908400
2021.000000	14.957100
2020.000000	14.961800
2019.000000	15.017400
2018.000000	15.049600
2017.000000	15.083600
2016.000000	15.134500
2015.000000	15.164900
2014.000000	15.174400
2013.000000	15.178500
2012.000000	15.217800
2011.000000	15.220300
2010.000000	15.231800
2009.000000	15.223900
2008.000000	15.229000
2007.000000	15.223400
2006.000000	15.217300
2005.000000	15.214700
2004.000000	15.204600
2003.000000	15.211100
2002.000000	15.174500
2001.000000	15.151700
2000.000000	15.129300
1999.000000	15.105500
1998.000000	15.075900
1997.000000	15.021100
1996.000000	14.990400
1995.000000	14.946400
1994.000000	14.917500
1993.000000	14.866500
1992.000000	14.832000
1991.000000	14.787800
1990.000000	14.728100
1989.000000	14.684000
1988.000000	14.651300
1987.000000	14.582400
1986.000000	14.535000
1985.000000	14.476600
1984.000000	14.426500
1983.000000	14.369500
1982.000000	14.321200
1981.000000	14.263400
1980.000000	14.208200
1979.000000	14.151300
1978.000000	14.108000
1977.000000	14.029400
1976.000000	13.958600
1975.000000	13.952500
1974.000000	13.869100
1973.000000	13.831800
1972.000000	13.797100
1971.000000	13.745600
1970.000000	13.681900
1969.000000	13.645100
1968.000000	13.587500
1967.000000	13.531900
1966.000000	13.470300
1965.000000	13.427200
1964.000000	13.353500
1963.000000	13.316600
1962.000000	13.256600
1961.000000	13.192200
1960.000000	13.137400
1959.000000	13.074500
1958.000000	13.006400
1957.000000	12.953400
1956.000000	12.916300
1955.000000	12.836300
1954.000000	12.787000
1953.000000	12.738300
1952.000000	12.673500
1951.000000	12.632600
1950.000000	12.584300
1949.000000	12.512700
1948.000000	12.481800
1947.000000	12.428100
1946.000000	12.389000
1945.000000	12.343700
1944.000000	12.296200
1943.000000	12.246700
1942.000000	12.221500
1941.000000	12.212400
1940.000000	12.178500
1939.000000	12.166300
1938.000000	12.147300
1937.000000	12.112600
1936.000000	12.118800
1935.000000	12.106000
1934.000000	12.123400
1933.000000	12.126600
1932.000000	12.144600
1931.000000	12.164000
1930.000000	12.202900
1929.000000	12.241400
1928.000000	12.287000
1927.000000	12.332900
1926.000000	12.400400
1925.000000	12.466200
1924.000000	12.531300
1923.000000	12.611500
1922.000000	12.703600
1921.000000	12.828700
1920.000000	12.956100
1919.000000	13.054500
1918.000000	13.171800
1917.000000	13.296800
1916.000000	13.440500
1915.000000	13.592700
1914.000000	13.766700
1913.000000	13.993600
1912.000000	14.200000
1911.000000	14.399800
1910.000000	14.621000
1909.000000	14.823800
1908.000000	15.041500
1907.000000	15.325900
1906.000000	15.649200
1905.000000	15.991100
1904.000000	16.342000
1903.000000	16.660700
1902.000000	17.013100
1901.000000	17.372100
1900.000000	17.771800
1899.000000	18.220300
1898.000000	18.652300
1897.000000	19.087200
1896.000000	19.476800
1895.000000	19.862500
1894.000000	20.299500
1893.000000	20.756300
1892.000000	21.229000
1891.000000	21.730900
1890.000000	22.192200
1889.000000	22.621400
1888.000000	23.071800
1887.000000	23.473500
1886.000000	23.886500
1885.000000	24.293100
1884.000000	24.692400
1883.000000	25.067900
1882.000000	25.423000
1881.000000	25.756100
1880.000000	26.068000
1879.000000	26.370100
1878.000000	26.679000
1877.000000	26.954500
1876.000000	27.223700
1875.000000	27.502000
1874.000000	27.743400
1873.000000	27.982300
1872.000000	28.200000
1871.000000	28.376900
1870.000000	28.536900
1869.000000	28.685000
1868.000000	28.823100
1867.000000	28.915200
1866.000000	28.994900
1865.000000	29.085800
1864.000000	29.173000
1863.000000	29.268000
1862.000000	29.387400
1861.000000	29.498200
1860.000000	29.594000
1859.000000	29.663700
1858.000000	29.734800
1857.000000	29.787100
1856.000000	29.849000
1855.000000	29.900500
1854.000000	29.933800
1853.000000	29.950700
1852.000000	29.978900
1851.000000	30.033500
1850.000000	30.096400
1849.000000	30.153800
1848.000000	30.157200
1847.000000	30.142200
1846.000000	30.120000
1845.000000	30.105300
1844.000000	30.099800
1843.000000	30.124200
1842.000000	30.157100
1841.000000	30.160900
1840.000000	30.144900
1839.000000	30.122400
1838.000000	30.103300
1837.000000	30.078800
1836.000000	30.041000
1835.000000	29.994300
1834.000000	29.957300
1833.000000	29.926000
1832.000000	29.894600
1831.000000	29.898600
1830.000000	29.897300
1829.000000	29.883900
1828.000000	29.843000
1827.000000	29.811400
1826.000000	29.806700
1825.000000	29.795700
1824.000000	29.791400
1823.000000	29.809500
1822.000000	29.861300
1821.000000	29.882300
1820.000000	29.873400
1819.000000	29.837800
1818.000000	29.824800
1817.000000	29.838000
1816.000000	29.845000
1815.000000	29.830100
1814.000000	29.808300
1813.000000	29.812200
1812.000000	29.820000
1811.000000	29.782100
1810.000000	29.740300
1809.000000	29.725600
1808.000000	29.727700
1807.000000	29.718500
1806.000000	29.693100
1805.000000	29.645300
1804.000000	29.630900
1803.000000	29.631400
1802.000000	29.631900
1801.000000	29.608400
1800.000000	29.560400
1799.000000	29.527600
1798.000000	29.513700
1797.000000	29.498200
1796.000000	29.478400
1795.000000	29.451600
1794.000000	29.428200
1793.000000	29.398100
1792.000000	29.379200
1791.000000	29.365700
1790.000000	29.345900
1789.000000	29.332400
1788.000000	29.327200
1787.000000	29.326100
1786.000000	29.316600
1785.000000	29.308000
1784.000000	29.286400
1783.000000	29.264600
1782.000000	29.241400
1781.000000	29.217100
1780.000000	29.189200
1779.000000	29.163200
1778.000000	29.107300
1777.000000	29.059300
1776.000000	29.020700
1775.000000	28.971300
1774.000000	28.909700
1773.000000	28.863000
1772.000000	28.814200
1771.000000	28.756900
1770.000000	28.695400
1769.000000	28.632700
1768.000000	28.574400
1767.000000	28.517300
1766.000000	28.464600
1765.000000	28.404400
1764.000000	28.370500
1763.000000	28.339000
1762.000000	28.303200
1761.000000	28.266500
1760.000000	28.250800
1759.000000	28.248300
1758.000000	28.211300
1757.000000	28.189000
1756.000000	28.178300
1755.000000	28.160000
1754.000000	28.137600
1753.000000	28.124400
1752.000000	28.113100
1751.000000	28.065200
1750.000000	28.038100
1749.000000	27.997400
1748.000000	27.964000
1747.000000	27.909900
1746.000000	27.863700
1745.000000	27.787600
1744.000000	27.727200
1743.000000	27.672300
1742.000000	27.589500
1741.000000	27.526100
1740.000000	27.453300
1739.000000	27.373700
1738.000000	27.338200
1737.000000	27.283000
1736.000000	27.228400
1735.000000	27.178400
1734.000000	27.139100
1733.000000	27.103100
1732.000000	27.070200
1731.000000	27.010800
1730.000000	26.968600
1729.000000	26.961400
1728.000000	26.926700
1727.000000	26.897400
1726.000000	26.882800
1725.000000	26.883900
1724.000000	26.903300
1723.000000	26.924900
1722.000000	27.021900
1721.000000	27.117400
1720.000000	27.258500
1719.000000	27.453700
1718.000000	27.646100
1717.000000	27.836600
1716.000000	28.026700
1715.000000	28.225400
1714.000000	28.417000
1713.000000	28.579300
1712.000000	28.747000
1711.000000	28.897600
1710.000000	29.006500
1709.000000	29.127800
1708.000000	29.249000
1707.000000	29.324600
1706.000000	29.412400
1705.000000	29.461700
1704.000000	29.517700
1703.000000	29.567200
1702.000000	29.597000
1701.000000	29.628700
1700.000000	29.651200
1699.000000	29.676400
1698.000000	29.696800
1697.000000	29.710000
1696.000000	29.709500
1695.000000	29.690100
1694.000000	29.663000
1693.000000	29.612100
1692.000000	29.575500
1691.000000	29.523400
1690.000000	29.506200
1689.000000	29.487900
1688.000000	29.498000
1687.000000	29.558100
1686.000000	29.674300
1685.000000	29.827400
1684.000000	29.995500
1683.000000	30.190000
1682.000000	30.403300
1681.000000	30.605700
1680.000000	30.801100
1679.000000	31.000000
1678.000000	31.156500
1677.000000	31.335100
1676.000000	31.518400
1675.000000	31.652700
1674.000000	31.796200
1673.000000	31.956300
1672.000000	32.101800
1671.000000	32.256800
1670.000000	32.403400
1669.000000	32.567900
1668.000000	32.704800
1667.000000	32.842300
1666.000000	32.957100
1665.000000	33.083300
1664.000000	33.190100
1663.000000	33.325600
1662.000000	33.416700
1661.000000	33.526800
1660.000000	33.618400
1659.000000	33.703200
1658.000000	33.767500
1657.000000	33.826100
1656.000000	33.884500
1655.000000	33.928500
1654.000000	33.955900
1653.000000	33.945800
1652.000000	33.971500
1651.000000	33.973300
1650.000000	33.978800
1649.000000	33.970400
1648.000000	33.965400
1647.000000	33.948700
1646.000000	33.933200
1645.000000	33.906800
1644.000000	33.876800
1643.000000	33.865200
1642.000000	33.844000
1641.000000	33.836800
1640.000000	33.817700
1639.000000	33.796200
1638.000000	33.783200
1637.000000	33.759100
1636.000000	33.727200
1635.000000	33.711300
1634.000000	33.679500
1633.000000	33.655300
1632.000000	33.607800
1631.000000	33.576400
1630.000000	33.545600
1629.000000	33.514100
1628.000000	33.490500
1627.000000	33.446700
1626.000000	33.406700
1625.000000	33.360300
1624.000000	33.333000
1623.000000	33.305900
1622.000000	33.275800
1621.000000	33.273200
1620.000000	33.236400
1619.000000	33.218100
1618.000000	33.193100
1617.000000	33.178800
1616.000000	33.157800
1615.000000	33.124200
1614.000000	33.116600
1613.000000	33.097600
1612.000000	33.060000
1611.000000	33.023000
1610.000000	32.982000
1609.000000	32.938300
1608.000000	32.897400
1607.000000	32.862000
1606.000000	32.815700
1605.000000	32.763300
1604.000000	32.700700
1603.000000	32.651300
1602.000000	32.604800
1601.000000	32.558100
1600.000000	32.506700
1599.000000	32.468600
1598.000000	32.417100
1597.000000	32.371200
1596.000000	32.334500
1595.000000	32.290700
1594.000000	32.245100
1593.000000	32.210000
1592.000000	32.181700
1591.000000	32.147400
1590.000000	32.121600
1589.000000	32.091300
1588.000000	32.055000
1587.000000	32.016900
1586.000000	31.987000
1585.000000	31.969600
1584.000000	31.937000
1583.000000	31.913100
1582.000000	31.891000
1581.000000	31.864500
1580.000000	31.846900
1579.000000	31.820100
1578.000000	31.801600
1577.000000	31.788600
1576.000000	31.770700
1575.000000	31.763600
1574.000000	31.760300
1573.000000	31.772300
1572.000000	31.772000
1571.000000	31.761800
1570.000000	31.766400
1569.000000	31.782300
1568.000000	31.805900
1567.000000	31.809700
1566.000000	31.828500
1565.000000	31.838200
1564.000000	31.837700
1563.000000	31.846100
1562.000000	31.846400
1561.000000	31.828200
1560.000000	31.803900
1559.000000	31.780900
1558.000000	31.747100
1557.000000	31.699900
1556.000000	31.657800
1555.000000	31.593900
1554.000000	31.525000
1553.000000	31.469100
1552.000000	31.396700
1551.000000	31.314800
1550.000000	31.233900
1549.000000	31.151100
1548.000000	31.052400
1547.000000	30.964800
1546.000000	30.884800
1545.000000	30.800900
1544.000000	30.743600
1543.000000	30.687900
1542.000000	30.616100
1541.000000	30.558800
1540.000000	30.519000
1539.000000	30.469300
1538.000000	30.431300
1537.000000	30.391700
1536.000000	30.343300
1535.000000	30.277300
1534.000000	30.224800
1533.000000	30.173200
1532.000000	30.113800
1531.000000	30.055800
1530.000000	30.004700
1529.000000	29.945800
1528.000000	29.887200
1527.000000	29.835000
1526.000000	29.785400
1525.000000	29.738800
1524.000000	29.683600
1523.000000	29.632500
1522.000000	29.575800
1521.000000	29.522100
1520.000000	29.467600
1519.000000	29.428900
1518.000000	29.381500
1517.000000	29.321600
1516.000000	29.271800
1515.000000	29.229100
1514.000000	29.184300
1513.000000	29.142700
1512.000000	29.108200
1511.000000	29.047800
1510.000000	29.002900
1509.000000	28.954400
1508.000000	28.916000
1507.000000	28.888000
1506.000000	28.858800
1505.000000	28.832100
1504.000000	28.795600
1503.000000	28.757900
1502.000000	28.743800
1501.000000	28.734100
1500.000000	28.714100
1499.000000	28.704400
1498.000000	28.708200
1497.000000	28.719100
1496.000000	28.715900
1495.000000	28.729200
1494.000000	28.743900
1493.000000	28.770900
1492.000000	28.795900
1491.000000	28.834200
1490.000000	28.867300
1489.000000	28.910100
1488.000000	28.954100
1487.000000	28.990100
1486.000000	29.026900
1485.000000	29.064800
1484.000000	29.095000
1483.000000	29.142400
1482.000000	29.165700
1481.000000	29.209200
1480.000000	29.257800
1479.000000	29.281300
1478.000000	29.314600
1477.000000	29.352000
1476.000000	29.383900
1475.000000	29.445900
1474.000000	29.497300
1473.000000	29.563000
1472.000000	29.630700
1471.000000	29.671600
1470.000000	29.712700
1469.000000	29.773000
1468.000000	29.854100
1467.000000	29.898900
1466.000000	29.966100
1465.000000	30.027300
1464.000000	30.092500
1463.000000	30.155600
1462.000000	30.232100
1461.000000	30.299400
1460.000000	30.364700
1459.000000	30.427300
1458.000000	30.485400
1457.000000	30.562500
1456.000000	30.622200
1455.000000	30.722100
1454.000000	30.775000
1453.000000	30.833800
1452.000000	30.916000
1451.000000	31.005800
1450.000000	31.035400
1449.000000	31.083600
1448.000000	31.143700
1447.000000	31.236500
1446.000000	31.337800
1445.000000	31.382000
1444.000000	31.431300
1443.000000	31.483100
1442.000000	31.601500
1441.000000	31.663600
1440.000000	31.756600
1439.000000	31.842100
1438.000000	31.928200
1437.000000	32.027700
1436.000000	32.122000
1435.000000	32.213100
1434.000000	32.356600
1433.000000	32.465000
1432.000000	32.602200
1431.000000	32.701700
1430.000000	32.823900
1429.000000	32.992200
1428.000000	33.148400
1427.000000	33.290400
1426.000000	33.479900
1425.000000	33.674300
1424.000000	33.874500
1423.000000	34.055600
1422.000000	34.220300
1421.000000	34.450200
1420.000000	34.738100
1419.000000	34.992800
1418.000000	35.204800
1417.000000	35.409600
1416.000000	35.668000
1415.000000	35.991100
1414.000000	36.303200
1413.000000	36.541800
1412.000000	36.812300
1411.000000	37.110400
1410.000000	37.460900
1409.000000	37.824300
1408.000000	38.128600
1407.000000	38.451900
1406.000000	38.751600
1405.000000	39.077200
1404.000000	39.317300
1403.000000	39.625900
1402.000000	39.948400
1401.000000	40.358300
1400.000000	40.534700
1399.000000	40.668600
1398.000000	40.808800
1397.000000	41.057700
1396.000000	41.295000
1395.000000	41.439500
1394.000000	41.518200
1393.000000	41.626200
1392.000000	41.756900
1391.000000	41.854600
1390.000000	41.972900
1389.000000	42.113900
1388.000000	42.319800
1387.000000	42.357300
1386.000000	42.511000
1385.000000	42.705100
1384.000000	42.940000
1383.000000	43.149700
1382.000000	43.394500
1381.000000	43.671400
1380.000000	43.943100
1379.000000	44.362200
1378.000000	44.796900
1377.000000	45.292000
1376.000000	45.815200
1375.000000	46.336300
1374.000000	46.813100
1373.000000	47.337900
1372.000000	47.808000
1371.000000	48.190800
1370.000000	48.493100
1369.000000	48.766800
1368.000000	49.032500
1367.000000	49.178500
1366.000000	49.349200
1365.000000	49.535600
1364.000000	49.680100
1363.000000	49.777400
1362.000000	49.908900
1361.000000	49.983700
1360.000000	50.014700
1359.000000	50.083000
1358.000000	50.159300
1357.000000	50.267000
1356.000000	50.388100
1355.000000	50.531000
1354.000000	50.660400
1353.000000	50.787500
1352.000000	50.980400
1351.000000	51.171700
1350.000000	51.379700
1349.000000	51.605000
1348.000000	51.838200
1347.000000	52.025700
1346.000000	52.188400
1345.000000	52.411900
1344.000000	52.618400
1343.000000	52.792500
1342.000000	52.973100
1341.000000	53.151500
1340.000000	53.304700
1339.000000	53.475200
1338.000000	53.637000
1337.000000	53.786000
1336.000000	53.928300
1335.000000	54.068100
1334.000000	54.185700
1333.000000	54.304900
1332.000000	54.432200
1331.000000	54.542700
1330.000000	54.625100
1329.000000	54.738300
1328.000000	54.833600
1327.000000	54.913900
1326.000000	54.999400
1325.000000	55.072500
1324.000000	55.140500
1323.000000	55.200000
1322.000000	55.273700
1321.000000	55.338300
1320.000000	55.375100
1319.000000	55.426400
1318.000000	55.479000
1317.000000	55.523800
1316.000000	55.581600
1315.000000	55.629800
1314.000000	55.665700
1313.000000	55.695800
1312.000000	55.721400
1311.000000	55.746600
1310.000000	55.794000
1309.000000	55.829400
1308.000000	55.849100
1307.000000	55.870300
1306.000000	55.884400
1305.000000	55.902800
1304.000000	55.908200
1303.000000	55.907900
1302.000000	55.903600
1301.000000	55.890600
1300.000000	55.889100
1299.000000	55.877800
1298.000000	55.863300
1297.000000	55.861700
1296.000000	55.845200
1295.000000	55.828900
1294.000000	55.804300
1293.000000	55.769200
1292.000000	55.749400
1291.000000	55.733900
1290.000000	55.700300
1289.000000	55.666600
1288.000000	55.629100
1287.000000	55.587200
1286.000000	55.547800
1285.000000	55.509300
1284.000000	55.486000
1283.000000	55.457800
1282.000000	55.424000
1281.000000	55.390100
1280.000000	55.351300
1279.000000	55.319200
1278.000000	55.297100
1277.000000	55.283000
1276.000000	55.278800
1275.000000	55.271400
1274.000000	55.271000
1273.000000	55.274200
1272.000000	55.273700
1271.000000	55.283700
1270.000000	55.290600
1269.000000	55.295600
1268.000000	55.302000
1267.000000	55.312600
1266.000000	55.307500
1265.000000	55.316000
1264.000000	55.309000
1263.000000	55.293900
1262.000000	55.298400
1261.000000	55.287100
1260.000000	55.271500
1259.000000	55.274600
1258.000000	55.270900
1257.000000	55.261400
1256.000000	55.236800
1255.000000	55.205400
1254.000000	55.195000
1253.000000	55.178600
1252.000000	55.141100
1251.000000	55.087200
1250.000000	55.052300
1249.000000	54.999800
1248.000000	54.940700
1247.000000	54.877000
1246.000000	54.814000
1245.000000	54.767800
1244.000000	54.699100
1243.000000	54.656900
1242.000000	54.597600
1241.000000	54.544200
1240.000000	54.489800
1239.000000	54.444600
1238.000000	54.406400
1237.000000	54.363700
1236.000000	54.332600
1235.000000	54.284300
1234.000000	54.255200
1233.000000	54.217500
1232.000000	54.179100
1231.000000	54.130000
1230.000000	54.089600
1229.000000	54.039700
1228.000000	53.974700
1227.000000	53.923000
1226.000000	53.879200
1225.000000	53.823500
1224.000000	53.779800
1223.000000	53.717900
1222.000000	53.668400
1221.000000	53.613000
1220.000000	53.562100
1219.000000	53.503600
1218.000000	53.450000
1217.000000	53.401200
1216.000000	53.348200
1215.000000	53.290700
1214.000000	53.243100
1213.000000	53.183500
1212.000000	53.131300
1211.000000	53.059900
1210.000000	53.021600
1209.000000	52.974500
1208.000000	52.924600
1207.000000	52.851100
1206.000000	52.787200
1205.000000	52.716900
1204.000000	52.662500
1203.000000	52.606600
1202.000000	52.527100
1201.000000	52.481800
1200.000000	52.412700
1199.000000	52.344300
1198.000000	52.273200
1197.000000	52.181200
1196.000000	52.122400
1195.000000	52.051500
1194.000000	51.959700
1193.000000	51.866000
1192.000000	51.784100
1191.000000	51.691300
1190.000000	51.629500
1189.000000	51.568300
1188.000000	51.530100
1187.000000	51.499300
1186.000000	51.505100
1185.000000	51.478900
1184.000000	51.491900
1183.000000	51.512300
1182.000000	51.549700
1181.000000	51.580600
1180.000000	51.627900
1179.000000	51.686300
1178.000000	51.729000
1177.000000	51.788100
1176.000000	51.827300
1175.000000	51.884700
1174.000000	51.937000
1173.000000	51.975600
1172.000000	52.035000
1171.000000	52.107900
1170.000000	52.176300
1169.000000	52.259700
1168.000000	52.373500
1167.000000	52.466000
1166.000000	52.575800
1165.000000	52.700000
1164.000000	52.798600
1163.000000	52.927500
1162.000000	53.055900
1161.000000	53.173600
1160.000000	53.289800
1159.000000	53.407200
1158.000000	53.509900
1157.000000	53.602800
1156.000000	53.689900
1155.000000	53.790500
1154.000000	53.876600
1153.000000	53.934200
1152.000000	53.980500
1151.000000	54.022500
1150.000000	54.077900
1149.000000	54.139300
1148.000000	54.163700
1147.000000	54.231400
1146.000000	54.263100
1145.000000	54.308100
1144.000000	54.349200
1143.000000	54.368400
1142.000000	54.425700
1141.000000	54.492800
1140.000000	54.548200
1139.000000	54.614200
1138.000000	54.686100
1137.000000	54.781800
1136.000000	54.884200
1135.000000	54.945600
1134.000000	54.995600
1133.000000	55.012200
1132.000000	55.045500
1131.000000	55.112200
1130.000000	55.149300
1129.000000	55.183100
1128.000000	55.210000
1127.000000	55.217600
1126.000000	55.219600
1125.000000	55.206300
1124.000000	55.194200
1123.000000	55.189500
1122.000000	55.154800
1121.000000	55.125500
1120.000000	55.082200
1119.000000	55.042100
1118.000000	54.989700
1117.000000	54.947000
1116.000000	54.903900
1115.000000	54.859100
1114.000000	54.827300
1113.000000	54.766100
1112.000000	54.713000
1111.000000	54.659900
1110.000000	54.620100
1109.000000	54.560200
1108.000000	54.522400
1107.000000	54.484800
1106.000000	54.447400
1105.000000	54.399100
1104.000000	54.355300
1103.000000	54.314800
1102.000000	54.255700
1101.000000	54.218300
1100.000000	54.161700
1099.000000	54.121000
1098.000000	54.069600
1097.000000	54.011500
1096.000000	53.961700
1095.000000	53.923600
1094.000000	53.875000
1093.000000	53.823100
1092.000000	53.782400
1091.000000	53.735400
1090.000000	53.669100
1089.000000	53.610000
1088.000000	53.552700
1087.000000	53.497100
1086.000000	53.441000
1085.000000	53.382600
1084.000000	53.324900
1083.000000	53.263100
1082.000000	53.191700
1081.000000	53.133400
1080.000000	53.069400
1079.000000	53.003800
1078.000000	52.939400
1077.000000	52.872500
1076.000000	52.812200
1075.000000	52.750700
1074.000000	52.698600
1073.000000	52.628000
1072.000000	52.558700
1071.000000	52.502900
1070.000000	52.437400
1069.000000	52.355500
1068.000000	52.290400
1067.000000	52.232800
1066.000000	52.168200
1065.000000	52.107000
1064.000000	52.050500
1063.000000	52.003700
1062.000000	51.933600
1061.000000	51.872800
1060.000000	51.816100
1059.000000	51.775300
1058.000000	51.730500
1057.000000	51.667700
1056.000000	51.618700
1055.000000	51.579500
1054.000000	51.518600
1053.000000	51.470000
1052.000000	51.421500
1051.000000	51.358400
1050.000000	51.322600
1049.000000	51.275200
1048.000000	51.221100
1047.000000	51.183200
1046.000000	51.147500
1045.000000	51.104600
1044.000000	51.065000
1043.000000	51.013300
1042.000000	50.977400
1041.000000	50.940800
1040.000000	50.888100
1039.000000	50.852800
1038.000000	50.825300
1037.000000	50.799600
1036.000000	50.762500
1035.000000	50.726200
1034.000000	50.689100
1033.000000	50.655200
1032.000000	50.645100
1031.000000	50.617900
1030.000000	50.568300
1029.000000	50.548100
1028.000000	50.542200
1027.000000	50.510000
1026.000000	50.484100
1025.000000	50.477000
1024.000000	50.458000
1023.000000	50.441600
1022.000000	50.426500
1021.000000	50.408900
1020.000000	50.408800
1019.000000	50.410400
1018.000000	50.405300
1017.000000	50.394500
1016.000000	50.391500
1015.000000	50.407500
1014.000000	50.409500
1013.000000	50.414800
1012.000000	50.414500
1011.000000	50.409600
1010.000000	50.427500
1009.000000	50.434900
1008.000000	50.437300
1007.000000	50.454000
1006.000000	50.475700
1005.000000	50.480700
1004.000000	50.481500
1003.000000	50.496300
1002.000000	50.519300
1001.000000	50.544600
1000.000000	50.552300
999.000000	50.575400
998.000000	50.597400
997.000000	50.630100
996.000000	50.661100
995.000000	50.676800
994.000000	50.717100
993.000000	50.757600
992.000000	50.801600
991.000000	50.842800
990.000000	50.885000
989.000000	50.927800
988.000000	50.976900
987.000000	51.023500
986.000000	51.081400
985.000000	51.139400
984.000000	51.200600
983.000000	51.271900
982.000000	51.330000
981.000000	51.398400
980.000000	51.494200
979.000000	51.585600
978.000000	51.658500
977.000000	51.754500
976.000000	51.839400
975.000000	51.936400
974.000000	52.017200
973.000000	52.118900
972.000000	52.217300
971.000000	52.322300
970.000000	52.417100
969.000000	52.517500
968.000000	52.633700
967.000000	52.711700
966.000000	52.831100
965.000000	52.916400
964.000000	53.015800
963.000000	53.121400
962.000000	53.202300
961.000000	53.301500
960.000000	53.388100
959.000000	53.475500
958.000000	53.572100
957.000000	53.647600
956.000000	53.736400
955.000000	53.837200
954.000000	53.919800
953.000000	54.012600
952.000000	54.077200
951.000000	54.161500
950.000000	54.282000
949.000000	54.368000
948.000000	54.458100
947.000000	54.555900
946.000000	54.635300
945.000000	54.724800
944.000000	54.811800
943.000000	54.931300
942.000000	55.068900
941.000000	55.159100
940.000000	55.262300
939.000000	55.404400
938.000000	55.537600
937.000000	55.650200
936.000000	55.804300
935.000000	55.929200
934.000000	56.048000
933.000000	56.173300
932.000000	56.324400
931.000000	56.446800
930.000000	56.579600
929.000000	56.741300
928.000000	56.869700
927.000000	56.990400
926.000000	57.144100
925.000000	57.286100
924.000000	57.423000
923.000000	57.550600
922.000000	57.690300
921.000000	57.811400
920.000000	57.951900
919.000000	58.064200
918.000000	58.175400
917.000000	58.260500
916.000000	58.420800
915.000000	58.511200
914.000000	58.596500
913.000000	58.702000
912.000000	58.806800
911.000000	58.898800
910.000000	58.962100
909.000000	59.079000
908.000000	59.173700
907.000000	59.250600
906.000000	59.328900
905.000000	59.406600
904.000000	59.509600
903.000000	59.569900
902.000000	59.657000
901.000000	59.744000
900.000000	59.819100
899.000000	59.869400
898.000000	59.940000
897.000000	60.031100
896.000000	60.086400
895.000000	60.179000
894.000000	60.257300
893.000000	60.316200
892.000000	60.373300
891.000000	60.456900
890.000000	60.525400
889.000000	60.652900
888.000000	60.748800
887.000000	60.841700
886.000000	60.950900
885.000000	61.050200
884.000000	61.119300
883.000000	61.232400
882.000000	61.320900
881.000000	61.465200
880.000000	61.592900
879.000000	61.689500
878.000000	61.810400
877.000000	61.908500
876.000000	62.053200
875.000000	62.158700
874.000000	62.295200
873.000000	62.427600
872.000000	62.548700
871.000000	62.688400
870.000000	62.796000
869.000000	62.939300
868.000000	63.094100
867.000000	63.220300
866.000000	63.346700
865.000000	63.483500
864.000000	63.599000
863.000000	63.729000
862.000000	63.824500
861.000000	63.900600
860.000000	63.952800
859.000000	64.051900
858.000000	60.699147
857.000000	62.824468
856.000000	62.865609
855.000000	62.999551
854.000000	63.417157
853.000000	63.970208
852.000000	64.085834
851.000000	64.328264
850.000000	64.864032
849.000000	65.216640
848.000000	65.535621
847.000000	65.714367
846.000000	66.133946
845.000000	66.282071
844.000000	66.761670
843.000000	66.985971
842.000000	67.647698
841.000000	67.696447
840.000000	67.845229
839.000000	68.467788
838.000000	68.681757
837.000000	69.028259
836.000000	69.439478
835.000000	69.861781
834.000000	69.940963
833.000000	70.234865
832.000000	70.575638
831.000000	70.847561
830.000000	70.886353
829.000000	71.350642
828.000000	71.645389
827.000000	71.757164
826.000000	72.124707
825.000000	72.254798
824.000000	72.453926
823.000000	72.609284
822.000000	72.930426
821.000000	73.002563
820.000000	72.943857
819.000000	73.179806
818.000000	73.146837
817.000000	73.158108
816.000000	73.230903
815.000000	73.442900
814.000000	73.443463
813.000000	73.587831
812.000000	73.580411
811.000000	73.691528
810.000000	73.605396
809.000000	73.619955
808.000000	73.671803
807.000000	73.719895
806.000000	73.900050
805.000000	73.913482
804.000000	74.009101
803.000000	74.105659
802.000000	74.180708
801.000000	74.127263
800.000000	74.075039
799.000000	74.100869
798.000000	74.194610
797.000000	74.320943
796.000000	74.377207
795.000000	74.400689
794.000000	74.494242
793.000000	74.628841
792.000000	74.684635
791.000000	74.727936
790.000000	74.874558
789.000000	74.953364
788.000000	75.005025
787.000000	75.000704
786.000000	75.099987
785.000000	75.208474
784.000000	75.243979
783.000000	75.308132
782.000000	75.364677
781.000000	75.424885
780.000000	75.486315
779.000000	75.486315
778.000000	75.527455
777.000000	75.564839
776.000000	75.605134
775.000000	75.474010
774.000000	75.432494
773.000000	75.503973
772.000000	75.535439
771.000000	75.502846
770.000000	75.422913
769.000000	75.362893
768.000000	75.310856
767.000000	75.234304
766.000000	75.123751
765.000000	75.041281
764.000000	74.913726
763.000000	74.629123
762.000000	74.452819
761.000000	74.354288
760.000000	74.120406
759.000000	73.909349
758.000000	73.712756
757.000000	73.526496
756.000000	73.374332
755.000000	73.126548
754.000000	72.919060
753.000000	72.707157
752.000000	72.441528
751.000000	72.168947
750.000000	71.969067
749.000000	71.749180
748.000000	71.479042
747.000000	71.249293
746.000000	71.011560
745.000000	70.780120
744.000000	70.398864
743.000000	69.999104
742.000000	69.695903
741.000000	69.407542
740.000000	69.115331
739.000000	68.744313
738.000000	68.336288
737.000000	67.940191
736.000000	67.591528
735.000000	67.210179
734.000000	66.861986
733.000000	66.528539
732.000000	66.177810
731.000000	65.821633
730.000000	65.549898
729.000000	65.253647
728.000000	64.896625
727.000000	64.595772
726.000000	64.311263
725.000000	64.086022
724.000000	63.852328
723.000000	63.590737
722.000000	63.414715
721.000000	63.183275
720.000000	62.914827
719.000000	62.718892
718.000000	62.529063
717.000000	62.314342
716.000000	62.134375
715.000000	61.981741
714.000000	61.768242
713.000000	61.563759
712.000000	61.418734
711.000000	61.212936
710.000000	61.039450
709.000000	60.817122
708.000000	60.650117
707.000000	60.455872
706.000000	60.333108
705.000000	60.201608
704.000000	59.977776
703.000000	59.726424
702.000000	59.488972
701.000000	59.204369
700.000000	58.890741
699.000000	58.562273
698.000000	58.227982
697.000000	57.847196
696.000000	57.469039
695.000000	57.073788
694.000000	56.593156
693.000000	56.138354
692.000000	55.747048
691.000000	55.256177
690.000000	54.784280
689.000000	54.330512
688.000000	53.914502
687.000000	53.529301
686.000000	53.133205
685.000000	52.786515
684.000000	52.397932
683.000000	52.101212
682.000000	51.794629
681.000000	51.486450
680.000000	51.139008
679.000000	50.861825
678.000000	50.593190
677.000000	50.309338
676.000000	50.087479
675.000000	49.797709
674.000000	49.554622
673.000000	49.321116
672.000000	49.097378
671.000000	48.872701
670.000000	48.676672
669.000000	48.532962
668.000000	48.419496
667.000000	48.313263
666.000000	48.212571
665.000000	48.192189
664.000000	48.149733
663.000000	48.168519
662.000000	48.134423
661.000000	48.095255
660.000000	48.103145
659.000000	48.066700
658.000000	47.960843
657.000000	47.856958
656.000000	47.687229
655.000000	47.539573
654.000000	47.337721
653.000000	47.147234
652.000000	46.910910
651.000000	46.631473
650.000000	46.383313
649.000000	46.165775
648.000000	45.982990
647.000000	45.795978
646.000000	45.650013
645.000000	45.590181
644.000000	45.503203
643.000000	45.451636
642.000000	45.461499
641.000000	45.442619
640.000000	45.492307
639.000000	45.495407
638.000000	45.550919
637.000000	45.641842
636.000000	45.736052
635.000000	45.766579
634.000000	45.890376
633.000000	45.991725
632.000000	46.139569
631.000000	46.280556
630.000000	46.468507
629.000000	46.691587
628.000000	46.967173
627.000000	47.222940
626.000000	47.532905
625.000000	47.863063
624.000000	48.222810
623.000000	48.600308
622.000000	48.977525
621.000000	49.410630
620.000000	49.857448
619.000000	50.317885
618.000000	50.761134
617.000000	51.205792
616.000000	51.654770
615.000000	52.120092
614.000000	52.559771
613.000000	52.994848
612.000000	53.426262
611.000000	53.768631
610.000000	54.209814
609.000000	54.629956
608.000000	55.047468
607.000000	55.389086
606.000000	55.825760
605.000000	56.231531
604.000000	56.693472
603.000000	57.200967
602.000000	57.654266
601.000000	58.071309
600.000000	58.459328
599.000000	58.847628
598.000000	59.127535
597.000000	59.437405
596.000000	59.672696
595.000000	59.888638
594.000000	60.154644
593.000000	60.388714
592.000000	60.615269
591.000000	60.838537
590.000000	61.086321
589.000000	61.276056
588.000000	61.423712
587.000000	61.484484
586.000000	61.530039
585.000000	61.510878
584.000000	61.424369
583.000000	61.325932
582.000000	61.285167
581.000000	61.214063
580.000000	61.171796
579.000000	61.158364
578.000000	61.098813
577.000000	61.059175
576.000000	60.954539
575.000000	60.831774
574.000000	60.680549
573.000000	60.491190
572.000000	60.337241
571.000000	60.173805
570.000000	59.980031
569.000000	59.889483
568.000000	59.781090
567.000000	59.669033
566.000000	59.451401
565.000000	59.228696
564.000000	58.945126
563.000000	58.618349
562.000000	58.245734
561.000000	57.937649
560.000000	57.517225
559.000000	57.128548
558.000000	56.781389
557.000000	56.406238
556.000000	55.956133
555.000000	55.476346
554.000000	54.961993
553.000000	54.393632
552.000000	53.824519
551.000000	53.275319
550.000000	52.684696
549.000000	52.057535
548.000000	51.448127
547.000000	50.814767
546.000000	50.125426
545.000000	49.407530
544.000000	48.671318
543.000000	47.953047
542.000000	47.208381
541.000000	46.482408
540.000000	45.715200
539.000000	44.949588
538.000000	44.183601
537.000000	43.383894
536.000000	42.584374
535.000000	41.822708
534.000000	41.039814
533.000000	40.279368
532.000000	39.543438
531.000000	38.820846
530.000000	38.100227
529.000000	37.416145
528.000000	36.774332
527.000000	36.155624
526.000000	35.538796
525.000000	34.936150
524.000000	34.341301
523.000000	33.756032
522.000000	33.197533
521.000000	32.606911
520.000000	32.069734
519.000000	31.514146
518.000000	30.970770
517.000000	30.438665
516.000000	29.900454
515.000000	29.362526
514.000000	28.849864
513.000000	28.293619
512.000000	27.726291
511.000000	27.185920
510.000000	26.622255
509.000000	26.035390
508.000000	25.469376
507.000000	24.931823
506.000000	24.393049
505.000000	23.884051
504.000000	23.402197
503.000000	22.933118
502.000000	22.509783
501.000000	22.109459
500.000000	21.776107
499.000000	21.483520
498.000000	21.244847
497.000000	21.054736
496.000000	20.926523
495.000000	20.846215
494.000000	20.821230
493.000000	20.834943
492.000000	20.883410
491.000000	20.981284
490.000000	21.127249
489.000000	21.277910
488.000000	21.446793
487.000000	21.646298
486.000000	21.859515
485.000000	22.070855
484.000000	22.288675
483.000000	22.505650
482.000000	22.709475
481.000000	22.883618
480.000000	23.044518
479.000000	23.198466
478.000000	23.336729
477.000000	23.460527
476.000000	23.560561
475.000000	23.655992
474.000000	23.729538
473.000000	23.791437
472.000000	23.826097
471.000000	23.841407
470.000000	23.861226
469.000000	23.866392
468.000000	23.854463
467.000000	23.819052
466.000000	23.788525
465.000000	23.751330
464.000000	23.695630
463.000000	23.620863
462.000000	23.535764
461.000000	23.448504
460.000000	23.338326
459.000000	23.207108
458.000000	23.080210
457.000000	22.935748
456.000000	22.783866
455.000000	22.633956
454.000000	22.464979
453.000000	22.284072
452.000000	22.083535
451.000000	21.855476
450.000000	21.630236
449.000000	21.411382
448.000000	21.175058
447.000000	20.936010
446.000000	20.660424
445.000000	20.379014
444.000000	20.107936
443.000000	19.792430
442.000000	19.449028
441.000000	19.111261
440.000000	18.764477
439.000000	18.390735
438.000000	18.016900
437.000000	17.647948
436.000000	17.259554
435.000000	16.855661
434.000000	16.439652
433.000000	16.014062
432.000000	15.580769
431.000000	15.146726
430.000000	14.710052
429.000000	14.259853
428.000000	13.829002
427.000000	13.405573
426.000000	12.982988
425.000000	12.564443
424.000000	12.148058
423.000000	11.754121
422.000000	11.363473
421.000000	10.976111
420.000000	10.618338
419.000000	10.280477
418.000000	9.961026
417.000000	9.645144
416.000000	9.345324
415.000000	9.064478
414.000000	8.797064
413.000000	8.552849
412.000000	8.321597
411.000000	8.098611
410.000000	7.897416
409.000000	7.730599
408.000000	7.584728
407.000000	7.422608
406.000000	7.254006
405.000000	7.109262
404.000000	6.990442
403.000000	6.868429
402.000000	6.769523
401.000000	6.672776
400.000000	6.585141
399.000000	6.509059
398.000000	6.425275
397.000000	6.345247
396.000000	6.280625
395.000000	6.228870
394.000000	6.179370
393.000000	6.121979
392.000000	6.065622
391.000000	6.017437
390.000000	5.990198
389.000000	5.962395
388.000000	5.937598
387.000000	5.888943
386.000000	5.853344
385.000000	5.827044
384.000000	5.801495
383.000000	5.774162
382.000000	5.761200
381.000000	5.737436
380.000000	5.697610
379.000000	5.679012
378.000000	5.658912
377.000000	5.647077
376.000000	5.634490
375.000000	5.625191
374.000000	5.545822
373.000000	5.568646
372.000000	5.589405
371.000000	5.584145
370.000000	5.484111
369.000000	5.583017
368.000000	5.588747
367.000000	5.495946
366.000000	5.504869
365.000000	5.538495
364.000000	5.546761
363.000000	5.519522
362.000000	5.467861
361.000000	5.554181
360.000000	5.541031
359.000000	5.495570
358.000000	5.506466
357.000000	5.448136
356.000000	5.451705
355.000000	5.501206
354.000000	5.517925
353.000000	5.649895
352.000000	5.544037
351.000000	5.396100
350.000000	5.503930
349.000000	5.402675
348.000000	5.476221
347.000000	5.485614
346.000000	5.443440
345.000000	5.373181
344.000000	5.350544
343.000000	5.427472
342.000000	5.510129
341.000000	5.447760
340.000000	5.393658
339.000000	5.431886
338.000000	5.444003
337.000000	5.592129
336.000000	5.405680
335.000000	5.405117
334.000000	5.339930
333.000000	5.381353
332.000000	5.424936
331.000000	5.473873
330.000000	5.399481
329.000000	5.463634
328.000000	5.496509
327.000000	5.506841
326.000000	5.551645
325.000000	5.650176
324.000000	5.668868
323.000000	5.590626
322.000000	5.623501
321.000000	5.828734
320.000000	5.647265
319.000000	5.609505
318.000000	5.691129
317.000000	5.667835
316.000000	5.387176
315.000000	5.357871
314.000000	5.369424
313.000000	5.376375
312.000000	5.376844
311.000000	5.352517
310.000000	5.392343
309.000000	5.479226
308.000000	5.413101
307.000000	5.440152
306.000000	5.462789
305.000000	5.422775
304.000000	5.448981
303.000000	5.502427
302.000000	5.454993
301.000000	5.472370
300.000000	5.508250
299.000000	5.459501
298.000000	5.529009
297.000000	5.446445
296.000000	5.463634
295.000000	5.513229
294.000000	5.518395
293.000000	5.531732
292.000000	5.525533
291.000000	5.482326
290.000000	5.532954
289.000000	5.550236
288.000000	5.552772
287.000000	5.552585
286.000000	5.564044
285.000000	5.543661
284.000000	5.522621
283.000000	5.559066
282.000000	5.517361
281.000000	5.556342
280.000000	5.563105
279.000000	5.585554
278.000000	5.547700
277.000000	5.595980
276.000000	5.605748
275.000000	5.579636
274.000000	5.631015
273.000000	5.685963
272.000000	5.578415
271.000000	5.644728
270.000000	5.642474
269.000000	5.645762
268.000000	5.697798
267.000000	5.720247
266.000000	5.730579
265.000000	5.795578
264.000000	5.791257
263.000000	5.790506
262.000000	5.796235
261.000000	5.828547
260.000000	5.863112
259.000000	5.861703
258.000000	5.900872
257.000000	5.911861
256.000000	5.917685
255.000000	5.883401
254.000000	5.879456
253.000000	5.953847
252.000000	6.013868
251.000000	5.964931
250.000000	6.018000
