PE UV       SUBTECH     SPECTRUM    ASCII       PEDS        4.00        
   -1
CICIMAUCR0019-1.Sample.ASC
24/03/08
13:32:45.00
24/03/08
13:32:45.00
Vinicio Soto Monge
C. cupreomarginata
250,000000
1
Lambda 1050
1050L1511233
PerkinElmer UV WinLab 6.3.2.0749 / 2.02.05 Lambda 900 UV/VIS/NIR, Aug  7 2015 09:38:08

0
0
3350/servo 860,8/2
0
0
UV/VIS
1
1
1
DoubleDePol,CommonBeamDepol,RBeamAtt,SBeamAtt,60mm sphere, WB InGaAs Detector
0
0
0
0
Program
Program
3350/servo 860,8/2
3350/0,2 860,8/0,2
3350/0,2 860,8/0,2
0
15.00
 
 
 
0
 
860,8
319,2
860,8
Front
100
on
S:100 R:100
0
0
0
0
 
0
 
 
 
0
 
 
0
0
0
0
0
 
 
 
 
0
0


0
0
#HDR
-1
-1
#GR
nm
%R
1.0
0.0
2500,000000
-1,000000
2251
8
27,863200
2,274800
#DATA
2500.000000	2.631700
2499.000000	2.521300
2498.000000	2.468800
2497.000000	2.539900
2496.000000	2.630500
2495.000000	2.525500
2494.000000	2.598500
2493.000000	2.479600
2492.000000	2.533500
2491.000000	2.525500
2490.000000	2.546500
2489.000000	2.562100
2488.000000	2.445800
2487.000000	2.545100
2486.000000	2.440200
2485.000000	2.521800
2484.000000	2.533000
2483.000000	2.478800
2482.000000	2.459600
2481.000000	2.512800
2480.000000	2.490400
2479.000000	2.522300
2478.000000	2.472000
2477.000000	2.491400
2476.000000	2.511300
2475.000000	2.495500
2474.000000	2.464900
2473.000000	2.530500
2472.000000	2.544800
2471.000000	2.492900
2470.000000	2.489700
2469.000000	2.547100
2468.000000	2.508200
2467.000000	2.507500
2466.000000	2.565400
2465.000000	2.536900
2464.000000	2.533800
2463.000000	2.536200
2462.000000	2.563600
2461.000000	2.570200
2460.000000	2.622600
2459.000000	2.595800
2458.000000	2.600900
2457.000000	2.620600
2456.000000	2.661100
2455.000000	2.662600
2454.000000	2.685900
2453.000000	2.720700
2452.000000	2.747700
2451.000000	2.759400
2450.000000	2.787100
2449.000000	2.777800
2448.000000	2.828100
2447.000000	2.853500
2446.000000	2.860400
2445.000000	2.892300
2444.000000	2.931100
2443.000000	2.943600
2442.000000	2.984100
2441.000000	3.017100
2440.000000	3.019900
2439.000000	3.064400
2438.000000	3.083600
2437.000000	3.095400
2436.000000	3.110700
2435.000000	3.130500
2434.000000	3.157200
2433.000000	3.184200
2432.000000	3.217500
2431.000000	3.238300
2430.000000	3.251200
2429.000000	3.269700
2428.000000	3.285400
2427.000000	3.305300
2426.000000	3.311800
2425.000000	3.337200
2424.000000	3.372000
2423.000000	3.403700
2422.000000	3.435800
2421.000000	3.509100
2420.000000	3.536500
2419.000000	3.548400
2418.000000	3.576100
2417.000000	3.585600
2416.000000	3.594500
2415.000000	3.623500
2414.000000	3.648700
2413.000000	3.659500
2412.000000	3.687500
2411.000000	3.708000
2410.000000	3.719000
2409.000000	3.739800
2408.000000	3.766000
2407.000000	3.785600
2406.000000	3.810300
2405.000000	3.824800
2404.000000	3.844000
2403.000000	3.859900
2402.000000	3.869900
2401.000000	3.904000
2400.000000	3.934800
2399.000000	3.928700
2398.000000	3.929600
2397.000000	3.959100
2396.000000	3.997500
2395.000000	4.005800
2394.000000	4.023500
2393.000000	4.049600
2392.000000	4.052800
2391.000000	4.069700
2390.000000	4.090000
2389.000000	4.099000
2388.000000	4.109500
2387.000000	4.118100
2386.000000	4.117700
2385.000000	4.114000
2384.000000	4.128500
2383.000000	4.150300
2382.000000	4.159000
2381.000000	4.157600
2380.000000	4.174500
2379.000000	4.171900
2378.000000	4.169600
2377.000000	4.175600
2376.000000	4.168500
2375.000000	4.160000
2374.000000	4.157100
2373.000000	4.161800
2372.000000	4.152100
2371.000000	4.148400
2370.000000	4.144100
2369.000000	4.128700
2368.000000	4.134800
2367.000000	4.123700
2366.000000	4.083800
2365.000000	4.067600
2364.000000	4.062700
2363.000000	4.044300
2362.000000	4.033200
2361.000000	4.011600
2360.000000	3.977000
2359.000000	3.956700
2358.000000	3.956800
2357.000000	3.948300
2356.000000	3.923000
2355.000000	3.909700
2354.000000	3.924300
2353.000000	3.935800
2352.000000	3.908400
2351.000000	3.885900
2350.000000	3.921700
2349.000000	3.944800
2348.000000	3.951600
2347.000000	3.971600
2346.000000	3.976800
2345.000000	3.993900
2344.000000	4.017200
2343.000000	4.034100
2342.000000	4.069000
2341.000000	4.095400
2340.000000	4.097000
2339.000000	4.098000
2338.000000	4.093900
2337.000000	4.109900
2336.000000	4.121300
2335.000000	4.120800
2334.000000	4.122100
2333.000000	4.113400
2332.000000	4.093000
2331.000000	4.088500
2330.000000	4.076800
2329.000000	4.048400
2328.000000	4.032000
2327.000000	4.003100
2326.000000	3.960100
2325.000000	3.959200
2324.000000	3.934700
2323.000000	3.906600
2322.000000	3.877300
2321.000000	3.835700
2320.000000	3.795400
2319.000000	3.749800
2318.000000	3.735400
2317.000000	3.700300
2316.000000	3.654500
2315.000000	3.605100
2314.000000	3.570300
2313.000000	3.533700
2312.000000	3.486000
2311.000000	3.454300
2310.000000	3.434500
2309.000000	3.410400
2308.000000	3.389500
2307.000000	3.367300
2306.000000	3.372000
2305.000000	3.362900
2304.000000	3.364900
2303.000000	3.379900
2302.000000	3.408000
2301.000000	3.441900
2300.000000	3.458300
2299.000000	3.484600
2298.000000	3.501800
2297.000000	3.518600
2296.000000	3.552600
2295.000000	3.579100
2294.000000	3.600600
2293.000000	3.598000
2292.000000	3.621900
2291.000000	3.630500
2290.000000	3.619200
2289.000000	3.621600
2288.000000	3.597400
2287.000000	3.604100
2286.000000	3.594400
2285.000000	3.562900
2284.000000	3.545600
2283.000000	3.514100
2282.000000	3.496800
2281.000000	3.468800
2280.000000	3.454300
2279.000000	3.417800
2278.000000	3.398400
2277.000000	3.397800
2276.000000	3.365900
2275.000000	3.337700
2274.000000	3.319900
2273.000000	3.316300
2272.000000	3.303500
2271.000000	3.279000
2270.000000	3.278800
2269.000000	3.281600
2268.000000	3.294700
2267.000000	3.320300
2266.000000	3.344700
2265.000000	3.358600
2264.000000	3.397300
2263.000000	3.426200
2262.000000	3.470200
2261.000000	3.545700
2260.000000	3.598000
2259.000000	3.659400
2258.000000	3.724500
2257.000000	3.798500
2256.000000	3.868100
2255.000000	3.936000
2254.000000	4.005200
2253.000000	4.070900
2252.000000	4.133900
2251.000000	4.204200
2250.000000	4.272600
2249.000000	4.339500
2248.000000	4.400000
2247.000000	4.452200
2246.000000	4.499600
2245.000000	4.564500
2244.000000	4.596800
2243.000000	4.604900
2242.000000	4.675100
2241.000000	4.708000
2240.000000	4.748500
2239.000000	4.766100
2238.000000	4.808700
2237.000000	4.804000
2236.000000	4.844100
2235.000000	4.879700
2234.000000	4.891800
2233.000000	4.914100
2232.000000	4.913200
2231.000000	4.909200
2230.000000	4.902300
2229.000000	4.918300
2228.000000	4.890100
2227.000000	4.900200
2226.000000	4.886400
2225.000000	4.860000
2224.000000	4.856600
2223.000000	4.822700
2222.000000	4.815000
2221.000000	4.778100
2220.000000	4.727500
2219.000000	4.698100
2218.000000	4.674700
2217.000000	4.646300
2216.000000	4.616700
2215.000000	4.606200
2214.000000	4.589300
2213.000000	4.574400
2212.000000	4.558400
2211.000000	4.546900
2210.000000	4.538800
2209.000000	4.571500
2208.000000	4.600900
2207.000000	4.603800
2206.000000	4.635800
2205.000000	4.694800
2204.000000	4.750100
2203.000000	4.793400
2202.000000	4.845900
2201.000000	4.941800
2200.000000	4.993200
2199.000000	5.062900
2198.000000	5.151700
2197.000000	5.214900
2196.000000	5.292600
2195.000000	5.359900
2194.000000	5.429000
2193.000000	5.492200
2192.000000	5.546200
2191.000000	5.620800
2190.000000	5.665700
2189.000000	5.706600
2188.000000	5.745500
2187.000000	5.790500
2186.000000	5.830800
2185.000000	5.865100
2184.000000	5.879700
2183.000000	5.912500
2182.000000	5.945500
2181.000000	5.951900
2180.000000	5.968300
2179.000000	5.986000
2178.000000	5.993400
2177.000000	6.001300
2176.000000	6.017700
2175.000000	6.020000
2174.000000	6.043800
2173.000000	6.050600
2172.000000	6.062800
2171.000000	6.073700
2170.000000	6.093200
2169.000000	6.107500
2168.000000	6.110600
2167.000000	6.127500
2166.000000	6.143900
2165.000000	6.151300
2164.000000	6.176300
2163.000000	6.188500
2162.000000	6.216500
2161.000000	6.221700
2160.000000	6.221600
2159.000000	6.250700
2158.000000	6.261500
2157.000000	6.284500
2156.000000	6.303700
2155.000000	6.309300
2154.000000	6.348400
2153.000000	6.356500
2152.000000	6.384600
2151.000000	6.416300
2150.000000	6.438900
2149.000000	6.449100
2148.000000	6.468900
2147.000000	6.503800
2146.000000	6.527300
2145.000000	6.550300
2144.000000	6.570400
2143.000000	6.596500
2142.000000	6.610400
2141.000000	6.626100
2140.000000	6.651800
2139.000000	6.666900
2138.000000	6.688900
2137.000000	6.704500
2136.000000	6.712600
2135.000000	6.714200
2134.000000	6.716000
2133.000000	6.734400
2132.000000	6.755500
2131.000000	6.764200
2130.000000	6.782600
2129.000000	6.799000
2128.000000	6.793900
2127.000000	6.788000
2126.000000	6.792300
2125.000000	6.799400
2124.000000	6.801600
2123.000000	6.796700
2122.000000	6.786900
2121.000000	6.774100
2120.000000	6.771500
2119.000000	6.791600
2118.000000	6.781900
2117.000000	6.761800
2116.000000	6.771900
2115.000000	6.764200
2114.000000	6.748300
2113.000000	6.748700
2112.000000	6.745500
2111.000000	6.738000
2110.000000	6.723400
2109.000000	6.705100
2108.000000	6.701100
2107.000000	6.692700
2106.000000	6.681300
2105.000000	6.681400
2104.000000	6.662000
2103.000000	6.650900
2102.000000	6.659800
2101.000000	6.640900
2100.000000	6.621800
2099.000000	6.617100
2098.000000	6.621000
2097.000000	6.607300
2096.000000	6.592700
2095.000000	6.584400
2094.000000	6.588400
2093.000000	6.596000
2092.000000	6.579100
2091.000000	6.572100
2090.000000	6.575500
2089.000000	6.577100
2088.000000	6.567500
2087.000000	6.547600
2086.000000	6.531500
2085.000000	6.534200
2084.000000	6.537000
2083.000000	6.520200
2082.000000	6.513900
2081.000000	6.517300
2080.000000	6.509900
2079.000000	6.501700
2078.000000	6.496400
2077.000000	6.479800
2076.000000	6.486300
2075.000000	6.475500
2074.000000	6.450100
2073.000000	6.444100
2072.000000	6.440300
2071.000000	6.425200
2070.000000	6.408500
2069.000000	6.398000
2068.000000	6.376700
2067.000000	6.368800
2066.000000	6.359400
2065.000000	6.355500
2064.000000	6.350100
2063.000000	6.336600
2062.000000	6.325700
2061.000000	6.317200
2060.000000	6.324500
2059.000000	6.329200
2058.000000	6.324300
2057.000000	6.324600
2056.000000	6.351600
2055.000000	6.362900
2054.000000	6.374500
2053.000000	6.420700
2052.000000	6.453200
2051.000000	6.488700
2050.000000	6.528000
2049.000000	6.564200
2048.000000	6.626200
2047.000000	6.678100
2046.000000	6.733900
2045.000000	6.790700
2044.000000	6.853300
2043.000000	6.929100
2042.000000	7.007700
2041.000000	7.055200
2040.000000	7.117100
2039.000000	7.201000
2038.000000	7.266400
2037.000000	7.352400
2036.000000	7.411800
2035.000000	7.460200
2034.000000	7.522000
2033.000000	7.569100
2032.000000	7.625300
2031.000000	7.699500
2030.000000	7.732600
2029.000000	7.798200
2028.000000	7.828800
2027.000000	7.893000
2026.000000	7.946700
2025.000000	7.974800
2024.000000	8.013200
2023.000000	8.071500
2022.000000	8.118600
2021.000000	8.146500
2020.000000	8.167800
2019.000000	8.209600
2018.000000	8.245200
2017.000000	8.277800
2016.000000	8.307500
2015.000000	8.333000
2014.000000	8.387400
2013.000000	8.412500
2012.000000	8.419500
2011.000000	8.450600
2010.000000	8.465800
2009.000000	8.507600
2008.000000	8.498200
2007.000000	8.498400
2006.000000	8.521600
2005.000000	8.517600
2004.000000	8.521000
2003.000000	8.516300
2002.000000	8.517100
2001.000000	8.503000
2000.000000	8.518300
1999.000000	8.498200
1998.000000	8.499100
1997.000000	8.484900
1996.000000	8.485500
1995.000000	8.463000
1994.000000	8.430300
1993.000000	8.432100
1992.000000	8.416000
1991.000000	8.363600
1990.000000	8.369000
1989.000000	8.332800
1988.000000	8.317300
1987.000000	8.267300
1986.000000	8.252800
1985.000000	8.229400
1984.000000	8.201700
1983.000000	8.163600
1982.000000	8.135500
1981.000000	8.113000
1980.000000	8.077100
1979.000000	8.032200
1978.000000	8.019300
1977.000000	7.960400
1976.000000	7.933100
1975.000000	7.916700
1974.000000	7.885500
1973.000000	7.845700
1972.000000	7.817300
1971.000000	7.768800
1970.000000	7.742100
1969.000000	7.728600
1968.000000	7.693800
1967.000000	7.674000
1966.000000	7.649700
1965.000000	7.614400
1964.000000	7.595300
1963.000000	7.563200
1962.000000	7.531800
1961.000000	7.511300
1960.000000	7.458000
1959.000000	7.439300
1958.000000	7.421000
1957.000000	7.388900
1956.000000	7.346100
1955.000000	7.330300
1954.000000	7.299300
1953.000000	7.272600
1952.000000	7.240100
1951.000000	7.203600
1950.000000	7.158400
1949.000000	7.167100
1948.000000	7.141500
1947.000000	7.110400
1946.000000	7.094400
1945.000000	7.066800
1944.000000	7.073700
1943.000000	7.068100
1942.000000	7.062800
1941.000000	7.059100
1940.000000	7.033800
1939.000000	7.021400
1938.000000	7.021500
1937.000000	7.056600
1936.000000	7.044300
1935.000000	7.050300
1934.000000	7.085600
1933.000000	7.118400
1932.000000	7.153200
1931.000000	7.183600
1930.000000	7.215200
1929.000000	7.233500
1928.000000	7.287800
1927.000000	7.318500
1926.000000	7.404200
1925.000000	7.461300
1924.000000	7.520500
1923.000000	7.584000
1922.000000	7.657700
1921.000000	7.720400
1920.000000	7.816500
1919.000000	7.888300
1918.000000	7.971700
1917.000000	8.077300
1916.000000	8.178300
1915.000000	8.268000
1914.000000	8.381300
1913.000000	8.479000
1912.000000	8.585000
1911.000000	8.696700
1910.000000	8.824600
1909.000000	8.940000
1908.000000	9.066800
1907.000000	9.173200
1906.000000	9.290300
1905.000000	9.438100
1904.000000	9.557200
1903.000000	9.699700
1902.000000	9.828200
1901.000000	9.958700
1900.000000	10.102700
1899.000000	10.239800
1898.000000	10.399800
1897.000000	10.569200
1896.000000	10.707000
1895.000000	10.833700
1894.000000	10.981600
1893.000000	11.125700
1892.000000	11.249600
1891.000000	11.387200
1890.000000	11.509600
1889.000000	11.634300
1888.000000	11.798900
1887.000000	11.955600
1886.000000	12.105400
1885.000000	12.276800
1884.000000	12.465300
1883.000000	12.647200
1882.000000	12.862500
1881.000000	13.083400
1880.000000	13.288900
1879.000000	13.486500
1878.000000	13.662800
1877.000000	13.838700
1876.000000	13.973200
1875.000000	14.100400
1874.000000	14.220800
1873.000000	14.315000
1872.000000	14.392100
1871.000000	14.471700
1870.000000	14.527900
1869.000000	14.587100
1868.000000	14.678700
1867.000000	14.732400
1866.000000	14.786200
1865.000000	14.857600
1864.000000	14.913700
1863.000000	14.954300
1862.000000	14.958600
1861.000000	14.970300
1860.000000	14.958200
1859.000000	14.928300
1858.000000	14.904700
1857.000000	14.911200
1856.000000	14.909300
1855.000000	14.898300
1854.000000	14.870900
1853.000000	14.826000
1852.000000	14.791800
1851.000000	14.792200
1850.000000	14.793800
1849.000000	14.747700
1848.000000	14.664600
1847.000000	14.578900
1846.000000	14.529500
1845.000000	14.533200
1844.000000	14.556300
1843.000000	14.561300
1842.000000	14.548800
1841.000000	14.515700
1840.000000	14.466600
1839.000000	14.424800
1838.000000	14.386200
1837.000000	14.349700
1836.000000	14.313800
1835.000000	14.289900
1834.000000	14.259400
1833.000000	14.236900
1832.000000	14.220400
1831.000000	14.184000
1830.000000	14.132300
1829.000000	14.087700
1828.000000	14.043800
1827.000000	13.997900
1826.000000	13.964900
1825.000000	13.951100
1824.000000	13.934500
1823.000000	13.944500
1822.000000	13.941900
1821.000000	13.897700
1820.000000	13.846500
1819.000000	13.814000
1818.000000	13.812700
1817.000000	13.836700
1816.000000	13.849700
1815.000000	13.843800
1814.000000	13.836500
1813.000000	13.841200
1812.000000	13.835700
1811.000000	13.812300
1810.000000	13.788000
1809.000000	13.756000
1808.000000	13.749400
1807.000000	13.738200
1806.000000	13.711100
1805.000000	13.670400
1804.000000	13.650000
1803.000000	13.628900
1802.000000	13.604200
1801.000000	13.577300
1800.000000	13.534700
1799.000000	13.505700
1798.000000	13.493200
1797.000000	13.476600
1796.000000	13.449000
1795.000000	13.426100
1794.000000	13.383800
1793.000000	13.365400
1792.000000	13.354600
1791.000000	13.311100
1790.000000	13.270900
1789.000000	13.254100
1788.000000	13.218700
1787.000000	13.170100
1786.000000	13.144200
1785.000000	13.091000
1784.000000	13.033800
1783.000000	12.993900
1782.000000	12.960700
1781.000000	12.923500
1780.000000	12.864600
1779.000000	12.808700
1778.000000	12.735100
1777.000000	12.701800
1776.000000	12.643100
1775.000000	12.568400
1774.000000	12.494500
1773.000000	12.425400
1772.000000	12.345600
1771.000000	12.271300
1770.000000	12.202200
1769.000000	12.132500
1768.000000	12.081300
1767.000000	12.014900
1766.000000	11.958600
1765.000000	11.909200
1764.000000	11.869900
1763.000000	11.873100
1762.000000	11.884300
1761.000000	11.906200
1760.000000	11.944300
1759.000000	11.959800
1758.000000	11.983500
1757.000000	12.017400
1756.000000	12.040400
1755.000000	12.064500
1754.000000	12.062600
1753.000000	12.050100
1752.000000	12.034300
1751.000000	12.001400
1750.000000	11.978300
1749.000000	11.947200
1748.000000	11.903100
1747.000000	11.863100
1746.000000	11.783000
1745.000000	11.714400
1744.000000	11.608000
1743.000000	11.482500
1742.000000	11.397400
1741.000000	11.280300
1740.000000	11.127400
1739.000000	11.005500
1738.000000	10.907900
1737.000000	10.797200
1736.000000	10.737400
1735.000000	10.677300
1734.000000	10.638600
1733.000000	10.648100
1732.000000	10.694000
1731.000000	10.723200
1730.000000	10.782100
1729.000000	10.824200
1728.000000	10.884300
1727.000000	10.937800
1726.000000	11.004000
1725.000000	11.020100
1724.000000	11.077900
1723.000000	11.057500
1722.000000	11.073800
1721.000000	11.105000
1720.000000	11.102700
1719.000000	11.122600
1718.000000	11.126500
1717.000000	11.178600
1716.000000	11.218800
1715.000000	11.256800
1714.000000	11.261800
1713.000000	11.303000
1712.000000	11.318000
1711.000000	11.357400
1710.000000	11.364900
1709.000000	11.376900
1708.000000	11.373900
1707.000000	11.362400
1706.000000	11.344700
1705.000000	11.324200
1704.000000	11.299000
1703.000000	11.252200
1702.000000	11.219400
1701.000000	11.149300
1700.000000	11.068000
1699.000000	10.981800
1698.000000	10.924900
1697.000000	10.856500
1696.000000	10.845100
1695.000000	10.815300
1694.000000	10.834100
1693.000000	10.914900
1692.000000	10.988300
1691.000000	11.112800
1690.000000	11.161900
1689.000000	11.225800
1688.000000	11.265600
1687.000000	11.282700
1686.000000	11.295800
1685.000000	11.306800
1684.000000	11.355500
1683.000000	11.492200
1682.000000	11.672300
1681.000000	11.879700
1680.000000	12.158400
1679.000000	12.453200
1678.000000	12.743300
1677.000000	13.011300
1676.000000	13.236500
1675.000000	13.471500
1674.000000	13.611100
1673.000000	13.774200
1672.000000	13.898400
1671.000000	14.032400
1670.000000	14.117900
1669.000000	14.207800
1668.000000	14.297400
1667.000000	14.408800
1666.000000	14.465100
1665.000000	14.531900
1664.000000	14.579800
1663.000000	14.602900
1662.000000	14.641000
1661.000000	14.653500
1660.000000	14.695500
1659.000000	14.723700
1658.000000	14.735800
1657.000000	14.748000
1656.000000	14.754500
1655.000000	14.744800
1654.000000	14.748400
1653.000000	14.741000
1652.000000	14.725800
1651.000000	14.722600
1650.000000	14.707100
1649.000000	14.695200
1648.000000	14.694800
1647.000000	14.654100
1646.000000	14.636400
1645.000000	14.624500
1644.000000	14.603000
1643.000000	14.571900
1642.000000	14.536700
1641.000000	14.512600
1640.000000	14.472200
1639.000000	14.450200
1638.000000	14.415400
1637.000000	14.376500
1636.000000	14.333600
1635.000000	14.304600
1634.000000	14.283300
1633.000000	14.249100
1632.000000	14.215500
1631.000000	14.156500
1630.000000	14.115200
1629.000000	14.078500
1628.000000	14.034300
1627.000000	13.984700
1626.000000	13.946800
1625.000000	13.918200
1624.000000	13.866100
1623.000000	13.810600
1622.000000	13.766300
1621.000000	13.737600
1620.000000	13.723700
1619.000000	13.683900
1618.000000	13.629200
1617.000000	13.598100
1616.000000	13.551200
1615.000000	13.522800
1614.000000	13.486600
1613.000000	13.442700
1612.000000	13.402600
1611.000000	13.344000
1610.000000	13.308800
1609.000000	13.288500
1608.000000	13.251100
1607.000000	13.208300
1606.000000	13.175300
1605.000000	13.125400
1604.000000	13.086700
1603.000000	13.066600
1602.000000	13.034800
1601.000000	12.991500
1600.000000	12.947700
1599.000000	12.924600
1598.000000	12.878300
1597.000000	12.842800
1596.000000	12.822500
1595.000000	12.788300
1594.000000	12.748600
1593.000000	12.728200
1592.000000	12.698600
1591.000000	12.661900
1590.000000	12.627900
1589.000000	12.606500
1588.000000	12.596300
1587.000000	12.580400
1586.000000	12.547700
1585.000000	12.518600
1584.000000	12.504300
1583.000000	12.496400
1582.000000	12.492400
1581.000000	12.480300
1580.000000	12.473300
1579.000000	12.462500
1578.000000	12.443200
1577.000000	12.439200
1576.000000	12.431800
1575.000000	12.433300
1574.000000	12.432900
1573.000000	12.437400
1572.000000	12.451300
1571.000000	12.453800
1570.000000	12.463800
1569.000000	12.474500
1568.000000	12.485400
1567.000000	12.492500
1566.000000	12.509300
1565.000000	12.520900
1564.000000	12.539900
1563.000000	12.554200
1562.000000	12.555100
1561.000000	12.573600
1560.000000	12.596600
1559.000000	12.592500
1558.000000	12.594400
1557.000000	12.599500
1556.000000	12.608300
1555.000000	12.626100
1554.000000	12.622500
1553.000000	12.627000
1552.000000	12.623400
1551.000000	12.613600
1550.000000	12.624600
1549.000000	12.619200
1548.000000	12.621600
1547.000000	12.619600
1546.000000	12.610500
1545.000000	12.612900
1544.000000	12.614000
1543.000000	12.614100
1542.000000	12.606400
1541.000000	12.606600
1540.000000	12.621300
1539.000000	12.630200
1538.000000	12.626900
1537.000000	12.626100
1536.000000	12.638700
1535.000000	12.643000
1534.000000	12.628500
1533.000000	12.629200
1532.000000	12.630600
1531.000000	12.625200
1530.000000	12.621300
1529.000000	12.627800
1528.000000	12.632800
1527.000000	12.629000
1526.000000	12.608300
1525.000000	12.579700
1524.000000	12.581300
1523.000000	12.578400
1522.000000	12.559800
1521.000000	12.566100
1520.000000	12.566600
1519.000000	12.545000
1518.000000	12.540600
1517.000000	12.520800
1516.000000	12.497400
1515.000000	12.514800
1514.000000	12.516200
1513.000000	12.499400
1512.000000	12.489100
1511.000000	12.481800
1510.000000	12.468500
1509.000000	12.454900
1508.000000	12.450800
1507.000000	12.443800
1506.000000	12.422900
1505.000000	12.421100
1504.000000	12.405500
1503.000000	12.391300
1502.000000	12.395400
1501.000000	12.400400
1500.000000	12.399500
1499.000000	12.392500
1498.000000	12.387200
1497.000000	12.395900
1496.000000	12.393700
1495.000000	12.405800
1494.000000	12.408600
1493.000000	12.431000
1492.000000	12.428700
1491.000000	12.434700
1490.000000	12.457500
1489.000000	12.485000
1488.000000	12.490200
1487.000000	12.503300
1486.000000	12.520800
1485.000000	12.545700
1484.000000	12.562400
1483.000000	12.574500
1482.000000	12.603300
1481.000000	12.617600
1480.000000	12.629000
1479.000000	12.655900
1478.000000	12.671700
1477.000000	12.694300
1476.000000	12.739100
1475.000000	12.756600
1474.000000	12.779400
1473.000000	12.816800
1472.000000	12.859300
1471.000000	12.860100
1470.000000	12.888100
1469.000000	12.911700
1468.000000	12.940600
1467.000000	12.954900
1466.000000	12.984100
1465.000000	13.006600
1464.000000	13.052600
1463.000000	13.074300
1462.000000	13.133100
1461.000000	13.145000
1460.000000	13.169400
1459.000000	13.211100
1458.000000	13.244800
1457.000000	13.294300
1456.000000	13.338400
1455.000000	13.370200
1454.000000	13.419000
1453.000000	13.475700
1452.000000	13.515800
1451.000000	13.582600
1450.000000	13.621100
1449.000000	13.652200
1448.000000	13.727300
1447.000000	13.779200
1446.000000	13.856600
1445.000000	13.891900
1444.000000	13.926900
1443.000000	14.007900
1442.000000	14.070800
1441.000000	14.121500
1440.000000	14.160900
1439.000000	14.222600
1438.000000	14.263600
1437.000000	14.328000
1436.000000	14.384300
1435.000000	14.422200
1434.000000	14.488200
1433.000000	14.555600
1432.000000	14.602800
1431.000000	14.655200
1430.000000	14.722600
1429.000000	14.762300
1428.000000	14.846200
1427.000000	14.933400
1426.000000	15.035500
1425.000000	15.127600
1424.000000	15.208600
1423.000000	15.323700
1422.000000	15.390000
1421.000000	15.469200
1420.000000	15.593900
1419.000000	15.667000
1418.000000	15.716900
1417.000000	15.797800
1416.000000	15.908000
1415.000000	15.999400
1414.000000	16.032500
1413.000000	16.111300
1412.000000	16.170000
1411.000000	16.235200
1410.000000	16.370900
1409.000000	16.473900
1408.000000	16.557600
1407.000000	16.676100
1406.000000	16.783300
1405.000000	16.906700
1404.000000	17.000600
1403.000000	17.142900
1402.000000	17.257400
1401.000000	17.398000
1400.000000	17.473800
1399.000000	17.489200
1398.000000	17.512900
1397.000000	17.551200
1396.000000	17.581100
1395.000000	17.547200
1394.000000	17.501200
1393.000000	17.473800
1392.000000	17.456300
1391.000000	17.419200
1390.000000	17.449100
1389.000000	17.461000
1388.000000	17.489200
1387.000000	17.504600
1386.000000	17.573100
1385.000000	17.683400
1384.000000	17.814100
1383.000000	17.928500
1382.000000	18.064300
1381.000000	18.162300
1380.000000	18.309300
1379.000000	18.423100
1378.000000	18.610300
1377.000000	18.805100
1376.000000	19.057500
1375.000000	19.301500
1374.000000	19.552800
1373.000000	19.864900
1372.000000	20.134100
1371.000000	20.371600
1370.000000	20.585900
1369.000000	20.783900
1368.000000	20.982000
1367.000000	21.090400
1366.000000	21.209800
1365.000000	21.340900
1364.000000	21.434100
1363.000000	21.526100
1362.000000	21.595100
1361.000000	21.629200
1360.000000	21.655900
1359.000000	21.706300
1358.000000	21.747800
1357.000000	21.836600
1356.000000	21.969500
1355.000000	22.132400
1354.000000	22.343000
1353.000000	22.578900
1352.000000	22.796300
1351.000000	23.037000
1350.000000	23.241800
1349.000000	23.435500
1348.000000	23.640500
1347.000000	23.778200
1346.000000	23.904700
1345.000000	24.052300
1344.000000	24.192200
1343.000000	24.332800
1342.000000	24.456400
1341.000000	24.567400
1340.000000	24.672300
1339.000000	24.776300
1338.000000	24.875300
1337.000000	24.967300
1336.000000	25.056600
1335.000000	25.132200
1334.000000	25.227300
1333.000000	25.312300
1332.000000	25.386200
1331.000000	25.457000
1330.000000	25.529500
1329.000000	25.583800
1328.000000	25.642200
1327.000000	25.693900
1326.000000	25.753500
1325.000000	25.808600
1324.000000	25.858200
1323.000000	25.911200
1322.000000	25.963900
1321.000000	25.994200
1320.000000	26.027400
1319.000000	26.074800
1318.000000	26.101900
1317.000000	26.121200
1316.000000	26.148200
1315.000000	26.186200
1314.000000	26.212600
1313.000000	26.225100
1312.000000	26.226500
1311.000000	26.246700
1310.000000	26.282500
1309.000000	26.284100
1308.000000	26.279200
1307.000000	26.282900
1306.000000	26.279300
1305.000000	26.279100
1304.000000	26.280700
1303.000000	26.283300
1302.000000	26.281300
1301.000000	26.260500
1300.000000	26.237100
1299.000000	26.222200
1298.000000	26.216500
1297.000000	26.204400
1296.000000	26.196800
1295.000000	26.187700
1294.000000	26.156100
1293.000000	26.129700
1292.000000	26.115100
1291.000000	26.106800
1290.000000	26.082700
1289.000000	26.045200
1288.000000	26.022500
1287.000000	25.997500
1286.000000	25.976400
1285.000000	25.955000
1284.000000	25.925400
1283.000000	25.886000
1282.000000	25.851600
1281.000000	25.821800
1280.000000	25.798500
1279.000000	25.770100
1278.000000	25.733900
1277.000000	25.713100
1276.000000	25.693900
1275.000000	25.669300
1274.000000	25.657500
1273.000000	25.644700
1272.000000	25.624900
1271.000000	25.587400
1270.000000	25.567300
1269.000000	25.547700
1268.000000	25.527900
1267.000000	25.523600
1266.000000	25.504600
1265.000000	25.482100
1264.000000	25.444800
1263.000000	25.434200
1262.000000	25.407300
1261.000000	25.375900
1260.000000	25.344300
1259.000000	25.320000
1258.000000	25.298300
1257.000000	25.269900
1256.000000	25.227100
1255.000000	25.196500
1254.000000	25.177700
1253.000000	25.136100
1252.000000	25.095300
1251.000000	25.066500
1250.000000	25.031000
1249.000000	25.011800
1248.000000	24.981400
1247.000000	24.930500
1246.000000	24.891700
1245.000000	24.853600
1244.000000	24.801700
1243.000000	24.751500
1242.000000	24.725600
1241.000000	24.678500
1240.000000	24.625000
1239.000000	24.579400
1238.000000	24.539000
1237.000000	24.481900
1236.000000	24.433600
1235.000000	24.385700
1234.000000	24.327900
1233.000000	24.275400
1232.000000	24.220400
1231.000000	24.156200
1230.000000	24.101400
1229.000000	24.046500
1228.000000	23.991200
1227.000000	23.932700
1226.000000	23.861600
1225.000000	23.803500
1224.000000	23.738100
1223.000000	23.680700
1222.000000	23.610100
1221.000000	23.540400
1220.000000	23.492000
1219.000000	23.432800
1218.000000	23.386100
1217.000000	23.322700
1216.000000	23.253100
1215.000000	23.206000
1214.000000	23.153100
1213.000000	23.107300
1212.000000	23.060500
1211.000000	23.006800
1210.000000	22.973000
1209.000000	22.924900
1208.000000	22.887600
1207.000000	22.865100
1206.000000	22.861700
1205.000000	22.833200
1204.000000	22.823900
1203.000000	22.821300
1202.000000	22.780800
1201.000000	22.763500
1200.000000	22.756700
1199.000000	22.725400
1198.000000	22.679100
1197.000000	22.610300
1196.000000	22.534100
1195.000000	22.433300
1194.000000	22.308800
1193.000000	22.136800
1192.000000	21.954300
1191.000000	21.753800
1190.000000	21.572400
1189.000000	21.407300
1188.000000	21.265200
1187.000000	21.213700
1186.000000	21.198900
1185.000000	21.228300
1184.000000	21.316900
1183.000000	21.458100
1182.000000	21.654500
1181.000000	21.850000
1180.000000	22.061200
1179.000000	22.270600
1178.000000	22.425700
1177.000000	22.590400
1176.000000	22.724900
1175.000000	22.849300
1174.000000	22.974800
1173.000000	23.091000
1172.000000	23.213900
1171.000000	23.352400
1170.000000	23.499100
1169.000000	23.649000
1168.000000	23.809800
1167.000000	23.938300
1166.000000	24.084400
1165.000000	24.237400
1164.000000	24.407800
1163.000000	24.579500
1162.000000	24.737100
1161.000000	24.875400
1160.000000	24.999000
1159.000000	25.157500
1158.000000	25.297900
1157.000000	25.413100
1156.000000	25.519300
1155.000000	25.558400
1154.000000	25.611900
1153.000000	25.653600
1152.000000	25.668400
1151.000000	25.664200
1150.000000	25.645600
1149.000000	25.637000
1148.000000	25.661700
1147.000000	25.687600
1146.000000	25.722200
1145.000000	25.789200
1144.000000	25.880700
1143.000000	25.979500
1142.000000	26.118000
1141.000000	26.234000
1140.000000	26.373700
1139.000000	26.508400
1138.000000	26.629500
1137.000000	26.768000
1136.000000	26.902400
1135.000000	27.050300
1134.000000	27.143900
1133.000000	27.244100
1132.000000	27.339100
1131.000000	27.454500
1130.000000	27.537100
1129.000000	27.597200
1128.000000	27.644800
1127.000000	27.683400
1126.000000	27.737800
1125.000000	27.775100
1124.000000	27.790800
1123.000000	27.805800
1122.000000	27.816600
1121.000000	27.835500
1120.000000	27.839600
1119.000000	27.857700
1118.000000	27.857600
1117.000000	27.863200
1116.000000	27.846300
1115.000000	27.836400
1114.000000	27.823600
1113.000000	27.822900
1112.000000	27.796900
1111.000000	27.811800
1110.000000	27.793600
1109.000000	27.776100
1108.000000	27.776000
1107.000000	27.765100
1106.000000	27.749000
1105.000000	27.720100
1104.000000	27.706800
1103.000000	27.709600
1102.000000	27.690000
1101.000000	27.670200
1100.000000	27.653300
1099.000000	27.638500
1098.000000	27.614400
1097.000000	27.620000
1096.000000	27.586400
1095.000000	27.561400
1094.000000	27.533500
1093.000000	27.508600
1092.000000	27.485500
1091.000000	27.444900
1090.000000	27.430400
1089.000000	27.411500
1088.000000	27.388000
1087.000000	27.370000
1086.000000	27.346700
1085.000000	27.315400
1084.000000	27.289800
1083.000000	27.262400
1082.000000	27.232500
1081.000000	27.205300
1080.000000	27.170300
1079.000000	27.155500
1078.000000	27.141300
1077.000000	27.117200
1076.000000	27.088900
1075.000000	27.060900
1074.000000	27.045700
1073.000000	27.030800
1072.000000	27.017900
1071.000000	26.986400
1070.000000	26.954400
1069.000000	26.935400
1068.000000	26.903800
1067.000000	26.878100
1066.000000	26.859400
1065.000000	26.854900
1064.000000	26.849200
1063.000000	26.821200
1062.000000	26.802300
1061.000000	26.772800
1060.000000	26.767100
1059.000000	26.755400
1058.000000	26.729200
1057.000000	26.716200
1056.000000	26.687200
1055.000000	26.665400
1054.000000	26.645800
1053.000000	26.631800
1052.000000	26.623800
1051.000000	26.602300
1050.000000	26.594000
1049.000000	26.575900
1048.000000	26.540500
1047.000000	26.522800
1046.000000	26.511100
1045.000000	26.494300
1044.000000	26.479400
1043.000000	26.470000
1042.000000	26.453700
1041.000000	26.442100
1040.000000	26.426600
1039.000000	26.403100
1038.000000	26.384900
1037.000000	26.356800
1036.000000	26.331700
1035.000000	26.312800
1034.000000	26.288000
1033.000000	26.269900
1032.000000	26.246600
1031.000000	26.220500
1030.000000	26.184100
1029.000000	26.144800
1028.000000	26.121800
1027.000000	26.095300
1026.000000	26.068500
1025.000000	26.037400
1024.000000	25.985000
1023.000000	25.955300
1022.000000	25.936200
1021.000000	25.894000
1020.000000	25.862200
1019.000000	25.840700
1018.000000	25.806600
1017.000000	25.779100
1016.000000	25.764000
1015.000000	25.733200
1014.000000	25.711000
1013.000000	25.687600
1012.000000	25.662500
1011.000000	25.656000
1010.000000	25.651700
1009.000000	25.642500
1008.000000	25.629600
1007.000000	25.607700
1006.000000	25.606800
1005.000000	25.609900
1004.000000	25.613300
1003.000000	25.606000
1002.000000	25.593900
1001.000000	25.577900
1000.000000	25.582600
999.000000	25.579300
998.000000	25.564900
997.000000	25.561700
996.000000	25.564400
995.000000	25.566900
994.000000	25.584400
993.000000	25.577300
992.000000	25.566400
991.000000	25.576700
990.000000	25.582800
989.000000	25.569700
988.000000	25.571100
987.000000	25.572500
986.000000	25.579100
985.000000	25.595400
984.000000	25.600000
983.000000	25.613600
982.000000	25.618100
981.000000	25.598100
980.000000	25.607300
979.000000	25.620200
978.000000	25.643300
977.000000	25.637400
976.000000	25.628800
975.000000	25.625400
974.000000	25.639200
973.000000	25.634800
972.000000	25.651800
971.000000	25.639300
970.000000	25.626000
969.000000	25.650200
968.000000	25.652300
967.000000	25.654900
966.000000	25.639000
965.000000	25.636600
964.000000	25.651600
963.000000	25.631100
962.000000	25.642600
961.000000	25.642400
960.000000	25.633000
959.000000	25.603000
958.000000	25.602700
957.000000	25.620300
956.000000	25.610000
955.000000	25.600700
954.000000	25.599600
953.000000	25.565900
952.000000	25.563800
951.000000	25.579200
950.000000	25.557800
949.000000	25.558500
948.000000	25.533300
947.000000	25.516900
946.000000	25.509700
945.000000	25.514200
944.000000	25.496300
943.000000	25.489700
942.000000	25.495000
941.000000	25.482900
940.000000	25.505500
939.000000	25.490800
938.000000	25.471300
937.000000	25.472500
936.000000	25.469200
935.000000	25.486700
934.000000	25.501500
933.000000	25.496800
932.000000	25.465900
931.000000	25.494700
930.000000	25.502600
929.000000	25.470600
928.000000	25.463200
927.000000	25.500500
926.000000	25.475000
925.000000	25.488900
924.000000	25.473000
923.000000	25.491900
922.000000	25.482200
921.000000	25.479100
920.000000	25.465500
919.000000	25.464800
918.000000	25.454700
917.000000	25.439600
916.000000	25.428000
915.000000	25.404400
914.000000	25.420200
913.000000	25.411000
912.000000	25.377400
911.000000	25.370200
910.000000	25.345300
909.000000	25.293800
908.000000	25.285500
907.000000	25.269900
906.000000	25.254900
905.000000	25.226400
904.000000	25.214800
903.000000	25.224200
902.000000	25.207700
901.000000	25.179600
900.000000	25.178200
899.000000	25.135200
898.000000	25.136100
897.000000	25.119500
896.000000	25.056800
895.000000	25.017300
894.000000	25.017900
893.000000	24.952500
892.000000	24.904900
891.000000	24.897000
890.000000	24.856100
889.000000	24.785800
888.000000	24.703400
887.000000	24.634400
886.000000	24.588100
885.000000	24.552000
884.000000	24.478700
883.000000	24.375200
882.000000	24.249800
881.000000	24.160400
880.000000	24.013000
879.000000	23.934500
878.000000	23.853200
877.000000	23.756900
876.000000	23.618400
875.000000	23.462100
874.000000	23.316000
873.000000	23.164400
872.000000	23.041100
871.000000	22.828500
870.000000	22.683100
869.000000	22.511300
868.000000	22.386500
867.000000	22.203900
866.000000	22.066700
865.000000	21.885100
864.000000	21.723800
863.000000	21.528300
862.000000	21.308500
861.000000	21.100100
860.000000	20.962700
859.000000	20.762700
858.000000	18.535856
857.000000	20.525630
856.000000	20.086595
855.000000	20.222413
854.000000	20.646670
853.000000	20.486485
852.000000	20.461151
851.000000	20.326388
850.000000	20.338703
849.000000	20.428340
848.000000	20.471003
847.000000	20.549996
846.000000	20.499240
845.000000	20.462559
844.000000	20.382070
843.000000	20.383566
842.000000	20.490004
841.000000	20.581488
840.000000	20.419016
839.000000	20.456313
838.000000	20.492203
837.000000	20.381806
836.000000	20.426933
835.000000	20.383038
834.000000	20.419016
833.000000	20.316096
832.000000	20.307828
831.000000	20.307476
830.000000	20.408548
829.000000	20.337120
828.000000	20.243525
827.000000	20.150106
826.000000	20.156528
825.000000	20.128027
824.000000	20.118439
823.000000	20.086067
822.000000	20.128818
821.000000	20.128379
820.000000	20.103397
819.000000	20.103836
818.000000	20.062053
817.000000	20.005315
816.000000	19.928610
815.000000	19.914359
814.000000	19.967578
813.000000	19.879877
812.000000	19.838181
811.000000	19.749424
810.000000	19.721803
809.000000	19.700340
808.000000	19.678085
807.000000	19.539012
806.000000	19.476908
805.000000	19.459931
804.000000	19.407504
803.000000	19.362553
802.000000	19.310566
801.000000	19.235532
800.000000	19.210813
799.000000	19.207383
798.000000	19.132524
797.000000	19.058458
796.000000	19.061800
795.000000	19.015707
794.000000	18.952899
793.000000	18.948237
792.000000	18.917273
791.000000	18.876809
790.000000	18.796409
789.000000	18.795090
788.000000	18.775386
787.000000	18.733514
786.000000	18.714074
785.000000	18.712930
784.000000	18.732283
783.000000	18.702374
782.000000	18.644845
781.000000	18.656105
780.000000	18.673698
779.000000	18.683374
778.000000	18.684781
777.000000	18.645197
776.000000	18.650123
775.000000	18.623470
774.000000	18.609219
773.000000	18.642558
772.000000	18.601214
771.000000	18.605261
770.000000	18.598575
769.000000	18.540430
768.000000	18.519847
767.000000	18.525916
766.000000	18.513249
765.000000	18.485188
764.000000	18.456512
763.000000	18.430562
762.000000	18.406635
761.000000	18.364500
760.000000	18.324300
759.000000	18.340397
758.000000	18.347611
757.000000	18.340925
756.000000	18.319110
755.000000	18.303804
754.000000	18.282252
753.000000	18.255335
752.000000	18.235895
751.000000	18.214871
750.000000	18.215047
749.000000	18.193759
748.000000	18.165347
747.000000	18.172912
746.000000	18.153999
745.000000	18.136582
744.000000	18.143707
743.000000	18.132888
742.000000	18.117494
741.000000	18.146874
740.000000	18.134647
739.000000	18.090048
738.000000	18.106674
737.000000	18.101572
736.000000	18.050992
735.000000	18.033311
734.000000	18.030760
733.000000	18.016158
732.000000	17.996453
731.000000	17.978333
730.000000	17.947897
729.000000	17.940332
728.000000	17.938660
727.000000	17.898460
726.000000	17.870399
725.000000	17.836533
724.000000	17.815949
723.000000	17.796333
722.000000	17.746280
721.000000	17.715229
720.000000	17.666584
719.000000	17.626736
718.000000	17.603777
717.000000	17.528127
716.000000	17.466903
715.000000	17.420105
714.000000	17.390901
713.000000	17.357562
712.000000	17.318066
711.000000	17.292028
710.000000	17.251388
709.000000	17.190252
708.000000	17.142839
707.000000	17.094282
706.000000	17.047924
705.000000	17.009748
704.000000	16.957584
703.000000	16.903574
702.000000	16.876656
701.000000	16.832674
700.000000	16.790802
699.000000	16.735384
698.000000	16.726675
697.000000	16.716999
696.000000	16.678031
695.000000	16.655336
694.000000	16.612057
693.000000	16.589626
692.000000	16.551449
691.000000	16.534647
690.000000	16.519869
689.000000	16.522596
688.000000	16.509665
687.000000	16.498318
686.000000	16.479669
685.000000	16.489433
684.000000	16.489785
683.000000	16.473336
682.000000	16.471048
681.000000	16.453455
680.000000	16.458469
679.000000	16.440876
678.000000	16.405163
677.000000	16.379037
676.000000	16.365842
675.000000	16.341652
674.000000	16.309544
673.000000	16.277173
672.000000	16.221403
671.000000	16.189912
670.000000	16.125873
669.000000	16.066672
668.000000	16.010199
667.000000	15.947392
666.000000	15.872357
665.000000	15.803304
664.000000	15.723608
663.000000	15.634059
662.000000	15.551020
661.000000	15.461648
660.000000	15.354154
659.000000	15.256425
658.000000	15.156936
657.000000	15.043901
656.000000	14.924532
655.000000	14.807802
654.000000	14.686498
653.000000	14.554726
652.000000	14.439140
651.000000	14.301474
650.000000	14.185360
649.000000	14.062737
648.000000	13.953748
647.000000	13.866222
646.000000	13.766470
645.000000	13.683782
644.000000	13.604878
643.000000	13.549459
642.000000	13.503454
641.000000	13.476976
640.000000	13.453665
639.000000	13.454545
638.000000	13.480759
637.000000	13.502574
636.000000	13.561159
635.000000	13.621327
634.000000	13.729788
633.000000	13.829277
632.000000	13.962192
631.000000	14.097483
630.000000	14.236468
629.000000	14.385921
628.000000	14.550240
627.000000	14.728194
626.000000	14.894536
625.000000	15.055248
624.000000	15.211386
623.000000	15.367173
622.000000	15.552516
621.000000	15.709797
620.000000	15.860394
619.000000	16.035533
618.000000	16.209352
617.000000	16.364962
616.000000	16.545643
615.000000	16.714008
614.000000	16.897944
613.000000	17.084342
612.000000	17.284991
611.000000	17.493468
610.000000	17.703705
609.000000	17.911567
608.000000	18.113799
607.000000	18.320869
606.000000	18.529787
605.000000	18.701759
604.000000	18.862647
603.000000	19.035411
602.000000	19.173252
601.000000	19.291302
600.000000	19.395364
599.000000	19.521595
598.000000	19.606217
597.000000	19.699548
596.000000	19.783203
595.000000	19.814959
594.000000	19.873983
593.000000	19.909345
592.000000	19.950953
591.000000	20.022908
590.000000	20.075951
589.000000	20.110258
588.000000	20.153273
587.000000	20.215288
586.000000	20.264109
585.000000	20.313457
584.000000	20.381015
583.000000	20.429923
582.000000	20.496161
581.000000	20.566797
580.000000	20.609109
579.000000	20.659689
578.000000	20.712116
577.000000	20.754867
576.000000	20.778706
575.000000	20.796299
574.000000	20.836323
573.000000	20.851453
572.000000	20.879074
571.000000	20.866143
570.000000	20.858314
569.000000	20.847934
568.000000	20.818642
567.000000	20.786271
566.000000	20.774923
565.000000	20.749941
564.000000	20.723727
563.000000	20.689861
562.000000	20.660920
561.000000	20.634794
560.000000	20.680184
559.000000	21.219851
558.000000	21.207096
557.000000	21.166104
556.000000	21.119659
555.000000	21.077260
554.000000	20.993693
553.000000	20.928246
552.000000	20.827438
551.000000	20.706046
550.000000	20.584830
549.000000	20.439248
548.000000	20.264989
547.000000	20.069090
546.000000	19.866506
545.000000	19.646681
544.000000	19.418411
543.000000	19.156715
542.000000	18.894930
541.000000	18.616872
540.000000	18.336703
539.000000	18.049936
538.000000	17.754021
537.000000	17.444736
536.000000	17.121199
535.000000	16.819215
534.000000	16.511864
533.000000	16.198004
532.000000	15.893997
531.000000	15.598082
530.000000	15.314922
529.000000	15.037391
528.000000	14.772264
527.000000	14.516373
526.000000	14.268751
525.000000	14.037491
524.000000	13.810452
523.000000	13.594586
522.000000	13.378103
521.000000	13.170065
520.000000	12.963611
519.000000	12.764898
518.000000	12.559851
517.000000	12.371165
516.000000	12.179313
515.000000	11.981391
514.000000	11.791299
513.000000	11.597159
512.000000	11.418854
511.000000	11.231664
510.000000	11.047553
509.000000	10.867048
508.000000	10.693493
507.000000	10.515539
506.000000	10.350604
505.000000	10.176697
504.000000	10.004021
503.000000	9.842957
502.000000	9.682332
501.000000	9.512032
500.000000	9.349208
499.000000	9.195357
498.000000	9.034908
497.000000	8.877011
496.000000	8.715506
495.000000	8.570540
494.000000	8.405957
493.000000	8.253161
492.000000	8.101861
491.000000	7.960061
490.000000	7.822396
489.000000	7.683147
488.000000	7.552166
487.000000	7.423649
486.000000	7.303313
485.000000	7.183592
484.000000	7.073987
483.000000	6.970716
482.000000	6.882487
481.000000	6.800767
480.000000	6.709811
479.000000	6.626069
478.000000	6.545580
477.000000	6.464300
476.000000	6.382581
475.000000	6.305963
474.000000	6.219053
473.000000	6.130297
472.000000	6.038637
471.000000	5.942139
470.000000	5.845553
469.000000	5.754245
468.000000	5.655988
467.000000	5.557731
466.000000	5.459386
465.000000	5.351452
464.000000	5.246598
463.000000	5.149132
462.000000	5.058968
461.000000	4.976105
460.000000	4.893769
459.000000	4.810466
458.000000	4.737015
457.000000	4.672273
456.000000	4.615535
455.000000	4.560205
454.000000	4.516399
453.000000	4.471360
452.000000	4.432128
451.000000	4.407674
450.000000	4.387793
449.000000	4.378029
448.000000	4.374071
447.000000	4.365186
446.000000	4.357269
445.000000	4.355774
444.000000	4.365890
443.000000	4.370552
442.000000	4.373895
441.000000	4.369848
440.000000	4.374687
439.000000	4.380668
438.000000	4.384627
437.000000	4.383483
436.000000	4.371608
435.000000	4.369585
434.000000	4.366506
433.000000	4.358941
432.000000	4.350496
431.000000	4.342667
430.000000	4.326658
429.000000	4.302203
428.000000	4.287865
427.000000	4.278716
426.000000	4.268864
425.000000	4.244938
424.000000	4.223035
423.000000	4.203770
422.000000	4.172191
421.000000	4.137620
420.000000	4.106569
419.000000	4.072262
418.000000	4.042266
417.000000	4.015525
416.000000	3.969607
415.000000	3.925888
414.000000	3.897475
413.000000	3.855604
412.000000	3.811005
411.000000	3.765703
410.000000	3.722073
409.000000	3.677738
408.000000	3.620737
407.000000	3.557314
406.000000	3.520280
405.000000	3.469436
404.000000	3.408389
403.000000	3.355961
402.000000	3.301335
401.000000	3.245037
400.000000	3.182846
399.000000	3.123645
398.000000	3.063301
397.000000	3.006915
396.000000	2.960909
395.000000	2.899774
394.000000	2.849545
393.000000	2.794479
392.000000	2.739325
391.000000	2.682851
390.000000	2.621628
389.000000	2.570784
388.000000	2.525921
387.000000	2.469008
386.000000	2.423178
385.000000	2.379547
384.000000	2.348232
383.000000	2.309087
382.000000	2.271790
381.000000	2.239243
380.000000	2.207487
379.000000	2.177315
378.000000	2.146264
377.000000	2.115300
376.000000	2.291054
375.000000	2.257540
374.000000	2.258507
373.000000	2.214612
372.000000	2.222793
371.000000	2.261058
370.000000	2.203353
369.000000	2.206432
368.000000	2.220770
367.000000	2.200274
366.000000	2.251382
365.000000	2.248655
364.000000	2.242585
363.000000	2.204936
362.000000	2.231238
361.000000	2.218923
360.000000	2.195524
359.000000	2.257891
358.000000	2.230358
357.000000	2.224289
356.000000	2.197283
355.000000	2.210742
354.000000	2.205288
353.000000	2.225872
352.000000	2.239859
351.000000	2.221474
350.000000	2.112661
349.000000	2.188927
348.000000	2.267831
347.000000	2.150046
346.000000	2.209950
345.000000	2.243729
344.000000	2.321842
343.000000	2.346296
342.000000	2.204057
341.000000	2.238099
340.000000	2.118467
339.000000	2.268359
338.000000	2.147407
337.000000	2.140018
336.000000	2.266776
335.000000	2.356412
334.000000	2.185936
333.000000	2.171861
332.000000	2.235284
331.000000	2.178107
330.000000	2.340315
329.000000	2.156907
328.000000	2.172653
327.000000	2.113892
326.000000	2.411303
325.000000	2.189366
324.000000	2.239331
323.000000	2.172389
322.000000	2.383154
321.000000	2.133333
320.000000	2.324921
319.000000	2.506305
318.000000	2.634558
317.000000	2.801780
316.000000	2.159986
315.000000	2.074924
314.000000	2.049062
313.000000	2.054340
312.000000	2.031645
311.000000	2.018362
310.000000	2.036835
309.000000	2.053284
308.000000	2.001033
307.000000	2.055395
306.000000	2.052756
305.000000	2.064808
304.000000	2.057771
303.000000	2.039122
302.000000	2.073252
301.000000	2.045983
300.000000	2.063576
299.000000	2.019154
298.000000	2.050381
297.000000	2.045807
296.000000	2.056803
295.000000	2.072461
294.000000	2.074308
293.000000	2.059002
292.000000	2.101841
291.000000	2.095244
290.000000	2.076771
289.000000	2.061465
288.000000	2.075891
287.000000	2.088382
286.000000	2.044840
285.000000	2.113892
284.000000	2.078530
283.000000	2.095156
282.000000	2.092429
281.000000	2.030237
280.000000	2.088206
279.000000	2.129814
278.000000	2.127527
277.000000	2.086799
276.000000	2.095859
275.000000	2.114860
274.000000	2.099818
273.000000	2.126999
272.000000	2.104128
271.000000	2.100785
270.000000	2.129550
269.000000	2.142393
268.000000	2.148727
267.000000	2.099906
266.000000	2.151453
265.000000	2.132013
264.000000	2.142569
263.000000	2.149870
262.000000	2.179075
261.000000	2.216724
260.000000	2.174412
259.000000	2.195524
258.000000	2.208367
257.000000	2.207575
256.000000	2.181714
255.000000	2.212325
254.000000	2.181977
253.000000	2.201242
252.000000	2.241442
251.000000	2.229303
250.000000	2.211710
