PE UV       SUBTECH     SPECTRUM    ASCII       PEDS        4.00        
   -1
CICIMAUCR0104-3.Sample.ASC
24/04/04
11:30:21.00
24/04/04
11:30:21.00
Vinicio Soto Monge
C. resplendens
250,000000
1
Lambda 1050
1050L1511233
PerkinElmer UV WinLab 6.3.2.0749 / 2.02.05 Lambda 900 UV/VIS/NIR, Aug  7 2015 09:38:08

0
0
3350/servo 860,8/2
0
0
UV/VIS
1
1
1
DoubleDePol,CommonBeamDepol,RBeamAtt,SBeamAtt,60mm sphere, WB InGaAs Detector
0
0
0
0
Program
Program
3350/servo 860,8/2
3350/0,2 860,8/0,2
3350/0,2 860,8/0,2
0
15.00
 
 
 
0
 
860,8
319,2
860,8
Front
100
on
S:100 R:100
0
0
0
0
 
0
 
 
 
0
 
 
0
0
0
0
0
 
 
 
 
0
0


0
0
#HDR
-1
-1
#GR
nm
%R
1.0
0.0
2500,000000
-1,000000
2251
8
72,628200
5,074300
#DATA
2500.000000	6.222400
2499.000000	6.144300
2498.000000	6.187700
2497.000000	6.256600
2496.000000	6.126300
2495.000000	6.167700
2494.000000	6.103100
2493.000000	6.090700
2492.000000	6.126300
2491.000000	6.080200
2490.000000	6.110200
2489.000000	6.111300
2488.000000	6.055200
2487.000000	6.070900
2486.000000	6.072800
2485.000000	6.017600
2484.000000	6.111000
2483.000000	6.114200
2482.000000	6.228100
2481.000000	6.126900
2480.000000	6.106600
2479.000000	6.083300
2478.000000	6.093200
2477.000000	6.157400
2476.000000	6.151800
2475.000000	6.130800
2474.000000	6.200400
2473.000000	6.200300
2472.000000	6.202400
2471.000000	6.229500
2470.000000	6.201500
2469.000000	6.212400
2468.000000	6.240300
2467.000000	6.318000
2466.000000	6.277000
2465.000000	6.303900
2464.000000	6.340600
2463.000000	6.371900
2462.000000	6.405100
2461.000000	6.433300
2460.000000	6.462800
2459.000000	6.495200
2458.000000	6.564300
2457.000000	6.605500
2456.000000	6.648600
2455.000000	6.720100
2454.000000	6.780200
2453.000000	6.815600
2452.000000	6.858800
2451.000000	6.919500
2450.000000	6.993000
2449.000000	7.060100
2448.000000	7.108500
2447.000000	7.179700
2446.000000	7.257500
2445.000000	7.317400
2444.000000	7.368800
2443.000000	7.435600
2442.000000	7.498200
2441.000000	7.570600
2440.000000	7.653100
2439.000000	7.719700
2438.000000	7.773300
2437.000000	7.840700
2436.000000	7.895300
2435.000000	7.963600
2434.000000	8.017200
2433.000000	8.069600
2432.000000	8.118100
2431.000000	8.168500
2430.000000	8.226800
2429.000000	8.263200
2428.000000	8.330500
2427.000000	8.376900
2426.000000	8.418000
2425.000000	8.457400
2424.000000	8.500600
2423.000000	8.542800
2422.000000	8.579500
2421.000000	8.627000
2420.000000	8.692300
2419.000000	8.737300
2418.000000	8.788400
2417.000000	8.823200
2416.000000	8.863900
2415.000000	8.892700
2414.000000	8.918500
2413.000000	8.959500
2412.000000	8.999600
2411.000000	9.032100
2410.000000	9.064300
2409.000000	9.104600
2408.000000	9.126100
2407.000000	9.169400
2406.000000	9.201800
2405.000000	9.242200
2404.000000	9.259400
2403.000000	9.292500
2402.000000	9.334600
2401.000000	9.374100
2400.000000	9.399100
2399.000000	9.413000
2398.000000	9.456000
2397.000000	9.496300
2396.000000	9.522000
2395.000000	9.544400
2394.000000	9.580800
2393.000000	9.605900
2392.000000	9.627600
2391.000000	9.655400
2390.000000	9.683300
2389.000000	9.700300
2388.000000	9.713000
2387.000000	9.722100
2386.000000	9.729500
2385.000000	9.733600
2384.000000	9.745100
2383.000000	9.748100
2382.000000	9.752400
2381.000000	9.747000
2380.000000	9.726300
2379.000000	9.721300
2378.000000	9.716700
2377.000000	9.700100
2376.000000	9.681100
2375.000000	9.672300
2374.000000	9.652000
2373.000000	9.617900
2372.000000	9.590700
2371.000000	9.565700
2370.000000	9.549600
2369.000000	9.526600
2368.000000	9.494100
2367.000000	9.458500
2366.000000	9.405400
2365.000000	9.355000
2364.000000	9.311400
2363.000000	9.258100
2362.000000	9.214400
2361.000000	9.164600
2360.000000	9.108400
2359.000000	9.056300
2358.000000	8.999200
2357.000000	8.951300
2356.000000	8.922300
2355.000000	8.891100
2354.000000	8.870800
2353.000000	8.850100
2352.000000	8.828900
2351.000000	8.844700
2350.000000	8.848300
2349.000000	8.849200
2348.000000	8.865300
2347.000000	8.894800
2346.000000	8.928900
2345.000000	8.949400
2344.000000	8.974000
2343.000000	8.991300
2342.000000	9.026700
2341.000000	9.057100
2340.000000	9.067200
2339.000000	9.068500
2338.000000	9.076000
2337.000000	9.082100
2336.000000	9.055300
2335.000000	9.051300
2334.000000	9.039300
2333.000000	9.004300
2332.000000	8.976300
2331.000000	8.937100
2330.000000	8.886500
2329.000000	8.829600
2328.000000	8.788200
2327.000000	8.740600
2326.000000	8.684100
2325.000000	8.603600
2324.000000	8.533800
2323.000000	8.465100
2322.000000	8.400700
2321.000000	8.315700
2320.000000	8.233500
2319.000000	8.133500
2318.000000	8.047100
2317.000000	7.955300
2316.000000	7.849500
2315.000000	7.762700
2314.000000	7.685600
2313.000000	7.597300
2312.000000	7.516000
2311.000000	7.444200
2310.000000	7.372500
2309.000000	7.313100
2308.000000	7.283300
2307.000000	7.248300
2306.000000	7.247300
2305.000000	7.243400
2304.000000	7.236000
2303.000000	7.244300
2302.000000	7.270600
2301.000000	7.302700
2300.000000	7.351400
2299.000000	7.406400
2298.000000	7.445700
2297.000000	7.484400
2296.000000	7.546500
2295.000000	7.584000
2294.000000	7.632600
2293.000000	7.651700
2292.000000	7.656700
2291.000000	7.655000
2290.000000	7.646200
2289.000000	7.651000
2288.000000	7.631700
2287.000000	7.593100
2286.000000	7.548200
2285.000000	7.517800
2284.000000	7.480500
2283.000000	7.439500
2282.000000	7.382000
2281.000000	7.318300
2280.000000	7.265800
2279.000000	7.211500
2278.000000	7.158000
2277.000000	7.113800
2276.000000	7.072200
2275.000000	7.029200
2274.000000	6.982900
2273.000000	6.960100
2272.000000	6.928900
2271.000000	6.914200
2270.000000	6.910700
2269.000000	6.923500
2268.000000	6.918700
2267.000000	6.952700
2266.000000	6.985500
2265.000000	7.044400
2264.000000	7.122400
2263.000000	7.189200
2262.000000	7.281600
2261.000000	7.402700
2260.000000	7.529400
2259.000000	7.615600
2258.000000	7.768600
2257.000000	7.914700
2256.000000	8.067400
2255.000000	8.173800
2254.000000	8.347400
2253.000000	8.465800
2252.000000	8.625100
2251.000000	8.754500
2250.000000	8.860300
2249.000000	8.988500
2248.000000	9.097700
2247.000000	9.184400
2246.000000	9.288500
2245.000000	9.379700
2244.000000	9.466500
2243.000000	9.556600
2242.000000	9.618400
2241.000000	9.695600
2240.000000	9.773700
2239.000000	9.807800
2238.000000	9.861100
2237.000000	9.886900
2236.000000	9.971800
2235.000000	9.988200
2234.000000	10.006900
2233.000000	10.007400
2232.000000	10.019900
2231.000000	10.032700
2230.000000	10.025700
2229.000000	10.019100
2228.000000	9.997100
2227.000000	9.967900
2226.000000	9.917000
2225.000000	9.865600
2224.000000	9.820200
2223.000000	9.777700
2222.000000	9.712000
2221.000000	9.640900
2220.000000	9.581300
2219.000000	9.488900
2218.000000	9.449700
2217.000000	9.386500
2216.000000	9.336600
2215.000000	9.273700
2214.000000	9.226100
2213.000000	9.217400
2212.000000	9.171400
2211.000000	9.153100
2210.000000	9.161800
2209.000000	9.199400
2208.000000	9.211200
2207.000000	9.266100
2206.000000	9.351900
2205.000000	9.437300
2204.000000	9.511400
2203.000000	9.632300
2202.000000	9.769800
2201.000000	9.912100
2200.000000	10.044000
2199.000000	10.191600
2198.000000	10.343100
2197.000000	10.509200
2196.000000	10.647400
2195.000000	10.788700
2194.000000	10.922900
2193.000000	11.075300
2192.000000	11.186900
2191.000000	11.317700
2190.000000	11.414700
2189.000000	11.525600
2188.000000	11.589500
2187.000000	11.679900
2186.000000	11.766900
2185.000000	11.807800
2184.000000	11.853700
2183.000000	11.919700
2182.000000	11.970700
2181.000000	11.994100
2180.000000	12.026300
2179.000000	12.069000
2178.000000	12.089200
2177.000000	12.128700
2176.000000	12.162800
2175.000000	12.178300
2174.000000	12.216900
2173.000000	12.239100
2172.000000	12.259500
2171.000000	12.286700
2170.000000	12.310200
2169.000000	12.346500
2168.000000	12.388200
2167.000000	12.421400
2166.000000	12.459900
2165.000000	12.489000
2164.000000	12.524600
2163.000000	12.557600
2162.000000	12.594900
2161.000000	12.627800
2160.000000	12.686500
2159.000000	12.723300
2158.000000	12.747800
2157.000000	12.795400
2156.000000	12.880600
2155.000000	12.930900
2154.000000	12.975500
2153.000000	13.019200
2152.000000	13.071100
2151.000000	13.142900
2150.000000	13.197100
2149.000000	13.260400
2148.000000	13.298500
2147.000000	13.355300
2146.000000	13.410600
2145.000000	13.465800
2144.000000	13.505500
2143.000000	13.554800
2142.000000	13.612900
2141.000000	13.661700
2140.000000	13.701500
2139.000000	13.752500
2138.000000	13.806900
2137.000000	13.835800
2136.000000	13.864900
2135.000000	13.902300
2134.000000	13.931900
2133.000000	13.951600
2132.000000	13.981100
2131.000000	14.000300
2130.000000	14.015700
2129.000000	14.043700
2128.000000	14.076200
2127.000000	14.086600
2126.000000	14.079400
2125.000000	14.080900
2124.000000	14.086500
2123.000000	14.088500
2122.000000	14.095000
2121.000000	14.080200
2120.000000	14.076500
2119.000000	14.073100
2118.000000	14.048600
2117.000000	14.039200
2116.000000	14.025800
2115.000000	14.008100
2114.000000	13.993400
2113.000000	13.967300
2112.000000	13.948600
2111.000000	13.933000
2110.000000	13.919500
2109.000000	13.894300
2108.000000	13.866800
2107.000000	13.846800
2106.000000	13.824600
2105.000000	13.796500
2104.000000	13.782500
2103.000000	13.774100
2102.000000	13.757400
2101.000000	13.743300
2100.000000	13.721100
2099.000000	13.694500
2098.000000	13.665400
2097.000000	13.640600
2096.000000	13.621500
2095.000000	13.609200
2094.000000	13.601500
2093.000000	13.581400
2092.000000	13.573100
2091.000000	13.575000
2090.000000	13.553900
2089.000000	13.533800
2088.000000	13.533200
2087.000000	13.520500
2086.000000	13.494400
2085.000000	13.486800
2084.000000	13.478800
2083.000000	13.457300
2082.000000	13.442400
2081.000000	13.409800
2080.000000	13.388800
2079.000000	13.377900
2078.000000	13.360800
2077.000000	13.333700
2076.000000	13.300900
2075.000000	13.274200
2074.000000	13.244400
2073.000000	13.207800
2072.000000	13.172300
2071.000000	13.141600
2070.000000	13.108600
2069.000000	13.085300
2068.000000	13.053000
2067.000000	13.006900
2066.000000	12.976300
2065.000000	12.949700
2064.000000	12.921100
2063.000000	12.901300
2062.000000	12.868300
2061.000000	12.866800
2060.000000	12.860500
2059.000000	12.865700
2058.000000	12.857000
2057.000000	12.856900
2056.000000	12.888900
2055.000000	12.913100
2054.000000	12.946000
2053.000000	13.004100
2052.000000	13.062900
2051.000000	13.137500
2050.000000	13.237200
2049.000000	13.333800
2048.000000	13.446400
2047.000000	13.551100
2046.000000	13.651800
2045.000000	13.776400
2044.000000	13.911000
2043.000000	14.057700
2042.000000	14.202600
2041.000000	14.325300
2040.000000	14.471400
2039.000000	14.610000
2038.000000	14.713400
2037.000000	14.827800
2036.000000	14.944600
2035.000000	15.067300
2034.000000	15.188400
2033.000000	15.288900
2032.000000	15.387900
2031.000000	15.496900
2030.000000	15.587800
2029.000000	15.673100
2028.000000	15.764700
2027.000000	15.827400
2026.000000	15.915000
2025.000000	15.986900
2024.000000	16.061800
2023.000000	16.134600
2022.000000	16.199400
2021.000000	16.267300
2020.000000	16.319400
2019.000000	16.373400
2018.000000	16.425900
2017.000000	16.488200
2016.000000	16.550300
2015.000000	16.587500
2014.000000	16.631100
2013.000000	16.681800
2012.000000	16.706700
2011.000000	16.729100
2010.000000	16.769800
2009.000000	16.790700
2008.000000	16.795700
2007.000000	16.822400
2006.000000	16.828400
2005.000000	16.825000
2004.000000	16.847100
2003.000000	16.821200
2002.000000	16.807100
2001.000000	16.795300
2000.000000	16.801900
1999.000000	16.749200
1998.000000	16.745900
1997.000000	16.691400
1996.000000	16.692900
1995.000000	16.650400
1994.000000	16.631800
1993.000000	16.576800
1992.000000	16.537800
1991.000000	16.456300
1990.000000	16.422000
1989.000000	16.388700
1988.000000	16.329900
1987.000000	16.276200
1986.000000	16.211600
1985.000000	16.147300
1984.000000	16.108400
1983.000000	16.037100
1982.000000	15.962500
1981.000000	15.914800
1980.000000	15.854100
1979.000000	15.793600
1978.000000	15.735000
1977.000000	15.661100
1976.000000	15.585700
1975.000000	15.527600
1974.000000	15.470600
1973.000000	15.415900
1972.000000	15.376600
1971.000000	15.300900
1970.000000	15.245800
1969.000000	15.181900
1968.000000	15.119300
1967.000000	15.068700
1966.000000	14.996600
1965.000000	14.954900
1964.000000	14.912300
1963.000000	14.849000
1962.000000	14.779500
1961.000000	14.717600
1960.000000	14.647000
1959.000000	14.593200
1958.000000	14.555700
1957.000000	14.479400
1956.000000	14.425000
1955.000000	14.369700
1954.000000	14.304800
1953.000000	14.243100
1952.000000	14.192200
1951.000000	14.151600
1950.000000	14.092400
1949.000000	14.036600
1948.000000	13.991500
1947.000000	13.931600
1946.000000	13.932900
1945.000000	13.895700
1944.000000	13.819900
1943.000000	13.826700
1942.000000	13.811500
1941.000000	13.789900
1940.000000	13.785200
1939.000000	13.765900
1938.000000	13.774600
1937.000000	13.783000
1936.000000	13.780800
1935.000000	13.808300
1934.000000	13.853200
1933.000000	13.876600
1932.000000	13.910600
1931.000000	13.987100
1930.000000	14.055700
1929.000000	14.105600
1928.000000	14.193900
1927.000000	14.265300
1926.000000	14.356300
1925.000000	14.458500
1924.000000	14.563800
1923.000000	14.685400
1922.000000	14.818700
1921.000000	14.960500
1920.000000	15.079600
1919.000000	15.221100
1918.000000	15.379600
1917.000000	15.537500
1916.000000	15.735300
1915.000000	15.898500
1914.000000	16.108900
1913.000000	16.312500
1912.000000	16.469200
1911.000000	16.667300
1910.000000	16.899600
1909.000000	17.093200
1908.000000	17.316500
1907.000000	17.575200
1906.000000	17.826900
1905.000000	18.082900
1904.000000	18.325800
1903.000000	18.561400
1902.000000	18.828000
1901.000000	19.098000
1900.000000	19.356000
1899.000000	19.622700
1898.000000	19.891900
1897.000000	20.198000
1896.000000	20.468800
1895.000000	20.750700
1894.000000	21.018500
1893.000000	21.303800
1892.000000	21.614400
1891.000000	21.911000
1890.000000	22.200400
1889.000000	22.463400
1888.000000	22.774400
1887.000000	23.110800
1886.000000	23.474600
1885.000000	23.855600
1884.000000	24.295100
1883.000000	24.735700
1882.000000	25.158900
1881.000000	25.641400
1880.000000	26.098300
1879.000000	26.523300
1878.000000	26.938100
1877.000000	27.341900
1876.000000	27.690100
1875.000000	28.039900
1874.000000	28.350500
1873.000000	28.630900
1872.000000	28.879300
1871.000000	29.093300
1870.000000	29.263000
1869.000000	29.433800
1868.000000	29.554300
1867.000000	29.659200
1866.000000	29.760500
1865.000000	29.854600
1864.000000	29.952500
1863.000000	30.048700
1862.000000	30.123200
1861.000000	30.187400
1860.000000	30.228200
1859.000000	30.219300
1858.000000	30.203700
1857.000000	30.216100
1856.000000	30.227200
1855.000000	30.206800
1854.000000	30.152200
1853.000000	30.081600
1852.000000	30.055500
1851.000000	30.067600
1850.000000	30.077700
1849.000000	30.039000
1848.000000	29.943500
1847.000000	29.801000
1846.000000	29.690600
1845.000000	29.660900
1844.000000	29.666900
1843.000000	29.688300
1842.000000	29.662600
1841.000000	29.597600
1840.000000	29.531200
1839.000000	29.483700
1838.000000	29.439500
1837.000000	29.361500
1836.000000	29.280400
1835.000000	29.192500
1834.000000	29.111400
1833.000000	29.058000
1832.000000	28.998700
1831.000000	28.930200
1830.000000	28.853300
1829.000000	28.769400
1828.000000	28.669000
1827.000000	28.589000
1826.000000	28.523200
1825.000000	28.467700
1824.000000	28.438100
1823.000000	28.450400
1822.000000	28.460200
1821.000000	28.418300
1820.000000	28.339900
1819.000000	28.293000
1818.000000	28.279200
1817.000000	28.278900
1816.000000	28.282900
1815.000000	28.269900
1814.000000	28.274700
1813.000000	28.274800
1812.000000	28.232700
1811.000000	28.176100
1810.000000	28.141900
1809.000000	28.127500
1808.000000	28.108300
1807.000000	28.052500
1806.000000	27.996400
1805.000000	27.941300
1804.000000	27.888800
1803.000000	27.865900
1802.000000	27.832300
1801.000000	27.768000
1800.000000	27.710200
1799.000000	27.653500
1798.000000	27.608000
1797.000000	27.579800
1796.000000	27.525500
1795.000000	27.474100
1794.000000	27.431400
1793.000000	27.353400
1792.000000	27.294800
1791.000000	27.245500
1790.000000	27.195700
1789.000000	27.144700
1788.000000	27.081800
1787.000000	27.016300
1786.000000	26.936700
1785.000000	26.842500
1784.000000	26.771100
1783.000000	26.687900
1782.000000	26.608800
1781.000000	26.533200
1780.000000	26.445500
1779.000000	26.347400
1778.000000	26.238900
1777.000000	26.145700
1776.000000	26.026900
1775.000000	25.893500
1774.000000	25.739400
1773.000000	25.607800
1772.000000	25.470300
1771.000000	25.321400
1770.000000	25.186900
1769.000000	25.058900
1768.000000	24.928000
1767.000000	24.813700
1766.000000	24.734700
1765.000000	24.666800
1764.000000	24.601900
1763.000000	24.573100
1762.000000	24.600000
1761.000000	24.627500
1760.000000	24.684900
1759.000000	24.752300
1758.000000	24.788800
1757.000000	24.847600
1756.000000	24.897400
1755.000000	24.928600
1754.000000	24.922900
1753.000000	24.891100
1752.000000	24.858500
1751.000000	24.827800
1750.000000	24.762800
1749.000000	24.679400
1748.000000	24.619000
1747.000000	24.509500
1746.000000	24.349900
1745.000000	24.213300
1744.000000	24.053200
1743.000000	23.852300
1742.000000	23.644000
1741.000000	23.404200
1740.000000	23.157900
1739.000000	22.927500
1738.000000	22.725600
1737.000000	22.558800
1736.000000	22.413400
1735.000000	22.326800
1734.000000	22.287300
1733.000000	22.288300
1732.000000	22.333300
1731.000000	22.409200
1730.000000	22.528300
1729.000000	22.616300
1728.000000	22.720900
1727.000000	22.830200
1726.000000	22.895800
1725.000000	22.966500
1724.000000	23.018300
1723.000000	23.050800
1722.000000	23.072800
1721.000000	23.100600
1720.000000	23.123500
1719.000000	23.168800
1718.000000	23.223600
1717.000000	23.290600
1716.000000	23.363500
1715.000000	23.437100
1714.000000	23.537100
1713.000000	23.609400
1712.000000	23.656800
1711.000000	23.703500
1710.000000	23.727400
1709.000000	23.729200
1708.000000	23.714000
1707.000000	23.703300
1706.000000	23.675400
1705.000000	23.628500
1704.000000	23.549400
1703.000000	23.463100
1702.000000	23.365700
1701.000000	23.226300
1700.000000	23.029000
1699.000000	22.896400
1698.000000	22.753600
1697.000000	22.644700
1696.000000	22.613000
1695.000000	22.593500
1694.000000	22.645400
1693.000000	22.782600
1692.000000	22.921900
1691.000000	23.085300
1690.000000	23.235200
1689.000000	23.305900
1688.000000	23.358100
1687.000000	23.390400
1686.000000	23.419700
1685.000000	23.466800
1684.000000	23.584200
1683.000000	23.837200
1682.000000	24.190600
1681.000000	24.698300
1680.000000	25.223100
1679.000000	25.801300
1678.000000	26.341800
1677.000000	26.839600
1676.000000	27.305200
1675.000000	27.709000
1674.000000	28.061800
1673.000000	28.373700
1672.000000	28.621400
1671.000000	28.873600
1670.000000	29.079700
1669.000000	29.259900
1668.000000	29.436900
1667.000000	29.574800
1666.000000	29.682900
1665.000000	29.815500
1664.000000	29.901000
1663.000000	29.994100
1662.000000	30.090600
1661.000000	30.141900
1660.000000	30.185300
1659.000000	30.233300
1658.000000	30.290700
1657.000000	30.327300
1656.000000	30.304000
1655.000000	30.331900
1654.000000	30.329600
1653.000000	30.329400
1652.000000	30.294300
1651.000000	30.272100
1650.000000	30.250600
1649.000000	30.219500
1648.000000	30.181400
1647.000000	30.150900
1646.000000	30.088700
1645.000000	30.027600
1644.000000	29.970600
1643.000000	29.924000
1642.000000	29.874200
1641.000000	29.813600
1640.000000	29.752000
1639.000000	29.694500
1638.000000	29.632400
1637.000000	29.571700
1636.000000	29.494900
1635.000000	29.417900
1634.000000	29.344800
1633.000000	29.268200
1632.000000	29.195800
1631.000000	29.117200
1630.000000	29.052300
1629.000000	28.971800
1628.000000	28.876500
1627.000000	28.794700
1626.000000	28.728500
1625.000000	28.646100
1624.000000	28.557000
1623.000000	28.476700
1622.000000	28.393100
1621.000000	28.310400
1620.000000	28.231200
1619.000000	28.158700
1618.000000	28.087800
1617.000000	28.014100
1616.000000	27.938100
1615.000000	27.863700
1614.000000	27.786900
1613.000000	27.712100
1612.000000	27.650300
1611.000000	27.578900
1610.000000	27.513000
1609.000000	27.445500
1608.000000	27.379700
1607.000000	27.320400
1606.000000	27.242600
1605.000000	27.156300
1604.000000	27.085100
1603.000000	27.005600
1602.000000	26.944600
1601.000000	26.880000
1600.000000	26.800200
1599.000000	26.738100
1598.000000	26.676100
1597.000000	26.611100
1596.000000	26.549000
1595.000000	26.490700
1594.000000	26.443900
1593.000000	26.394900
1592.000000	26.341700
1591.000000	26.293600
1590.000000	26.248500
1589.000000	26.197800
1588.000000	26.161900
1587.000000	26.124200
1586.000000	26.096700
1585.000000	26.066400
1584.000000	26.039500
1583.000000	26.002300
1582.000000	25.978700
1581.000000	25.972300
1580.000000	25.966500
1579.000000	25.947700
1578.000000	25.923300
1577.000000	25.926100
1576.000000	25.943900
1575.000000	25.946900
1574.000000	25.948100
1573.000000	25.966200
1572.000000	25.976300
1571.000000	25.990500
1570.000000	26.022700
1569.000000	26.049800
1568.000000	26.078200
1567.000000	26.109600
1566.000000	26.145500
1565.000000	26.174900
1564.000000	26.206500
1563.000000	26.234300
1562.000000	26.249900
1561.000000	26.279100
1560.000000	26.297200
1559.000000	26.300900
1558.000000	26.316000
1557.000000	26.328400
1556.000000	26.317000
1555.000000	26.330200
1554.000000	26.331400
1553.000000	26.309800
1552.000000	26.297700
1551.000000	26.291200
1550.000000	26.275200
1549.000000	26.247400
1548.000000	26.227000
1547.000000	26.210900
1546.000000	26.199900
1545.000000	26.184600
1544.000000	26.157900
1543.000000	26.157500
1542.000000	26.161400
1541.000000	26.164300
1540.000000	26.166500
1539.000000	26.153000
1538.000000	26.142300
1537.000000	26.147100
1536.000000	26.158700
1535.000000	26.157500
1534.000000	26.155700
1533.000000	26.146200
1532.000000	26.121500
1531.000000	26.116900
1530.000000	26.105900
1529.000000	26.076400
1528.000000	26.050400
1527.000000	26.037500
1526.000000	26.031900
1525.000000	26.004000
1524.000000	25.969200
1523.000000	25.948300
1522.000000	25.939100
1521.000000	25.924200
1520.000000	25.891500
1519.000000	25.862100
1518.000000	25.838700
1517.000000	25.812200
1516.000000	25.773200
1515.000000	25.745700
1514.000000	25.720400
1513.000000	25.711200
1512.000000	25.671700
1511.000000	25.630600
1510.000000	25.619600
1509.000000	25.580000
1508.000000	25.538900
1507.000000	25.543100
1506.000000	25.518800
1505.000000	25.475700
1504.000000	25.437700
1503.000000	25.416700
1502.000000	25.404600
1501.000000	25.358800
1500.000000	25.336300
1499.000000	25.341000
1498.000000	25.341100
1497.000000	25.335200
1496.000000	25.326300
1495.000000	25.310100
1494.000000	25.313300
1493.000000	25.319400
1492.000000	25.322900
1491.000000	25.333400
1490.000000	25.354200
1489.000000	25.361400
1488.000000	25.366000
1487.000000	25.357600
1486.000000	25.379200
1485.000000	25.389000
1484.000000	25.401400
1483.000000	25.422500
1482.000000	25.451300
1481.000000	25.476900
1480.000000	25.488400
1479.000000	25.522200
1478.000000	25.576000
1477.000000	25.599100
1476.000000	25.606300
1475.000000	25.644900
1474.000000	25.702700
1473.000000	25.761100
1472.000000	25.808800
1471.000000	25.846100
1470.000000	25.885800
1469.000000	25.914200
1468.000000	25.938100
1467.000000	26.021100
1466.000000	26.046100
1465.000000	26.100800
1464.000000	26.149200
1463.000000	26.224300
1462.000000	26.297500
1461.000000	26.361700
1460.000000	26.437100
1459.000000	26.492000
1458.000000	26.585900
1457.000000	26.672600
1456.000000	26.763200
1455.000000	26.841000
1454.000000	26.944000
1453.000000	27.054100
1452.000000	27.171100
1451.000000	27.283300
1450.000000	27.351800
1449.000000	27.444400
1448.000000	27.571000
1447.000000	27.693500
1446.000000	27.828400
1445.000000	27.935700
1444.000000	28.029100
1443.000000	28.155500
1442.000000	28.283000
1441.000000	28.386500
1440.000000	28.529200
1439.000000	28.640900
1438.000000	28.781500
1437.000000	28.865600
1436.000000	28.984000
1435.000000	29.101400
1434.000000	29.256700
1433.000000	29.380300
1432.000000	29.505200
1431.000000	29.655900
1430.000000	29.774900
1429.000000	29.944600
1428.000000	30.116200
1427.000000	30.279900
1426.000000	30.470100
1425.000000	30.713600
1424.000000	30.903400
1423.000000	31.102500
1422.000000	31.271700
1421.000000	31.513200
1420.000000	31.733800
1419.000000	31.941700
1418.000000	32.112800
1417.000000	32.273000
1416.000000	32.529500
1415.000000	32.721200
1414.000000	32.936100
1413.000000	33.069000
1412.000000	33.237700
1411.000000	33.497600
1410.000000	33.770400
1409.000000	34.048000
1408.000000	34.306700
1407.000000	34.605400
1406.000000	34.893300
1405.000000	35.216500
1404.000000	35.439800
1403.000000	35.735900
1402.000000	36.032800
1401.000000	36.337700
1400.000000	36.481700
1399.000000	36.565800
1398.000000	36.676900
1397.000000	36.823900
1396.000000	36.948800
1395.000000	36.923800
1394.000000	36.890500
1393.000000	36.889700
1392.000000	36.897800
1391.000000	36.887200
1390.000000	36.921700
1389.000000	37.035500
1388.000000	37.138800
1387.000000	37.246400
1386.000000	37.464600
1385.000000	37.741400
1384.000000	38.084100
1383.000000	38.432000
1382.000000	38.779300
1381.000000	39.097800
1380.000000	39.395200
1379.000000	39.754100
1378.000000	40.135400
1377.000000	40.609600
1376.000000	41.095200
1375.000000	41.639300
1374.000000	42.244300
1373.000000	42.866000
1372.000000	43.487200
1371.000000	44.016400
1370.000000	44.465600
1369.000000	44.856500
1368.000000	45.203900
1367.000000	45.491900
1366.000000	45.767400
1365.000000	46.013700
1364.000000	46.208200
1363.000000	46.406800
1362.000000	46.581800
1361.000000	46.680500
1360.000000	46.736100
1359.000000	46.817300
1358.000000	46.944600
1357.000000	47.126900
1356.000000	47.410200
1355.000000	47.801300
1354.000000	48.229600
1353.000000	48.681600
1352.000000	49.237600
1351.000000	49.728000
1350.000000	50.212600
1349.000000	50.656800
1348.000000	51.065100
1347.000000	51.405700
1346.000000	51.738600
1345.000000	52.089700
1344.000000	52.427100
1343.000000	52.718300
1342.000000	53.005400
1341.000000	53.295000
1340.000000	53.561300
1339.000000	53.812700
1338.000000	54.057200
1337.000000	54.297500
1336.000000	54.521100
1335.000000	54.726800
1334.000000	54.932900
1333.000000	55.131200
1332.000000	55.312000
1331.000000	55.471800
1330.000000	55.633200
1329.000000	55.799000
1328.000000	55.938300
1327.000000	56.061500
1326.000000	56.192700
1325.000000	56.305600
1324.000000	56.427800
1323.000000	56.530900
1322.000000	56.630400
1321.000000	56.727000
1320.000000	56.811900
1319.000000	56.899600
1318.000000	56.987500
1317.000000	57.051900
1316.000000	57.127200
1315.000000	57.194700
1314.000000	57.252800
1313.000000	57.324200
1312.000000	57.388800
1311.000000	57.435300
1310.000000	57.476200
1309.000000	57.525600
1308.000000	57.569300
1307.000000	57.595800
1306.000000	57.628300
1305.000000	57.641200
1304.000000	57.648800
1303.000000	57.664400
1302.000000	57.670000
1301.000000	57.661800
1300.000000	57.660500
1299.000000	57.654200
1298.000000	57.642700
1297.000000	57.622800
1296.000000	57.607100
1295.000000	57.586400
1294.000000	57.558600
1293.000000	57.539700
1292.000000	57.522100
1291.000000	57.487400
1290.000000	57.444000
1289.000000	57.406600
1288.000000	57.359000
1287.000000	57.307500
1286.000000	57.252700
1285.000000	57.172000
1284.000000	57.104100
1283.000000	57.048300
1282.000000	56.990200
1281.000000	56.921600
1280.000000	56.848000
1279.000000	56.787800
1278.000000	56.740500
1277.000000	56.695600
1276.000000	56.648000
1275.000000	56.604700
1274.000000	56.553200
1273.000000	56.507800
1272.000000	56.481400
1271.000000	56.451300
1270.000000	56.407800
1269.000000	56.380600
1268.000000	56.337600
1267.000000	56.303200
1266.000000	56.258500
1265.000000	56.210600
1264.000000	56.174000
1263.000000	56.133000
1262.000000	56.086100
1261.000000	56.045600
1260.000000	55.982400
1259.000000	55.919600
1258.000000	55.865900
1257.000000	55.822700
1256.000000	55.761400
1255.000000	55.700800
1254.000000	55.632000
1253.000000	55.541200
1252.000000	55.468700
1251.000000	55.394800
1250.000000	55.294200
1249.000000	55.210500
1248.000000	55.109500
1247.000000	54.991600
1246.000000	54.885000
1245.000000	54.774700
1244.000000	54.669500
1243.000000	54.563800
1242.000000	54.439900
1241.000000	54.331700
1240.000000	54.214100
1239.000000	54.104600
1238.000000	53.979600
1237.000000	53.839800
1236.000000	53.716200
1235.000000	53.590300
1234.000000	53.445900
1233.000000	53.299500
1232.000000	53.155400
1231.000000	53.001000
1230.000000	52.843800
1229.000000	52.699100
1228.000000	52.543700
1227.000000	52.374800
1226.000000	52.220500
1225.000000	52.064900
1224.000000	51.906300
1223.000000	51.747500
1222.000000	51.590500
1221.000000	51.451500
1220.000000	51.306800
1219.000000	51.161800
1218.000000	51.033200
1217.000000	50.896300
1216.000000	50.757500
1215.000000	50.647100
1214.000000	50.525200
1213.000000	50.422500
1212.000000	50.312200
1211.000000	50.190600
1210.000000	50.092700
1209.000000	49.992900
1208.000000	49.910600
1207.000000	49.825400
1206.000000	49.749400
1205.000000	49.699400
1204.000000	49.657700
1203.000000	49.633200
1202.000000	49.578000
1201.000000	49.531000
1200.000000	49.482500
1199.000000	49.409800
1198.000000	49.281200
1197.000000	49.135500
1196.000000	48.947300
1195.000000	48.701000
1194.000000	48.423900
1193.000000	48.058900
1192.000000	47.656500
1191.000000	47.229700
1190.000000	46.850100
1189.000000	46.544500
1188.000000	46.292300
1187.000000	46.145200
1186.000000	46.134500
1185.000000	46.244000
1184.000000	46.461400
1183.000000	46.770800
1182.000000	47.184900
1181.000000	47.649300
1180.000000	48.119900
1179.000000	48.556700
1178.000000	48.923900
1177.000000	49.286000
1176.000000	49.564400
1175.000000	49.831300
1174.000000	50.117400
1173.000000	50.388100
1172.000000	50.702300
1171.000000	51.011400
1170.000000	51.313000
1169.000000	51.632000
1168.000000	51.942200
1167.000000	52.254800
1166.000000	52.572400
1165.000000	52.907300
1164.000000	53.231200
1163.000000	53.560600
1162.000000	53.903800
1161.000000	54.221200
1160.000000	54.500100
1159.000000	54.824400
1158.000000	55.096800
1157.000000	55.325900
1156.000000	55.538700
1155.000000	55.704800
1154.000000	55.817600
1153.000000	55.899800
1152.000000	55.920500
1151.000000	55.927500
1150.000000	55.919500
1149.000000	55.926500
1148.000000	55.945100
1147.000000	55.974600
1146.000000	56.086000
1145.000000	56.242800
1144.000000	56.450200
1143.000000	56.680900
1142.000000	56.968000
1141.000000	57.244400
1140.000000	57.510000
1139.000000	57.820300
1138.000000	58.120800
1137.000000	58.454000
1136.000000	58.787500
1135.000000	59.085400
1134.000000	59.347300
1133.000000	59.577300
1132.000000	59.838700
1131.000000	60.073500
1130.000000	60.292200
1129.000000	60.453000
1128.000000	60.583600
1127.000000	60.684900
1126.000000	60.755300
1125.000000	60.822200
1124.000000	60.906800
1123.000000	60.960000
1122.000000	60.993700
1121.000000	61.010900
1120.000000	61.025600
1119.000000	61.036100
1118.000000	61.053500
1117.000000	61.048800
1116.000000	61.027900
1115.000000	61.004700
1114.000000	60.997200
1113.000000	60.991400
1112.000000	60.976200
1111.000000	60.943900
1110.000000	60.928400
1109.000000	60.905800
1108.000000	60.896800
1107.000000	60.890200
1106.000000	60.861100
1105.000000	60.838700
1104.000000	60.808500
1103.000000	60.786900
1102.000000	60.758800
1101.000000	60.751600
1100.000000	60.725200
1099.000000	60.685500
1098.000000	60.653900
1097.000000	60.619500
1096.000000	60.576800
1095.000000	60.546100
1094.000000	60.500400
1093.000000	60.456200
1092.000000	60.403200
1091.000000	60.354400
1090.000000	60.292700
1089.000000	60.254200
1088.000000	60.199600
1087.000000	60.145700
1086.000000	60.085100
1085.000000	60.024100
1084.000000	59.979500
1083.000000	59.911700
1082.000000	59.861300
1081.000000	59.811400
1080.000000	59.763100
1079.000000	59.686900
1078.000000	59.641700
1077.000000	59.577600
1076.000000	59.505200
1075.000000	59.448200
1074.000000	59.390800
1073.000000	59.334000
1072.000000	59.274000
1071.000000	59.211500
1070.000000	59.153600
1069.000000	59.083200
1068.000000	59.028300
1067.000000	58.976300
1066.000000	58.910200
1065.000000	58.853000
1064.000000	58.792900
1063.000000	58.725900
1062.000000	58.661300
1061.000000	58.584300
1060.000000	58.526900
1059.000000	58.451700
1058.000000	58.391500
1057.000000	58.339800
1056.000000	58.280600
1055.000000	58.230700
1054.000000	58.165300
1053.000000	58.108100
1052.000000	58.057100
1051.000000	58.023900
1050.000000	57.994400
1049.000000	57.938400
1048.000000	57.896700
1047.000000	57.862900
1046.000000	57.833500
1045.000000	57.800200
1044.000000	57.762600
1043.000000	57.739800
1042.000000	57.713400
1041.000000	57.676100
1040.000000	57.641300
1039.000000	57.624900
1038.000000	57.589100
1037.000000	57.558500
1036.000000	57.533800
1035.000000	57.496200
1034.000000	57.457800
1033.000000	57.416600
1032.000000	57.372200
1031.000000	57.322800
1030.000000	57.286300
1029.000000	57.249700
1028.000000	57.195900
1027.000000	57.140700
1026.000000	57.092200
1025.000000	57.042800
1024.000000	56.992200
1023.000000	56.940200
1022.000000	56.891100
1021.000000	56.837100
1020.000000	56.772800
1019.000000	56.725200
1018.000000	56.687000
1017.000000	56.646100
1016.000000	56.609700
1015.000000	56.564500
1014.000000	56.521500
1013.000000	56.514700
1012.000000	56.511200
1011.000000	56.485900
1010.000000	56.470900
1009.000000	56.477700
1008.000000	56.474900
1007.000000	56.480200
1006.000000	56.493000
1005.000000	56.492800
1004.000000	56.513000
1003.000000	56.519800
1002.000000	56.524500
1001.000000	56.531400
1000.000000	56.537900
999.000000	56.553600
998.000000	56.570700
997.000000	56.578500
996.000000	56.602600
995.000000	56.617800
994.000000	56.641500
993.000000	56.668800
992.000000	56.694300
991.000000	56.717900
990.000000	56.749700
989.000000	56.777000
988.000000	56.800000
987.000000	56.859700
986.000000	56.890800
985.000000	56.907100
984.000000	56.953200
983.000000	56.994300
982.000000	57.037400
981.000000	57.076200
980.000000	57.126300
979.000000	57.167200
978.000000	57.221800
977.000000	57.256000
976.000000	57.283500
975.000000	57.327500
974.000000	57.358600
973.000000	57.397400
972.000000	57.424500
971.000000	57.454500
970.000000	57.512100
969.000000	57.535300
968.000000	57.586000
967.000000	57.621700
966.000000	57.662400
965.000000	57.715900
964.000000	57.750900
963.000000	57.795100
962.000000	57.873200
961.000000	57.920200
960.000000	57.964100
959.000000	58.003300
958.000000	58.050600
957.000000	58.103200
956.000000	58.133800
955.000000	58.138800
954.000000	58.170900
953.000000	58.191000
952.000000	58.178000
951.000000	58.200700
950.000000	58.195500
949.000000	58.205500
948.000000	58.235700
947.000000	58.215100
946.000000	58.216200
945.000000	58.265400
944.000000	58.251400
943.000000	58.249100
942.000000	58.282800
941.000000	58.291600
940.000000	58.310900
939.000000	58.345900
938.000000	58.388700
937.000000	58.405300
936.000000	58.426400
935.000000	58.450200
934.000000	58.458100
933.000000	58.507100
932.000000	58.517400
931.000000	58.538600
930.000000	58.569800
929.000000	58.595900
928.000000	58.637500
927.000000	58.691100
926.000000	58.739700
925.000000	58.799800
924.000000	58.864300
923.000000	58.907800
922.000000	59.002300
921.000000	59.040300
920.000000	59.086100
919.000000	59.143700
918.000000	59.190500
917.000000	59.239900
916.000000	59.280300
915.000000	59.303800
914.000000	59.358900
913.000000	59.403600
912.000000	59.444600
911.000000	59.520200
910.000000	59.554500
909.000000	59.608700
908.000000	59.650900
907.000000	59.710100
906.000000	59.830700
905.000000	59.864800
904.000000	59.907200
903.000000	59.977200
902.000000	60.023000
901.000000	60.090500
900.000000	60.155500
899.000000	60.190000
898.000000	60.249100
897.000000	60.283400
896.000000	60.352300
895.000000	60.381100
894.000000	60.429400
893.000000	60.461500
892.000000	60.508600
891.000000	60.534600
890.000000	60.579600
889.000000	60.612200
888.000000	60.638600
887.000000	60.681100
886.000000	60.693500
885.000000	60.729800
884.000000	60.751800
883.000000	60.803200
882.000000	60.843000
881.000000	60.884000
880.000000	60.925000
879.000000	60.968800
878.000000	61.000500
877.000000	61.060000
876.000000	61.122600
875.000000	61.176000
874.000000	61.233500
873.000000	61.287200
872.000000	61.338800
871.000000	61.398300
870.000000	61.458700
869.000000	61.528900
868.000000	61.596200
867.000000	61.658300
866.000000	61.685300
865.000000	61.721500
864.000000	61.736900
863.000000	61.753300
862.000000	61.714900
861.000000	61.657500
860.000000	61.624900
859.000000	61.673200
858.000000	60.818195
857.000000	60.405495
856.000000	60.210343
855.000000	60.669019
854.000000	60.509188
853.000000	60.694276
852.000000	60.610414
851.000000	60.728611
850.000000	60.866835
849.000000	60.974771
848.000000	61.003876
847.000000	60.914489
846.000000	60.861803
845.000000	60.926821
844.000000	60.932642
843.000000	61.089810
842.000000	61.050839
841.000000	60.967272
840.000000	61.172685
839.000000	61.328669
838.000000	61.301241
837.000000	61.350769
836.000000	61.309233
835.000000	61.342876
834.000000	61.498070
833.000000	61.704174
832.000000	61.623962
831.000000	61.809544
830.000000	61.880087
829.000000	62.123780
828.000000	62.228164
827.000000	62.235366
826.000000	62.491491
825.000000	62.666911
824.000000	62.791816
823.000000	63.026038
822.000000	63.226222
821.000000	63.511353
820.000000	63.780797
819.000000	63.998740
818.000000	64.249932
817.000000	64.572357
816.000000	64.923394
815.000000	65.128511
814.000000	65.274431
813.000000	65.509442
812.000000	65.881790
811.000000	66.074476
810.000000	66.388712
809.000000	66.634774
808.000000	66.857847
807.000000	66.986600
806.000000	67.171984
805.000000	67.268969
804.000000	67.464121
803.000000	67.631746
802.000000	67.762275
801.000000	68.005771
800.000000	68.095257
799.000000	68.305504
798.000000	68.424194
797.000000	68.571495
796.000000	68.591721
795.000000	68.756880
794.000000	68.693835
793.000000	68.705181
792.000000	68.777698
791.000000	68.815287
790.000000	68.952821
789.000000	68.987846
788.000000	69.075457
787.000000	69.182998
786.000000	69.132977
785.000000	69.182604
784.000000	69.234598
783.000000	69.298235
782.000000	69.488651
781.000000	69.510357
780.000000	69.570145
779.000000	69.649864
778.000000	69.699885
777.000000	69.651640
776.000000	69.707580
775.000000	69.811767
774.000000	69.832683
773.000000	69.863465
772.000000	69.936672
771.000000	70.010767
770.000000	69.979688
769.000000	70.108047
768.000000	70.124030
767.000000	70.074995
766.000000	70.136560
765.000000	70.200591
764.000000	70.270049
763.000000	70.253671
762.000000	70.336448
761.000000	70.383904
760.000000	70.298956
759.000000	70.277547
758.000000	70.365060
757.000000	70.379661
756.000000	70.236603
755.000000	70.234235
754.000000	70.244397
753.000000	70.203946
752.000000	70.210753
751.000000	70.181549
750.000000	70.121563
749.000000	70.086736
748.000000	70.060788
747.000000	69.984424
746.000000	69.934798
745.000000	69.892472
744.000000	69.801506
743.000000	69.682619
742.000000	69.659138
741.000000	69.624113
740.000000	69.521999
739.000000	69.398277
738.000000	69.240419
737.000000	69.115317
736.000000	68.979657
735.000000	68.892737
734.000000	68.832751
733.000000	68.706661
732.000000	68.537063
731.000000	68.356808
730.000000	68.166885
729.000000	67.999950
728.000000	67.843375
727.000000	67.693706
726.000000	67.519470
725.000000	67.273408
724.000000	67.028827
723.000000	66.833872
722.000000	66.576662
721.000000	66.293899
720.000000	66.009063
719.000000	65.737745
718.000000	65.472247
717.000000	65.172514
716.000000	64.900209
715.000000	64.607875
714.000000	64.325408
713.000000	64.030805
712.000000	63.767182
711.000000	63.517569
710.000000	63.226321
709.000000	62.930929
708.000000	62.621132
707.000000	62.369743
706.000000	62.090828
705.000000	61.802736
704.000000	61.597817
703.000000	61.391023
702.000000	61.176434
701.000000	60.944580
700.000000	60.716377
699.000000	60.568977
698.000000	60.442295
697.000000	60.327552
696.000000	60.236192
695.000000	60.105959
694.000000	59.966452
693.000000	59.878545
692.000000	59.802773
691.000000	59.736472
690.000000	59.710130
689.000000	59.632187
688.000000	59.561349
687.000000	59.493765
686.000000	59.371623
685.000000	59.337091
684.000000	59.283617
683.000000	59.229353
682.000000	59.163546
681.000000	59.073172
680.000000	58.992171
679.000000	58.892622
678.000000	58.760909
677.000000	58.630972
676.000000	58.475877
675.000000	58.271154
674.000000	58.139935
673.000000	57.931167
672.000000	57.696945
671.000000	57.479989
670.000000	57.263033
669.000000	56.976816
668.000000	56.725625
667.000000	56.447992
666.000000	56.151712
665.000000	55.879703
664.000000	55.485353
663.000000	55.156022
662.000000	54.778543
661.000000	54.434511
660.000000	54.063545
659.000000	53.660217
658.000000	53.236467
657.000000	52.855042
656.000000	52.420636
655.000000	51.934631
654.000000	51.506243
653.000000	51.001591
652.000000	50.544887
651.000000	50.054047
650.000000	49.619444
649.000000	49.200035
648.000000	48.775002
647.000000	48.374437
646.000000	48.037212
645.000000	47.739946
644.000000	47.487669
643.000000	47.335928
642.000000	47.228683
641.000000	47.167710
640.000000	47.208655
639.000000	47.319057
638.000000	47.526147
637.000000	47.761553
636.000000	48.072139
635.000000	48.491449
634.000000	48.916285
633.000000	49.490000
632.000000	50.092427
631.000000	50.753852
630.000000	51.436292
629.000000	52.198846
628.000000	52.965938
627.000000	53.730760
626.000000	54.557443
625.000000	55.362421
624.000000	56.209823
623.000000	57.084259
622.000000	57.934325
621.000000	58.750550
620.000000	59.560559
619.000000	60.273683
618.000000	61.065638
617.000000	61.772053
616.000000	62.438510
615.000000	63.074086
614.000000	63.723278
613.000000	64.314456
612.000000	64.854233
611.000000	65.398744
610.000000	65.920762
609.000000	66.383286
608.000000	66.827163
607.000000	67.283570
606.000000	67.672987
605.000000	68.038724
604.000000	68.431890
603.000000	68.724124
602.000000	69.092526
601.000000	69.404098
600.000000	69.682915
599.000000	69.908652
598.000000	70.193882
597.000000	70.432939
596.000000	70.618816
595.000000	70.818902
594.000000	70.947359
593.000000	71.152870
592.000000	71.268403
591.000000	71.347233
590.000000	71.476479
589.000000	71.521272
588.000000	71.561920
587.000000	71.611645
586.000000	71.604048
585.000000	71.611349
584.000000	71.655944
583.000000	71.655747
582.000000	71.545148
581.000000	71.513379
580.000000	71.473026
579.000000	71.407811
578.000000	71.343780
577.000000	71.231701
576.000000	71.142511
575.000000	71.050460
574.000000	70.933349
573.000000	70.821566
572.000000	70.719550
571.000000	70.550247
570.000000	70.435504
569.000000	70.265214
568.000000	70.057434
567.000000	69.913881
566.000000	69.725044
565.000000	69.500194
564.000000	69.263407
563.000000	69.024055
562.000000	68.755400
561.000000	68.448169
560.000000	68.143305
559.000000	67.736623
558.000000	67.440541
557.000000	67.076480
556.000000	66.773985
555.000000	66.377366
554.000000	66.005906
553.000000	65.609485
552.000000	65.213360
551.000000	64.771850
550.000000	64.336359
549.000000	63.829339
548.000000	63.336427
547.000000	62.806813
546.000000	62.272463
545.000000	61.666683
544.000000	61.034757
543.000000	60.398884
542.000000	59.688424
541.000000	58.965237
540.000000	58.223106
539.000000	57.447431
538.000000	56.642157
537.000000	55.832345
536.000000	54.987804
535.000000	54.101924
534.000000	53.171449
533.000000	52.249262
532.000000	51.322635
531.000000	50.315105
530.000000	49.310042
529.000000	48.304782
528.000000	47.267654
527.000000	46.206256
526.000000	45.117133
525.000000	44.064318
524.000000	42.985950
523.000000	41.908766
522.000000	40.846972
521.000000	39.787843
520.000000	38.758608
519.000000	37.745751
518.000000	36.762098
517.000000	35.839220
516.000000	34.944361
515.000000	34.119750
514.000000	33.330953
513.000000	32.601056
512.000000	31.925423
511.000000	31.302772
510.000000	30.748789
509.000000	30.274129
508.000000	29.848011
507.000000	29.482174
506.000000	29.169714
505.000000	28.896126
504.000000	28.678578
503.000000	28.531869
502.000000	28.389303
501.000000	28.282058
500.000000	28.208851
499.000000	28.155673
498.000000	28.132685
497.000000	28.085426
496.000000	28.047244
495.000000	28.046455
494.000000	28.057604
493.000000	28.045764
492.000000	27.993276
491.000000	27.930133
490.000000	27.847356
489.000000	27.744058
488.000000	27.607807
487.000000	27.441957
486.000000	27.253119
485.000000	27.032512
484.000000	26.779249
483.000000	26.500235
482.000000	26.191918
481.000000	25.848478
480.000000	25.494974
479.000000	25.103190
478.000000	24.709630
477.000000	24.316761
476.000000	23.911460
475.000000	23.515532
474.000000	23.118223
473.000000	22.726834
472.000000	22.354979
471.000000	22.000390
470.000000	21.685562
469.000000	21.412073
468.000000	21.170747
467.000000	20.956159
466.000000	20.782613
465.000000	20.626630
464.000000	20.541781
463.000000	20.494424
462.000000	20.472225
461.000000	20.486235
460.000000	20.531718
459.000000	20.595946
458.000000	20.679315
457.000000	20.799485
456.000000	20.935538
455.000000	21.081952
454.000000	21.226392
453.000000	21.354060
452.000000	21.484490
451.000000	21.608705
450.000000	21.701742
449.000000	21.790735
448.000000	21.881109
447.000000	21.968227
446.000000	22.016867
445.000000	22.043111
444.000000	22.070538
443.000000	22.096388
442.000000	22.072610
441.000000	22.030087
440.000000	21.981349
439.000000	21.925704
438.000000	21.846676
437.000000	21.726112
436.000000	21.601798
435.000000	21.470480
434.000000	21.334624
433.000000	21.161572
432.000000	20.982896
431.000000	20.807377
430.000000	20.607490
429.000000	20.380569
428.000000	20.157791
427.000000	19.933929
426.000000	19.670700
425.000000	19.403920
424.000000	19.128458
423.000000	18.839972
422.000000	18.529485
421.000000	18.208539
420.000000	17.889271
419.000000	17.553231
418.000000	17.212257
417.000000	16.846323
416.000000	16.477823
415.000000	16.129647
414.000000	15.763811
413.000000	15.371237
412.000000	14.973928
411.000000	14.560636
410.000000	14.161649
409.000000	13.778350
408.000000	13.387552
407.000000	13.011949
406.000000	12.616810
405.000000	12.228578
404.000000	11.856427
403.000000	11.477371
402.000000	11.110054
401.000000	10.774705
400.000000	10.424161
399.000000	10.088515
398.000000	9.769938
397.000000	9.459845
396.000000	9.165440
395.000000	8.883170
394.000000	8.622506
393.000000	8.374077
392.000000	8.133048
391.000000	7.906324
390.000000	7.702194
389.000000	7.528747
388.000000	7.351847
387.000000	7.195469
386.000000	7.036328
385.000000	6.893072
384.000000	6.749421
383.000000	6.630337
382.000000	6.528519
381.000000	6.421274
380.000000	6.335340
379.000000	6.255128
378.000000	6.178961
377.000000	6.116410
376.000000	6.061554
375.000000	5.994070
374.000000	5.977100
373.000000	5.886332
372.000000	5.882681
371.000000	5.833745
370.000000	5.810461
369.000000	5.775831
368.000000	5.723935
367.000000	5.735577
366.000000	5.674605
365.000000	5.695126
364.000000	5.699862
363.000000	5.639876
362.000000	5.566176
361.000000	5.564992
360.000000	5.572096
359.000000	5.538649
358.000000	5.525626
357.000000	5.498988
356.000000	5.444428
355.000000	5.394999
354.000000	5.385428
353.000000	5.354251
352.000000	5.383948
351.000000	5.317451
350.000000	5.293081
349.000000	5.337775
348.000000	5.289530
347.000000	5.273053
346.000000	5.290220
345.000000	5.260030
344.000000	5.201622
343.000000	5.265654
342.000000	5.264174
341.000000	5.222243
340.000000	5.246217
339.000000	5.167091
338.000000	5.208923
337.000000	5.215830
336.000000	5.144892
335.000000	5.198761
334.000000	5.145188
333.000000	5.201228
332.000000	5.177450
331.000000	5.184357
330.000000	5.119931
329.000000	5.174786
328.000000	5.137591
327.000000	5.133053
326.000000	5.178141
325.000000	5.041594
324.000000	5.267331
323.000000	5.191460
322.000000	5.217606
321.000000	5.077210
320.000000	5.280255
319.000000	5.215534
318.000000	5.006372
317.000000	5.276112
316.000000	5.181002
315.000000	5.165315
314.000000	5.173701
313.000000	5.151601
312.000000	5.159198
311.000000	5.154265
310.000000	5.188402
309.000000	5.201622
308.000000	5.165019
307.000000	5.182778
306.000000	5.212179
305.000000	5.176562
304.000000	5.195012
303.000000	5.252532
302.000000	5.256774
301.000000	5.222933
300.000000	5.219381
299.000000	5.201820
298.000000	5.243652
297.000000	5.213758
296.000000	5.239212
295.000000	5.261608
294.000000	5.269107
293.000000	5.243849
292.000000	5.237535
291.000000	5.297028
290.000000	5.296535
289.000000	5.274434
288.000000	5.299198
287.000000	5.270685
286.000000	5.325837
285.000000	5.293180
284.000000	5.315576
283.000000	5.371517
282.000000	5.347641
281.000000	5.370136
280.000000	5.360171
279.000000	5.340932
278.000000	5.336098
277.000000	5.367077
276.000000	5.373490
275.000000	5.389079
274.000000	5.379114
273.000000	5.403681
272.000000	5.404766
271.000000	5.404371
270.000000	5.402004
269.000000	5.359382
268.000000	5.400721
267.000000	5.397070
266.000000	5.431405
265.000000	5.419072
264.000000	5.436042
263.000000	5.476690
262.000000	5.514576
261.000000	5.515957
260.000000	5.522074
259.000000	5.571010
258.000000	5.556803
257.000000	5.547430
256.000000	5.561539
255.000000	5.600214
254.000000	5.591927
253.000000	5.593702
252.000000	5.657931
251.000000	5.633364
250.000000	5.647078
