PE UV       SUBTECH     SPECTRUM    ASCII       PEDS        4.00        
   -1
CICIMAUCR0013-2.Sample.ASC
24/04/04
13:54:25.00
24/04/04
13:54:25.00
Vinicio Soto Monge
C. resplendens
250,000000
1
Lambda 1050
1050L1511233
PerkinElmer UV WinLab 6.3.2.0749 / 2.02.05 Lambda 900 UV/VIS/NIR, Aug  7 2015 09:38:08

0
0
3350/servo 860,8/2
0
0
UV/VIS
1
1
1
DoubleDePol,CommonBeamDepol,RBeamAtt,SBeamAtt,60mm sphere, WB InGaAs Detector
0
0
0
0
Program
Program
3350/servo 860,8/2
3350/0,2 860,8/0,2
3350/0,2 860,8/0,2
0
15.00
 
 
 
0
 
860,8
319,2
860,8
Front
100
on
S:100 R:100
0
0
0
0
 
0
 
 
 
0
 
 
0
0
0
0
0
 
 
 
 
0
0


0
0
#HDR
-1
-1
#GR
nm
%R
1.0
0.0
2500,000000
-1,000000
2251
8
70,639000
5,101100
#DATA
2500.000000	6.625300
2499.000000	6.514200
2498.000000	6.604500
2497.000000	6.554900
2496.000000	6.492800
2495.000000	6.401300
2494.000000	6.470700
2493.000000	6.446900
2492.000000	6.398500
2491.000000	6.431800
2490.000000	6.367300
2489.000000	6.433700
2488.000000	6.422600
2487.000000	6.419100
2486.000000	6.431100
2485.000000	6.370200
2484.000000	6.440900
2483.000000	6.434300
2482.000000	6.429600
2481.000000	6.476000
2480.000000	6.415800
2479.000000	6.420400
2478.000000	6.398800
2477.000000	6.427300
2476.000000	6.429200
2475.000000	6.448100
2474.000000	6.451500
2473.000000	6.449000
2472.000000	6.473900
2471.000000	6.468300
2470.000000	6.453100
2469.000000	6.467100
2468.000000	6.504200
2467.000000	6.490300
2466.000000	6.502100
2465.000000	6.528700
2464.000000	6.554200
2463.000000	6.595400
2462.000000	6.629000
2461.000000	6.656200
2460.000000	6.689800
2459.000000	6.722200
2458.000000	6.760800
2457.000000	6.810500
2456.000000	6.870900
2455.000000	6.924400
2454.000000	6.959000
2453.000000	7.004400
2452.000000	7.053800
2451.000000	7.108800
2450.000000	7.180100
2449.000000	7.248400
2448.000000	7.321700
2447.000000	7.364800
2446.000000	7.426900
2445.000000	7.473900
2444.000000	7.553000
2443.000000	7.620500
2442.000000	7.674900
2441.000000	7.731800
2440.000000	7.783800
2439.000000	7.850900
2438.000000	7.909500
2437.000000	7.954300
2436.000000	8.026700
2435.000000	8.091300
2434.000000	8.112800
2433.000000	8.161500
2432.000000	8.217900
2431.000000	8.266900
2430.000000	8.312100
2429.000000	8.336200
2428.000000	8.366200
2427.000000	8.417400
2426.000000	8.453500
2425.000000	8.479900
2424.000000	8.508900
2423.000000	8.548000
2422.000000	8.579600
2421.000000	8.609000
2420.000000	8.638700
2419.000000	8.712400
2418.000000	8.751500
2417.000000	8.769400
2416.000000	8.805100
2415.000000	8.825100
2414.000000	8.859300
2413.000000	8.875900
2412.000000	8.896600
2411.000000	8.940300
2410.000000	8.964600
2409.000000	8.977700
2408.000000	9.010900
2407.000000	9.040600
2406.000000	9.062800
2405.000000	9.092100
2404.000000	9.138600
2403.000000	9.154500
2402.000000	9.175400
2401.000000	9.194400
2400.000000	9.229400
2399.000000	9.269700
2398.000000	9.276200
2397.000000	9.296100
2396.000000	9.333300
2395.000000	9.374200
2394.000000	9.387500
2393.000000	9.399600
2392.000000	9.425100
2391.000000	9.438100
2390.000000	9.457500
2389.000000	9.489100
2388.000000	9.497100
2387.000000	9.504500
2386.000000	9.520500
2385.000000	9.521800
2384.000000	9.513500
2383.000000	9.531500
2382.000000	9.525500
2381.000000	9.512900
2380.000000	9.506000
2379.000000	9.509400
2378.000000	9.497900
2377.000000	9.470500
2376.000000	9.452400
2375.000000	9.432900
2374.000000	9.417700
2373.000000	9.399600
2372.000000	9.384900
2371.000000	9.357700
2370.000000	9.322800
2369.000000	9.278600
2368.000000	9.241700
2367.000000	9.210100
2366.000000	9.148700
2365.000000	9.086900
2364.000000	9.041000
2363.000000	8.991100
2362.000000	8.938600
2361.000000	8.877700
2360.000000	8.830500
2359.000000	8.780900
2358.000000	8.709500
2357.000000	8.673800
2356.000000	8.649000
2355.000000	8.619700
2354.000000	8.585300
2353.000000	8.558400
2352.000000	8.554200
2351.000000	8.557700
2350.000000	8.570300
2349.000000	8.592100
2348.000000	8.613200
2347.000000	8.646400
2346.000000	8.696500
2345.000000	8.726700
2344.000000	8.768400
2343.000000	8.802700
2342.000000	8.817300
2341.000000	8.856000
2340.000000	8.881100
2339.000000	8.868400
2338.000000	8.876900
2337.000000	8.885300
2336.000000	8.876000
2335.000000	8.863000
2334.000000	8.830300
2333.000000	8.806900
2332.000000	8.774100
2331.000000	8.743300
2330.000000	8.686300
2329.000000	8.615900
2328.000000	8.548000
2327.000000	8.501000
2326.000000	8.449300
2325.000000	8.376100
2324.000000	8.296000
2323.000000	8.208300
2322.000000	8.127300
2321.000000	8.032400
2320.000000	7.943600
2319.000000	7.837100
2318.000000	7.741900
2317.000000	7.650800
2316.000000	7.548500
2315.000000	7.435900
2314.000000	7.347700
2313.000000	7.259600
2312.000000	7.171600
2311.000000	7.094900
2310.000000	7.023200
2309.000000	6.974700
2308.000000	6.940800
2307.000000	6.912700
2306.000000	6.902900
2305.000000	6.902300
2304.000000	6.914500
2303.000000	6.945200
2302.000000	6.977700
2301.000000	7.021700
2300.000000	7.089100
2299.000000	7.133500
2298.000000	7.186500
2297.000000	7.237900
2296.000000	7.294100
2295.000000	7.332000
2294.000000	7.379600
2293.000000	7.404900
2292.000000	7.412000
2291.000000	7.411500
2290.000000	7.421800
2289.000000	7.402900
2288.000000	7.389600
2287.000000	7.364200
2286.000000	7.317800
2285.000000	7.278900
2284.000000	7.232700
2283.000000	7.167700
2282.000000	7.095300
2281.000000	7.057500
2280.000000	6.998000
2279.000000	6.924300
2278.000000	6.877600
2277.000000	6.832200
2276.000000	6.777600
2275.000000	6.745900
2274.000000	6.681500
2273.000000	6.645600
2272.000000	6.609100
2271.000000	6.605300
2270.000000	6.613900
2269.000000	6.622800
2268.000000	6.601600
2267.000000	6.630700
2266.000000	6.666200
2265.000000	6.739700
2264.000000	6.801600
2263.000000	6.862500
2262.000000	6.967300
2261.000000	7.067300
2260.000000	7.162400
2259.000000	7.274000
2258.000000	7.395300
2257.000000	7.545800
2256.000000	7.661600
2255.000000	7.801700
2254.000000	7.920800
2253.000000	8.064800
2252.000000	8.171800
2251.000000	8.272800
2250.000000	8.389600
2249.000000	8.517800
2248.000000	8.595300
2247.000000	8.687600
2246.000000	8.768400
2245.000000	8.834600
2244.000000	8.928700
2243.000000	8.969500
2242.000000	9.031600
2241.000000	9.076800
2240.000000	9.124100
2239.000000	9.191800
2238.000000	9.245200
2237.000000	9.276300
2236.000000	9.301500
2235.000000	9.327700
2234.000000	9.361400
2233.000000	9.374600
2232.000000	9.384100
2231.000000	9.388400
2230.000000	9.373100
2229.000000	9.370200
2228.000000	9.336800
2227.000000	9.322300
2226.000000	9.294600
2225.000000	9.279400
2224.000000	9.198200
2223.000000	9.160400
2222.000000	9.101500
2221.000000	9.038700
2220.000000	8.995300
2219.000000	8.908700
2218.000000	8.862000
2217.000000	8.818200
2216.000000	8.778400
2215.000000	8.727800
2214.000000	8.697700
2213.000000	8.661800
2212.000000	8.633900
2211.000000	8.626800
2210.000000	8.648300
2209.000000	8.654700
2208.000000	8.696000
2207.000000	8.743000
2206.000000	8.791100
2205.000000	8.873000
2204.000000	8.969200
2203.000000	9.080600
2202.000000	9.205100
2201.000000	9.330600
2200.000000	9.461800
2199.000000	9.588800
2198.000000	9.734500
2197.000000	9.876700
2196.000000	10.042600
2195.000000	10.173800
2194.000000	10.308600
2193.000000	10.416200
2192.000000	10.556900
2191.000000	10.651800
2190.000000	10.758300
2189.000000	10.854700
2188.000000	10.922500
2187.000000	11.002700
2186.000000	11.059600
2185.000000	11.136400
2184.000000	11.187000
2183.000000	11.229300
2182.000000	11.263000
2181.000000	11.319100
2180.000000	11.342300
2179.000000	11.376900
2178.000000	11.415300
2177.000000	11.444600
2176.000000	11.465600
2175.000000	11.509700
2174.000000	11.541400
2173.000000	11.577400
2172.000000	11.602700
2171.000000	11.605400
2170.000000	11.654400
2169.000000	11.697000
2168.000000	11.712900
2167.000000	11.746600
2166.000000	11.786500
2165.000000	11.816100
2164.000000	11.831700
2163.000000	11.875800
2162.000000	11.906800
2161.000000	11.957800
2160.000000	11.996600
2159.000000	12.039500
2158.000000	12.099700
2157.000000	12.126600
2156.000000	12.157800
2155.000000	12.216300
2154.000000	12.253700
2153.000000	12.305300
2152.000000	12.351300
2151.000000	12.401100
2150.000000	12.432100
2149.000000	12.492200
2148.000000	12.536800
2147.000000	12.577900
2146.000000	12.626300
2145.000000	12.673300
2144.000000	12.720900
2143.000000	12.760900
2142.000000	12.789800
2141.000000	12.829400
2140.000000	12.861800
2139.000000	12.889200
2138.000000	12.935900
2137.000000	12.967400
2136.000000	12.977900
2135.000000	12.999200
2134.000000	13.045600
2133.000000	13.058600
2132.000000	13.070900
2131.000000	13.099400
2130.000000	13.123400
2129.000000	13.125200
2128.000000	13.141800
2127.000000	13.151600
2126.000000	13.150000
2125.000000	13.165400
2124.000000	13.172800
2123.000000	13.170100
2122.000000	13.145200
2121.000000	13.125800
2120.000000	13.119300
2119.000000	13.117100
2118.000000	13.106300
2117.000000	13.088500
2116.000000	13.065200
2115.000000	13.047800
2114.000000	13.033400
2113.000000	13.017600
2112.000000	13.017700
2111.000000	12.996500
2110.000000	12.973400
2109.000000	12.957100
2108.000000	12.939400
2107.000000	12.923600
2106.000000	12.899500
2105.000000	12.882000
2104.000000	12.877600
2103.000000	12.860100
2102.000000	12.834500
2101.000000	12.811300
2100.000000	12.795300
2099.000000	12.773700
2098.000000	12.753200
2097.000000	12.745700
2096.000000	12.734600
2095.000000	12.717000
2094.000000	12.704200
2093.000000	12.694200
2092.000000	12.676400
2091.000000	12.668300
2090.000000	12.662500
2089.000000	12.643600
2088.000000	12.640300
2087.000000	12.635400
2086.000000	12.616900
2085.000000	12.612700
2084.000000	12.589600
2083.000000	12.577600
2082.000000	12.568400
2081.000000	12.544700
2080.000000	12.539800
2079.000000	12.523700
2078.000000	12.502200
2077.000000	12.486200
2076.000000	12.487100
2075.000000	12.461200
2074.000000	12.446800
2073.000000	12.440800
2072.000000	12.416300
2071.000000	12.392900
2070.000000	12.381400
2069.000000	12.359300
2068.000000	12.342500
2067.000000	12.323500
2066.000000	12.307900
2065.000000	12.294600
2064.000000	12.289400
2063.000000	12.279800
2062.000000	12.287300
2061.000000	12.273100
2060.000000	12.253400
2059.000000	12.249800
2058.000000	12.280700
2057.000000	12.302500
2056.000000	12.326400
2055.000000	12.347500
2054.000000	12.391300
2053.000000	12.443000
2052.000000	12.492700
2051.000000	12.560600
2050.000000	12.626300
2049.000000	12.690900
2048.000000	12.780200
2047.000000	12.872700
2046.000000	12.962200
2045.000000	13.049100
2044.000000	13.169200
2043.000000	13.288200
2042.000000	13.407400
2041.000000	13.523400
2040.000000	13.622600
2039.000000	13.734200
2038.000000	13.867200
2037.000000	13.956200
2036.000000	14.048100
2035.000000	14.149000
2034.000000	14.234200
2033.000000	14.339700
2032.000000	14.437700
2031.000000	14.504400
2030.000000	14.595800
2029.000000	14.673800
2028.000000	14.759200
2027.000000	14.828300
2026.000000	14.900700
2025.000000	14.973700
2024.000000	15.044500
2023.000000	15.092800
2022.000000	15.157400
2021.000000	15.240700
2020.000000	15.311000
2019.000000	15.355000
2018.000000	15.398600
2017.000000	15.453400
2016.000000	15.525400
2015.000000	15.570400
2014.000000	15.608900
2013.000000	15.660400
2012.000000	15.698000
2011.000000	15.718700
2010.000000	15.750500
2009.000000	15.788100
2008.000000	15.798500
2007.000000	15.810000
2006.000000	15.829400
2005.000000	15.857300
2004.000000	15.861700
2003.000000	15.864600
2002.000000	15.843000
2001.000000	15.865700
2000.000000	15.868100
1999.000000	15.845700
1998.000000	15.831200
1997.000000	15.800900
1996.000000	15.801100
1995.000000	15.781100
1994.000000	15.760100
1993.000000	15.731600
1992.000000	15.699800
1991.000000	15.671200
1990.000000	15.642100
1989.000000	15.606400
1988.000000	15.566900
1987.000000	15.503900
1986.000000	15.454100
1985.000000	15.419200
1984.000000	15.368400
1983.000000	15.346300
1982.000000	15.284000
1981.000000	15.236500
1980.000000	15.191800
1979.000000	15.155700
1978.000000	15.086500
1977.000000	15.017800
1976.000000	14.991000
1975.000000	14.931800
1974.000000	14.886200
1973.000000	14.841400
1972.000000	14.800500
1971.000000	14.747500
1970.000000	14.707600
1969.000000	14.677600
1968.000000	14.596400
1967.000000	14.570200
1966.000000	14.551400
1965.000000	14.497700
1964.000000	14.475100
1963.000000	14.420400
1962.000000	14.371600
1961.000000	14.333600
1960.000000	14.291700
1959.000000	14.248200
1958.000000	14.204100
1957.000000	14.182900
1956.000000	14.122400
1955.000000	14.082200
1954.000000	14.034600
1953.000000	13.980100
1952.000000	13.957000
1951.000000	13.928100
1950.000000	13.892100
1949.000000	13.857300
1948.000000	13.815800
1947.000000	13.804200
1946.000000	13.775100
1945.000000	13.753600
1944.000000	13.771200
1943.000000	13.744900
1942.000000	13.749200
1941.000000	13.737000
1940.000000	13.764300
1939.000000	13.775100
1938.000000	13.788900
1937.000000	13.806800
1936.000000	13.855800
1935.000000	13.858300
1934.000000	13.913200
1933.000000	13.972100
1932.000000	14.013700
1931.000000	14.084500
1930.000000	14.137900
1929.000000	14.221700
1928.000000	14.308300
1927.000000	14.411400
1926.000000	14.495200
1925.000000	14.600100
1924.000000	14.692200
1923.000000	14.794700
1922.000000	14.920900
1921.000000	15.081200
1920.000000	15.211500
1919.000000	15.329900
1918.000000	15.487000
1917.000000	15.620700
1916.000000	15.762300
1915.000000	15.930300
1914.000000	16.102700
1913.000000	16.274000
1912.000000	16.475300
1911.000000	16.636200
1910.000000	16.815100
1909.000000	16.961400
1908.000000	17.133600
1907.000000	17.345000
1906.000000	17.571800
1905.000000	17.780600
1904.000000	17.977600
1903.000000	18.169700
1902.000000	18.383800
1901.000000	18.571700
1900.000000	18.791000
1899.000000	18.999900
1898.000000	19.216100
1897.000000	19.433500
1896.000000	19.621200
1895.000000	19.783700
1894.000000	19.979500
1893.000000	20.174600
1892.000000	20.381600
1891.000000	20.593600
1890.000000	20.792100
1889.000000	20.966700
1888.000000	21.188200
1887.000000	21.417200
1886.000000	21.644200
1885.000000	21.927900
1884.000000	22.249600
1883.000000	22.579800
1882.000000	22.942100
1881.000000	23.294800
1880.000000	23.647200
1879.000000	23.974500
1878.000000	24.326300
1877.000000	24.640900
1876.000000	24.926900
1875.000000	25.203100
1874.000000	25.445000
1873.000000	25.668000
1872.000000	25.863200
1871.000000	26.038900
1870.000000	26.167500
1869.000000	26.273200
1868.000000	26.363400
1867.000000	26.411600
1866.000000	26.426900
1865.000000	26.454900
1864.000000	26.475400
1863.000000	26.486800
1862.000000	26.495600
1861.000000	26.516400
1860.000000	26.502100
1859.000000	26.470300
1858.000000	26.438500
1857.000000	26.396300
1856.000000	26.334800
1855.000000	26.279500
1854.000000	26.214000
1853.000000	26.126300
1852.000000	26.039500
1851.000000	25.974700
1850.000000	25.914100
1849.000000	25.863000
1848.000000	25.795900
1847.000000	25.698500
1846.000000	25.598000
1845.000000	25.501300
1844.000000	25.428300
1843.000000	25.394000
1842.000000	25.385100
1841.000000	25.368400
1840.000000	25.309100
1839.000000	25.249900
1838.000000	25.205700
1837.000000	25.144400
1836.000000	25.076800
1835.000000	24.992800
1834.000000	24.894300
1833.000000	24.801900
1832.000000	24.728700
1831.000000	24.654200
1830.000000	24.564800
1829.000000	24.487400
1828.000000	24.399500
1827.000000	24.309400
1826.000000	24.255400
1825.000000	24.187100
1824.000000	24.126500
1823.000000	24.105900
1822.000000	24.094700
1821.000000	24.092000
1820.000000	24.073900
1819.000000	24.025700
1818.000000	23.996000
1817.000000	24.006700
1816.000000	24.010000
1815.000000	23.997600
1814.000000	23.986800
1813.000000	23.989800
1812.000000	23.986900
1811.000000	23.966700
1810.000000	23.922300
1809.000000	23.882200
1808.000000	23.851100
1807.000000	23.824800
1806.000000	23.788200
1805.000000	23.742800
1804.000000	23.701800
1803.000000	23.669700
1802.000000	23.643100
1801.000000	23.595700
1800.000000	23.540400
1799.000000	23.486900
1798.000000	23.447400
1797.000000	23.413800
1796.000000	23.379400
1795.000000	23.346500
1794.000000	23.305900
1793.000000	23.259600
1792.000000	23.209300
1791.000000	23.164900
1790.000000	23.108000
1789.000000	23.047400
1788.000000	22.998500
1787.000000	22.945700
1786.000000	22.864500
1785.000000	22.788200
1784.000000	22.710500
1783.000000	22.635800
1782.000000	22.553600
1781.000000	22.489300
1780.000000	22.409500
1779.000000	22.331100
1778.000000	22.256900
1777.000000	22.174300
1776.000000	22.074500
1775.000000	21.949400
1774.000000	21.824300
1773.000000	21.680800
1772.000000	21.562600
1771.000000	21.426100
1770.000000	21.308700
1769.000000	21.182300
1768.000000	21.074600
1767.000000	20.964300
1766.000000	20.871200
1765.000000	20.805800
1764.000000	20.761700
1763.000000	20.742600
1762.000000	20.756100
1761.000000	20.787900
1760.000000	20.834300
1759.000000	20.895600
1758.000000	20.949500
1757.000000	21.006000
1756.000000	21.040900
1755.000000	21.044800
1754.000000	21.041300
1753.000000	21.034600
1752.000000	21.029800
1751.000000	20.982200
1750.000000	20.936500
1749.000000	20.877500
1748.000000	20.775400
1747.000000	20.669000
1746.000000	20.558700
1745.000000	20.417400
1744.000000	20.255600
1743.000000	20.065900
1742.000000	19.888300
1741.000000	19.679200
1740.000000	19.427300
1739.000000	19.225900
1738.000000	19.024100
1737.000000	18.861600
1736.000000	18.745600
1735.000000	18.633500
1734.000000	18.613100
1733.000000	18.603900
1732.000000	18.627400
1731.000000	18.699000
1730.000000	18.777400
1729.000000	18.895300
1728.000000	18.986800
1727.000000	19.085300
1726.000000	19.155400
1725.000000	19.206100
1724.000000	19.275800
1723.000000	19.299200
1722.000000	19.296600
1721.000000	19.297300
1720.000000	19.292300
1719.000000	19.290000
1718.000000	19.328200
1717.000000	19.317900
1716.000000	19.349000
1715.000000	19.404300
1714.000000	19.436100
1713.000000	19.489400
1712.000000	19.531800
1711.000000	19.526500
1710.000000	19.541000
1709.000000	19.537900
1708.000000	19.552700
1707.000000	19.490900
1706.000000	19.474900
1705.000000	19.425900
1704.000000	19.367900
1703.000000	19.309400
1702.000000	19.198500
1701.000000	19.089400
1700.000000	18.962300
1699.000000	18.819000
1698.000000	18.681200
1697.000000	18.576600
1696.000000	18.515300
1695.000000	18.510600
1694.000000	18.530100
1693.000000	18.643500
1692.000000	18.794300
1691.000000	18.957200
1690.000000	19.072600
1689.000000	19.185300
1688.000000	19.249300
1687.000000	19.266500
1686.000000	19.253700
1685.000000	19.278900
1684.000000	19.345800
1683.000000	19.527800
1682.000000	19.798000
1681.000000	20.191200
1680.000000	20.690000
1679.000000	21.211300
1678.000000	21.741600
1677.000000	22.204100
1676.000000	22.645200
1675.000000	23.017900
1674.000000	23.350500
1673.000000	23.666600
1672.000000	23.886700
1671.000000	24.140300
1670.000000	24.313300
1669.000000	24.481500
1668.000000	24.627000
1667.000000	24.722500
1666.000000	24.834100
1665.000000	24.939600
1664.000000	25.018900
1663.000000	25.100000
1662.000000	25.175700
1661.000000	25.222200
1660.000000	25.262800
1659.000000	25.290100
1658.000000	25.322500
1657.000000	25.361000
1656.000000	25.375600
1655.000000	25.377800
1654.000000	25.371800
1653.000000	25.358300
1652.000000	25.357700
1651.000000	25.335400
1650.000000	25.322700
1649.000000	25.302900
1648.000000	25.271000
1647.000000	25.226600
1646.000000	25.176300
1645.000000	25.145300
1644.000000	25.093700
1643.000000	25.041100
1642.000000	24.982900
1641.000000	24.943500
1640.000000	24.888000
1639.000000	24.832900
1638.000000	24.774600
1637.000000	24.708300
1636.000000	24.642500
1635.000000	24.573600
1634.000000	24.506500
1633.000000	24.436100
1632.000000	24.370700
1631.000000	24.280300
1630.000000	24.216600
1629.000000	24.143500
1628.000000	24.065800
1627.000000	23.987300
1626.000000	23.905600
1625.000000	23.827100
1624.000000	23.745600
1623.000000	23.668900
1622.000000	23.588100
1621.000000	23.515600
1620.000000	23.447300
1619.000000	23.370200
1618.000000	23.281700
1617.000000	23.198600
1616.000000	23.136700
1615.000000	23.062500
1614.000000	22.986900
1613.000000	22.923000
1612.000000	22.845400
1611.000000	22.771400
1610.000000	22.695600
1609.000000	22.633700
1608.000000	22.561900
1607.000000	22.502500
1606.000000	22.436800
1605.000000	22.364100
1604.000000	22.296500
1603.000000	22.236200
1602.000000	22.160300
1601.000000	22.098800
1600.000000	22.061000
1599.000000	22.006700
1598.000000	21.954700
1597.000000	21.901500
1596.000000	21.836100
1595.000000	21.785100
1594.000000	21.738700
1593.000000	21.692000
1592.000000	21.653600
1591.000000	21.620300
1590.000000	21.574300
1589.000000	21.522800
1588.000000	21.494700
1587.000000	21.474000
1586.000000	21.446000
1585.000000	21.427900
1584.000000	21.388400
1583.000000	21.349600
1582.000000	21.326300
1581.000000	21.320700
1580.000000	21.320400
1579.000000	21.312600
1578.000000	21.311600
1577.000000	21.312400
1576.000000	21.315300
1575.000000	21.326400
1574.000000	21.346500
1573.000000	21.361800
1572.000000	21.379700
1571.000000	21.403300
1570.000000	21.419100
1569.000000	21.438300
1568.000000	21.473800
1567.000000	21.512800
1566.000000	21.543400
1565.000000	21.573700
1564.000000	21.605400
1563.000000	21.645600
1562.000000	21.676300
1561.000000	21.688500
1560.000000	21.718600
1559.000000	21.753200
1558.000000	21.772400
1557.000000	21.796100
1556.000000	21.820200
1555.000000	21.826200
1554.000000	21.826200
1553.000000	21.842400
1552.000000	21.855200
1551.000000	21.865500
1550.000000	21.870900
1549.000000	21.870500
1548.000000	21.877200
1547.000000	21.870700
1546.000000	21.861800
1545.000000	21.877400
1544.000000	21.902300
1543.000000	21.914300
1542.000000	21.916500
1541.000000	21.933400
1540.000000	21.948000
1539.000000	21.948300
1538.000000	21.954200
1537.000000	21.972900
1536.000000	21.976400
1535.000000	21.973500
1534.000000	21.978400
1533.000000	21.981800
1532.000000	21.985800
1531.000000	21.984400
1530.000000	21.978900
1529.000000	21.972300
1528.000000	21.980600
1527.000000	21.971900
1526.000000	21.963700
1525.000000	21.960600
1524.000000	21.944700
1523.000000	21.927100
1522.000000	21.920300
1521.000000	21.912100
1520.000000	21.886000
1519.000000	21.880700
1518.000000	21.877800
1517.000000	21.842500
1516.000000	21.826900
1515.000000	21.817300
1514.000000	21.808800
1513.000000	21.781500
1512.000000	21.752900
1511.000000	21.747300
1510.000000	21.724000
1509.000000	21.712700
1508.000000	21.698900
1507.000000	21.688000
1506.000000	21.651700
1505.000000	21.636300
1504.000000	21.624600
1503.000000	21.616000
1502.000000	21.605300
1501.000000	21.586300
1500.000000	21.566900
1499.000000	21.573200
1498.000000	21.554100
1497.000000	21.548900
1496.000000	21.557400
1495.000000	21.554600
1494.000000	21.551100
1493.000000	21.562600
1492.000000	21.590700
1491.000000	21.610500
1490.000000	21.599400
1489.000000	21.617900
1488.000000	21.635700
1487.000000	21.663700
1486.000000	21.661900
1485.000000	21.664700
1484.000000	21.686200
1483.000000	21.718900
1482.000000	21.749700
1481.000000	21.780400
1480.000000	21.805900
1479.000000	21.829000
1478.000000	21.892900
1477.000000	21.913600
1476.000000	21.949200
1475.000000	21.968300
1474.000000	22.014000
1473.000000	22.088500
1472.000000	22.121100
1471.000000	22.162900
1470.000000	22.207200
1469.000000	22.225900
1468.000000	22.280600
1467.000000	22.323800
1466.000000	22.371300
1465.000000	22.422100
1464.000000	22.476200
1463.000000	22.528500
1462.000000	22.596700
1461.000000	22.664900
1460.000000	22.751000
1459.000000	22.831300
1458.000000	22.927300
1457.000000	23.018500
1456.000000	23.112500
1455.000000	23.200600
1454.000000	23.310300
1453.000000	23.404200
1452.000000	23.516400
1451.000000	23.656000
1450.000000	23.748200
1449.000000	23.843300
1448.000000	23.927900
1447.000000	24.077200
1446.000000	24.219100
1445.000000	24.321600
1444.000000	24.449600
1443.000000	24.555800
1442.000000	24.710900
1441.000000	24.804200
1440.000000	24.927400
1439.000000	25.049800
1438.000000	25.180300
1437.000000	25.255600
1436.000000	25.363800
1435.000000	25.480700
1434.000000	25.582000
1433.000000	25.694600
1432.000000	25.848000
1431.000000	25.931100
1430.000000	26.016900
1429.000000	26.185400
1428.000000	26.355100
1427.000000	26.470700
1426.000000	26.641100
1425.000000	26.838200
1424.000000	27.030900
1423.000000	27.188400
1422.000000	27.342400
1421.000000	27.543800
1420.000000	27.750000
1419.000000	27.935300
1418.000000	28.065700
1417.000000	28.167400
1416.000000	28.331300
1415.000000	28.498100
1414.000000	28.640900
1413.000000	28.732100
1412.000000	28.837700
1411.000000	29.005900
1410.000000	29.169700
1409.000000	29.394800
1408.000000	29.623100
1407.000000	29.837900
1406.000000	30.134100
1405.000000	30.402500
1404.000000	30.625200
1403.000000	30.875300
1402.000000	31.124100
1401.000000	31.403800
1400.000000	31.629200
1399.000000	31.711100
1398.000000	31.765300
1397.000000	31.880000
1396.000000	31.967200
1395.000000	31.945900
1394.000000	31.853700
1393.000000	31.799500
1392.000000	31.759700
1391.000000	31.729300
1390.000000	31.701600
1389.000000	31.721300
1388.000000	31.820300
1387.000000	31.874000
1386.000000	32.023200
1385.000000	32.237800
1384.000000	32.524600
1383.000000	32.779300
1382.000000	33.086800
1381.000000	33.349200
1380.000000	33.537300
1379.000000	33.827600
1378.000000	34.090200
1377.000000	34.421600
1376.000000	34.815500
1375.000000	35.291100
1374.000000	35.842500
1373.000000	36.439200
1372.000000	37.052700
1371.000000	37.636800
1370.000000	38.143200
1369.000000	38.564600
1368.000000	38.968300
1367.000000	39.282700
1366.000000	39.555600
1365.000000	39.824900
1364.000000	40.058500
1363.000000	40.244100
1362.000000	40.442900
1361.000000	40.553000
1360.000000	40.628800
1359.000000	40.674700
1358.000000	40.782400
1357.000000	40.972800
1356.000000	41.278100
1355.000000	41.733300
1354.000000	42.311300
1353.000000	42.894600
1352.000000	43.516700
1351.000000	44.127300
1350.000000	44.710800
1349.000000	45.227300
1348.000000	45.693900
1347.000000	46.141500
1346.000000	46.517500
1345.000000	46.876300
1344.000000	47.273000
1343.000000	47.606700
1342.000000	47.923000
1341.000000	48.230900
1340.000000	48.530400
1339.000000	48.807200
1338.000000	49.071100
1337.000000	49.328800
1336.000000	49.554500
1335.000000	49.779800
1334.000000	49.989900
1333.000000	50.204300
1332.000000	50.403300
1331.000000	50.583900
1330.000000	50.748900
1329.000000	50.910100
1328.000000	51.056400
1327.000000	51.191100
1326.000000	51.329600
1325.000000	51.441800
1324.000000	51.553200
1323.000000	51.657100
1322.000000	51.767500
1321.000000	51.870100
1320.000000	51.957800
1319.000000	52.050400
1318.000000	52.127800
1317.000000	52.188900
1316.000000	52.267100
1315.000000	52.344800
1314.000000	52.418800
1313.000000	52.483500
1312.000000	52.531100
1311.000000	52.580700
1310.000000	52.627200
1309.000000	52.665100
1308.000000	52.697400
1307.000000	52.729000
1306.000000	52.747400
1305.000000	52.757800
1304.000000	52.772000
1303.000000	52.774400
1302.000000	52.770800
1301.000000	52.765300
1300.000000	52.746500
1299.000000	52.737200
1298.000000	52.721800
1297.000000	52.699400
1296.000000	52.671900
1295.000000	52.643600
1294.000000	52.622100
1293.000000	52.603600
1292.000000	52.573300
1291.000000	52.521300
1290.000000	52.466900
1289.000000	52.428100
1288.000000	52.369600
1287.000000	52.295700
1286.000000	52.227800
1285.000000	52.158600
1284.000000	52.086600
1283.000000	52.000600
1282.000000	51.916200
1281.000000	51.840300
1280.000000	51.765100
1279.000000	51.698800
1278.000000	51.640100
1277.000000	51.573500
1276.000000	51.487100
1275.000000	51.427700
1274.000000	51.380600
1273.000000	51.325400
1272.000000	51.271400
1271.000000	51.226500
1270.000000	51.180800
1269.000000	51.126300
1268.000000	51.073500
1267.000000	51.028500
1266.000000	50.968300
1265.000000	50.899700
1264.000000	50.840200
1263.000000	50.790100
1262.000000	50.732700
1261.000000	50.665200
1260.000000	50.606400
1259.000000	50.540700
1258.000000	50.475900
1257.000000	50.424500
1256.000000	50.340200
1255.000000	50.262400
1254.000000	50.171400
1253.000000	50.073400
1252.000000	49.987200
1251.000000	49.900900
1250.000000	49.806100
1249.000000	49.706100
1248.000000	49.576800
1247.000000	49.454200
1246.000000	49.345700
1245.000000	49.207500
1244.000000	49.054800
1243.000000	48.913100
1242.000000	48.757800
1241.000000	48.596600
1240.000000	48.450900
1239.000000	48.290400
1238.000000	48.125400
1237.000000	47.956300
1236.000000	47.800900
1235.000000	47.612700
1234.000000	47.433100
1233.000000	47.253100
1232.000000	47.069500
1231.000000	46.872400
1230.000000	46.672700
1229.000000	46.467700
1228.000000	46.268000
1227.000000	46.067000
1226.000000	45.876900
1225.000000	45.680800
1224.000000	45.493900
1223.000000	45.303100
1222.000000	45.102400
1221.000000	44.922600
1220.000000	44.761000
1219.000000	44.593000
1218.000000	44.425400
1217.000000	44.306100
1216.000000	44.153600
1215.000000	44.021900
1214.000000	43.906000
1213.000000	43.792100
1212.000000	43.677600
1211.000000	43.559800
1210.000000	43.481900
1209.000000	43.386000
1208.000000	43.306700
1207.000000	43.249200
1206.000000	43.193700
1205.000000	43.188200
1204.000000	43.161200
1203.000000	43.154900
1202.000000	43.133100
1201.000000	43.112300
1200.000000	43.065300
1199.000000	42.977700
1198.000000	42.883300
1197.000000	42.737200
1196.000000	42.533000
1195.000000	42.268000
1194.000000	41.928500
1193.000000	41.510700
1192.000000	41.030400
1191.000000	40.515400
1190.000000	40.026900
1189.000000	39.596500
1188.000000	39.261300
1187.000000	39.095300
1186.000000	39.014500
1185.000000	39.104000
1184.000000	39.326100
1183.000000	39.696500
1182.000000	40.184300
1181.000000	40.698500
1180.000000	41.267300
1179.000000	41.793800
1178.000000	42.273600
1177.000000	42.662800
1176.000000	43.025100
1175.000000	43.340800
1174.000000	43.670100
1173.000000	44.012100
1172.000000	44.360500
1171.000000	44.715200
1170.000000	45.111200
1169.000000	45.494900
1168.000000	45.875800
1167.000000	46.280200
1166.000000	46.658800
1165.000000	47.080800
1164.000000	47.494000
1163.000000	47.886600
1162.000000	48.283000
1161.000000	48.682300
1160.000000	49.073900
1159.000000	49.433300
1158.000000	49.804700
1157.000000	50.090500
1156.000000	50.368200
1155.000000	50.570300
1154.000000	50.704200
1153.000000	50.781800
1152.000000	50.787700
1151.000000	50.792300
1150.000000	50.749200
1149.000000	50.721200
1148.000000	50.687900
1147.000000	50.711700
1146.000000	50.820100
1145.000000	51.007000
1144.000000	51.273500
1143.000000	51.594000
1142.000000	51.940100
1141.000000	52.326100
1140.000000	52.679200
1139.000000	53.044400
1138.000000	53.441400
1137.000000	53.846800
1136.000000	54.271900
1135.000000	54.671200
1134.000000	55.035700
1133.000000	55.327500
1132.000000	55.614000
1131.000000	55.905200
1130.000000	56.170000
1129.000000	56.366800
1128.000000	56.528600
1127.000000	56.672500
1126.000000	56.796000
1125.000000	56.869500
1124.000000	56.943200
1123.000000	57.016300
1122.000000	57.101200
1121.000000	57.137900
1120.000000	57.166500
1119.000000	57.205700
1118.000000	57.240000
1117.000000	57.241400
1116.000000	57.232100
1115.000000	57.213400
1114.000000	57.216200
1113.000000	57.209900
1112.000000	57.194400
1111.000000	57.194800
1110.000000	57.178200
1109.000000	57.162900
1108.000000	57.171300
1107.000000	57.150700
1106.000000	57.147300
1105.000000	57.134400
1104.000000	57.115900
1103.000000	57.087100
1102.000000	57.080000
1101.000000	57.045500
1100.000000	57.028500
1099.000000	57.005800
1098.000000	56.993700
1097.000000	56.964700
1096.000000	56.938600
1095.000000	56.892000
1094.000000	56.841600
1093.000000	56.799500
1092.000000	56.766600
1091.000000	56.721100
1090.000000	56.674300
1089.000000	56.619200
1088.000000	56.572500
1087.000000	56.509600
1086.000000	56.456600
1085.000000	56.413200
1084.000000	56.362700
1083.000000	56.296700
1082.000000	56.232800
1081.000000	56.174700
1080.000000	56.112900
1079.000000	56.068500
1078.000000	56.017100
1077.000000	55.973900
1076.000000	55.917300
1075.000000	55.868400
1074.000000	55.816300
1073.000000	55.763000
1072.000000	55.697600
1071.000000	55.656300
1070.000000	55.610000
1069.000000	55.561800
1068.000000	55.522500
1067.000000	55.470300
1066.000000	55.417700
1065.000000	55.372300
1064.000000	55.314800
1063.000000	55.267500
1062.000000	55.211000
1061.000000	55.155700
1060.000000	55.112700
1059.000000	55.071800
1058.000000	55.012200
1057.000000	54.951200
1056.000000	54.910100
1055.000000	54.863300
1054.000000	54.810000
1053.000000	54.757000
1052.000000	54.711300
1051.000000	54.665500
1050.000000	54.633900
1049.000000	54.599000
1048.000000	54.559000
1047.000000	54.526500
1046.000000	54.502700
1045.000000	54.467500
1044.000000	54.431000
1043.000000	54.413100
1042.000000	54.388800
1041.000000	54.356100
1040.000000	54.317100
1039.000000	54.291500
1038.000000	54.263600
1037.000000	54.226900
1036.000000	54.193000
1035.000000	54.165400
1034.000000	54.126800
1033.000000	54.082000
1032.000000	54.044200
1031.000000	53.999600
1030.000000	53.948100
1029.000000	53.921000
1028.000000	53.886400
1027.000000	53.831200
1026.000000	53.798100
1025.000000	53.763800
1024.000000	53.709700
1023.000000	53.669300
1022.000000	53.643600
1021.000000	53.596000
1020.000000	53.542900
1019.000000	53.516100
1018.000000	53.500600
1017.000000	53.485900
1016.000000	53.473900
1015.000000	53.454600
1014.000000	53.462000
1013.000000	53.476700
1012.000000	53.489000
1011.000000	53.508600
1010.000000	53.537500
1009.000000	53.581200
1008.000000	53.633900
1007.000000	53.674500
1006.000000	53.711900
1005.000000	53.754500
1004.000000	53.799900
1003.000000	53.836700
1002.000000	53.879100
1001.000000	53.908000
1000.000000	53.934900
999.000000	53.984000
998.000000	54.037300
997.000000	54.075100
996.000000	54.122700
995.000000	54.163700
994.000000	54.212400
993.000000	54.268500
992.000000	54.323500
991.000000	54.359300
990.000000	54.409800
989.000000	54.491200
988.000000	54.548700
987.000000	54.609300
986.000000	54.684900
985.000000	54.739400
984.000000	54.809600
983.000000	54.899500
982.000000	54.958900
981.000000	55.031600
980.000000	55.123000
979.000000	55.190200
978.000000	55.280600
977.000000	55.333100
976.000000	55.415800
975.000000	55.490800
974.000000	55.550900
973.000000	55.607400
972.000000	55.666400
971.000000	55.726200
970.000000	55.762000
969.000000	55.806500
968.000000	55.871900
967.000000	55.899700
966.000000	55.936800
965.000000	55.974300
964.000000	56.020300
963.000000	56.065500
962.000000	56.115800
961.000000	56.156600
960.000000	56.221300
959.000000	56.280300
958.000000	56.319800
957.000000	56.392000
956.000000	56.440400
955.000000	56.494000
954.000000	56.537900
953.000000	56.573400
952.000000	56.632500
951.000000	56.666200
950.000000	56.694600
949.000000	56.704200
948.000000	56.734300
947.000000	56.773600
946.000000	56.820100
945.000000	56.832600
944.000000	56.895800
943.000000	56.900000
942.000000	56.933900
941.000000	56.968800
940.000000	57.039300
939.000000	57.105700
938.000000	57.164700
937.000000	57.226300
936.000000	57.280000
935.000000	57.354600
934.000000	57.410200
933.000000	57.476200
932.000000	57.547200
931.000000	57.591600
930.000000	57.632000
929.000000	57.677000
928.000000	57.707100
927.000000	57.754300
926.000000	57.784600
925.000000	57.823200
924.000000	57.859200
923.000000	57.888800
922.000000	57.922000
921.000000	57.954700
920.000000	58.015400
919.000000	58.067000
918.000000	58.101300
917.000000	58.146100
916.000000	58.195600
915.000000	58.263000
914.000000	58.307200
913.000000	58.353800
912.000000	58.396600
911.000000	58.469900
910.000000	58.554300
909.000000	58.591600
908.000000	58.679900
907.000000	58.735700
906.000000	58.849200
905.000000	58.922700
904.000000	59.064900
903.000000	59.133400
902.000000	59.234400
901.000000	59.367400
900.000000	59.449100
899.000000	59.565000
898.000000	59.669500
897.000000	59.784900
896.000000	59.866900
895.000000	59.970700
894.000000	60.060500
893.000000	60.155700
892.000000	60.249800
891.000000	60.339900
890.000000	60.436200
889.000000	60.516100
888.000000	60.590300
887.000000	60.672000
886.000000	60.747700
885.000000	60.818400
884.000000	60.887400
883.000000	60.959600
882.000000	61.026500
881.000000	61.079700
880.000000	61.152600
879.000000	61.238300
878.000000	61.325400
877.000000	61.386900
876.000000	61.462600
875.000000	61.553800
874.000000	61.639800
873.000000	61.723600
872.000000	61.815600
871.000000	61.893100
870.000000	61.996700
869.000000	62.090300
868.000000	62.186100
867.000000	62.308200
866.000000	62.390700
865.000000	62.478600
864.000000	62.574000
863.000000	62.672500
862.000000	62.702800
861.000000	62.734800
860.000000	62.750700
859.000000	62.789200
858.000000	61.410421
857.000000	61.529947
856.000000	61.619298
855.000000	62.140662
854.000000	62.387331
853.000000	62.555976
852.000000	62.612224
851.000000	62.747081
850.000000	62.863873
849.000000	63.256825
848.000000	63.625950
847.000000	63.444512
846.000000	63.701337
845.000000	63.771451
844.000000	64.027495
843.000000	64.133838
842.000000	64.410974
841.000000	64.708422
840.000000	64.732640
839.000000	65.189456
838.000000	65.196096
837.000000	65.421868
836.000000	65.624984
835.000000	65.799195
834.000000	65.982195
833.000000	66.115685
832.000000	66.350245
831.000000	66.509613
830.000000	66.833330
829.000000	67.022872
828.000000	67.185951
827.000000	67.317684
826.000000	67.525976
825.000000	67.760048
824.000000	67.783875
823.000000	68.019118
822.000000	68.165401
821.000000	68.334046
820.000000	68.448592
819.000000	68.515191
818.000000	68.688620
817.000000	68.813517
816.000000	68.811955
815.000000	68.775531
814.000000	68.845840
813.000000	68.856582
812.000000	68.980405
811.000000	68.973178
810.000000	68.917419
809.000000	68.850332
808.000000	68.635205
807.000000	68.663622
806.000000	68.532475
805.000000	68.447225
804.000000	68.320472
803.000000	68.364806
802.000000	68.323695
801.000000	68.089721
800.000000	68.050660
799.000000	68.079467
798.000000	67.899983
797.000000	67.793347
796.000000	67.821275
795.000000	67.738466
794.000000	67.839243
793.000000	67.824107
792.000000	67.846177
791.000000	67.932892
790.000000	67.905256
789.000000	67.948809
788.000000	67.977811
787.000000	67.993533
786.000000	68.002224
785.000000	68.076147
784.000000	68.073022
783.000000	68.074292
782.000000	68.203192
781.000000	68.223992
780.000000	68.176045
779.000000	68.189716
778.000000	68.167842
777.000000	68.007595
776.000000	67.926056
775.000000	67.838950
774.000000	67.703605
773.000000	67.590426
772.000000	67.495996
771.000000	67.330672
770.000000	67.109685
769.000000	66.991331
768.000000	66.827373
767.000000	66.698961
766.000000	66.610000
765.000000	66.489302
764.000000	66.311087
763.000000	66.206892
762.000000	66.139317
761.000000	66.049673
760.000000	66.019205
759.000000	65.919502
758.000000	65.772243
757.000000	65.655256
756.000000	65.603110
755.000000	65.613852
754.000000	65.543444
753.000000	65.466202
752.000000	65.374507
751.000000	65.208889
750.000000	65.008702
749.000000	64.876774
748.000000	64.730687
747.000000	64.565948
746.000000	64.382850
745.000000	64.134619
744.000000	63.872521
743.000000	63.678389
742.000000	63.437677
741.000000	63.176946
740.000000	62.913969
739.000000	62.637516
738.000000	62.305987
737.000000	61.942234
736.000000	61.641172
735.000000	61.265603
734.000000	60.928215
733.000000	60.636919
732.000000	60.242893
731.000000	59.822794
730.000000	59.431600
729.000000	59.114720
728.000000	58.805358
727.000000	58.436526
726.000000	58.085565
725.000000	57.778840
724.000000	57.475338
723.000000	57.195272
722.000000	56.879172
721.000000	56.544128
720.000000	56.271191
719.000000	56.038095
718.000000	55.767990
717.000000	55.550031
716.000000	55.420739
715.000000	55.253364
714.000000	55.089504
713.000000	54.999859
712.000000	54.932870
711.000000	54.941268
710.000000	54.998297
709.000000	55.064798
708.000000	55.130615
707.000000	55.260297
706.000000	55.449547
705.000000	55.600321
704.000000	55.788887
703.000000	55.956751
702.000000	56.172953
701.000000	56.448722
700.000000	56.599399
699.000000	56.729765
698.000000	56.873899
697.000000	57.027115
696.000000	57.166074
695.000000	57.332473
694.000000	57.463229
693.000000	57.557072
692.000000	57.631386
691.000000	57.711558
690.000000	57.764778
689.000000	57.751693
688.000000	57.743295
687.000000	57.743295
686.000000	57.715562
685.000000	57.599258
684.000000	57.458834
683.000000	57.349562
682.000000	57.233258
681.000000	57.040689
680.000000	56.827319
679.000000	56.611215
678.000000	56.393256
677.000000	56.145024
676.000000	55.950404
675.000000	55.724535
674.000000	55.471421
673.000000	55.225533
672.000000	54.993414
671.000000	54.707098
670.000000	54.445489
669.000000	54.204483
668.000000	53.939163
667.000000	53.684584
666.000000	53.380984
665.000000	53.058439
664.000000	52.730915
663.000000	52.323901
662.000000	51.933586
661.000000	51.557626
660.000000	51.098661
659.000000	50.605421
658.000000	50.084643
657.000000	49.598629
656.000000	49.126774
655.000000	48.587930
654.000000	48.033755
653.000000	47.495595
652.000000	46.955286
651.000000	46.422985
650.000000	45.929159
649.000000	45.500174
648.000000	45.061423
647.000000	44.664858
646.000000	44.292902
645.000000	44.021234
644.000000	43.760894
643.000000	43.541274
642.000000	43.369504
641.000000	43.228104
640.000000	43.229862
639.000000	43.285817
638.000000	43.363450
637.000000	43.546059
636.000000	43.822805
635.000000	44.127089
634.000000	44.526193
633.000000	45.022265
632.000000	45.496561
631.000000	46.124268
630.000000	46.735179
629.000000	47.388764
628.000000	48.032095
627.000000	48.676012
626.000000	49.342097
625.000000	50.016286
624.000000	50.739399
623.000000	51.376384
622.000000	52.024402
621.000000	52.696053
620.000000	53.290265
619.000000	53.896782
618.000000	54.492362
617.000000	55.041068
616.000000	55.635769
615.000000	56.219923
614.000000	56.796266
613.000000	57.366163
612.000000	57.970140
611.000000	58.515039
610.000000	59.069018
609.000000	59.582961
608.000000	60.060284
607.000000	60.527061
606.000000	60.989541
605.000000	61.390695
604.000000	61.807962
603.000000	62.141932
602.000000	62.518673
601.000000	62.882525
600.000000	63.219229
599.000000	63.549293
598.000000	63.894102
597.000000	64.204147
596.000000	64.553937
595.000000	64.878434
594.000000	65.217873
593.000000	65.530750
592.000000	65.848802
591.000000	66.199666
590.000000	66.501997
589.000000	66.767415
588.000000	67.050215
587.000000	67.312411
586.000000	67.540135
585.000000	67.755263
584.000000	67.975370
583.000000	68.131125
582.000000	68.325355
581.000000	68.421835
580.000000	68.519390
579.000000	68.637451
578.000000	68.710983
577.000000	68.785589
576.000000	68.838028
575.000000	68.877675
574.000000	68.880604
573.000000	68.912439
572.000000	68.864199
571.000000	68.863711
570.000000	68.831192
569.000000	68.783831
568.000000	68.723971
567.000000	68.670848
566.000000	68.593019
565.000000	68.531401
564.000000	68.457869
563.000000	68.342053
562.000000	68.253288
561.000000	68.144992
560.000000	67.949199
559.000000	67.811901
558.000000	67.720010
557.000000	67.530956
556.000000	67.333699
555.000000	67.168667
554.000000	66.916139
553.000000	66.663122
552.000000	66.437253
551.000000	66.116857
550.000000	65.844896
549.000000	65.531140
548.000000	65.155864
547.000000	64.813984
546.000000	64.441930
545.000000	64.040775
544.000000	63.615696
543.000000	63.197257
542.000000	62.722278
541.000000	62.192711
540.000000	61.717732
539.000000	61.182599
538.000000	60.575105
537.000000	59.985873
536.000000	59.351721
535.000000	58.655853
534.000000	57.901686
533.000000	57.115295
532.000000	56.305662
531.000000	55.413904
530.000000	54.511599
529.000000	53.565156
528.000000	52.547915
527.000000	51.547177
526.000000	50.521147
525.000000	49.461330
524.000000	48.405028
523.000000	47.283397
522.000000	46.199948
521.000000	45.133295
520.000000	44.074845
519.000000	43.013270
518.000000	41.979721
517.000000	40.974589
516.000000	39.956664
515.000000	38.992253
514.000000	38.023740
513.000000	37.082668
512.000000	36.172454
511.000000	35.316534
510.000000	34.509830
509.000000	33.712306
508.000000	32.940758
507.000000	32.259244
506.000000	31.579684
505.000000	30.934400
504.000000	30.316458
503.000000	29.716288
502.000000	29.133208
501.000000	28.593583
500.000000	28.069485
499.000000	27.578784
498.000000	27.094625
497.000000	26.631364
496.000000	26.220639
495.000000	25.829445
494.000000	25.456903
493.000000	25.119320
492.000000	24.796775
491.000000	24.496886
490.000000	24.261349
489.000000	24.088798
488.000000	23.924645
487.000000	23.788811
486.000000	23.699460
485.000000	23.635009
484.000000	23.582375
483.000000	23.546830
482.000000	23.493316
481.000000	23.441073
480.000000	23.381017
479.000000	23.309535
478.000000	23.223211
477.000000	23.119602
476.000000	22.995193
475.000000	22.845395
474.000000	22.665032
473.000000	22.462209
472.000000	22.249620
471.000000	22.000705
470.000000	21.727475
469.000000	21.432664
468.000000	21.110803
467.000000	20.785035
466.000000	20.433683
465.000000	20.062899
464.000000	19.696216
463.000000	19.312248
462.000000	18.933456
461.000000	18.552906
460.000000	18.191984
459.000000	17.873541
458.000000	17.560664
457.000000	17.272395
456.000000	17.024945
455.000000	16.818313
454.000000	16.637754
453.000000	16.495573
452.000000	16.395773
451.000000	16.340795
450.000000	16.328491
449.000000	16.341478
448.000000	16.386008
447.000000	16.458172
446.000000	16.549282
445.000000	16.669589
444.000000	16.813919
443.000000	16.947311
442.000000	17.063615
441.000000	17.195055
440.000000	17.333525
439.000000	17.457543
438.000000	17.570527
437.000000	17.659097
436.000000	17.730285
435.000000	17.802255
434.000000	17.845905
433.000000	17.891606
432.000000	17.914457
431.000000	17.893950
430.000000	17.872076
429.000000	17.854499
428.000000	17.823738
427.000000	17.755675
426.000000	17.672378
425.000000	17.592694
424.000000	17.506955
423.000000	17.411940
422.000000	17.286554
421.000000	17.142322
420.000000	16.995747
419.000000	16.836769
418.000000	16.668222
417.000000	16.509537
416.000000	16.342650
415.000000	16.145881
414.000000	15.945988
413.000000	15.734376
412.000000	15.492882
411.000000	15.263205
410.000000	15.027278
409.000000	14.771332
408.000000	14.500054
407.000000	14.237956
406.000000	13.976054
405.000000	13.706925
404.000000	13.432425
403.000000	13.124235
402.000000	12.809991
401.000000	12.491548
400.000000	12.188241
399.000000	11.896359
398.000000	11.577623
397.000000	11.249805
396.000000	10.938100
395.000000	10.632253
394.000000	10.311271
393.000000	10.022124
392.000000	9.714227
391.000000	9.425275
390.000000	9.146478
389.000000	8.882818
388.000000	8.628825
387.000000	8.381472
386.000000	8.140076
385.000000	7.903661
384.000000	7.684920
383.000000	7.483464
382.000000	7.293629
381.000000	7.125667
380.000000	6.948429
379.000000	6.794334
378.000000	6.662699
377.000000	6.528330
376.000000	6.387906
375.000000	6.215844
374.000000	6.067120
373.000000	5.985580
372.000000	5.889198
371.000000	5.881190
370.000000	5.853164
369.000000	5.804240
368.000000	5.778265
367.000000	5.708248
366.000000	5.710104
365.000000	5.672117
364.000000	5.553958
363.000000	5.561282
362.000000	5.565969
361.000000	5.491363
360.000000	5.467146
359.000000	5.446150
358.000000	5.430526
357.000000	5.398399
356.000000	5.393614
355.000000	5.311000
354.000000	5.347131
353.000000	5.283950
352.000000	5.222039
351.000000	5.140207
350.000000	5.192548
349.000000	5.052027
348.000000	5.121750
347.000000	5.175654
346.000000	5.079858
345.000000	5.092552
344.000000	5.101634
343.000000	5.261393
342.000000	5.174775
341.000000	5.176143
340.000000	5.088451
339.000000	5.086596
338.000000	5.139621
337.000000	5.136105
336.000000	5.087572
335.000000	5.157198
334.000000	5.058960
333.000000	5.136301
332.000000	5.186884
331.000000	4.981327
330.000000	5.069507
329.000000	5.174971
328.000000	5.125168
327.000000	5.119700
326.000000	5.138254
325.000000	5.244792
324.000000	5.235124
323.000000	5.226140
322.000000	5.120969
321.000000	5.143234
320.000000	5.083373
319.000000	5.041578
318.000000	5.349865
317.000000	5.683835
316.000000	5.054859
315.000000	5.032496
314.000000	4.996951
313.000000	5.005252
312.000000	4.999978
311.000000	5.026247
310.000000	5.016189
309.000000	5.006130
308.000000	5.024782
307.000000	5.083178
306.000000	5.001248
305.000000	5.062671
304.000000	5.015114
303.000000	5.073510
302.000000	5.004275
301.000000	5.071167
300.000000	5.045094
299.000000	5.076342
298.000000	5.111009
297.000000	5.065698
296.000000	5.045679
295.000000	5.096459
294.000000	5.101536
293.000000	5.082299
292.000000	5.114817
291.000000	5.043141
290.000000	5.090599
289.000000	5.055445
288.000000	5.114134
287.000000	5.107981
286.000000	5.064917
285.000000	5.107493
284.000000	5.143624
283.000000	5.146456
282.000000	5.148116
281.000000	5.090795
280.000000	5.135910
279.000000	5.146359
278.000000	5.210907
277.000000	5.140695
276.000000	5.176045
275.000000	5.204852
274.000000	5.152120
273.000000	5.160714
272.000000	5.220867
271.000000	5.213543
270.000000	5.211981
269.000000	5.269986
268.000000	5.237077
267.000000	5.285415
266.000000	5.296352
265.000000	5.332776
264.000000	5.357971
263.000000	5.338245
262.000000	5.409238
261.000000	5.331605
260.000000	5.417831
259.000000	5.403379
258.000000	5.413730
257.000000	5.425546
256.000000	5.411093
255.000000	5.488824
254.000000	5.446541
253.000000	5.460310
252.000000	5.446736
251.000000	5.481793
250.000000	5.485406
