PE UV       SUBTECH     SPECTRUM    ASCII       PEDS        4.00        
   -1
CICIMAUCR0104-1.Sample.ASC
24/04/04
12:08:58.00
24/04/04
12:08:58.00
Vinicio Soto Monge
C. resplendens
250,000000
1
Lambda 1050
1050L1511233
PerkinElmer UV WinLab 6.3.2.0749 / 2.02.05 Lambda 900 UV/VIS/NIR, Aug  7 2015 09:38:08

0
0
3350/servo 860,8/2
0
0
UV/VIS
1
1
1
DoubleDePol,CommonBeamDepol,RBeamAtt,SBeamAtt,60mm sphere, WB InGaAs Detector
0
0
0
0
Program
Program
3350/servo 860,8/2
3350/0,2 860,8/0,2
3350/0,2 860,8/0,2
0
15.00
 
 
 
0
 
860,8
319,2
860,8
Front
100
on
S:100 R:100
0
0
0
0
 
0
 
 
 
0
 
 
0
0
0
0
0
 
 
 
 
0
0


0
0
#HDR
-1
-1
#GR
nm
%R
1.0
0.0
2500,000000
-1,000000
2251
8
75,606600
5,487200
#DATA
2500.000000	6.812100
2499.000000	6.775600
2498.000000	6.640100
2497.000000	6.830300
2496.000000	6.677100
2495.000000	6.638400
2494.000000	6.627200
2493.000000	6.676900
2492.000000	6.651900
2491.000000	6.622000
2490.000000	6.684400
2489.000000	6.613300
2488.000000	6.696900
2487.000000	6.579800
2486.000000	6.646300
2485.000000	6.697300
2484.000000	6.662100
2483.000000	6.598200
2482.000000	6.637800
2481.000000	6.680800
2480.000000	6.646400
2479.000000	6.730100
2478.000000	6.686200
2477.000000	6.705100
2476.000000	6.661000
2475.000000	6.732100
2474.000000	6.692000
2473.000000	6.712900
2472.000000	6.727200
2471.000000	6.755200
2470.000000	6.772900
2469.000000	6.741500
2468.000000	6.814100
2467.000000	6.810100
2466.000000	6.840800
2465.000000	6.844200
2464.000000	6.925800
2463.000000	6.911600
2462.000000	6.952300
2461.000000	6.991500
2460.000000	7.015500
2459.000000	7.072100
2458.000000	7.115600
2457.000000	7.140500
2456.000000	7.216200
2455.000000	7.268000
2454.000000	7.325900
2453.000000	7.383300
2452.000000	7.447600
2451.000000	7.504300
2450.000000	7.575400
2449.000000	7.652700
2448.000000	7.713800
2447.000000	7.793200
2446.000000	7.854100
2445.000000	7.934000
2444.000000	7.983200
2443.000000	8.063800
2442.000000	8.132800
2441.000000	8.164000
2440.000000	8.224700
2439.000000	8.306000
2438.000000	8.381200
2437.000000	8.450700
2436.000000	8.514100
2435.000000	8.561000
2434.000000	8.617000
2433.000000	8.671100
2432.000000	8.741100
2431.000000	8.784900
2430.000000	8.816500
2429.000000	8.860300
2428.000000	8.932700
2427.000000	8.972500
2426.000000	9.019300
2425.000000	9.050400
2424.000000	9.097600
2423.000000	9.147300
2422.000000	9.184300
2421.000000	9.226600
2420.000000	9.271100
2419.000000	9.308500
2418.000000	9.365100
2417.000000	9.421300
2416.000000	9.440800
2415.000000	9.459800
2414.000000	9.505400
2413.000000	9.552600
2412.000000	9.578700
2411.000000	9.616200
2410.000000	9.648300
2409.000000	9.669500
2408.000000	9.703000
2407.000000	9.749800
2406.000000	9.799900
2405.000000	9.816900
2404.000000	9.838800
2403.000000	9.878200
2402.000000	9.906000
2401.000000	9.922000
2400.000000	9.967500
2399.000000	10.003500
2398.000000	10.023800
2397.000000	10.068900
2396.000000	10.089600
2395.000000	10.121300
2394.000000	10.166900
2393.000000	10.190200
2392.000000	10.219100
2391.000000	10.232400
2390.000000	10.248700
2389.000000	10.267500
2388.000000	10.280600
2387.000000	10.283100
2386.000000	10.295300
2385.000000	10.316600
2384.000000	10.331200
2383.000000	10.320300
2382.000000	10.315700
2381.000000	10.306400
2380.000000	10.292000
2379.000000	10.284600
2378.000000	10.270100
2377.000000	10.247700
2376.000000	10.241000
2375.000000	10.231400
2374.000000	10.204300
2373.000000	10.180400
2372.000000	10.157300
2371.000000	10.137900
2370.000000	10.097600
2369.000000	10.050000
2368.000000	10.019400
2367.000000	9.982300
2366.000000	9.933400
2365.000000	9.880600
2364.000000	9.827300
2363.000000	9.778100
2362.000000	9.726900
2361.000000	9.667500
2360.000000	9.602300
2359.000000	9.546000
2358.000000	9.508100
2357.000000	9.473800
2356.000000	9.424100
2355.000000	9.390400
2354.000000	9.371400
2353.000000	9.347600
2352.000000	9.342500
2351.000000	9.351900
2350.000000	9.367200
2349.000000	9.383900
2348.000000	9.408000
2347.000000	9.437900
2346.000000	9.464500
2345.000000	9.485200
2344.000000	9.515100
2343.000000	9.543400
2342.000000	9.557000
2341.000000	9.575600
2340.000000	9.601600
2339.000000	9.605700
2338.000000	9.602000
2337.000000	9.589300
2336.000000	9.579300
2335.000000	9.566700
2334.000000	9.547300
2333.000000	9.507000
2332.000000	9.468000
2331.000000	9.421300
2330.000000	9.378000
2329.000000	9.330200
2328.000000	9.272900
2327.000000	9.192100
2326.000000	9.131200
2325.000000	9.053200
2324.000000	8.992500
2323.000000	8.923400
2322.000000	8.834600
2321.000000	8.743400
2320.000000	8.666400
2319.000000	8.566200
2318.000000	8.468700
2317.000000	8.377100
2316.000000	8.288300
2315.000000	8.190800
2314.000000	8.095000
2313.000000	8.031700
2312.000000	7.950300
2311.000000	7.869600
2310.000000	7.799600
2309.000000	7.752500
2308.000000	7.704000
2307.000000	7.679000
2306.000000	7.651400
2305.000000	7.640800
2304.000000	7.650500
2303.000000	7.669800
2302.000000	7.699100
2301.000000	7.735800
2300.000000	7.750700
2299.000000	7.807000
2298.000000	7.872300
2297.000000	7.902900
2296.000000	7.926300
2295.000000	7.957700
2294.000000	7.987400
2293.000000	8.005900
2292.000000	8.019300
2291.000000	8.001300
2290.000000	7.996600
2289.000000	7.972600
2288.000000	7.955000
2287.000000	7.935800
2286.000000	7.883600
2285.000000	7.833500
2284.000000	7.791600
2283.000000	7.719700
2282.000000	7.669200
2281.000000	7.629300
2280.000000	7.553100
2279.000000	7.493600
2278.000000	7.439800
2277.000000	7.374600
2276.000000	7.327400
2275.000000	7.295600
2274.000000	7.244000
2273.000000	7.209800
2272.000000	7.170300
2271.000000	7.163100
2270.000000	7.146000
2269.000000	7.144800
2268.000000	7.150800
2267.000000	7.171600
2266.000000	7.201900
2265.000000	7.240400
2264.000000	7.320600
2263.000000	7.369400
2262.000000	7.472000
2261.000000	7.547900
2260.000000	7.654600
2259.000000	7.797600
2258.000000	7.942700
2257.000000	8.041800
2256.000000	8.161000
2255.000000	8.312200
2254.000000	8.457600
2253.000000	8.596700
2252.000000	8.696200
2251.000000	8.845900
2250.000000	8.972000
2249.000000	9.092300
2248.000000	9.185200
2247.000000	9.292200
2246.000000	9.386200
2245.000000	9.455900
2244.000000	9.561300
2243.000000	9.641500
2242.000000	9.719300
2241.000000	9.779600
2240.000000	9.843900
2239.000000	9.919800
2238.000000	9.963700
2237.000000	10.013500
2236.000000	10.048800
2235.000000	10.105000
2234.000000	10.111400
2233.000000	10.160900
2232.000000	10.146900
2231.000000	10.147200
2230.000000	10.145600
2229.000000	10.125100
2228.000000	10.111300
2227.000000	10.072500
2226.000000	10.036800
2225.000000	9.995400
2224.000000	9.932700
2223.000000	9.870300
2222.000000	9.829800
2221.000000	9.762000
2220.000000	9.707600
2219.000000	9.671000
2218.000000	9.589600
2217.000000	9.526400
2216.000000	9.437200
2215.000000	9.388700
2214.000000	9.355900
2213.000000	9.334100
2212.000000	9.310900
2211.000000	9.288900
2210.000000	9.295100
2209.000000	9.324500
2208.000000	9.352500
2207.000000	9.386700
2206.000000	9.474500
2205.000000	9.551700
2204.000000	9.662900
2203.000000	9.774600
2202.000000	9.894000
2201.000000	10.031100
2200.000000	10.190700
2199.000000	10.338800
2198.000000	10.498700
2197.000000	10.656000
2196.000000	10.800400
2195.000000	10.957500
2194.000000	11.079200
2193.000000	11.216100
2192.000000	11.343500
2191.000000	11.464600
2190.000000	11.576200
2189.000000	11.677700
2188.000000	11.772000
2187.000000	11.846900
2186.000000	11.904200
2185.000000	11.977500
2184.000000	12.049100
2183.000000	12.085700
2182.000000	12.129200
2181.000000	12.176200
2180.000000	12.231800
2179.000000	12.279200
2178.000000	12.297800
2177.000000	12.330100
2176.000000	12.358200
2175.000000	12.402600
2174.000000	12.447300
2173.000000	12.472300
2172.000000	12.494800
2171.000000	12.523300
2170.000000	12.573800
2169.000000	12.597300
2168.000000	12.627700
2167.000000	12.677800
2166.000000	12.736600
2165.000000	12.779500
2164.000000	12.816900
2163.000000	12.856300
2162.000000	12.900200
2161.000000	12.934900
2160.000000	12.991600
2159.000000	13.049300
2158.000000	13.088400
2157.000000	13.138400
2156.000000	13.203500
2155.000000	13.258900
2154.000000	13.296300
2153.000000	13.366200
2152.000000	13.422000
2151.000000	13.490200
2150.000000	13.554100
2149.000000	13.586100
2148.000000	13.665600
2147.000000	13.724600
2146.000000	13.759100
2145.000000	13.818600
2144.000000	13.871600
2143.000000	13.921400
2142.000000	13.966700
2141.000000	14.007700
2140.000000	14.063300
2139.000000	14.111000
2138.000000	14.146100
2137.000000	14.180500
2136.000000	14.222300
2135.000000	14.251700
2134.000000	14.278200
2133.000000	14.300400
2132.000000	14.314600
2131.000000	14.338000
2130.000000	14.355800
2129.000000	14.361300
2128.000000	14.376100
2127.000000	14.380600
2126.000000	14.379000
2125.000000	14.366100
2124.000000	14.340600
2123.000000	14.319600
2122.000000	14.305600
2121.000000	14.296800
2120.000000	14.280500
2119.000000	14.252100
2118.000000	14.219100
2117.000000	14.200500
2116.000000	14.177100
2115.000000	14.149300
2114.000000	14.121800
2113.000000	14.099500
2112.000000	14.073400
2111.000000	14.045600
2110.000000	14.015600
2109.000000	13.985400
2108.000000	13.970200
2107.000000	13.945100
2106.000000	13.914000
2105.000000	13.889500
2104.000000	13.862800
2103.000000	13.841900
2102.000000	13.817700
2101.000000	13.787300
2100.000000	13.746700
2099.000000	13.714700
2098.000000	13.697600
2097.000000	13.673400
2096.000000	13.638400
2095.000000	13.607500
2094.000000	13.583500
2093.000000	13.558100
2092.000000	13.539000
2091.000000	13.530600
2090.000000	13.513900
2089.000000	13.485100
2088.000000	13.459800
2087.000000	13.455500
2086.000000	13.442400
2085.000000	13.400300
2084.000000	13.369800
2083.000000	13.345600
2082.000000	13.328600
2081.000000	13.303400
2080.000000	13.283600
2079.000000	13.263500
2078.000000	13.228700
2077.000000	13.189400
2076.000000	13.170500
2075.000000	13.140500
2074.000000	13.104900
2073.000000	13.078700
2072.000000	13.050200
2071.000000	13.018600
2070.000000	12.978200
2069.000000	12.947500
2068.000000	12.935900
2067.000000	12.894600
2066.000000	12.851900
2065.000000	12.833000
2064.000000	12.796500
2063.000000	12.773700
2062.000000	12.764800
2061.000000	12.757400
2060.000000	12.759400
2059.000000	12.755100
2058.000000	12.753200
2057.000000	12.764000
2056.000000	12.792200
2055.000000	12.826100
2054.000000	12.859700
2053.000000	12.898700
2052.000000	12.962400
2051.000000	13.036600
2050.000000	13.108200
2049.000000	13.178000
2048.000000	13.289400
2047.000000	13.375800
2046.000000	13.477800
2045.000000	13.604000
2044.000000	13.727400
2043.000000	13.859200
2042.000000	13.967700
2041.000000	14.105300
2040.000000	14.222900
2039.000000	14.346800
2038.000000	14.457400
2037.000000	14.583300
2036.000000	14.681200
2035.000000	14.795400
2034.000000	14.912900
2033.000000	15.002700
2032.000000	15.083700
2031.000000	15.181100
2030.000000	15.267500
2029.000000	15.344200
2028.000000	15.426500
2027.000000	15.498100
2026.000000	15.572700
2025.000000	15.629300
2024.000000	15.720200
2023.000000	15.767300
2022.000000	15.814500
2021.000000	15.883500
2020.000000	15.942700
2019.000000	15.988700
2018.000000	16.049000
2017.000000	16.079200
2016.000000	16.131600
2015.000000	16.181500
2014.000000	16.201800
2013.000000	16.230600
2012.000000	16.265900
2011.000000	16.289800
2010.000000	16.314800
2009.000000	16.324600
2008.000000	16.320700
2007.000000	16.323200
2006.000000	16.312200
2005.000000	16.324100
2004.000000	16.327000
2003.000000	16.309300
2002.000000	16.303200
2001.000000	16.266600
2000.000000	16.251200
1999.000000	16.234000
1998.000000	16.199000
1997.000000	16.156400
1996.000000	16.127500
1995.000000	16.080300
1994.000000	16.045600
1993.000000	15.982800
1992.000000	15.939500
1991.000000	15.890100
1990.000000	15.825700
1989.000000	15.771700
1988.000000	15.714100
1987.000000	15.643700
1986.000000	15.583800
1985.000000	15.503700
1984.000000	15.436600
1983.000000	15.378900
1982.000000	15.320800
1981.000000	15.239100
1980.000000	15.177300
1979.000000	15.123000
1978.000000	15.041100
1977.000000	14.954000
1976.000000	14.881700
1975.000000	14.820500
1974.000000	14.746600
1973.000000	14.685000
1972.000000	14.633300
1971.000000	14.574800
1970.000000	14.497700
1969.000000	14.435000
1968.000000	14.386800
1967.000000	14.316100
1966.000000	14.272700
1965.000000	14.215200
1964.000000	14.152200
1963.000000	14.097700
1962.000000	14.033400
1961.000000	13.977400
1960.000000	13.908800
1959.000000	13.864000
1958.000000	13.792800
1957.000000	13.751200
1956.000000	13.707500
1955.000000	13.627200
1954.000000	13.579200
1953.000000	13.529300
1952.000000	13.473800
1951.000000	13.415700
1950.000000	13.378300
1949.000000	13.342600
1948.000000	13.306500
1947.000000	13.263900
1946.000000	13.213000
1945.000000	13.196000
1944.000000	13.182700
1943.000000	13.155100
1942.000000	13.178800
1941.000000	13.143600
1940.000000	13.148800
1939.000000	13.149200
1938.000000	13.152900
1937.000000	13.158000
1936.000000	13.184800
1935.000000	13.214500
1934.000000	13.254600
1933.000000	13.299400
1932.000000	13.338200
1931.000000	13.411600
1930.000000	13.500900
1929.000000	13.564200
1928.000000	13.663800
1927.000000	13.733800
1926.000000	13.824200
1925.000000	13.953800
1924.000000	14.057000
1923.000000	14.168200
1922.000000	14.333500
1921.000000	14.468100
1920.000000	14.632100
1919.000000	14.769000
1918.000000	14.943900
1917.000000	15.089300
1916.000000	15.225200
1915.000000	15.428200
1914.000000	15.641200
1913.000000	15.856800
1912.000000	16.062500
1911.000000	16.266400
1910.000000	16.448400
1909.000000	16.640400
1908.000000	16.862100
1907.000000	17.104900
1906.000000	17.374100
1905.000000	17.669600
1904.000000	17.937500
1903.000000	18.177700
1902.000000	18.421000
1901.000000	18.677200
1900.000000	18.951500
1899.000000	19.249900
1898.000000	19.535800
1897.000000	19.826800
1896.000000	20.067900
1895.000000	20.311600
1894.000000	20.586500
1893.000000	20.890900
1892.000000	21.206700
1891.000000	21.531000
1890.000000	21.834200
1889.000000	22.121700
1888.000000	22.445600
1887.000000	22.773800
1886.000000	23.138800
1885.000000	23.572600
1884.000000	24.063900
1883.000000	24.546200
1882.000000	25.020600
1881.000000	25.530100
1880.000000	26.011300
1879.000000	26.496100
1878.000000	26.961200
1877.000000	27.413600
1876.000000	27.819900
1875.000000	28.234600
1874.000000	28.603200
1873.000000	28.943700
1872.000000	29.238900
1871.000000	29.490300
1870.000000	29.696800
1869.000000	29.883300
1868.000000	29.997800
1867.000000	30.089800
1866.000000	30.169800
1865.000000	30.244000
1864.000000	30.308900
1863.000000	30.378700
1862.000000	30.457300
1861.000000	30.518600
1860.000000	30.552400
1859.000000	30.573900
1858.000000	30.590600
1857.000000	30.588300
1856.000000	30.575300
1855.000000	30.553400
1854.000000	30.494600
1853.000000	30.419700
1852.000000	30.361400
1851.000000	30.329400
1850.000000	30.316500
1849.000000	30.294900
1848.000000	30.211100
1847.000000	30.090800
1846.000000	29.974400
1845.000000	29.893800
1844.000000	29.844400
1843.000000	29.831500
1842.000000	29.825300
1841.000000	29.781200
1840.000000	29.718500
1839.000000	29.664400
1838.000000	29.602900
1837.000000	29.531000
1836.000000	29.441100
1835.000000	29.336300
1834.000000	29.237600
1833.000000	29.145900
1832.000000	29.061700
1831.000000	28.982800
1830.000000	28.893600
1829.000000	28.795400
1828.000000	28.696400
1827.000000	28.608300
1826.000000	28.515200
1825.000000	28.435300
1824.000000	28.391800
1823.000000	28.382100
1822.000000	28.384100
1821.000000	28.364200
1820.000000	28.321400
1819.000000	28.267900
1818.000000	28.230500
1817.000000	28.222600
1816.000000	28.220900
1815.000000	28.204600
1814.000000	28.177400
1813.000000	28.176600
1812.000000	28.176800
1811.000000	28.134800
1810.000000	28.082500
1809.000000	28.037600
1808.000000	28.001600
1807.000000	27.968500
1806.000000	27.918800
1805.000000	27.849200
1804.000000	27.802400
1803.000000	27.778700
1802.000000	27.727200
1801.000000	27.659500
1800.000000	27.600600
1799.000000	27.540400
1798.000000	27.499400
1797.000000	27.449800
1796.000000	27.396200
1795.000000	27.343100
1794.000000	27.290500
1793.000000	27.237300
1792.000000	27.177400
1791.000000	27.117100
1790.000000	27.047500
1789.000000	26.987500
1788.000000	26.919200
1787.000000	26.856600
1786.000000	26.787900
1785.000000	26.694200
1784.000000	26.604300
1783.000000	26.504700
1782.000000	26.426400
1781.000000	26.318500
1780.000000	26.219000
1779.000000	26.121100
1778.000000	26.017200
1777.000000	25.906200
1776.000000	25.771900
1775.000000	25.628200
1774.000000	25.483000
1773.000000	25.324300
1772.000000	25.154100
1771.000000	24.998400
1770.000000	24.851100
1769.000000	24.689900
1768.000000	24.534800
1767.000000	24.414900
1766.000000	24.316800
1765.000000	24.231000
1764.000000	24.172400
1763.000000	24.146500
1762.000000	24.158000
1761.000000	24.188900
1760.000000	24.247700
1759.000000	24.312000
1758.000000	24.382300
1757.000000	24.437000
1756.000000	24.485900
1755.000000	24.498200
1754.000000	24.518500
1753.000000	24.510400
1752.000000	24.472500
1751.000000	24.410200
1750.000000	24.339800
1749.000000	24.249600
1748.000000	24.163900
1747.000000	24.051800
1746.000000	23.892400
1745.000000	23.741000
1744.000000	23.526800
1743.000000	23.299100
1742.000000	23.050800
1741.000000	22.804800
1740.000000	22.540100
1739.000000	22.252500
1738.000000	22.000500
1737.000000	21.793400
1736.000000	21.636700
1735.000000	21.517400
1734.000000	21.484200
1733.000000	21.480300
1732.000000	21.535100
1731.000000	21.614400
1730.000000	21.713600
1729.000000	21.847000
1728.000000	21.968400
1727.000000	22.100100
1726.000000	22.188600
1725.000000	22.247800
1724.000000	22.324200
1723.000000	22.358400
1722.000000	22.364300
1721.000000	22.403000
1720.000000	22.416500
1719.000000	22.422600
1718.000000	22.482600
1717.000000	22.531000
1716.000000	22.589200
1715.000000	22.666100
1714.000000	22.726800
1713.000000	22.821900
1712.000000	22.857500
1711.000000	22.885400
1710.000000	22.895900
1709.000000	22.910600
1708.000000	22.871100
1707.000000	22.836300
1706.000000	22.772300
1705.000000	22.704600
1704.000000	22.657000
1703.000000	22.541400
1702.000000	22.424200
1701.000000	22.283800
1700.000000	22.088800
1699.000000	21.908800
1698.000000	21.739100
1697.000000	21.613400
1696.000000	21.529000
1695.000000	21.523500
1694.000000	21.604700
1693.000000	21.726400
1692.000000	21.905800
1691.000000	22.096400
1690.000000	22.277600
1689.000000	22.409400
1688.000000	22.467800
1687.000000	22.499300
1686.000000	22.509300
1685.000000	22.549900
1684.000000	22.673000
1683.000000	22.931200
1682.000000	23.353100
1681.000000	23.832400
1680.000000	24.465200
1679.000000	25.111700
1678.000000	25.731500
1677.000000	26.324200
1676.000000	26.874800
1675.000000	27.337800
1674.000000	27.755200
1673.000000	28.091400
1672.000000	28.394300
1671.000000	28.662100
1670.000000	28.887400
1669.000000	29.107600
1668.000000	29.291700
1667.000000	29.438500
1666.000000	29.574700
1665.000000	29.682500
1664.000000	29.786500
1663.000000	29.878700
1662.000000	29.981500
1661.000000	30.033700
1660.000000	30.105900
1659.000000	30.159100
1658.000000	30.199800
1657.000000	30.246100
1656.000000	30.238000
1655.000000	30.232800
1654.000000	30.253300
1653.000000	30.244100
1652.000000	30.229700
1651.000000	30.201800
1650.000000	30.164100
1649.000000	30.148800
1648.000000	30.090900
1647.000000	30.046000
1646.000000	29.986800
1645.000000	29.931500
1644.000000	29.878900
1643.000000	29.803900
1642.000000	29.743400
1641.000000	29.675100
1640.000000	29.606900
1639.000000	29.540000
1638.000000	29.450700
1637.000000	29.394100
1636.000000	29.317200
1635.000000	29.219300
1634.000000	29.141600
1633.000000	29.048300
1632.000000	28.962700
1631.000000	28.877300
1630.000000	28.778100
1629.000000	28.681600
1628.000000	28.598900
1627.000000	28.484900
1626.000000	28.391500
1625.000000	28.302600
1624.000000	28.201900
1623.000000	28.100400
1622.000000	28.011600
1621.000000	27.901400
1620.000000	27.813700
1619.000000	27.734600
1618.000000	27.643400
1617.000000	27.555900
1616.000000	27.450800
1615.000000	27.364900
1614.000000	27.278500
1613.000000	27.188800
1612.000000	27.123000
1611.000000	27.041500
1610.000000	26.946000
1609.000000	26.850900
1608.000000	26.763900
1607.000000	26.685700
1606.000000	26.600500
1605.000000	26.529500
1604.000000	26.440700
1603.000000	26.347600
1602.000000	26.257000
1601.000000	26.169000
1600.000000	26.105500
1599.000000	26.025800
1598.000000	25.945900
1597.000000	25.869000
1596.000000	25.796100
1595.000000	25.735300
1594.000000	25.682900
1593.000000	25.617300
1592.000000	25.558200
1591.000000	25.505400
1590.000000	25.444500
1589.000000	25.391000
1588.000000	25.348900
1587.000000	25.312600
1586.000000	25.281500
1585.000000	25.248500
1584.000000	25.204400
1583.000000	25.167800
1582.000000	25.140200
1581.000000	25.116500
1580.000000	25.089600
1579.000000	25.074800
1578.000000	25.074500
1577.000000	25.084100
1576.000000	25.086600
1575.000000	25.079500
1574.000000	25.094000
1573.000000	25.106300
1572.000000	25.121200
1571.000000	25.160000
1570.000000	25.190000
1569.000000	25.217100
1568.000000	25.250200
1567.000000	25.280300
1566.000000	25.317600
1565.000000	25.352900
1564.000000	25.397600
1563.000000	25.434200
1562.000000	25.449900
1561.000000	25.481800
1560.000000	25.504800
1559.000000	25.513700
1558.000000	25.534400
1557.000000	25.542800
1556.000000	25.552800
1555.000000	25.563700
1554.000000	25.555300
1553.000000	25.550200
1552.000000	25.543000
1551.000000	25.531600
1550.000000	25.520900
1549.000000	25.494400
1548.000000	25.485800
1547.000000	25.475200
1546.000000	25.465700
1545.000000	25.460100
1544.000000	25.449100
1543.000000	25.447000
1542.000000	25.450000
1541.000000	25.449300
1540.000000	25.444800
1539.000000	25.450700
1538.000000	25.449500
1537.000000	25.444500
1536.000000	25.445000
1535.000000	25.444300
1534.000000	25.423100
1533.000000	25.414800
1532.000000	25.423100
1531.000000	25.407800
1530.000000	25.380700
1529.000000	25.370600
1528.000000	25.343800
1527.000000	25.328700
1526.000000	25.307800
1525.000000	25.264600
1524.000000	25.234100
1523.000000	25.229100
1522.000000	25.197900
1521.000000	25.167100
1520.000000	25.156000
1519.000000	25.110300
1518.000000	25.069600
1517.000000	25.042700
1516.000000	25.033500
1515.000000	25.010200
1514.000000	24.959600
1513.000000	24.915600
1512.000000	24.875800
1511.000000	24.850300
1510.000000	24.825800
1509.000000	24.794800
1508.000000	24.748000
1507.000000	24.716300
1506.000000	24.689100
1505.000000	24.659000
1504.000000	24.618500
1503.000000	24.593700
1502.000000	24.569300
1501.000000	24.530400
1500.000000	24.508700
1499.000000	24.477900
1498.000000	24.451000
1497.000000	24.446200
1496.000000	24.458000
1495.000000	24.458300
1494.000000	24.440500
1493.000000	24.437900
1492.000000	24.443600
1491.000000	24.435400
1490.000000	24.445600
1489.000000	24.457100
1488.000000	24.455000
1487.000000	24.473100
1486.000000	24.484000
1485.000000	24.491100
1484.000000	24.503300
1483.000000	24.531700
1482.000000	24.553500
1481.000000	24.570500
1480.000000	24.594400
1479.000000	24.624800
1478.000000	24.670000
1477.000000	24.689100
1476.000000	24.728500
1475.000000	24.774600
1474.000000	24.815700
1473.000000	24.878500
1472.000000	24.910200
1471.000000	24.950500
1470.000000	24.982500
1469.000000	25.022100
1468.000000	25.063000
1467.000000	25.132500
1466.000000	25.186300
1465.000000	25.229700
1464.000000	25.277400
1463.000000	25.342300
1462.000000	25.415800
1461.000000	25.514300
1460.000000	25.585400
1459.000000	25.666900
1458.000000	25.755600
1457.000000	25.853400
1456.000000	25.944200
1455.000000	26.053000
1454.000000	26.163900
1453.000000	26.272700
1452.000000	26.406400
1451.000000	26.532500
1450.000000	26.647800
1449.000000	26.740400
1448.000000	26.854200
1447.000000	27.000800
1446.000000	27.150800
1445.000000	27.272100
1444.000000	27.379200
1443.000000	27.514900
1442.000000	27.639500
1441.000000	27.814200
1440.000000	27.919000
1439.000000	28.044700
1438.000000	28.184100
1437.000000	28.317200
1436.000000	28.419100
1435.000000	28.551000
1434.000000	28.692000
1433.000000	28.839900
1432.000000	28.950600
1431.000000	29.112200
1430.000000	29.246400
1429.000000	29.428100
1428.000000	29.610500
1427.000000	29.768400
1426.000000	29.966000
1425.000000	30.194300
1424.000000	30.411800
1423.000000	30.631900
1422.000000	30.816100
1421.000000	31.045300
1420.000000	31.284000
1419.000000	31.495000
1418.000000	31.701700
1417.000000	31.854700
1416.000000	32.092700
1415.000000	32.330400
1414.000000	32.552400
1413.000000	32.716100
1412.000000	32.883300
1411.000000	33.131300
1410.000000	33.388700
1409.000000	33.703700
1408.000000	33.996900
1407.000000	34.308900
1406.000000	34.605000
1405.000000	34.955300
1404.000000	35.226900
1403.000000	35.558200
1402.000000	35.849600
1401.000000	36.230900
1400.000000	36.391500
1399.000000	36.506800
1398.000000	36.613300
1397.000000	36.770300
1396.000000	36.887400
1395.000000	36.922500
1394.000000	36.896400
1393.000000	36.890200
1392.000000	36.923000
1391.000000	36.901800
1390.000000	36.946900
1389.000000	37.059300
1388.000000	37.233700
1387.000000	37.314800
1386.000000	37.518300
1385.000000	37.799800
1384.000000	38.186600
1383.000000	38.550400
1382.000000	38.923700
1381.000000	39.281700
1380.000000	39.608900
1379.000000	39.942800
1378.000000	40.324200
1377.000000	40.774700
1376.000000	41.268900
1375.000000	41.848600
1374.000000	42.428900
1373.000000	43.082200
1372.000000	43.706100
1371.000000	44.268500
1370.000000	44.757500
1369.000000	45.187200
1368.000000	45.570000
1367.000000	45.872900
1366.000000	46.144600
1365.000000	46.392500
1364.000000	46.596700
1363.000000	46.799200
1362.000000	46.990800
1361.000000	47.130600
1360.000000	47.172900
1359.000000	47.235200
1358.000000	47.347800
1357.000000	47.534800
1356.000000	47.796400
1355.000000	48.191500
1354.000000	48.652300
1353.000000	49.099600
1352.000000	49.657500
1351.000000	50.178100
1350.000000	50.654500
1349.000000	51.091000
1348.000000	51.492000
1347.000000	51.842000
1346.000000	52.178400
1345.000000	52.527700
1344.000000	52.872200
1343.000000	53.167600
1342.000000	53.450900
1341.000000	53.741500
1340.000000	53.995700
1339.000000	54.227600
1338.000000	54.475400
1337.000000	54.701900
1336.000000	54.905400
1335.000000	55.126700
1334.000000	55.318800
1333.000000	55.510200
1332.000000	55.688600
1331.000000	55.862800
1330.000000	56.026300
1329.000000	56.178600
1328.000000	56.314200
1327.000000	56.450000
1326.000000	56.575900
1325.000000	56.691800
1324.000000	56.802900
1323.000000	56.901700
1322.000000	57.003800
1321.000000	57.097100
1320.000000	57.188600
1319.000000	57.271300
1318.000000	57.339700
1317.000000	57.410300
1316.000000	57.482400
1315.000000	57.551400
1314.000000	57.635000
1313.000000	57.699900
1312.000000	57.742100
1311.000000	57.796500
1310.000000	57.851300
1309.000000	57.883400
1308.000000	57.910300
1307.000000	57.947800
1306.000000	57.985100
1305.000000	58.019200
1304.000000	58.034300
1303.000000	58.037400
1302.000000	58.050300
1301.000000	58.054000
1300.000000	58.044100
1299.000000	58.035600
1298.000000	58.027200
1297.000000	58.021800
1296.000000	58.022400
1295.000000	58.016900
1294.000000	57.996100
1293.000000	57.964100
1292.000000	57.933700
1291.000000	57.904300
1290.000000	57.869500
1289.000000	57.815500
1288.000000	57.767200
1287.000000	57.724700
1286.000000	57.659600
1285.000000	57.596500
1284.000000	57.537400
1283.000000	57.478200
1282.000000	57.418900
1281.000000	57.352700
1280.000000	57.300000
1279.000000	57.231000
1278.000000	57.171600
1277.000000	57.116200
1276.000000	57.069200
1275.000000	57.024300
1274.000000	56.974000
1273.000000	56.944600
1272.000000	56.914100
1271.000000	56.871800
1270.000000	56.832600
1269.000000	56.786500
1268.000000	56.744100
1267.000000	56.708900
1266.000000	56.667500
1265.000000	56.615800
1264.000000	56.562000
1263.000000	56.515200
1262.000000	56.456200
1261.000000	56.394200
1260.000000	56.345300
1259.000000	56.288600
1258.000000	56.231200
1257.000000	56.177200
1256.000000	56.109200
1255.000000	56.045300
1254.000000	55.967000
1253.000000	55.883200
1252.000000	55.811300
1251.000000	55.731800
1250.000000	55.645800
1249.000000	55.555200
1248.000000	55.457500
1247.000000	55.354300
1246.000000	55.254400
1245.000000	55.147700
1244.000000	55.043900
1243.000000	54.923700
1242.000000	54.791200
1241.000000	54.700900
1240.000000	54.590000
1239.000000	54.462200
1238.000000	54.343900
1237.000000	54.226200
1236.000000	54.103800
1235.000000	53.975400
1234.000000	53.855300
1233.000000	53.711600
1232.000000	53.561500
1231.000000	53.419500
1230.000000	53.262900
1229.000000	53.115200
1228.000000	52.969900
1227.000000	52.814800
1226.000000	52.654700
1225.000000	52.507100
1224.000000	52.347600
1223.000000	52.194900
1222.000000	52.046400
1221.000000	51.883800
1220.000000	51.748700
1219.000000	51.611000
1218.000000	51.474900
1217.000000	51.347200
1216.000000	51.221700
1215.000000	51.121600
1214.000000	50.996300
1213.000000	50.875600
1212.000000	50.757600
1211.000000	50.643400
1210.000000	50.551900
1209.000000	50.431700
1208.000000	50.346600
1207.000000	50.268700
1206.000000	50.197200
1205.000000	50.149800
1204.000000	50.114300
1203.000000	50.061000
1202.000000	50.009600
1201.000000	49.976100
1200.000000	49.920600
1199.000000	49.829200
1198.000000	49.692200
1197.000000	49.542300
1196.000000	49.351100
1195.000000	49.103100
1194.000000	48.808500
1193.000000	48.432500
1192.000000	47.992800
1191.000000	47.571300
1190.000000	47.142600
1189.000000	46.777700
1188.000000	46.487000
1187.000000	46.324100
1186.000000	46.286800
1185.000000	46.371500
1184.000000	46.571100
1183.000000	46.876300
1182.000000	47.303000
1181.000000	47.785000
1180.000000	48.258100
1179.000000	48.710500
1178.000000	49.088300
1177.000000	49.436900
1176.000000	49.741300
1175.000000	50.046100
1174.000000	50.315500
1173.000000	50.589000
1172.000000	50.881300
1171.000000	51.202700
1170.000000	51.526200
1169.000000	51.844400
1168.000000	52.174700
1167.000000	52.487700
1166.000000	52.817800
1165.000000	53.165400
1164.000000	53.477400
1163.000000	53.819600
1162.000000	54.157200
1161.000000	54.485700
1160.000000	54.781800
1159.000000	55.102600
1158.000000	55.361300
1157.000000	55.623700
1156.000000	55.838600
1155.000000	56.004600
1154.000000	56.138300
1153.000000	56.227800
1152.000000	56.253200
1151.000000	56.284100
1150.000000	56.269200
1149.000000	56.283700
1148.000000	56.293000
1147.000000	56.338900
1146.000000	56.441400
1145.000000	56.586400
1144.000000	56.810500
1143.000000	57.034300
1142.000000	57.295300
1141.000000	57.578600
1140.000000	57.851000
1139.000000	58.144500
1138.000000	58.439800
1137.000000	58.744500
1136.000000	59.079600
1135.000000	59.391200
1134.000000	59.669600
1133.000000	59.873800
1132.000000	60.102000
1131.000000	60.339600
1130.000000	60.540400
1129.000000	60.709200
1128.000000	60.837600
1127.000000	60.947100
1126.000000	61.059700
1125.000000	61.100400
1124.000000	61.174900
1123.000000	61.224400
1122.000000	61.250500
1121.000000	61.269600
1120.000000	61.308100
1119.000000	61.316500
1118.000000	61.301700
1117.000000	61.303500
1116.000000	61.293600
1115.000000	61.263900
1114.000000	61.242400
1113.000000	61.235000
1112.000000	61.212600
1111.000000	61.190500
1110.000000	61.166100
1109.000000	61.145800
1108.000000	61.115700
1107.000000	61.103800
1106.000000	61.077600
1105.000000	61.040400
1104.000000	61.014400
1103.000000	60.993600
1102.000000	60.958400
1101.000000	60.925900
1100.000000	60.900700
1099.000000	60.875100
1098.000000	60.847900
1097.000000	60.799500
1096.000000	60.758500
1095.000000	60.718700
1094.000000	60.680100
1093.000000	60.629600
1092.000000	60.572300
1091.000000	60.536900
1090.000000	60.487000
1089.000000	60.446100
1088.000000	60.396200
1087.000000	60.330800
1086.000000	60.295500
1085.000000	60.241100
1084.000000	60.189500
1083.000000	60.123800
1082.000000	60.072100
1081.000000	60.018900
1080.000000	59.974300
1079.000000	59.929000
1078.000000	59.875400
1077.000000	59.828700
1076.000000	59.770900
1075.000000	59.729600
1074.000000	59.682500
1073.000000	59.640900
1072.000000	59.592100
1071.000000	59.550500
1070.000000	59.503900
1069.000000	59.444200
1068.000000	59.393800
1067.000000	59.346700
1066.000000	59.312900
1065.000000	59.260400
1064.000000	59.214400
1063.000000	59.157000
1062.000000	59.095000
1061.000000	59.043100
1060.000000	58.997500
1059.000000	58.941300
1058.000000	58.878300
1057.000000	58.836900
1056.000000	58.782800
1055.000000	58.722200
1054.000000	58.677000
1053.000000	58.625700
1052.000000	58.564400
1051.000000	58.516800
1050.000000	58.474000
1049.000000	58.446300
1048.000000	58.390700
1047.000000	58.345700
1046.000000	58.315500
1045.000000	58.276400
1044.000000	58.231800
1043.000000	58.189700
1042.000000	58.155400
1041.000000	58.126700
1040.000000	58.085100
1039.000000	58.041300
1038.000000	57.994700
1037.000000	57.957700
1036.000000	57.922500
1035.000000	57.866900
1034.000000	57.801000
1033.000000	57.754400
1032.000000	57.711000
1031.000000	57.647500
1030.000000	57.584600
1029.000000	57.532500
1028.000000	57.483900
1027.000000	57.439900
1026.000000	57.387700
1025.000000	57.328000
1024.000000	57.267700
1023.000000	57.229900
1022.000000	57.191700
1021.000000	57.133000
1020.000000	57.096200
1019.000000	57.074500
1018.000000	57.040600
1017.000000	57.014800
1016.000000	56.982000
1015.000000	56.949200
1014.000000	56.939100
1013.000000	56.939800
1012.000000	56.921500
1011.000000	56.910700
1010.000000	56.922800
1009.000000	56.949100
1008.000000	56.980000
1007.000000	56.984000
1006.000000	56.987600
1005.000000	57.025000
1004.000000	57.054200
1003.000000	57.073200
1002.000000	57.097600
1001.000000	57.126200
1000.000000	57.158900
999.000000	57.191100
998.000000	57.219100
997.000000	57.248700
996.000000	57.283700
995.000000	57.311000
994.000000	57.338900
993.000000	57.387600
992.000000	57.430500
991.000000	57.456900
990.000000	57.508100
989.000000	57.536600
988.000000	57.572800
987.000000	57.609600
986.000000	57.659100
985.000000	57.697800
984.000000	57.745400
983.000000	57.771300
982.000000	57.814500
981.000000	57.860600
980.000000	57.916300
979.000000	57.960200
978.000000	58.016900
977.000000	58.054800
976.000000	58.115200
975.000000	58.157600
974.000000	58.197400
973.000000	58.234400
972.000000	58.293100
971.000000	58.329600
970.000000	58.372300
969.000000	58.417400
968.000000	58.458900
967.000000	58.478400
966.000000	58.517800
965.000000	58.576000
964.000000	58.610600
963.000000	58.645400
962.000000	58.704200
961.000000	58.746700
960.000000	58.769900
959.000000	58.799400
958.000000	58.834200
957.000000	58.899200
956.000000	58.925000
955.000000	58.941700
954.000000	58.995900
953.000000	59.019600
952.000000	59.080100
951.000000	59.092000
950.000000	59.124500
949.000000	59.175200
948.000000	59.199500
947.000000	59.243900
946.000000	59.306400
945.000000	59.364100
944.000000	59.417700
943.000000	59.460400
942.000000	59.540000
941.000000	59.609400
940.000000	59.701400
939.000000	59.793400
938.000000	59.862800
937.000000	59.960900
936.000000	60.053600
935.000000	60.152600
934.000000	60.223200
933.000000	60.311300
932.000000	60.388400
931.000000	60.483200
930.000000	60.572100
929.000000	60.648100
928.000000	60.707100
927.000000	60.787300
926.000000	60.856100
925.000000	60.929000
924.000000	60.981300
923.000000	61.076000
922.000000	61.121100
921.000000	61.164300
920.000000	61.212200
919.000000	61.271300
918.000000	61.320800
917.000000	61.365800
916.000000	61.389500
915.000000	61.446200
914.000000	61.442400
913.000000	61.503100
912.000000	61.517000
911.000000	61.567300
910.000000	61.613200
909.000000	61.617400
908.000000	61.674900
907.000000	61.717700
906.000000	61.747900
905.000000	61.804100
904.000000	61.875200
903.000000	61.956000
902.000000	61.992700
901.000000	62.079600
900.000000	62.141500
899.000000	62.208400
898.000000	62.294900
897.000000	62.347400
896.000000	62.402600
895.000000	62.470800
894.000000	62.544700
893.000000	62.601300
892.000000	62.661100
891.000000	62.742700
890.000000	62.788500
889.000000	62.840800
888.000000	62.907200
887.000000	62.956600
886.000000	63.017700
885.000000	63.084500
884.000000	63.133000
883.000000	63.175700
882.000000	63.250800
881.000000	63.298100
880.000000	63.330500
879.000000	63.408100
878.000000	63.452100
877.000000	63.490900
876.000000	63.530200
875.000000	63.581900
874.000000	63.598900
873.000000	63.635400
872.000000	63.657300
871.000000	63.661200
870.000000	63.652900
869.000000	63.661100
868.000000	63.638500
867.000000	63.648700
866.000000	63.619200
865.000000	63.584200
864.000000	63.516600
863.000000	63.397200
862.000000	63.298200
861.000000	63.204100
860.000000	63.061700
859.000000	63.023500
858.000000	61.333072
857.000000	61.799662
856.000000	62.200055
855.000000	61.889092
854.000000	61.778957
853.000000	62.325743
852.000000	62.553789
851.000000	62.297942
850.000000	62.310773
849.000000	62.367541
848.000000	62.392718
847.000000	62.194223
846.000000	62.428879
845.000000	62.271793
844.000000	62.191987
843.000000	62.509171
842.000000	62.666353
841.000000	62.698626
840.000000	62.735370
839.000000	62.994425
838.000000	63.332605
837.000000	63.396859
836.000000	63.182422
835.000000	63.521866
834.000000	63.721722
833.000000	63.988067
832.000000	64.296308
831.000000	64.276770
830.000000	64.585011
829.000000	64.763482
828.000000	65.026522
827.000000	65.245430
826.000000	65.427595
825.000000	65.626187
824.000000	65.875521
823.000000	66.163057
822.000000	66.366996
821.000000	66.510278
820.000000	66.703330
819.000000	66.992810
818.000000	67.156894
817.000000	67.357431
816.000000	67.651091
815.000000	67.876415
814.000000	68.145482
813.000000	68.224511
812.000000	68.443225
811.000000	68.543930
810.000000	68.894748
809.000000	69.035308
808.000000	69.155455
807.000000	69.260438
806.000000	69.426661
805.000000	69.632543
804.000000	69.744622
803.000000	69.697769
802.000000	69.917649
801.000000	70.015245
800.000000	70.075901
799.000000	70.120033
798.000000	70.242804
797.000000	70.292866
796.000000	70.433037
795.000000	70.537437
794.000000	70.595080
793.000000	70.639892
792.000000	70.618701
791.000000	70.684899
790.000000	70.752846
789.000000	70.704048
788.000000	70.704826
787.000000	70.758095
786.000000	70.862689
785.000000	70.967963
784.000000	71.013650
783.000000	71.143615
782.000000	71.272899
781.000000	71.314504
780.000000	71.473144
779.000000	71.568503
778.000000	71.700121
777.000000	71.833779
776.000000	71.948677
775.000000	72.107026
774.000000	72.233978
773.000000	72.355485
772.000000	72.483603
771.000000	72.639522
770.000000	72.661782
769.000000	72.769779
768.000000	72.856584
767.000000	72.950096
766.000000	72.944847
765.000000	72.954762
764.000000	73.060134
763.000000	73.046816
762.000000	73.068882
761.000000	73.098141
760.000000	73.036221
759.000000	73.021057
758.000000	72.952429
757.000000	72.932793
756.000000	72.948638
755.000000	72.898188
754.000000	72.828686
753.000000	72.700568
752.000000	72.624261
751.000000	72.522000
750.000000	72.471550
749.000000	72.497893
748.000000	72.375996
747.000000	72.246420
746.000000	72.185763
745.000000	72.111595
744.000000	72.031789
743.000000	71.882188
742.000000	71.773512
741.000000	71.736379
740.000000	71.581918
739.000000	71.382840
738.000000	71.254722
737.000000	71.103177
736.000000	70.956979
735.000000	70.822348
734.000000	70.604606
733.000000	70.371117
732.000000	70.163970
731.000000	69.898889
730.000000	69.596188
729.000000	69.418690
728.000000	69.160024
727.000000	68.871904
726.000000	68.591756
725.000000	68.278460
724.000000	68.021058
723.000000	67.733327
722.000000	67.422753
721.000000	67.128899
720.000000	66.849334
719.000000	66.518541
718.000000	66.265416
717.000000	66.005292
716.000000	65.725726
715.000000	65.516052
714.000000	65.275856
713.000000	64.971697
712.000000	64.727126
711.000000	64.541948
710.000000	64.373004
709.000000	64.222140
708.000000	63.985443
707.000000	63.839633
706.000000	63.661843
705.000000	63.514284
704.000000	63.324634
703.000000	63.206626
702.000000	63.081327
701.000000	62.936295
700.000000	62.831021
699.000000	62.701834
698.000000	62.563995
697.000000	62.443168
696.000000	62.348975
695.000000	62.206957
694.000000	62.116944
693.000000	62.041414
692.000000	61.888703
691.000000	61.804523
690.000000	61.729577
689.000000	61.656964
688.000000	61.567339
687.000000	61.457885
686.000000	61.377398
685.000000	61.306049
684.000000	61.171710
683.000000	61.044856
682.000000	60.867746
681.000000	60.726505
680.000000	60.559213
679.000000	60.341957
678.000000	60.138116
677.000000	59.913278
676.000000	59.657722
675.000000	59.424330
674.000000	59.141460
673.000000	58.848869
672.000000	58.492997
671.000000	58.114864
670.000000	57.789515
669.000000	57.339450
668.000000	56.897745
667.000000	56.454873
666.000000	55.974966
665.000000	55.460064
664.000000	54.903558
663.000000	54.352010
662.000000	53.766634
661.000000	53.148110
660.000000	52.486330
659.000000	51.915146
658.000000	51.286221
657.000000	50.651270
656.000000	50.063852
655.000000	49.483531
654.000000	48.915458
653.000000	48.436911
652.000000	47.926578
651.000000	47.481957
650.000000	47.137652
649.000000	46.787321
648.000000	46.599810
647.000000	46.438545
646.000000	46.343185
645.000000	46.404425
644.000000	46.484620
643.000000	46.676506
642.000000	46.974054
641.000000	47.363171
640.000000	47.822568
639.000000	48.412707
638.000000	49.011109
637.000000	49.705842
636.000000	50.415642
635.000000	51.218371
634.000000	51.996119
633.000000	52.900429
632.000000	53.801822
631.000000	54.627492
630.000000	55.524220
629.000000	56.370206
628.000000	57.210554
627.000000	58.067233
626.000000	58.885613
625.000000	59.605328
624.000000	60.341860
623.000000	61.069935
622.000000	61.721314
621.000000	62.429462
620.000000	63.077536
619.000000	63.705197
618.000000	64.306904
617.000000	64.873811
616.000000	65.448105
615.000000	66.046604
614.000000	66.554896
613.000000	67.063771
612.000000	67.575367
611.000000	68.118459
610.000000	68.553651
609.000000	68.962598
608.000000	69.340244
607.000000	69.813639
606.000000	70.121005
605.000000	70.456853
604.000000	70.762080
603.000000	71.058365
602.000000	71.304200
601.000000	71.553923
600.000000	71.794216
599.000000	72.012736
598.000000	72.221730
597.000000	72.422461
596.000000	72.539302
595.000000	72.721856
594.000000	72.858722
593.000000	73.012211
592.000000	73.108834
591.000000	73.225579
590.000000	73.281570
589.000000	73.373915
588.000000	73.405216
587.000000	73.446431
586.000000	73.429323
585.000000	73.494354
584.000000	73.450417
583.000000	73.409201
582.000000	73.378776
581.000000	73.296734
580.000000	73.220816
579.000000	73.134010
578.000000	73.049344
577.000000	72.902660
576.000000	72.797385
575.000000	72.636995
574.000000	72.530748
573.000000	72.307368
572.000000	72.220855
571.000000	72.036357
570.000000	71.868871
569.000000	71.744155
568.000000	71.524663
567.000000	71.325974
566.000000	71.130589
565.000000	70.916347
564.000000	70.720184
563.000000	70.470656
562.000000	70.198964
561.000000	69.875268
560.000000	69.583065
559.000000	69.135528
558.000000	68.769060
557.000000	68.374597
556.000000	67.992965
555.000000	67.586352
554.000000	67.160491
553.000000	66.719855
552.000000	66.288745
551.000000	65.785508
550.000000	65.311142
549.000000	64.783798
548.000000	64.225639
547.000000	63.718709
546.000000	63.091145
545.000000	62.499061
544.000000	61.848557
543.000000	61.176181
542.000000	60.462493
541.000000	59.682607
540.000000	58.869574
539.000000	58.054694
538.000000	57.211235
537.000000	56.312271
536.000000	55.411558
535.000000	54.481877
534.000000	53.505246
533.000000	52.490704
532.000000	51.448167
531.000000	50.392410
530.000000	49.308074
529.000000	48.187966
528.000000	47.061831
527.000000	45.926462
526.000000	44.779428
525.000000	43.618591
524.000000	42.451824
523.000000	41.269990
522.000000	40.138801
521.000000	39.002168
520.000000	37.898780
519.000000	36.849827
518.000000	35.858517
517.000000	34.923587
516.000000	34.052522
515.000000	33.221020
514.000000	32.449202
513.000000	31.746303
512.000000	31.130404
511.000000	30.595867
510.000000	30.128013
509.000000	29.710318
508.000000	29.392454
507.000000	29.135051
506.000000	28.933640
505.000000	28.811938
504.000000	28.758280
503.000000	28.717842
502.000000	28.694707
501.000000	28.729701
500.000000	28.748559
499.000000	28.785595
498.000000	28.818062
497.000000	28.853153
496.000000	28.867443
495.000000	28.869484
494.000000	28.852473
493.000000	28.813493
492.000000	28.740297
491.000000	28.651547
490.000000	28.531109
489.000000	28.366344
488.000000	28.180680
487.000000	27.968965
486.000000	27.705828
485.000000	27.431609
484.000000	27.099066
483.000000	26.750387
482.000000	26.343871
481.000000	25.921898
480.000000	25.475916
479.000000	25.003979
478.000000	24.538556
477.000000	24.096948
476.000000	23.648341
475.000000	23.177279
474.000000	22.745003
473.000000	22.327308
472.000000	21.922346
471.000000	21.563752
470.000000	21.244624
469.000000	20.967781
468.000000	20.737013
467.000000	20.542115
466.000000	20.398346
465.000000	20.319998
464.000000	20.274603
463.000000	20.272076
462.000000	20.305903
461.000000	20.389015
460.000000	20.516355
459.000000	20.651666
458.000000	20.819541
457.000000	21.019495
456.000000	21.230918
455.000000	21.422123
454.000000	21.615369
453.000000	21.806574
452.000000	22.007791
451.000000	22.193843
450.000000	22.336153
449.000000	22.470201
448.000000	22.598610
447.000000	22.679778
446.000000	22.762986
445.000000	22.829281
444.000000	22.838515
443.000000	22.843473
442.000000	22.824615
441.000000	22.784858
440.000000	22.738782
439.000000	22.653046
438.000000	22.536593
437.000000	22.426750
436.000000	22.289786
435.000000	22.130562
434.000000	21.982711
433.000000	21.783925
432.000000	21.588832
431.000000	21.389170
430.000000	21.159569
429.000000	20.932495
428.000000	20.668969
427.000000	20.394555
426.000000	20.114115
425.000000	19.821524
424.000000	19.521935
423.000000	19.203584
422.000000	18.892719
421.000000	18.552497
420.000000	18.195166
419.000000	17.835114
418.000000	17.475160
417.000000	17.120551
416.000000	16.740377
415.000000	16.360495
414.000000	15.978183
413.000000	15.573125
412.000000	15.170691
411.000000	14.759119
410.000000	14.356199
409.000000	13.960959
408.000000	13.561732
407.000000	13.163964
406.000000	12.773681
405.000000	12.377955
404.000000	12.023443
403.000000	11.648616
402.000000	11.273205
401.000000	10.925498
400.000000	10.600246
399.000000	10.280729
398.000000	9.959463
397.000000	9.649569
396.000000	9.365046
395.000000	9.108130
394.000000	8.841202
393.000000	8.587882
392.000000	8.363627
391.000000	8.141317
390.000000	7.950501
389.000000	7.769503
388.000000	7.599586
387.000000	7.455624
386.000000	7.314966
385.000000	7.182377
384.000000	7.067771
383.000000	6.949957
382.000000	6.828546
381.000000	6.736880
380.000000	6.637633
379.000000	6.547037
378.000000	6.478506
377.000000	6.421349
376.000000	6.333863
375.000000	6.338724
374.000000	6.358068
373.000000	6.243753
372.000000	6.162391
371.000000	6.107761
370.000000	6.077725
369.000000	6.056631
368.000000	5.979255
367.000000	5.973908
366.000000	5.950190
365.000000	5.956411
364.000000	6.010750
363.000000	5.845305
362.000000	5.869023
361.000000	5.849970
360.000000	5.825086
359.000000	5.781732
358.000000	5.746835
357.000000	5.708924
356.000000	5.718839
355.000000	5.681318
354.000000	5.679859
353.000000	5.639033
352.000000	5.624452
351.000000	5.542604
350.000000	5.536772
349.000000	5.585278
348.000000	5.552325
347.000000	5.494293
346.000000	5.532786
345.000000	5.519664
344.000000	5.539008
343.000000	5.470283
342.000000	5.492932
341.000000	5.492835
340.000000	5.470574
339.000000	5.442190
338.000000	5.564573
337.000000	5.500903
336.000000	5.413514
335.000000	5.396600
334.000000	5.515386
333.000000	5.392032
332.000000	5.428678
331.000000	5.481947
330.000000	5.399128
329.000000	5.433830
328.000000	5.439177
327.000000	5.431595
326.000000	5.359468
325.000000	5.485252
324.000000	5.333902
323.000000	5.348192
322.000000	5.425957
321.000000	5.431886
320.000000	5.448022
319.000000	5.455993
318.000000	5.468727
317.000000	5.473102
316.000000	5.410792
315.000000	5.384936
314.000000	5.429748
313.000000	5.417305
312.000000	5.399419
311.000000	5.477573
310.000000	5.431886
309.000000	5.387366
308.000000	5.432664
307.000000	5.473102
306.000000	5.483503
305.000000	5.467075
304.000000	5.486905
303.000000	5.487780
302.000000	5.465520
301.000000	5.449092
300.000000	5.478059
299.000000	5.489044
298.000000	5.490599
297.000000	5.497889
296.000000	5.507999
295.000000	5.519664
294.000000	5.541438
293.000000	5.522288
292.000000	5.551450
291.000000	5.547270
290.000000	5.554463
289.000000	5.574779
288.000000	5.590916
287.000000	5.576140
286.000000	5.531037
285.000000	5.592374
284.000000	5.595193
283.000000	5.584889
282.000000	5.601997
281.000000	5.640588
280.000000	5.621050
279.000000	5.651670
278.000000	5.623383
277.000000	5.677915
276.000000	5.645060
275.000000	5.619106
274.000000	5.674221
273.000000	5.647684
272.000000	5.649142
271.000000	5.702508
270.000000	5.687150
269.000000	5.695607
268.000000	5.681512
267.000000	5.686275
266.000000	5.725838
265.000000	5.703772
264.000000	5.791161
263.000000	5.754805
262.000000	5.785037
261.000000	5.814101
260.000000	5.838597
259.000000	5.821781
258.000000	5.864357
257.000000	5.855997
256.000000	5.896046
255.000000	5.918598
254.000000	5.870481
253.000000	5.895463
252.000000	5.908294
251.000000	5.942705
250.000000	5.950093
