PE UV       SUBTECH     SPECTRUM    ASCII       PEDS        4.00        
   -1
CICIMAUCR0104-2.Sample.ASC
24/04/04
10:52:55.00
24/04/04
10:52:55.00
Vinicio Soto Monge
C. resplendens
250,000000
1
Lambda 1050
1050L1511233
PerkinElmer UV WinLab 6.3.2.0749 / 2.02.05 Lambda 900 UV/VIS/NIR, Aug  7 2015 09:38:08

0
0
3350/servo 860,8/2
0
0
UV/VIS
1
1
1
DoubleDePol,CommonBeamDepol,RBeamAtt,SBeamAtt,60mm sphere, WB InGaAs Detector
0
0
0
0
Program
Program
3350/servo 860,8/2
3350/0,2 860,8/0,2
3350/0,2 860,8/0,2
0
15.00
 
 
 
0
 
860,8
319,2
860,8
Front
100
on
S:100 R:100
0
0
0
0
 
0
 
 
 
0
 
 
0
0
0
0
0
 
 
 
 
0
0


0
0
#HDR
-1
-1
#GR
nm
%R
1.0
0.0
2500,000000
-1,000000
2251
8
74,605500
5,229500
#DATA
2500.000000	6.116600
2499.000000	6.284000
2498.000000	6.176800
2497.000000	6.216000
2496.000000	6.222200
2495.000000	6.101900
2494.000000	6.119800
2493.000000	6.182600
2492.000000	6.198200
2491.000000	6.058300
2490.000000	6.092300
2489.000000	6.178200
2488.000000	6.223600
2487.000000	6.162500
2486.000000	6.144500
2485.000000	6.143300
2484.000000	6.073600
2483.000000	6.131900
2482.000000	6.182100
2481.000000	6.136600
2480.000000	6.165800
2479.000000	6.126400
2478.000000	6.179000
2477.000000	6.193900
2476.000000	6.199700
2475.000000	6.177700
2474.000000	6.177000
2473.000000	6.239200
2472.000000	6.251800
2471.000000	6.197000
2470.000000	6.238800
2469.000000	6.281400
2468.000000	6.284800
2467.000000	6.302700
2466.000000	6.344100
2465.000000	6.359000
2464.000000	6.376800
2463.000000	6.423000
2462.000000	6.473700
2461.000000	6.480500
2460.000000	6.546200
2459.000000	6.564500
2458.000000	6.588000
2457.000000	6.653200
2456.000000	6.698900
2455.000000	6.760100
2454.000000	6.833200
2453.000000	6.899000
2452.000000	6.974500
2451.000000	7.032100
2450.000000	7.084500
2449.000000	7.137600
2448.000000	7.212900
2447.000000	7.279700
2446.000000	7.360600
2445.000000	7.419200
2444.000000	7.475400
2443.000000	7.552200
2442.000000	7.629000
2441.000000	7.689400
2440.000000	7.756400
2439.000000	7.815400
2438.000000	7.884600
2437.000000	7.958800
2436.000000	8.020500
2435.000000	8.070100
2434.000000	8.139800
2433.000000	8.209000
2432.000000	8.275000
2431.000000	8.310200
2430.000000	8.379800
2429.000000	8.431000
2428.000000	8.478400
2427.000000	8.516800
2426.000000	8.553300
2425.000000	8.625100
2424.000000	8.654900
2423.000000	8.702200
2422.000000	8.765200
2421.000000	8.813000
2420.000000	8.854200
2419.000000	8.892000
2418.000000	8.931000
2417.000000	8.949500
2416.000000	8.981000
2415.000000	9.028100
2414.000000	9.072800
2413.000000	9.113100
2412.000000	9.137800
2411.000000	9.186200
2410.000000	9.196100
2409.000000	9.222100
2408.000000	9.272500
2407.000000	9.315700
2406.000000	9.326700
2405.000000	9.352500
2404.000000	9.397600
2403.000000	9.431200
2402.000000	9.453100
2401.000000	9.495900
2400.000000	9.519600
2399.000000	9.547600
2398.000000	9.594500
2397.000000	9.619500
2396.000000	9.639600
2395.000000	9.686700
2394.000000	9.702300
2393.000000	9.720400
2392.000000	9.745500
2391.000000	9.773800
2390.000000	9.790500
2389.000000	9.805800
2388.000000	9.828400
2387.000000	9.837200
2386.000000	9.839200
2385.000000	9.846800
2384.000000	9.858700
2383.000000	9.850100
2382.000000	9.837800
2381.000000	9.823300
2380.000000	9.815600
2379.000000	9.823100
2378.000000	9.811200
2377.000000	9.788500
2376.000000	9.777900
2375.000000	9.759100
2374.000000	9.731600
2373.000000	9.704400
2372.000000	9.689800
2371.000000	9.663900
2370.000000	9.628300
2369.000000	9.595400
2368.000000	9.562800
2367.000000	9.516700
2366.000000	9.462200
2365.000000	9.424100
2364.000000	9.380400
2363.000000	9.319400
2362.000000	9.263300
2361.000000	9.207800
2360.000000	9.161700
2359.000000	9.112600
2358.000000	9.062100
2357.000000	9.009800
2356.000000	8.964100
2355.000000	8.930700
2354.000000	8.913000
2353.000000	8.896700
2352.000000	8.883400
2351.000000	8.878200
2350.000000	8.871700
2349.000000	8.884800
2348.000000	8.912400
2347.000000	8.939800
2346.000000	8.962900
2345.000000	8.986000
2344.000000	9.001700
2343.000000	9.039500
2342.000000	9.074500
2341.000000	9.087700
2340.000000	9.099200
2339.000000	9.102200
2338.000000	9.089900
2337.000000	9.083600
2336.000000	9.080200
2335.000000	9.066300
2334.000000	9.027000
2333.000000	9.003100
2332.000000	8.983300
2331.000000	8.946600
2330.000000	8.893100
2329.000000	8.840000
2328.000000	8.802600
2327.000000	8.748900
2326.000000	8.677500
2325.000000	8.621700
2324.000000	8.551800
2323.000000	8.470800
2322.000000	8.391800
2321.000000	8.309800
2320.000000	8.224200
2319.000000	8.135000
2318.000000	8.046900
2317.000000	7.959700
2316.000000	7.855900
2315.000000	7.767900
2314.000000	7.685200
2313.000000	7.595600
2312.000000	7.506800
2311.000000	7.430200
2310.000000	7.370000
2309.000000	7.308400
2308.000000	7.264500
2307.000000	7.240500
2306.000000	7.224900
2305.000000	7.221900
2304.000000	7.231700
2303.000000	7.246600
2302.000000	7.276000
2301.000000	7.300300
2300.000000	7.352300
2299.000000	7.408200
2298.000000	7.448800
2297.000000	7.491900
2296.000000	7.538700
2295.000000	7.577100
2294.000000	7.604600
2293.000000	7.642500
2292.000000	7.654600
2291.000000	7.643700
2290.000000	7.641300
2289.000000	7.643300
2288.000000	7.603800
2287.000000	7.584700
2286.000000	7.554600
2285.000000	7.502900
2284.000000	7.448800
2283.000000	7.400400
2282.000000	7.335600
2281.000000	7.291700
2280.000000	7.257200
2279.000000	7.193400
2278.000000	7.147300
2277.000000	7.103300
2276.000000	7.056300
2275.000000	6.986200
2274.000000	6.957500
2273.000000	6.945000
2272.000000	6.914000
2271.000000	6.906800
2270.000000	6.883500
2269.000000	6.900000
2268.000000	6.907900
2267.000000	6.939700
2266.000000	6.976600
2265.000000	7.058500
2264.000000	7.114300
2263.000000	7.186900
2262.000000	7.293700
2261.000000	7.416800
2260.000000	7.514300
2259.000000	7.665100
2258.000000	7.803800
2257.000000	7.930200
2256.000000	8.116000
2255.000000	8.222100
2254.000000	8.373000
2253.000000	8.513800
2252.000000	8.682200
2251.000000	8.771500
2250.000000	8.921100
2249.000000	9.041200
2248.000000	9.156000
2247.000000	9.298400
2246.000000	9.384000
2245.000000	9.477900
2244.000000	9.563100
2243.000000	9.633700
2242.000000	9.703900
2241.000000	9.796500
2240.000000	9.828900
2239.000000	9.902900
2238.000000	9.963400
2237.000000	10.014500
2236.000000	10.046900
2235.000000	10.080500
2234.000000	10.087400
2233.000000	10.105000
2232.000000	10.116100
2231.000000	10.137700
2230.000000	10.144600
2229.000000	10.113600
2228.000000	10.089600
2227.000000	10.044700
2226.000000	10.005900
2225.000000	9.974000
2224.000000	9.896700
2223.000000	9.845000
2222.000000	9.779700
2221.000000	9.727400
2220.000000	9.671900
2219.000000	9.598600
2218.000000	9.524600
2217.000000	9.444500
2216.000000	9.407200
2215.000000	9.347200
2214.000000	9.311400
2213.000000	9.265900
2212.000000	9.233600
2211.000000	9.242100
2210.000000	9.256800
2209.000000	9.259300
2208.000000	9.316600
2207.000000	9.356300
2206.000000	9.463300
2205.000000	9.536300
2204.000000	9.628600
2203.000000	9.756900
2202.000000	9.877100
2201.000000	10.016500
2200.000000	10.160800
2199.000000	10.312400
2198.000000	10.469400
2197.000000	10.618900
2196.000000	10.777700
2195.000000	10.913200
2194.000000	11.055100
2193.000000	11.184400
2192.000000	11.315600
2191.000000	11.432900
2190.000000	11.535000
2189.000000	11.635800
2188.000000	11.718300
2187.000000	11.796300
2186.000000	11.866000
2185.000000	11.918400
2184.000000	11.987700
2183.000000	12.030200
2182.000000	12.058000
2181.000000	12.107900
2180.000000	12.142600
2179.000000	12.182200
2178.000000	12.195200
2177.000000	12.226700
2176.000000	12.267200
2175.000000	12.290300
2174.000000	12.316000
2173.000000	12.343100
2172.000000	12.375300
2171.000000	12.395900
2170.000000	12.456700
2169.000000	12.474800
2168.000000	12.508100
2167.000000	12.554000
2166.000000	12.566000
2165.000000	12.613900
2164.000000	12.640200
2163.000000	12.676600
2162.000000	12.718200
2161.000000	12.758400
2160.000000	12.809000
2159.000000	12.857300
2158.000000	12.901700
2157.000000	12.940900
2156.000000	12.993900
2155.000000	13.050800
2154.000000	13.113200
2153.000000	13.181800
2152.000000	13.224800
2151.000000	13.287800
2150.000000	13.343200
2149.000000	13.399300
2148.000000	13.459400
2147.000000	13.519700
2146.000000	13.572300
2145.000000	13.624000
2144.000000	13.681600
2143.000000	13.735700
2142.000000	13.794800
2141.000000	13.840000
2140.000000	13.885500
2139.000000	13.930600
2138.000000	13.977100
2137.000000	14.004400
2136.000000	14.021100
2135.000000	14.066700
2134.000000	14.104500
2133.000000	14.131900
2132.000000	14.164700
2131.000000	14.182400
2130.000000	14.201500
2129.000000	14.214200
2128.000000	14.239800
2127.000000	14.262200
2126.000000	14.268100
2125.000000	14.259100
2124.000000	14.254700
2123.000000	14.258700
2122.000000	14.258000
2121.000000	14.232400
2120.000000	14.236700
2119.000000	14.241200
2118.000000	14.216000
2117.000000	14.199600
2116.000000	14.196400
2115.000000	14.181100
2114.000000	14.151500
2113.000000	14.140400
2112.000000	14.125300
2111.000000	14.091900
2110.000000	14.059300
2109.000000	14.038200
2108.000000	14.020600
2107.000000	13.999700
2106.000000	13.968300
2105.000000	13.955300
2104.000000	13.948200
2103.000000	13.909500
2102.000000	13.874300
2101.000000	13.845500
2100.000000	13.823100
2099.000000	13.821900
2098.000000	13.800100
2097.000000	13.772400
2096.000000	13.755300
2095.000000	13.740500
2094.000000	13.728200
2093.000000	13.720900
2092.000000	13.717200
2091.000000	13.702200
2090.000000	13.677200
2089.000000	13.658300
2088.000000	13.653300
2087.000000	13.641800
2086.000000	13.627200
2085.000000	13.610800
2084.000000	13.597800
2083.000000	13.568900
2082.000000	13.550900
2081.000000	13.553500
2080.000000	13.532100
2079.000000	13.499900
2078.000000	13.477100
2077.000000	13.446200
2076.000000	13.417800
2075.000000	13.385900
2074.000000	13.350000
2073.000000	13.316300
2072.000000	13.283500
2071.000000	13.258000
2070.000000	13.227900
2069.000000	13.176400
2068.000000	13.141400
2067.000000	13.118000
2066.000000	13.074900
2065.000000	13.052600
2064.000000	13.026400
2063.000000	13.005500
2062.000000	12.984300
2061.000000	12.962800
2060.000000	12.957500
2059.000000	12.957200
2058.000000	12.946100
2057.000000	12.972600
2056.000000	13.001400
2055.000000	13.020000
2054.000000	13.060900
2053.000000	13.133100
2052.000000	13.205500
2051.000000	13.275700
2050.000000	13.366300
2049.000000	13.452100
2048.000000	13.567100
2047.000000	13.697200
2046.000000	13.815400
2045.000000	13.965600
2044.000000	14.104400
2043.000000	14.237400
2042.000000	14.378900
2041.000000	14.519100
2040.000000	14.654200
2039.000000	14.804000
2038.000000	14.917300
2037.000000	15.050800
2036.000000	15.191200
2035.000000	15.303500
2034.000000	15.410000
2033.000000	15.526700
2032.000000	15.638700
2031.000000	15.743800
2030.000000	15.846500
2029.000000	15.946000
2028.000000	16.040800
2027.000000	16.123300
2026.000000	16.201100
2025.000000	16.249600
2024.000000	16.337800
2023.000000	16.413700
2022.000000	16.499600
2021.000000	16.563000
2020.000000	16.633900
2019.000000	16.695900
2018.000000	16.772500
2017.000000	16.835200
2016.000000	16.862400
2015.000000	16.915000
2014.000000	16.965000
2013.000000	16.999000
2012.000000	17.047900
2011.000000	17.081700
2010.000000	17.098900
2009.000000	17.134700
2008.000000	17.139600
2007.000000	17.144300
2006.000000	17.144500
2005.000000	17.156300
2004.000000	17.166100
2003.000000	17.162200
2002.000000	17.155400
2001.000000	17.131100
2000.000000	17.101500
1999.000000	17.085700
1998.000000	17.055200
1997.000000	17.038100
1996.000000	16.997200
1995.000000	16.995300
1994.000000	16.939900
1993.000000	16.878100
1992.000000	16.847000
1991.000000	16.821500
1990.000000	16.741900
1989.000000	16.689700
1988.000000	16.634400
1987.000000	16.582200
1986.000000	16.497300
1985.000000	16.460600
1984.000000	16.385800
1983.000000	16.332500
1982.000000	16.282600
1981.000000	16.192500
1980.000000	16.141200
1979.000000	16.069700
1978.000000	16.003300
1977.000000	15.940600
1976.000000	15.864000
1975.000000	15.820000
1974.000000	15.748600
1973.000000	15.676000
1972.000000	15.603000
1971.000000	15.543300
1970.000000	15.495900
1969.000000	15.436700
1968.000000	15.373700
1967.000000	15.303900
1966.000000	15.270900
1965.000000	15.206900
1964.000000	15.134700
1963.000000	15.083800
1962.000000	15.027200
1961.000000	14.966300
1960.000000	14.896200
1959.000000	14.838000
1958.000000	14.769200
1957.000000	14.732300
1956.000000	14.649600
1955.000000	14.619800
1954.000000	14.531500
1953.000000	14.480300
1952.000000	14.416300
1951.000000	14.374300
1950.000000	14.326500
1949.000000	14.260600
1948.000000	14.238300
1947.000000	14.186600
1946.000000	14.146300
1945.000000	14.116700
1944.000000	14.076700
1943.000000	14.050800
1942.000000	14.042200
1941.000000	14.029900
1940.000000	14.036800
1939.000000	14.019400
1938.000000	14.017600
1937.000000	14.032400
1936.000000	14.035200
1935.000000	14.057500
1934.000000	14.093300
1933.000000	14.148900
1932.000000	14.196800
1931.000000	14.254500
1930.000000	14.326700
1929.000000	14.394700
1928.000000	14.480400
1927.000000	14.562100
1926.000000	14.656000
1925.000000	14.772200
1924.000000	14.893000
1923.000000	14.997400
1922.000000	15.134600
1921.000000	15.298300
1920.000000	15.425700
1919.000000	15.570900
1918.000000	15.752800
1917.000000	15.920900
1916.000000	16.094900
1915.000000	16.273400
1914.000000	16.480900
1913.000000	16.694000
1912.000000	16.914800
1911.000000	17.124200
1910.000000	17.330100
1909.000000	17.534300
1908.000000	17.768600
1907.000000	18.009000
1906.000000	18.300400
1905.000000	18.562500
1904.000000	18.827200
1903.000000	19.096600
1902.000000	19.352200
1901.000000	19.630500
1900.000000	19.926600
1899.000000	20.219100
1898.000000	20.487200
1897.000000	20.790200
1896.000000	21.061500
1895.000000	21.327600
1894.000000	21.621300
1893.000000	21.939300
1892.000000	22.254000
1891.000000	22.567500
1890.000000	22.856900
1889.000000	23.146400
1888.000000	23.484500
1887.000000	23.828100
1886.000000	24.184700
1885.000000	24.590900
1884.000000	25.051000
1883.000000	25.498000
1882.000000	25.950600
1881.000000	26.424200
1880.000000	26.868400
1879.000000	27.315000
1878.000000	27.747100
1877.000000	28.135300
1876.000000	28.527500
1875.000000	28.893100
1874.000000	29.209500
1873.000000	29.487700
1872.000000	29.748700
1871.000000	29.968400
1870.000000	30.124200
1869.000000	30.280300
1868.000000	30.432200
1867.000000	30.523000
1866.000000	30.593700
1865.000000	30.681400
1864.000000	30.751900
1863.000000	30.843100
1862.000000	30.921600
1861.000000	30.975500
1860.000000	31.019900
1859.000000	31.024900
1858.000000	31.010800
1857.000000	31.010800
1856.000000	31.014000
1855.000000	30.997000
1854.000000	30.930900
1853.000000	30.856400
1852.000000	30.817200
1851.000000	30.810700
1850.000000	30.804700
1849.000000	30.767200
1848.000000	30.676500
1847.000000	30.559500
1846.000000	30.457700
1845.000000	30.403800
1844.000000	30.396800
1843.000000	30.410200
1842.000000	30.390500
1841.000000	30.321200
1840.000000	30.250800
1839.000000	30.201900
1838.000000	30.155000
1837.000000	30.081900
1836.000000	29.981200
1835.000000	29.873600
1834.000000	29.797300
1833.000000	29.732200
1832.000000	29.665000
1831.000000	29.587700
1830.000000	29.503100
1829.000000	29.415800
1828.000000	29.314300
1827.000000	29.236400
1826.000000	29.149000
1825.000000	29.081600
1824.000000	29.070000
1823.000000	29.099800
1822.000000	29.104600
1821.000000	29.055900
1820.000000	28.989100
1819.000000	28.933600
1818.000000	28.925400
1817.000000	28.939000
1816.000000	28.937200
1815.000000	28.913900
1814.000000	28.912700
1813.000000	28.908900
1812.000000	28.873800
1811.000000	28.830700
1810.000000	28.792300
1809.000000	28.754300
1808.000000	28.712400
1807.000000	28.668700
1806.000000	28.627300
1805.000000	28.571200
1804.000000	28.518800
1803.000000	28.480800
1802.000000	28.448800
1801.000000	28.389300
1800.000000	28.320000
1799.000000	28.258300
1798.000000	28.207000
1797.000000	28.163300
1796.000000	28.124900
1795.000000	28.065000
1794.000000	28.014300
1793.000000	27.951100
1792.000000	27.899000
1791.000000	27.841900
1790.000000	27.773100
1789.000000	27.712000
1788.000000	27.644100
1787.000000	27.593200
1786.000000	27.525900
1785.000000	27.436000
1784.000000	27.349100
1783.000000	27.268100
1782.000000	27.183100
1781.000000	27.087500
1780.000000	27.001200
1779.000000	26.900100
1778.000000	26.783300
1777.000000	26.657900
1776.000000	26.543500
1775.000000	26.405600
1774.000000	26.249000
1773.000000	26.108300
1772.000000	25.961100
1771.000000	25.822200
1770.000000	25.660700
1769.000000	25.532100
1768.000000	25.405000
1767.000000	25.274600
1766.000000	25.188200
1765.000000	25.108800
1764.000000	25.070300
1763.000000	25.046200
1762.000000	25.059700
1761.000000	25.097100
1760.000000	25.144600
1759.000000	25.213600
1758.000000	25.255900
1757.000000	25.317000
1756.000000	25.351700
1755.000000	25.375300
1754.000000	25.373400
1753.000000	25.353600
1752.000000	25.320200
1751.000000	25.265200
1750.000000	25.202300
1749.000000	25.109500
1748.000000	25.023700
1747.000000	24.883200
1746.000000	24.752500
1745.000000	24.595800
1744.000000	24.405700
1743.000000	24.193100
1742.000000	23.951400
1741.000000	23.707900
1740.000000	23.447000
1739.000000	23.220800
1738.000000	22.986900
1737.000000	22.801500
1736.000000	22.683600
1735.000000	22.581500
1734.000000	22.548400
1733.000000	22.553100
1732.000000	22.614200
1731.000000	22.677000
1730.000000	22.789800
1729.000000	22.879100
1728.000000	22.997700
1727.000000	23.087200
1726.000000	23.170200
1725.000000	23.234700
1724.000000	23.274000
1723.000000	23.301300
1722.000000	23.323700
1721.000000	23.348300
1720.000000	23.394500
1719.000000	23.436900
1718.000000	23.496600
1717.000000	23.588900
1716.000000	23.676300
1715.000000	23.753600
1714.000000	23.836100
1713.000000	23.917300
1712.000000	23.972100
1711.000000	24.021600
1710.000000	24.043600
1709.000000	24.042800
1708.000000	24.033800
1707.000000	24.012700
1706.000000	23.964100
1705.000000	23.936500
1704.000000	23.868500
1703.000000	23.794400
1702.000000	23.656200
1701.000000	23.508500
1700.000000	23.338900
1699.000000	23.195000
1698.000000	23.041300
1697.000000	22.942400
1696.000000	22.887200
1695.000000	22.894000
1694.000000	22.957200
1693.000000	23.115500
1692.000000	23.248700
1691.000000	23.409600
1690.000000	23.541100
1689.000000	23.647400
1688.000000	23.694800
1687.000000	23.720000
1686.000000	23.725300
1685.000000	23.801900
1684.000000	23.966000
1683.000000	24.226100
1682.000000	24.618900
1681.000000	25.134000
1680.000000	25.728300
1679.000000	26.297300
1678.000000	26.875000
1677.000000	27.410600
1676.000000	27.893400
1675.000000	28.288300
1674.000000	28.648400
1673.000000	28.960300
1672.000000	29.247700
1671.000000	29.474300
1670.000000	29.682300
1669.000000	29.877800
1668.000000	30.061700
1667.000000	30.221000
1666.000000	30.362500
1665.000000	30.458300
1664.000000	30.565000
1663.000000	30.655600
1662.000000	30.745000
1661.000000	30.812500
1660.000000	30.874700
1659.000000	30.914200
1658.000000	30.960200
1657.000000	30.981800
1656.000000	30.998800
1655.000000	31.012300
1654.000000	31.012400
1653.000000	31.006400
1652.000000	30.983200
1651.000000	30.960600
1650.000000	30.948600
1649.000000	30.890100
1648.000000	30.855800
1647.000000	30.812200
1646.000000	30.753000
1645.000000	30.696400
1644.000000	30.649000
1643.000000	30.592300
1642.000000	30.522800
1641.000000	30.462000
1640.000000	30.404800
1639.000000	30.335400
1638.000000	30.274100
1637.000000	30.193200
1636.000000	30.125800
1635.000000	30.054300
1634.000000	29.969600
1633.000000	29.884900
1632.000000	29.807100
1631.000000	29.724900
1630.000000	29.637700
1629.000000	29.534100
1628.000000	29.454000
1627.000000	29.367000
1626.000000	29.269800
1625.000000	29.174300
1624.000000	29.098500
1623.000000	29.015800
1622.000000	28.922000
1621.000000	28.845500
1620.000000	28.763600
1619.000000	28.675800
1618.000000	28.593700
1617.000000	28.511000
1616.000000	28.437200
1615.000000	28.359800
1614.000000	28.279100
1613.000000	28.197000
1612.000000	28.121800
1611.000000	28.047700
1610.000000	27.983700
1609.000000	27.897500
1608.000000	27.813400
1607.000000	27.745100
1606.000000	27.665900
1605.000000	27.592300
1604.000000	27.513300
1603.000000	27.429300
1602.000000	27.360100
1601.000000	27.275800
1600.000000	27.198100
1599.000000	27.132000
1598.000000	27.080800
1597.000000	27.008500
1596.000000	26.941400
1595.000000	26.876000
1594.000000	26.827900
1593.000000	26.779200
1592.000000	26.737400
1591.000000	26.677500
1590.000000	26.631100
1589.000000	26.584800
1588.000000	26.536100
1587.000000	26.504900
1586.000000	26.488900
1585.000000	26.463200
1584.000000	26.430000
1583.000000	26.392400
1582.000000	26.359600
1581.000000	26.354000
1580.000000	26.343500
1579.000000	26.323900
1578.000000	26.324300
1577.000000	26.330900
1576.000000	26.344500
1575.000000	26.356700
1574.000000	26.363100
1573.000000	26.380900
1572.000000	26.404300
1571.000000	26.426700
1570.000000	26.462000
1569.000000	26.492300
1568.000000	26.530700
1567.000000	26.576700
1566.000000	26.605000
1565.000000	26.640700
1564.000000	26.689800
1563.000000	26.721100
1562.000000	26.746100
1561.000000	26.777000
1560.000000	26.802000
1559.000000	26.811000
1558.000000	26.818700
1557.000000	26.825800
1556.000000	26.829900
1555.000000	26.827200
1554.000000	26.831500
1553.000000	26.830400
1552.000000	26.810800
1551.000000	26.798100
1550.000000	26.783700
1549.000000	26.765500
1548.000000	26.739200
1547.000000	26.724700
1546.000000	26.707500
1545.000000	26.699500
1544.000000	26.690400
1543.000000	26.675600
1542.000000	26.674500
1541.000000	26.673800
1540.000000	26.671500
1539.000000	26.677700
1538.000000	26.669000
1537.000000	26.668300
1536.000000	26.656500
1535.000000	26.651100
1534.000000	26.658800
1533.000000	26.645900
1532.000000	26.626400
1531.000000	26.614900
1530.000000	26.589600
1529.000000	26.574700
1528.000000	26.548600
1527.000000	26.519500
1526.000000	26.491900
1525.000000	26.461200
1524.000000	26.436300
1523.000000	26.417600
1522.000000	26.378200
1521.000000	26.358100
1520.000000	26.324700
1519.000000	26.283800
1518.000000	26.259300
1517.000000	26.230300
1516.000000	26.201800
1515.000000	26.174000
1514.000000	26.131200
1513.000000	26.112100
1512.000000	26.080200
1511.000000	26.046200
1510.000000	25.995800
1509.000000	25.970300
1508.000000	25.920100
1507.000000	25.894000
1506.000000	25.875500
1505.000000	25.847200
1504.000000	25.799700
1503.000000	25.772700
1502.000000	25.731300
1501.000000	25.720800
1500.000000	25.706000
1499.000000	25.696900
1498.000000	25.665200
1497.000000	25.666600
1496.000000	25.648400
1495.000000	25.663800
1494.000000	25.653800
1493.000000	25.653700
1492.000000	25.668200
1491.000000	25.670400
1490.000000	25.688300
1489.000000	25.710000
1488.000000	25.713200
1487.000000	25.727000
1486.000000	25.735100
1485.000000	25.750000
1484.000000	25.765000
1483.000000	25.802900
1482.000000	25.836100
1481.000000	25.856300
1480.000000	25.901800
1479.000000	25.922200
1478.000000	25.974400
1477.000000	26.020500
1476.000000	26.056400
1475.000000	26.104800
1474.000000	26.146400
1473.000000	26.227700
1472.000000	26.278400
1471.000000	26.327500
1470.000000	26.385800
1469.000000	26.412200
1468.000000	26.464500
1467.000000	26.530500
1466.000000	26.588100
1465.000000	26.627600
1464.000000	26.703300
1463.000000	26.773400
1462.000000	26.862000
1461.000000	26.916000
1460.000000	27.001000
1459.000000	27.111200
1458.000000	27.195100
1457.000000	27.288600
1456.000000	27.389000
1455.000000	27.477700
1454.000000	27.584500
1453.000000	27.699000
1452.000000	27.837300
1451.000000	27.946600
1450.000000	28.040200
1449.000000	28.123900
1448.000000	28.265300
1447.000000	28.412600
1446.000000	28.554700
1445.000000	28.645400
1444.000000	28.749000
1443.000000	28.893500
1442.000000	29.019400
1441.000000	29.131600
1440.000000	29.270100
1439.000000	29.406300
1438.000000	29.531400
1437.000000	29.638700
1436.000000	29.752100
1435.000000	29.898700
1434.000000	30.026800
1433.000000	30.171500
1432.000000	30.283200
1431.000000	30.434700
1430.000000	30.566100
1429.000000	30.727400
1428.000000	30.913900
1427.000000	31.097100
1426.000000	31.293400
1425.000000	31.502200
1424.000000	31.729400
1423.000000	31.908900
1422.000000	32.101200
1421.000000	32.355000
1420.000000	32.584200
1419.000000	32.789300
1418.000000	32.972300
1417.000000	33.128400
1416.000000	33.382800
1415.000000	33.660100
1414.000000	33.813100
1413.000000	33.975700
1412.000000	34.130600
1411.000000	34.403000
1410.000000	34.694600
1409.000000	34.968000
1408.000000	35.271200
1407.000000	35.564500
1406.000000	35.879200
1405.000000	36.167200
1404.000000	36.420300
1403.000000	36.721800
1402.000000	37.041400
1401.000000	37.391500
1400.000000	37.506700
1399.000000	37.589200
1398.000000	37.700000
1397.000000	37.870900
1396.000000	37.977600
1395.000000	37.937200
1394.000000	37.915500
1393.000000	37.933000
1392.000000	37.930700
1391.000000	37.918800
1390.000000	37.978900
1389.000000	38.091800
1388.000000	38.207100
1387.000000	38.338200
1386.000000	38.561100
1385.000000	38.880000
1384.000000	39.273300
1383.000000	39.588700
1382.000000	39.947000
1381.000000	40.295500
1380.000000	40.615700
1379.000000	40.965400
1378.000000	41.356000
1377.000000	41.843200
1376.000000	42.362400
1375.000000	42.931100
1374.000000	43.571700
1373.000000	44.215600
1372.000000	44.845800
1371.000000	45.419700
1370.000000	45.872500
1369.000000	46.288600
1368.000000	46.657500
1367.000000	46.948200
1366.000000	47.204300
1365.000000	47.433700
1364.000000	47.642900
1363.000000	47.859300
1362.000000	48.057400
1361.000000	48.129400
1360.000000	48.132000
1359.000000	48.278500
1358.000000	48.407000
1357.000000	48.604600
1356.000000	48.934200
1355.000000	49.356000
1354.000000	49.810000
1353.000000	50.287500
1352.000000	50.863500
1351.000000	51.382700
1350.000000	51.870400
1349.000000	52.313200
1348.000000	52.744300
1347.000000	53.135600
1346.000000	53.486600
1345.000000	53.836600
1344.000000	54.177500
1343.000000	54.472700
1342.000000	54.769900
1341.000000	55.069500
1340.000000	55.341000
1339.000000	55.581300
1338.000000	55.826300
1337.000000	56.070700
1336.000000	56.310800
1335.000000	56.525700
1334.000000	56.732100
1333.000000	56.924600
1332.000000	57.116600
1331.000000	57.300400
1330.000000	57.461100
1329.000000	57.622200
1328.000000	57.767300
1327.000000	57.900900
1326.000000	58.035900
1325.000000	58.165000
1324.000000	58.281200
1323.000000	58.398700
1322.000000	58.494100
1321.000000	58.580700
1320.000000	58.690400
1319.000000	58.778500
1318.000000	58.855500
1317.000000	58.929300
1316.000000	59.009900
1315.000000	59.088400
1314.000000	59.156800
1313.000000	59.224200
1312.000000	59.275000
1311.000000	59.344900
1310.000000	59.406800
1309.000000	59.445200
1308.000000	59.486800
1307.000000	59.521800
1306.000000	59.539200
1305.000000	59.564100
1304.000000	59.587000
1303.000000	59.586100
1302.000000	59.587900
1301.000000	59.588500
1300.000000	59.588500
1299.000000	59.588000
1298.000000	59.573700
1297.000000	59.555300
1296.000000	59.538700
1295.000000	59.532600
1294.000000	59.508900
1293.000000	59.476500
1292.000000	59.447700
1291.000000	59.415300
1290.000000	59.378400
1289.000000	59.322900
1288.000000	59.263700
1287.000000	59.197700
1286.000000	59.131500
1285.000000	59.066900
1284.000000	59.000100
1283.000000	58.918800
1282.000000	58.838500
1281.000000	58.768400
1280.000000	58.709400
1279.000000	58.642900
1278.000000	58.570700
1277.000000	58.505600
1276.000000	58.452900
1275.000000	58.406400
1274.000000	58.366300
1273.000000	58.327500
1272.000000	58.285200
1271.000000	58.257200
1270.000000	58.221900
1269.000000	58.166000
1268.000000	58.112200
1267.000000	58.066500
1266.000000	58.023300
1265.000000	57.967800
1264.000000	57.908600
1263.000000	57.861300
1262.000000	57.800200
1261.000000	57.746600
1260.000000	57.694300
1259.000000	57.623400
1258.000000	57.566600
1257.000000	57.509300
1256.000000	57.418500
1255.000000	57.344300
1254.000000	57.284000
1253.000000	57.209700
1252.000000	57.122600
1251.000000	57.041200
1250.000000	56.950100
1249.000000	56.835800
1248.000000	56.730500
1247.000000	56.618900
1246.000000	56.509400
1245.000000	56.401300
1244.000000	56.282900
1243.000000	56.156000
1242.000000	56.025800
1241.000000	55.905800
1240.000000	55.772700
1239.000000	55.656200
1238.000000	55.525700
1237.000000	55.406400
1236.000000	55.271800
1235.000000	55.128900
1234.000000	54.989500
1233.000000	54.849100
1232.000000	54.696200
1231.000000	54.539300
1230.000000	54.375500
1229.000000	54.213400
1228.000000	54.060400
1227.000000	53.888100
1226.000000	53.727700
1225.000000	53.543600
1224.000000	53.393100
1223.000000	53.235000
1222.000000	53.067500
1221.000000	52.900700
1220.000000	52.763400
1219.000000	52.620300
1218.000000	52.482000
1217.000000	52.342100
1216.000000	52.215900
1215.000000	52.103300
1214.000000	51.983200
1213.000000	51.852400
1212.000000	51.744700
1211.000000	51.605300
1210.000000	51.509800
1209.000000	51.411500
1208.000000	51.311800
1207.000000	51.210100
1206.000000	51.157100
1205.000000	51.065300
1204.000000	51.050100
1203.000000	51.006600
1202.000000	50.960800
1201.000000	50.917900
1200.000000	50.844000
1199.000000	50.732200
1198.000000	50.613900
1197.000000	50.447500
1196.000000	50.248300
1195.000000	49.964800
1194.000000	49.650900
1193.000000	49.247700
1192.000000	48.840500
1191.000000	48.386900
1190.000000	47.989500
1189.000000	47.644800
1188.000000	47.403200
1187.000000	47.272800
1186.000000	47.274200
1185.000000	47.407400
1184.000000	47.662900
1183.000000	47.994900
1182.000000	48.435000
1181.000000	48.911700
1180.000000	49.402100
1179.000000	49.842600
1178.000000	50.232200
1177.000000	50.586600
1176.000000	50.900200
1175.000000	51.167700
1174.000000	51.472800
1173.000000	51.769400
1172.000000	52.081900
1171.000000	52.390400
1170.000000	52.740100
1169.000000	53.067600
1168.000000	53.405300
1167.000000	53.737300
1166.000000	54.078400
1165.000000	54.451000
1164.000000	54.801500
1163.000000	55.122700
1162.000000	55.449500
1161.000000	55.799600
1160.000000	56.125000
1159.000000	56.428700
1158.000000	56.711000
1157.000000	56.949200
1156.000000	57.184700
1155.000000	57.346800
1154.000000	57.475300
1153.000000	57.527200
1152.000000	57.538900
1151.000000	57.544900
1150.000000	57.541500
1149.000000	57.554400
1148.000000	57.569600
1147.000000	57.628300
1146.000000	57.713000
1145.000000	57.886300
1144.000000	58.104600
1143.000000	58.378400
1142.000000	58.645700
1141.000000	58.961500
1140.000000	59.233500
1139.000000	59.535800
1138.000000	59.867600
1137.000000	60.237600
1136.000000	60.551900
1135.000000	60.880100
1134.000000	61.156500
1133.000000	61.386300
1132.000000	61.647700
1131.000000	61.890800
1130.000000	62.105800
1129.000000	62.271500
1128.000000	62.430300
1127.000000	62.519600
1126.000000	62.615600
1125.000000	62.687500
1124.000000	62.754800
1123.000000	62.804400
1122.000000	62.827700
1121.000000	62.862500
1120.000000	62.890800
1119.000000	62.904000
1118.000000	62.913000
1117.000000	62.902800
1116.000000	62.892500
1115.000000	62.877800
1114.000000	62.857600
1113.000000	62.856000
1112.000000	62.827100
1111.000000	62.807500
1110.000000	62.793800
1109.000000	62.773500
1108.000000	62.752400
1107.000000	62.725400
1106.000000	62.710500
1105.000000	62.683900
1104.000000	62.658000
1103.000000	62.619800
1102.000000	62.589500
1101.000000	62.560900
1100.000000	62.521700
1099.000000	62.499200
1098.000000	62.459200
1097.000000	62.412600
1096.000000	62.383200
1095.000000	62.328100
1094.000000	62.285200
1093.000000	62.225900
1092.000000	62.172000
1091.000000	62.124900
1090.000000	62.055700
1089.000000	61.992000
1088.000000	61.925900
1087.000000	61.854700
1086.000000	61.788600
1085.000000	61.731200
1084.000000	61.664300
1083.000000	61.593200
1082.000000	61.531800
1081.000000	61.466800
1080.000000	61.411600
1079.000000	61.338000
1078.000000	61.282200
1077.000000	61.216000
1076.000000	61.163800
1075.000000	61.085200
1074.000000	61.013300
1073.000000	60.960400
1072.000000	60.902800
1071.000000	60.842400
1070.000000	60.766500
1069.000000	60.711700
1068.000000	60.663800
1067.000000	60.592300
1066.000000	60.528100
1065.000000	60.471000
1064.000000	60.409900
1063.000000	60.361200
1062.000000	60.299200
1061.000000	60.232500
1060.000000	60.171900
1059.000000	60.126900
1058.000000	60.077400
1057.000000	60.020600
1056.000000	59.958500
1055.000000	59.915200
1054.000000	59.865900
1053.000000	59.823600
1052.000000	59.783200
1051.000000	59.735900
1050.000000	59.700800
1049.000000	59.661100
1048.000000	59.621000
1047.000000	59.582800
1046.000000	59.546500
1045.000000	59.519100
1044.000000	59.490800
1043.000000	59.439100
1042.000000	59.406200
1041.000000	59.387100
1040.000000	59.351200
1039.000000	59.304900
1038.000000	59.277200
1037.000000	59.235800
1036.000000	59.175100
1035.000000	59.131000
1034.000000	59.098100
1033.000000	59.049300
1032.000000	59.005100
1031.000000	58.957600
1030.000000	58.903700
1029.000000	58.847700
1028.000000	58.800800
1027.000000	58.755900
1026.000000	58.704500
1025.000000	58.654900
1024.000000	58.590700
1023.000000	58.526400
1022.000000	58.486100
1021.000000	58.433400
1020.000000	58.387900
1019.000000	58.337700
1018.000000	58.294400
1017.000000	58.264600
1016.000000	58.239900
1015.000000	58.219000
1014.000000	58.213400
1013.000000	58.210500
1012.000000	58.205200
1011.000000	58.201500
1010.000000	58.225700
1009.000000	58.247900
1008.000000	58.260200
1007.000000	58.286000
1006.000000	58.301300
1005.000000	58.329000
1004.000000	58.346600
1003.000000	58.360100
1002.000000	58.381000
1001.000000	58.387100
1000.000000	58.410100
999.000000	58.443300
998.000000	58.458800
997.000000	58.483000
996.000000	58.509100
995.000000	58.531400
994.000000	58.585800
993.000000	58.614400
992.000000	58.645900
991.000000	58.694700
990.000000	58.749400
989.000000	58.794800
988.000000	58.811300
987.000000	58.853300
986.000000	58.918000
985.000000	58.942800
984.000000	58.990000
983.000000	59.046700
982.000000	59.090900
981.000000	59.130200
980.000000	59.197800
979.000000	59.236400
978.000000	59.295800
977.000000	59.336000
976.000000	59.393200
975.000000	59.435000
974.000000	59.505700
973.000000	59.545800
972.000000	59.609600
971.000000	59.661100
970.000000	59.704700
969.000000	59.762900
968.000000	59.807300
967.000000	59.845900
966.000000	59.889400
965.000000	59.930700
964.000000	59.982000
963.000000	60.043700
962.000000	60.082400
961.000000	60.123700
960.000000	60.145200
959.000000	60.199700
958.000000	60.255500
957.000000	60.259800
956.000000	60.284700
955.000000	60.322600
954.000000	60.327700
953.000000	60.326300
952.000000	60.335900
951.000000	60.349200
950.000000	60.343200
949.000000	60.354500
948.000000	60.329400
947.000000	60.329500
946.000000	60.341100
945.000000	60.355100
944.000000	60.342400
943.000000	60.346400
942.000000	60.383200
941.000000	60.386700
940.000000	60.419300
939.000000	60.468900
938.000000	60.477900
937.000000	60.513200
936.000000	60.568400
935.000000	60.607600
934.000000	60.660500
933.000000	60.731200
932.000000	60.749400
931.000000	60.801100
930.000000	60.873900
929.000000	60.904300
928.000000	60.951700
927.000000	61.027800
926.000000	61.064000
925.000000	61.125900
924.000000	61.175100
923.000000	61.207300
922.000000	61.272200
921.000000	61.354400
920.000000	61.392700
919.000000	61.415000
918.000000	61.477600
917.000000	61.516600
916.000000	61.539100
915.000000	61.547300
914.000000	61.574000
913.000000	61.600800
912.000000	61.618100
911.000000	61.612400
910.000000	61.680200
909.000000	61.663400
908.000000	61.684500
907.000000	61.700300
906.000000	61.718900
905.000000	61.747600
904.000000	61.741800
903.000000	61.774900
902.000000	61.803300
901.000000	61.821900
900.000000	61.840200
899.000000	61.856300
898.000000	61.875100
897.000000	61.902800
896.000000	61.915500
895.000000	61.929600
894.000000	61.922500
893.000000	61.920800
892.000000	61.923600
891.000000	61.946300
890.000000	61.961900
889.000000	61.987900
888.000000	62.018500
887.000000	62.010400
886.000000	62.037700
885.000000	62.058100
884.000000	62.102100
883.000000	62.123300
882.000000	62.180800
881.000000	62.217800
880.000000	62.275600
879.000000	62.322900
878.000000	62.389400
877.000000	62.453200
876.000000	62.497400
875.000000	62.570700
874.000000	62.617200
873.000000	62.691600
872.000000	62.749000
871.000000	62.814300
870.000000	62.872300
869.000000	62.940900
868.000000	62.991700
867.000000	63.026200
866.000000	63.048600
865.000000	63.057800
864.000000	63.043900
863.000000	63.017700
862.000000	62.931400
861.000000	62.888700
860.000000	62.883000
859.000000	62.921700
858.000000	61.471519
857.000000	61.653721
856.000000	61.853977
855.000000	61.479033
854.000000	61.412086
853.000000	61.285218
852.000000	61.562181
851.000000	61.988750
850.000000	61.588725
849.000000	61.635569
848.000000	61.640253
847.000000	61.868908
846.000000	61.808207
845.000000	61.563937
844.000000	61.705932
843.000000	61.959375
842.000000	62.039497
841.000000	61.929903
840.000000	61.833190
839.000000	61.948640
838.000000	62.137283
837.000000	62.218381
836.000000	62.171537
835.000000	62.309238
834.000000	62.737661
833.000000	62.944065
832.000000	63.127926
831.000000	63.369268
830.000000	63.346432
829.000000	63.588164
828.000000	63.870884
827.000000	64.222113
826.000000	64.464529
825.000000	64.782382
824.000000	65.049097
823.000000	65.338259
822.000000	65.487182
821.000000	65.726377
820.000000	65.974355
819.000000	66.268689
818.000000	66.495197
817.000000	66.957777
816.000000	67.121534
815.000000	67.317789
814.000000	67.611244
813.000000	67.713324
812.000000	67.948030
811.000000	68.156971
810.000000	68.262662
809.000000	68.469164
808.000000	68.747298
807.000000	68.966779
806.000000	69.178649
805.000000	69.303760
804.000000	69.488597
803.000000	69.547639
802.000000	69.631665
801.000000	69.690902
800.000000	69.882375
799.000000	70.043888
798.000000	70.016368
797.000000	70.071018
796.000000	70.209304
795.000000	70.289036
794.000000	70.321729
793.000000	70.377356
792.000000	70.471531
791.000000	70.427712
790.000000	70.374623
789.000000	70.365450
788.000000	70.412781
787.000000	70.470652
786.000000	70.539942
785.000000	70.525401
784.000000	70.567950
783.000000	70.615282
782.000000	70.587176
781.000000	70.573025
780.000000	70.634019
779.000000	70.776794
778.000000	70.860235
777.000000	70.855843
776.000000	70.768987
775.000000	70.922302
774.000000	71.074739
773.000000	71.078057
772.000000	71.072690
771.000000	71.186285
770.000000	71.318325
769.000000	71.354434
768.000000	71.342723
767.000000	71.362241
766.000000	71.385273
765.000000	71.431531
764.000000	71.514971
763.000000	71.597142
762.000000	71.569622
761.000000	71.520143
760.000000	71.552446
759.000000	71.529512
758.000000	71.477691
757.000000	71.443437
756.000000	71.387029
755.000000	71.444998
754.000000	71.448023
753.000000	71.335111
752.000000	71.196044
751.000000	71.186188
750.000000	71.201217
749.000000	71.111823
748.000000	71.028969
747.000000	70.951970
746.000000	70.876825
745.000000	70.772696
744.000000	70.679887
743.000000	70.585809
742.000000	70.518667
741.000000	70.392970
740.000000	70.195154
739.000000	70.093952
738.000000	70.005730
737.000000	69.811720
736.000000	69.646499
735.000000	69.545297
734.000000	69.412476
733.000000	69.271458
732.000000	69.098234
731.000000	68.883046
730.000000	68.667078
729.000000	68.435593
728.000000	68.164388
727.000000	67.945297
726.000000	67.726401
725.000000	67.468567
724.000000	67.166426
723.000000	66.839887
722.000000	66.449719
721.000000	66.118594
720.000000	65.858612
719.000000	65.518509
718.000000	65.168939
717.000000	64.794873
716.000000	64.438082
715.000000	64.088414
714.000000	63.792617
713.000000	63.428115
712.000000	63.102650
711.000000	62.793288
710.000000	62.509299
709.000000	62.274593
708.000000	61.995874
707.000000	61.696075
706.000000	61.480107
705.000000	61.304346
704.000000	61.142736
703.000000	61.013623
702.000000	60.867823
701.000000	60.751202
700.000000	60.634971
699.000000	60.531135
698.000000	60.438716
697.000000	60.344639
696.000000	60.288622
695.000000	60.262955
694.000000	60.212794
693.000000	60.132281
692.000000	60.111299
691.000000	60.094319
690.000000	59.966963
689.000000	59.930952
688.000000	59.862736
687.000000	59.830726
686.000000	59.812086
685.000000	59.778125
684.000000	59.716838
683.000000	59.672044
682.000000	59.594069
681.000000	59.515898
680.000000	59.402791
679.000000	59.274752
678.000000	59.148664
677.000000	58.987640
676.000000	58.787872
675.000000	58.661101
674.000000	58.485145
673.000000	58.268689
672.000000	58.054770
671.000000	57.805426
670.000000	57.541345
669.000000	57.261455
668.000000	56.950433
667.000000	56.671031
666.000000	56.391043
665.000000	55.978137
664.000000	55.611977
663.000000	55.196728
662.000000	54.723706
661.000000	54.186762
660.000000	53.696954
659.000000	53.183139
658.000000	52.650879
657.000000	52.055478
656.000000	51.495600
655.000000	50.913666
654.000000	50.329976
653.000000	49.755460
652.000000	49.211977
651.000000	48.690257
650.000000	48.184444
649.000000	47.723230
648.000000	47.337454
647.000000	47.035801
646.000000	46.752593
645.000000	46.564438
644.000000	46.474460
643.000000	46.444011
642.000000	46.520327
641.000000	46.716777
640.000000	46.991398
639.000000	47.400303
638.000000	47.886890
637.000000	48.467945
636.000000	49.126487
635.000000	49.918534
634.000000	50.747274
633.000000	51.711178
632.000000	52.670983
631.000000	53.692660
630.000000	54.757082
629.000000	55.756021
628.000000	56.756325
627.000000	57.713593
626.000000	58.644608
625.000000	59.492965
624.000000	60.384065
623.000000	61.190165
622.000000	61.939662
621.000000	62.664468
620.000000	63.335307
619.000000	63.993946
618.000000	64.633458
617.000000	65.228859
616.000000	65.797521
615.000000	66.374574
614.000000	66.900101
613.000000	67.407670
612.000000	67.900405
611.000000	68.361912
610.000000	68.803998
609.000000	69.164205
608.000000	69.610097
607.000000	69.982699
606.000000	70.298405
605.000000	70.629042
604.000000	70.922985
603.000000	71.217709
602.000000	71.497307
601.000000	71.646816
600.000000	71.901528
599.000000	72.051915
598.000000	72.249048
597.000000	72.335026
596.000000	72.433787
595.000000	72.522400
594.000000	72.603400
593.000000	72.683717
592.000000	72.748127
591.000000	72.742076
590.000000	72.739832
589.000000	72.784821
588.000000	72.789603
587.000000	72.808048
586.000000	72.766865
585.000000	72.764034
584.000000	72.693184
583.000000	72.692793
582.000000	72.566023
581.000000	72.520643
580.000000	72.449695
579.000000	72.314922
578.000000	72.222113
577.000000	72.089195
576.000000	71.929926
575.000000	71.766852
574.000000	71.595873
573.000000	71.442461
572.000000	71.240058
571.000000	71.058539
570.000000	70.813293
569.000000	70.617429
568.000000	70.402046
567.000000	70.182955
566.000000	69.916142
565.000000	69.686023
564.000000	69.407694
563.000000	69.139027
562.000000	68.836105
561.000000	68.501272
560.000000	68.176782
559.000000	67.693416
558.000000	67.334672
557.000000	66.988225
556.000000	66.576295
555.000000	66.162607
554.000000	65.715935
553.000000	65.260576
552.000000	64.760131
551.000000	64.222601
550.000000	63.692196
549.000000	63.108408
548.000000	62.497295
547.000000	61.885304
546.000000	61.241498
545.000000	60.539723
544.000000	59.829165
543.000000	59.066493
542.000000	58.264005
541.000000	57.454002
540.000000	56.625066
539.000000	55.760705
538.000000	54.849793
537.000000	53.936929
536.000000	52.997326
535.000000	51.992727
534.000000	50.947726
533.000000	49.923706
532.000000	48.857430
531.000000	47.768805
530.000000	46.656271
529.000000	45.522072
528.000000	44.408757
527.000000	43.306665
526.000000	42.175783
525.000000	41.076912
524.000000	39.972478
523.000000	38.886976
522.000000	37.829873
521.000000	36.824396
520.000000	35.845171
519.000000	34.928891
518.000000	34.075851
517.000000	33.279998
516.000000	32.507958
515.000000	31.817406
514.000000	31.185018
513.000000	30.602695
512.000000	30.103518
511.000000	29.678901
510.000000	29.323280
509.000000	29.031581
508.000000	28.790435
507.000000	28.609111
506.000000	28.487123
505.000000	28.402902
504.000000	28.354204
503.000000	28.339566
502.000000	28.351569
501.000000	28.387775
500.000000	28.421054
499.000000	28.461652
498.000000	28.493466
497.000000	28.554363
496.000000	28.583738
495.000000	28.594765
494.000000	28.560804
493.000000	28.516790
492.000000	28.453064
491.000000	28.337126
490.000000	28.186251
489.000000	28.026495
488.000000	27.797352
487.000000	27.547617
486.000000	27.267727
485.000000	26.944799
484.000000	26.603231
483.000000	26.216870
482.000000	25.823384
481.000000	25.418187
480.000000	24.971710
479.000000	24.522012
478.000000	24.073582
477.000000	23.621347
476.000000	23.186873
475.000000	22.771624
474.000000	22.360767
473.000000	22.002317
472.000000	21.690026
471.000000	21.422530
470.000000	21.205586
469.000000	21.021530
468.000000	20.886855
467.000000	20.799121
466.000000	20.779993
465.000000	20.797364
464.000000	20.833765
463.000000	20.932527
462.000000	21.055687
461.000000	21.189874
460.000000	21.371295
459.000000	21.549203
458.000000	21.723890
457.000000	21.906678
456.000000	22.089368
455.000000	22.249709
454.000000	22.391313
453.000000	22.526086
452.000000	22.663494
451.000000	22.767818
450.000000	22.857699
449.000000	22.920645
448.000000	22.962805
447.000000	22.987007
446.000000	22.998718
445.000000	22.977150
444.000000	22.939480
443.000000	22.900737
442.000000	22.819151
441.000000	22.703701
440.000000	22.590691
439.000000	22.478267
438.000000	22.359499
437.000000	22.215260
436.000000	22.030520
435.000000	21.843927
434.000000	21.664653
433.000000	21.466153
432.000000	21.251746
431.000000	21.015675
430.000000	20.760572
429.000000	20.514058
428.000000	20.254174
427.000000	19.970771
426.000000	19.665995
425.000000	19.361805
424.000000	19.058005
423.000000	18.719658
422.000000	18.374772
421.000000	18.038474
420.000000	17.679536
419.000000	17.282244
418.000000	16.887684
417.000000	16.510301
416.000000	16.108715
415.000000	15.686343
414.000000	15.258993
413.000000	14.851942
412.000000	14.420786
411.000000	13.977431
410.000000	13.546568
409.000000	13.132198
408.000000	12.726709
407.000000	12.296626
406.000000	11.888307
405.000000	11.489161
404.000000	11.092552
403.000000	10.721317
402.000000	10.371942
401.000000	10.010369
400.000000	9.678267
399.000000	9.367831
398.000000	9.062958
397.000000	8.799560
396.000000	8.535187
395.000000	8.275498
394.000000	8.035132
393.000000	7.817212
392.000000	7.631985
391.000000	7.440512
390.000000	7.274608
389.000000	7.117389
388.000000	6.964952
387.000000	6.843745
386.000000	6.721659
385.000000	6.607282
384.000000	6.497005
383.000000	6.387606
382.000000	6.317048
381.000000	6.252443
380.000000	6.166855
379.000000	6.095809
378.000000	6.036669
377.000000	5.978603
376.000000	5.838755
375.000000	5.772394
374.000000	5.829192
373.000000	5.775517
372.000000	5.678999
371.000000	5.619176
370.000000	5.629326
369.000000	5.680268
368.000000	5.662019
367.000000	5.604050
366.000000	5.616541
365.000000	5.624056
364.000000	5.589606
363.000000	5.598877
362.000000	5.505581
361.000000	5.572333
360.000000	5.601317
359.000000	5.449466
358.000000	5.546959
357.000000	5.446246
356.000000	5.400768
355.000000	5.416871
354.000000	5.408283
353.000000	5.340164
352.000000	5.390912
351.000000	5.292345
350.000000	5.297322
349.000000	5.327966
348.000000	5.309521
347.000000	5.264336
346.000000	5.249210
345.000000	5.303080
344.000000	5.323476
343.000000	5.251650
342.000000	5.160207
341.000000	5.182458
340.000000	5.206758
339.000000	5.198463
338.000000	5.274291
337.000000	5.209295
336.000000	5.279073
335.000000	5.312937
334.000000	5.198170
333.000000	5.119902
332.000000	5.105654
331.000000	5.212223
330.000000	5.152790
329.000000	5.160500
328.000000	5.300933
327.000000	5.103507
326.000000	5.279073
325.000000	5.476987
324.000000	5.524123
323.000000	5.294102
322.000000	5.412382
321.000000	5.509875
320.000000	5.182458
319.000000	5.282391
318.000000	5.278390
317.000000	5.384373
316.000000	5.176407
315.000000	5.174651
314.000000	5.142543
313.000000	5.166648
312.000000	5.211833
311.000000	5.240036
310.000000	5.212223
309.000000	5.237694
308.000000	5.203635
307.000000	5.199048
306.000000	5.258676
305.000000	5.294297
304.000000	5.286782
303.000000	5.241207
302.000000	5.206856
301.000000	5.252918
300.000000	5.256920
299.000000	5.256920
298.000000	5.268630
297.000000	5.254675
296.000000	5.245306
295.000000	5.308545
294.000000	5.288441
293.000000	5.263653
292.000000	5.294882
291.000000	5.309131
290.000000	5.308252
289.000000	5.322988
288.000000	5.385837
287.000000	5.362025
286.000000	5.388472
285.000000	5.353925
284.000000	5.378322
283.000000	5.364757
282.000000	5.383690
281.000000	5.387984
280.000000	5.388179
279.000000	5.404184
278.000000	5.396865
277.000000	5.405257
276.000000	5.422238
275.000000	5.401061
274.000000	5.395108
273.000000	5.423995
272.000000	5.442927
271.000000	5.451808
270.000000	5.467618
269.000000	5.412870
268.000000	5.500116
267.000000	5.500116
266.000000	5.490161
265.000000	5.495724
264.000000	5.524025
263.000000	5.523049
262.000000	5.554962
261.000000	5.588338
260.000000	5.623080
259.000000	5.637523
258.000000	5.630594
257.000000	5.597902
256.000000	5.660945
255.000000	5.671387
254.000000	5.633425
253.000000	5.674803
252.000000	5.641720
251.000000	5.682318
250.000000	5.671290
