PE UV       SUBTECH     SPECTRUM    ASCII       PEDS        4.00        
   -1
CICIMAUCR0009-1 fail.Sample.ASC
24/03/08
13:57:38.00
24/03/08
13:57:38.00
Vinicio Soto Monge
C. kalinini
250,000000
1
Lambda 1050
1050L1511233
PerkinElmer UV WinLab 6.3.2.0749 / 2.02.05 Lambda 900 UV/VIS/NIR, Aug  7 2015 09:38:08

0
0
3350/servo 860,8/2
0
0
UV/VIS
1
1
1
DoubleDePol,CommonBeamDepol,RBeamAtt,SBeamAtt,60mm sphere, WB InGaAs Detector
0
0
0
0
Program
Program
3350/servo 860,8/2
3350/0,2 860,8/0,2
3350/0,2 860,8/0,2
0
15.00
 
 
 
0
 
860,8
319,2
860,8
Front
100
on
S:100 R:100
0
0
0
0
 
0
 
 
 
0
 
 
0
0
0
0
0
 
 
 
 
0
0


0
0
#HDR
-1
-1
#GR
nm
%R
1.0
0.0
2500,000000
-1,000000
2251
8
24,370700
1,836500
#DATA
2500.000000	2.270500
2499.000000	2.371700
2498.000000	2.249400
2497.000000	2.307300
2496.000000	2.217700
2495.000000	2.312100
2494.000000	2.172100
2493.000000	2.225300
2492.000000	2.138000
2491.000000	2.278300
2490.000000	2.256300
2489.000000	2.164800
2488.000000	2.241400
2487.000000	2.187600
2486.000000	2.154500
2485.000000	2.187200
2484.000000	2.155200
2483.000000	2.142000
2482.000000	2.163300
2481.000000	2.187500
2480.000000	2.133400
2479.000000	2.142100
2478.000000	2.189100
2477.000000	2.161100
2476.000000	2.186200
2475.000000	2.168200
2474.000000	2.191400
2473.000000	2.195300
2472.000000	2.191500
2471.000000	2.217700
2470.000000	2.190600
2469.000000	2.169900
2468.000000	2.205500
2467.000000	2.221000
2466.000000	2.218500
2465.000000	2.224100
2464.000000	2.228400
2463.000000	2.250600
2462.000000	2.252400
2461.000000	2.250400
2460.000000	2.258900
2459.000000	2.258500
2458.000000	2.299600
2457.000000	2.288600
2456.000000	2.303500
2455.000000	2.332900
2454.000000	2.323300
2453.000000	2.357100
2452.000000	2.357300
2451.000000	2.368300
2450.000000	2.396700
2449.000000	2.419000
2448.000000	2.413200
2447.000000	2.430900
2446.000000	2.462300
2445.000000	2.475400
2444.000000	2.511200
2443.000000	2.506100
2442.000000	2.528000
2441.000000	2.549500
2440.000000	2.573800
2439.000000	2.583700
2438.000000	2.613400
2437.000000	2.627100
2436.000000	2.639700
2435.000000	2.672900
2434.000000	2.694800
2433.000000	2.695300
2432.000000	2.720600
2431.000000	2.725000
2430.000000	2.737700
2429.000000	2.756200
2428.000000	2.777500
2427.000000	2.784700
2426.000000	2.786200
2425.000000	2.809100
2424.000000	2.827800
2423.000000	2.863700
2422.000000	2.882600
2421.000000	2.908000
2420.000000	2.913800
2419.000000	2.931000
2418.000000	2.917700
2417.000000	2.946000
2416.000000	2.952000
2415.000000	2.960900
2414.000000	2.971500
2413.000000	2.969700
2412.000000	2.987400
2411.000000	2.997100
2410.000000	3.002600
2409.000000	3.004500
2408.000000	3.019100
2407.000000	3.016400
2406.000000	3.038200
2405.000000	3.066200
2404.000000	3.066000
2403.000000	3.067200
2402.000000	3.073600
2401.000000	3.072100
2400.000000	3.072500
2399.000000	3.085500
2398.000000	3.090500
2397.000000	3.096200
2396.000000	3.100500
2395.000000	3.118400
2394.000000	3.120800
2393.000000	3.137500
2392.000000	3.141400
2391.000000	3.138000
2390.000000	3.135000
2389.000000	3.139600
2388.000000	3.154100
2387.000000	3.160800
2386.000000	3.152800
2385.000000	3.152400
2384.000000	3.160000
2383.000000	3.154300
2382.000000	3.161300
2381.000000	3.160900
2380.000000	3.167100
2379.000000	3.155300
2378.000000	3.136000
2377.000000	3.140100
2376.000000	3.149200
2375.000000	3.150700
2374.000000	3.150200
2373.000000	3.140600
2372.000000	3.131000
2371.000000	3.118800
2370.000000	3.102500
2369.000000	3.102300
2368.000000	3.094500
2367.000000	3.097300
2366.000000	3.099100
2365.000000	3.084400
2364.000000	3.080900
2363.000000	3.070600
2362.000000	3.053200
2361.000000	3.037900
2360.000000	3.022700
2359.000000	3.007700
2358.000000	3.007600
2357.000000	2.994600
2356.000000	2.965100
2355.000000	2.953100
2354.000000	2.963600
2353.000000	2.949900
2352.000000	2.923200
2351.000000	2.923000
2350.000000	2.921800
2349.000000	2.925600
2348.000000	2.941100
2347.000000	2.933600
2346.000000	2.925700
2345.000000	2.936200
2344.000000	2.943100
2343.000000	2.959400
2342.000000	2.965300
2341.000000	2.968200
2340.000000	2.969200
2339.000000	2.965100
2338.000000	2.957800
2337.000000	2.973500
2336.000000	2.975800
2335.000000	2.969700
2334.000000	2.962600
2333.000000	2.959200
2332.000000	2.968100
2331.000000	2.954500
2330.000000	2.942800
2329.000000	2.942500
2328.000000	2.923900
2327.000000	2.917900
2326.000000	2.913200
2325.000000	2.874800
2324.000000	2.854000
2323.000000	2.833100
2322.000000	2.825400
2321.000000	2.810600
2320.000000	2.791600
2319.000000	2.774600
2318.000000	2.759600
2317.000000	2.746200
2316.000000	2.726200
2315.000000	2.700600
2314.000000	2.659000
2313.000000	2.648500
2312.000000	2.633600
2311.000000	2.605200
2310.000000	2.585400
2309.000000	2.556800
2308.000000	2.556600
2307.000000	2.525600
2306.000000	2.520200
2305.000000	2.520000
2304.000000	2.485400
2303.000000	2.486400
2302.000000	2.498300
2301.000000	2.514600
2300.000000	2.519000
2299.000000	2.528900
2298.000000	2.531400
2297.000000	2.537700
2296.000000	2.553000
2295.000000	2.569900
2294.000000	2.576500
2293.000000	2.586300
2292.000000	2.597300
2291.000000	2.607900
2290.000000	2.591800
2289.000000	2.600100
2288.000000	2.578500
2287.000000	2.593100
2286.000000	2.584800
2285.000000	2.593400
2284.000000	2.587300
2283.000000	2.563700
2282.000000	2.545400
2281.000000	2.549300
2280.000000	2.530900
2279.000000	2.506300
2278.000000	2.494100
2277.000000	2.500500
2276.000000	2.453100
2275.000000	2.449200
2274.000000	2.432900
2273.000000	2.446200
2272.000000	2.404900
2271.000000	2.426200
2270.000000	2.402200
2269.000000	2.388500
2268.000000	2.417000
2267.000000	2.403800
2266.000000	2.399000
2265.000000	2.418000
2264.000000	2.409400
2263.000000	2.430400
2262.000000	2.458000
2261.000000	2.476500
2260.000000	2.501700
2259.000000	2.513600
2258.000000	2.527900
2257.000000	2.580400
2256.000000	2.598900
2255.000000	2.618300
2254.000000	2.665000
2253.000000	2.708200
2252.000000	2.731500
2251.000000	2.777000
2250.000000	2.786900
2249.000000	2.841100
2248.000000	2.867900
2247.000000	2.885500
2246.000000	2.919400
2245.000000	2.939300
2244.000000	2.991100
2243.000000	3.009100
2242.000000	3.028900
2241.000000	3.054600
2240.000000	3.037500
2239.000000	3.057500
2238.000000	3.109000
2237.000000	3.106500
2236.000000	3.118200
2235.000000	3.133000
2234.000000	3.132500
2233.000000	3.137200
2232.000000	3.144700
2231.000000	3.142700
2230.000000	3.142600
2229.000000	3.134500
2228.000000	3.140900
2227.000000	3.107500
2226.000000	3.129200
2225.000000	3.083600
2224.000000	3.078200
2223.000000	3.066500
2222.000000	3.062100
2221.000000	3.039300
2220.000000	3.019600
2219.000000	3.001000
2218.000000	2.989500
2217.000000	2.965600
2216.000000	2.937900
2215.000000	2.929700
2214.000000	2.901200
2213.000000	2.888400
2212.000000	2.879800
2211.000000	2.881800
2210.000000	2.883500
2209.000000	2.874900
2208.000000	2.871900
2207.000000	2.901400
2206.000000	2.903100
2205.000000	2.945400
2204.000000	2.969500
2203.000000	3.006100
2202.000000	3.036700
2201.000000	3.063500
2200.000000	3.107500
2199.000000	3.157200
2198.000000	3.182000
2197.000000	3.234000
2196.000000	3.299500
2195.000000	3.335600
2194.000000	3.367200
2193.000000	3.412300
2192.000000	3.450800
2191.000000	3.489000
2190.000000	3.511700
2189.000000	3.543300
2188.000000	3.567300
2187.000000	3.615800
2186.000000	3.638600
2185.000000	3.623000
2184.000000	3.638700
2183.000000	3.661400
2182.000000	3.669900
2181.000000	3.688100
2180.000000	3.698200
2179.000000	3.705700
2178.000000	3.704600
2177.000000	3.713400
2176.000000	3.748600
2175.000000	3.731900
2174.000000	3.734500
2173.000000	3.727900
2172.000000	3.749500
2171.000000	3.755700
2170.000000	3.753500
2169.000000	3.775400
2168.000000	3.783500
2167.000000	3.774200
2166.000000	3.787700
2165.000000	3.784700
2164.000000	3.791800
2163.000000	3.797000
2162.000000	3.810100
2161.000000	3.840200
2160.000000	3.843400
2159.000000	3.835000
2158.000000	3.827000
2157.000000	3.841700
2156.000000	3.848000
2155.000000	3.856200
2154.000000	3.868000
2153.000000	3.883400
2152.000000	3.901600
2151.000000	3.913000
2150.000000	3.923500
2149.000000	3.937600
2148.000000	3.964700
2147.000000	3.973500
2146.000000	3.979000
2145.000000	3.994400
2144.000000	4.001800
2143.000000	4.013300
2142.000000	4.025500
2141.000000	4.020900
2140.000000	4.033500
2139.000000	4.044800
2138.000000	4.059400
2137.000000	4.063400
2136.000000	4.065000
2135.000000	4.072400
2134.000000	4.079800
2133.000000	4.086800
2132.000000	4.089200
2131.000000	4.094400
2130.000000	4.104400
2129.000000	4.092900
2128.000000	4.101800
2127.000000	4.109100
2126.000000	4.101900
2125.000000	4.091900
2124.000000	4.097800
2123.000000	4.103000
2122.000000	4.103100
2121.000000	4.100800
2120.000000	4.094200
2119.000000	4.100000
2118.000000	4.083700
2117.000000	4.083700
2116.000000	4.096400
2115.000000	4.089000
2114.000000	4.069600
2113.000000	4.074900
2112.000000	4.065200
2111.000000	4.059600
2110.000000	4.060800
2109.000000	4.053000
2108.000000	4.051500
2107.000000	4.045300
2106.000000	4.051900
2105.000000	4.051900
2104.000000	4.043300
2103.000000	4.037100
2102.000000	4.026300
2101.000000	4.011500
2100.000000	4.014300
2099.000000	4.012400
2098.000000	4.006800
2097.000000	4.011600
2096.000000	4.001900
2095.000000	3.996300
2094.000000	3.990000
2093.000000	3.986800
2092.000000	3.993100
2091.000000	4.000000
2090.000000	4.006000
2089.000000	4.007600
2088.000000	3.995100
2087.000000	3.974900
2086.000000	3.984900
2085.000000	4.002800
2084.000000	3.996400
2083.000000	3.995200
2082.000000	3.998200
2081.000000	3.998300
2080.000000	3.990400
2079.000000	3.987300
2078.000000	3.979800
2077.000000	3.968700
2076.000000	3.970100
2075.000000	3.963400
2074.000000	3.946800
2073.000000	3.958900
2072.000000	3.968500
2071.000000	3.947100
2070.000000	3.929500
2069.000000	3.913500
2068.000000	3.904200
2067.000000	3.895000
2066.000000	3.895700
2065.000000	3.901500
2064.000000	3.888500
2063.000000	3.862500
2062.000000	3.861600
2061.000000	3.873700
2060.000000	3.852400
2059.000000	3.837300
2058.000000	3.854700
2057.000000	3.853300
2056.000000	3.836500
2055.000000	3.849100
2054.000000	3.874800
2053.000000	3.880000
2052.000000	3.884400
2051.000000	3.887700
2050.000000	3.909700
2049.000000	3.924500
2048.000000	3.948000
2047.000000	3.984900
2046.000000	3.993800
2045.000000	4.010200
2044.000000	4.057000
2043.000000	4.099000
2042.000000	4.116800
2041.000000	4.157900
2040.000000	4.180400
2039.000000	4.216900
2038.000000	4.242000
2037.000000	4.268600
2036.000000	4.284500
2035.000000	4.298800
2034.000000	4.338200
2033.000000	4.372700
2032.000000	4.375800
2031.000000	4.405300
2030.000000	4.431000
2029.000000	4.440900
2028.000000	4.464800
2027.000000	4.498800
2026.000000	4.524700
2025.000000	4.519300
2024.000000	4.533300
2023.000000	4.553700
2022.000000	4.552100
2021.000000	4.563400
2020.000000	4.592100
2019.000000	4.594100
2018.000000	4.604200
2017.000000	4.605500
2016.000000	4.612400
2015.000000	4.623500
2014.000000	4.637200
2013.000000	4.597700
2012.000000	4.607800
2011.000000	4.628900
2010.000000	4.635700
2009.000000	4.621400
2008.000000	4.618200
2007.000000	4.616400
2006.000000	4.617500
2005.000000	4.592800
2004.000000	4.579400
2003.000000	4.596100
2002.000000	4.586400
2001.000000	4.586500
2000.000000	4.563800
1999.000000	4.551400
1998.000000	4.528100
1997.000000	4.525300
1996.000000	4.502200
1995.000000	4.474300
1994.000000	4.457300
1993.000000	4.444600
1992.000000	4.434100
1991.000000	4.415700
1990.000000	4.382400
1989.000000	4.353000
1988.000000	4.346500
1987.000000	4.318200
1986.000000	4.303200
1985.000000	4.296300
1984.000000	4.262400
1983.000000	4.236600
1982.000000	4.227200
1981.000000	4.194600
1980.000000	4.176100
1979.000000	4.132500
1978.000000	4.126700
1977.000000	4.088800
1976.000000	4.061500
1975.000000	4.066600
1974.000000	4.028100
1973.000000	4.010000
1972.000000	4.006900
1971.000000	3.980800
1970.000000	3.945300
1969.000000	3.933000
1968.000000	3.909500
1967.000000	3.893600
1966.000000	3.870600
1965.000000	3.856500
1964.000000	3.834700
1963.000000	3.787600
1962.000000	3.775600
1961.000000	3.760200
1960.000000	3.741500
1959.000000	3.704100
1958.000000	3.708700
1957.000000	3.686400
1956.000000	3.666100
1955.000000	3.639600
1954.000000	3.633200
1953.000000	3.614000
1952.000000	3.607800
1951.000000	3.566200
1950.000000	3.536000
1949.000000	3.532400
1948.000000	3.514800
1947.000000	3.484800
1946.000000	3.503600
1945.000000	3.484900
1944.000000	3.471000
1943.000000	3.475600
1942.000000	3.449100
1941.000000	3.449400
1940.000000	3.478100
1939.000000	3.434300
1938.000000	3.429000
1937.000000	3.429200
1936.000000	3.429900
1935.000000	3.430400
1934.000000	3.438600
1933.000000	3.435600
1932.000000	3.468600
1931.000000	3.485600
1930.000000	3.512400
1929.000000	3.510400
1928.000000	3.506800
1927.000000	3.532600
1926.000000	3.549200
1925.000000	3.581400
1924.000000	3.603800
1923.000000	3.628800
1922.000000	3.644200
1921.000000	3.695400
1920.000000	3.709000
1919.000000	3.734900
1918.000000	3.771100
1917.000000	3.811600
1916.000000	3.881000
1915.000000	3.940300
1914.000000	3.993800
1913.000000	4.011300
1912.000000	4.039700
1911.000000	4.068500
1910.000000	4.123400
1909.000000	4.199500
1908.000000	4.272100
1907.000000	4.335600
1906.000000	4.410100
1905.000000	4.444100
1904.000000	4.491700
1903.000000	4.552900
1902.000000	4.639900
1901.000000	4.735300
1900.000000	4.794900
1899.000000	4.821100
1898.000000	4.897700
1897.000000	4.984700
1896.000000	5.059600
1895.000000	5.176500
1894.000000	5.266200
1893.000000	5.375500
1892.000000	5.455600
1891.000000	5.545500
1890.000000	5.603400
1889.000000	5.697800
1888.000000	5.803700
1887.000000	5.924900
1886.000000	6.057800
1885.000000	6.171000
1884.000000	6.271600
1883.000000	6.407800
1882.000000	6.575500
1881.000000	6.734000
1880.000000	6.895400
1879.000000	7.066200
1878.000000	7.234300
1877.000000	7.392000
1876.000000	7.555200
1875.000000	7.682800
1874.000000	7.797300
1873.000000	7.896400
1872.000000	7.977100
1871.000000	8.027800
1870.000000	8.068600
1869.000000	8.126900
1868.000000	8.188400
1867.000000	8.236300
1866.000000	8.316500
1865.000000	8.382200
1864.000000	8.460900
1863.000000	8.550700
1862.000000	8.613700
1861.000000	8.637500
1860.000000	8.637600
1859.000000	8.640500
1858.000000	8.629000
1857.000000	8.647700
1856.000000	8.675400
1855.000000	8.680200
1854.000000	8.658600
1853.000000	8.632000
1852.000000	8.611300
1851.000000	8.636300
1850.000000	8.691400
1849.000000	8.694700
1848.000000	8.616300
1847.000000	8.501100
1846.000000	8.436200
1845.000000	8.464700
1844.000000	8.533500
1843.000000	8.586400
1842.000000	8.569100
1841.000000	8.499000
1840.000000	8.454900
1839.000000	8.434000
1838.000000	8.429500
1837.000000	8.401100
1836.000000	8.353300
1835.000000	8.299100
1834.000000	8.273700
1833.000000	8.281200
1832.000000	8.274300
1831.000000	8.271700
1830.000000	8.233200
1829.000000	8.183600
1828.000000	8.149100
1827.000000	8.098500
1826.000000	8.054100
1825.000000	8.036400
1824.000000	8.053500
1823.000000	8.078000
1822.000000	8.082900
1821.000000	8.040900
1820.000000	7.962000
1819.000000	7.920300
1818.000000	7.930200
1817.000000	7.954200
1816.000000	7.950800
1815.000000	7.930100
1814.000000	7.917000
1813.000000	7.926000
1812.000000	7.917200
1811.000000	7.887200
1810.000000	7.866300
1809.000000	7.845000
1808.000000	7.843900
1807.000000	7.821800
1806.000000	7.789300
1805.000000	7.776600
1804.000000	7.766000
1803.000000	7.753100
1802.000000	7.722900
1801.000000	7.685600
1800.000000	7.658600
1799.000000	7.641300
1798.000000	7.627200
1797.000000	7.609700
1796.000000	7.589800
1795.000000	7.580000
1794.000000	7.558200
1793.000000	7.538500
1792.000000	7.503200
1791.000000	7.485100
1790.000000	7.463000
1789.000000	7.443700
1788.000000	7.444500
1787.000000	7.424900
1786.000000	7.388400
1785.000000	7.369800
1784.000000	7.339000
1783.000000	7.314600
1782.000000	7.287500
1781.000000	7.263400
1780.000000	7.230500
1779.000000	7.200800
1778.000000	7.178200
1777.000000	7.158100
1776.000000	7.117000
1775.000000	7.074700
1774.000000	7.044300
1773.000000	6.995600
1772.000000	6.972900
1771.000000	6.945800
1770.000000	6.901300
1769.000000	6.847700
1768.000000	6.838400
1767.000000	6.793000
1766.000000	6.754900
1765.000000	6.756000
1764.000000	6.742000
1763.000000	6.731500
1762.000000	6.748900
1761.000000	6.744200
1760.000000	6.787000
1759.000000	6.787400
1758.000000	6.804200
1757.000000	6.856500
1756.000000	6.887000
1755.000000	6.887300
1754.000000	6.897400
1753.000000	6.922600
1752.000000	6.932800
1751.000000	6.923900
1750.000000	6.915500
1749.000000	6.898100
1748.000000	6.890700
1747.000000	6.872200
1746.000000	6.820600
1745.000000	6.798900
1744.000000	6.767700
1743.000000	6.717500
1742.000000	6.652200
1741.000000	6.594600
1740.000000	6.548900
1739.000000	6.468900
1738.000000	6.413200
1737.000000	6.339800
1736.000000	6.291800
1735.000000	6.272000
1734.000000	6.255700
1733.000000	6.249400
1732.000000	6.253100
1731.000000	6.279000
1730.000000	6.306800
1729.000000	6.335500
1728.000000	6.353100
1727.000000	6.401500
1726.000000	6.406700
1725.000000	6.427600
1724.000000	6.435200
1723.000000	6.464200
1722.000000	6.472400
1721.000000	6.470100
1720.000000	6.481100
1719.000000	6.510000
1718.000000	6.528700
1717.000000	6.545000
1716.000000	6.563200
1715.000000	6.599500
1714.000000	6.612100
1713.000000	6.638100
1712.000000	6.663600
1711.000000	6.668300
1710.000000	6.666700
1709.000000	6.686400
1708.000000	6.686100
1707.000000	6.659800
1706.000000	6.647500
1705.000000	6.679200
1704.000000	6.618500
1703.000000	6.602900
1702.000000	6.564300
1701.000000	6.531100
1700.000000	6.482700
1699.000000	6.426900
1698.000000	6.380200
1697.000000	6.331500
1696.000000	6.323000
1695.000000	6.306400
1694.000000	6.291800
1693.000000	6.311300
1692.000000	6.380100
1691.000000	6.388100
1690.000000	6.422300
1689.000000	6.452400
1688.000000	6.462600
1687.000000	6.466600
1686.000000	6.481600
1685.000000	6.476900
1684.000000	6.521300
1683.000000	6.544900
1682.000000	6.626800
1681.000000	6.757100
1680.000000	6.917700
1679.000000	7.092600
1678.000000	7.243100
1677.000000	7.404200
1676.000000	7.577500
1675.000000	7.710000
1674.000000	7.810800
1673.000000	7.904900
1672.000000	7.990300
1671.000000	8.070300
1670.000000	8.137400
1669.000000	8.207500
1668.000000	8.248900
1667.000000	8.309500
1666.000000	8.353000
1665.000000	8.406700
1664.000000	8.448200
1663.000000	8.475300
1662.000000	8.494200
1661.000000	8.518300
1660.000000	8.499900
1659.000000	8.534500
1658.000000	8.567200
1657.000000	8.563600
1656.000000	8.577600
1655.000000	8.583300
1654.000000	8.579600
1653.000000	8.586200
1652.000000	8.571300
1651.000000	8.561000
1650.000000	8.556200
1649.000000	8.553800
1648.000000	8.554800
1647.000000	8.530000
1646.000000	8.514900
1645.000000	8.501100
1644.000000	8.500600
1643.000000	8.469500
1642.000000	8.464300
1641.000000	8.449000
1640.000000	8.432800
1639.000000	8.421600
1638.000000	8.390500
1637.000000	8.383300
1636.000000	8.376800
1635.000000	8.352700
1634.000000	8.327200
1633.000000	8.288500
1632.000000	8.281900
1631.000000	8.260700
1630.000000	8.231600
1629.000000	8.216400
1628.000000	8.190100
1627.000000	8.165000
1626.000000	8.156900
1625.000000	8.113500
1624.000000	8.069600
1623.000000	8.072100
1622.000000	8.075100
1621.000000	8.048900
1620.000000	8.030400
1619.000000	8.006400
1618.000000	7.974900
1617.000000	7.956800
1616.000000	7.951300
1615.000000	7.937000
1614.000000	7.920000
1613.000000	7.865800
1612.000000	7.851500
1611.000000	7.851100
1610.000000	7.838300
1609.000000	7.803100
1608.000000	7.784100
1607.000000	7.771400
1606.000000	7.740200
1605.000000	7.707600
1604.000000	7.684900
1603.000000	7.666700
1602.000000	7.646300
1601.000000	7.630700
1600.000000	7.596800
1599.000000	7.580700
1598.000000	7.566100
1597.000000	7.542600
1596.000000	7.518800
1595.000000	7.493000
1594.000000	7.466600
1593.000000	7.454000
1592.000000	7.430000
1591.000000	7.412400
1590.000000	7.396100
1589.000000	7.358500
1588.000000	7.347600
1587.000000	7.349000
1586.000000	7.326900
1585.000000	7.303500
1584.000000	7.304100
1583.000000	7.302100
1582.000000	7.271100
1581.000000	7.246000
1580.000000	7.234300
1579.000000	7.226800
1578.000000	7.217000
1577.000000	7.204900
1576.000000	7.195300
1575.000000	7.192200
1574.000000	7.182100
1573.000000	7.183500
1572.000000	7.192300
1571.000000	7.197600
1570.000000	7.187400
1569.000000	7.177400
1568.000000	7.190100
1567.000000	7.190400
1566.000000	7.189800
1565.000000	7.200200
1564.000000	7.194100
1563.000000	7.202200
1562.000000	7.222400
1561.000000	7.215900
1560.000000	7.209000
1559.000000	7.211500
1558.000000	7.215400
1557.000000	7.216000
1556.000000	7.217600
1555.000000	7.219100
1554.000000	7.223700
1553.000000	7.202700
1552.000000	7.184600
1551.000000	7.188600
1550.000000	7.183200
1549.000000	7.181200
1548.000000	7.177400
1547.000000	7.168900
1546.000000	7.163500
1545.000000	7.167900
1544.000000	7.173800
1543.000000	7.184400
1542.000000	7.190900
1541.000000	7.174600
1540.000000	7.158400
1539.000000	7.167000
1538.000000	7.171000
1537.000000	7.178900
1536.000000	7.188500
1535.000000	7.191400
1534.000000	7.193600
1533.000000	7.190800
1532.000000	7.190700
1531.000000	7.191600
1530.000000	7.171700
1529.000000	7.162300
1528.000000	7.162800
1527.000000	7.158900
1526.000000	7.150800
1525.000000	7.144100
1524.000000	7.153000
1523.000000	7.139700
1522.000000	7.128900
1521.000000	7.125900
1520.000000	7.115600
1519.000000	7.110600
1518.000000	7.091900
1517.000000	7.076500
1516.000000	7.085100
1515.000000	7.084100
1514.000000	7.075500
1513.000000	7.070900
1512.000000	7.046700
1511.000000	7.030900
1510.000000	7.018300
1509.000000	7.018800
1508.000000	6.996100
1507.000000	6.964000
1506.000000	6.948700
1505.000000	6.951100
1504.000000	6.934800
1503.000000	6.924200
1502.000000	6.914000
1501.000000	6.893900
1500.000000	6.866700
1499.000000	6.846800
1498.000000	6.843000
1497.000000	6.836000
1496.000000	6.820200
1495.000000	6.808800
1494.000000	6.792300
1493.000000	6.798000
1492.000000	6.791400
1491.000000	6.785300
1490.000000	6.765000
1489.000000	6.775500
1488.000000	6.758100
1487.000000	6.768600
1486.000000	6.748100
1485.000000	6.728800
1484.000000	6.700400
1483.000000	6.713300
1482.000000	6.732800
1481.000000	6.711300
1480.000000	6.683900
1479.000000	6.681800
1478.000000	6.693300
1477.000000	6.683500
1476.000000	6.673600
1475.000000	6.671700
1474.000000	6.685000
1473.000000	6.699300
1472.000000	6.672200
1471.000000	6.687100
1470.000000	6.679700
1469.000000	6.693900
1468.000000	6.707400
1467.000000	6.690200
1466.000000	6.705800
1465.000000	6.734500
1464.000000	6.724800
1463.000000	6.745900
1462.000000	6.742100
1461.000000	6.763100
1460.000000	6.762300
1459.000000	6.805600
1458.000000	6.806600
1457.000000	6.810500
1456.000000	6.836400
1455.000000	6.870300
1454.000000	6.910900
1453.000000	6.936100
1452.000000	6.959300
1451.000000	6.987900
1450.000000	7.026100
1449.000000	7.039300
1448.000000	7.074200
1447.000000	7.115600
1446.000000	7.165500
1445.000000	7.172900
1444.000000	7.199300
1443.000000	7.260700
1442.000000	7.283700
1441.000000	7.308300
1440.000000	7.347500
1439.000000	7.417700
1438.000000	7.436600
1437.000000	7.502200
1436.000000	7.517700
1435.000000	7.552900
1434.000000	7.623300
1433.000000	7.677700
1432.000000	7.711300
1431.000000	7.740200
1430.000000	7.805200
1429.000000	7.863700
1428.000000	7.907400
1427.000000	7.941100
1426.000000	8.032700
1425.000000	8.108800
1424.000000	8.155100
1423.000000	8.209600
1422.000000	8.289900
1421.000000	8.386300
1420.000000	8.477300
1419.000000	8.532500
1418.000000	8.583800
1417.000000	8.654000
1416.000000	8.736900
1415.000000	8.837000
1414.000000	8.863700
1413.000000	8.939900
1412.000000	9.011700
1411.000000	9.117500
1410.000000	9.203100
1409.000000	9.304300
1408.000000	9.391200
1407.000000	9.491700
1406.000000	9.615700
1405.000000	9.734400
1404.000000	9.819800
1403.000000	9.915600
1402.000000	10.079100
1401.000000	10.212900
1400.000000	10.216300
1399.000000	10.249900
1398.000000	10.335300
1397.000000	10.440400
1396.000000	10.476900
1395.000000	10.459700
1394.000000	10.480600
1393.000000	10.515600
1392.000000	10.540600
1391.000000	10.571500
1390.000000	10.613100
1389.000000	10.689300
1388.000000	10.737700
1387.000000	10.815000
1386.000000	10.908600
1385.000000	11.062100
1384.000000	11.221000
1383.000000	11.364200
1382.000000	11.498600
1381.000000	11.620400
1380.000000	11.742000
1379.000000	11.900900
1378.000000	12.067400
1377.000000	12.227600
1376.000000	12.409500
1375.000000	12.586600
1374.000000	12.792100
1373.000000	13.043800
1372.000000	13.243900
1371.000000	13.456900
1370.000000	13.636400
1369.000000	13.803100
1368.000000	13.938900
1367.000000	14.060500
1366.000000	14.190500
1365.000000	14.305000
1364.000000	14.384300
1363.000000	14.472000
1362.000000	14.544700
1361.000000	14.543300
1360.000000	14.566200
1359.000000	14.648000
1358.000000	14.705300
1357.000000	14.785200
1356.000000	14.901000
1355.000000	15.038300
1354.000000	15.229200
1353.000000	15.442800
1352.000000	15.666900
1351.000000	15.900500
1350.000000	16.120400
1349.000000	16.326600
1348.000000	16.516700
1347.000000	16.692700
1346.000000	16.835500
1345.000000	17.002600
1344.000000	17.169100
1343.000000	17.306600
1342.000000	17.443400
1341.000000	17.590400
1340.000000	17.725000
1339.000000	17.849300
1338.000000	17.976200
1337.000000	18.109900
1336.000000	18.238600
1335.000000	18.358900
1334.000000	18.484700
1333.000000	18.590600
1332.000000	18.699000
1331.000000	18.814500
1330.000000	18.923800
1329.000000	19.006200
1328.000000	19.091500
1327.000000	19.186900
1326.000000	19.264500
1325.000000	19.364700
1324.000000	19.448600
1323.000000	19.503100
1322.000000	19.566900
1321.000000	19.631300
1320.000000	19.691700
1319.000000	19.765500
1318.000000	19.819600
1317.000000	19.876900
1316.000000	19.924800
1315.000000	19.978000
1314.000000	20.033600
1313.000000	20.060900
1312.000000	20.096000
1311.000000	20.142700
1310.000000	20.175000
1309.000000	20.199300
1308.000000	20.227400
1307.000000	20.269800
1306.000000	20.291900
1305.000000	20.297600
1304.000000	20.312000
1303.000000	20.319700
1302.000000	20.328600
1301.000000	20.334800
1300.000000	20.331600
1299.000000	20.330700
1298.000000	20.329800
1297.000000	20.326700
1296.000000	20.329600
1295.000000	20.315100
1294.000000	20.300100
1293.000000	20.308000
1292.000000	20.316500
1291.000000	20.307500
1290.000000	20.288400
1289.000000	20.261800
1288.000000	20.245100
1287.000000	20.225500
1286.000000	20.209700
1285.000000	20.181600
1284.000000	20.154800
1283.000000	20.139300
1282.000000	20.109900
1281.000000	20.083300
1280.000000	20.061900
1279.000000	20.039000
1278.000000	20.010000
1277.000000	19.996100
1276.000000	19.971500
1275.000000	19.946400
1274.000000	19.941100
1273.000000	19.918500
1272.000000	19.885200
1271.000000	19.872400
1270.000000	19.878800
1269.000000	19.871700
1268.000000	19.853500
1267.000000	19.831400
1266.000000	19.804100
1265.000000	19.770500
1264.000000	19.725000
1263.000000	19.700500
1262.000000	19.690400
1261.000000	19.679300
1260.000000	19.640500
1259.000000	19.608900
1258.000000	19.588800
1257.000000	19.553100
1256.000000	19.521400
1255.000000	19.487500
1254.000000	19.454000
1253.000000	19.423000
1252.000000	19.362600
1251.000000	19.320700
1250.000000	19.278900
1249.000000	19.229100
1248.000000	19.181500
1247.000000	19.133400
1246.000000	19.077800
1245.000000	19.023900
1244.000000	18.994100
1243.000000	18.927400
1242.000000	18.859300
1241.000000	18.798500
1240.000000	18.728100
1239.000000	18.675700
1238.000000	18.607000
1237.000000	18.544200
1236.000000	18.482500
1235.000000	18.416900
1234.000000	18.348600
1233.000000	18.272800
1232.000000	18.201400
1231.000000	18.122300
1230.000000	18.062200
1229.000000	17.982400
1228.000000	17.886600
1227.000000	17.805000
1226.000000	17.732200
1225.000000	17.660100
1224.000000	17.607400
1223.000000	17.519700
1222.000000	17.437300
1221.000000	17.371000
1220.000000	17.287000
1219.000000	17.202900
1218.000000	17.144500
1217.000000	17.089100
1216.000000	17.034200
1215.000000	16.975700
1214.000000	16.918900
1213.000000	16.863700
1212.000000	16.793700
1211.000000	16.742400
1210.000000	16.717100
1209.000000	16.671500
1208.000000	16.630500
1207.000000	16.599700
1206.000000	16.564400
1205.000000	16.545300
1204.000000	16.541800
1203.000000	16.552700
1202.000000	16.533000
1201.000000	16.516200
1200.000000	16.497700
1199.000000	16.490800
1198.000000	16.436000
1197.000000	16.386100
1196.000000	16.304100
1195.000000	16.217100
1194.000000	16.106700
1193.000000	15.943100
1192.000000	15.783900
1191.000000	15.592000
1190.000000	15.405400
1189.000000	15.232000
1188.000000	15.105600
1187.000000	15.047300
1186.000000	15.044000
1185.000000	15.050400
1184.000000	15.127200
1183.000000	15.247800
1182.000000	15.426200
1181.000000	15.622800
1180.000000	15.834300
1179.000000	16.032900
1178.000000	16.219500
1177.000000	16.401400
1176.000000	16.542200
1175.000000	16.672500
1174.000000	16.784200
1173.000000	16.931600
1172.000000	17.057800
1171.000000	17.186900
1170.000000	17.349200
1169.000000	17.527400
1168.000000	17.647800
1167.000000	17.817200
1166.000000	17.975700
1165.000000	18.170800
1164.000000	18.327900
1163.000000	18.546200
1162.000000	18.721200
1161.000000	18.875500
1160.000000	19.013600
1159.000000	19.206300
1158.000000	19.352000
1157.000000	19.499500
1156.000000	19.637600
1155.000000	19.726500
1154.000000	19.817200
1153.000000	19.914200
1152.000000	19.927000
1151.000000	19.927400
1150.000000	19.933500
1149.000000	19.962200
1148.000000	19.971900
1147.000000	20.013000
1146.000000	20.075400
1145.000000	20.160500
1144.000000	20.264800
1143.000000	20.420100
1142.000000	20.581000
1141.000000	20.760000
1140.000000	20.921200
1139.000000	21.097000
1138.000000	21.294600
1137.000000	21.509700
1136.000000	21.705900
1135.000000	21.884800
1134.000000	22.066100
1133.000000	22.193000
1132.000000	22.384300
1131.000000	22.555000
1130.000000	22.678100
1129.000000	22.798600
1128.000000	22.897700
1127.000000	22.987000
1126.000000	23.019000
1125.000000	23.066800
1124.000000	23.106400
1123.000000	23.144500
1122.000000	23.167500
1121.000000	23.183400
1120.000000	23.222300
1119.000000	23.235900
1118.000000	23.242500
1117.000000	23.239200
1116.000000	23.230400
1115.000000	23.228100
1114.000000	23.231600
1113.000000	23.224100
1112.000000	23.223900
1111.000000	23.212200
1110.000000	23.211000
1109.000000	23.195900
1108.000000	23.216100
1107.000000	23.214600
1106.000000	23.209100
1105.000000	23.196300
1104.000000	23.189400
1103.000000	23.158600
1102.000000	23.162600
1101.000000	23.151200
1100.000000	23.142300
1099.000000	23.115400
1098.000000	23.102800
1097.000000	23.116800
1096.000000	23.099100
1095.000000	23.088500
1094.000000	23.057700
1093.000000	23.056100
1092.000000	23.043800
1091.000000	23.022000
1090.000000	23.006700
1089.000000	22.994800
1088.000000	22.961400
1087.000000	22.936800
1086.000000	22.898100
1085.000000	22.863300
1084.000000	22.836400
1083.000000	22.794500
1082.000000	22.767200
1081.000000	22.738100
1080.000000	22.714600
1079.000000	22.689100
1078.000000	22.653300
1077.000000	22.606800
1076.000000	22.566500
1075.000000	22.547500
1074.000000	22.516400
1073.000000	22.475500
1072.000000	22.430200
1071.000000	22.398700
1070.000000	22.375300
1069.000000	22.348000
1068.000000	22.319000
1067.000000	22.276900
1066.000000	22.225000
1065.000000	22.199600
1064.000000	22.158000
1063.000000	22.114200
1062.000000	22.094500
1061.000000	22.064100
1060.000000	22.004000
1059.000000	21.970700
1058.000000	21.935200
1057.000000	21.909600
1056.000000	21.871100
1055.000000	21.823400
1054.000000	21.807100
1053.000000	21.762900
1052.000000	21.721400
1051.000000	21.702300
1050.000000	21.691800
1049.000000	21.677800
1048.000000	21.641500
1047.000000	21.616000
1046.000000	21.592500
1045.000000	21.564300
1044.000000	21.538600
1043.000000	21.514200
1042.000000	21.496400
1041.000000	21.473100
1040.000000	21.444200
1039.000000	21.431900
1038.000000	21.410300
1037.000000	21.361700
1036.000000	21.325700
1035.000000	21.310500
1034.000000	21.271200
1033.000000	21.236300
1032.000000	21.207700
1031.000000	21.168000
1030.000000	21.124700
1029.000000	21.079400
1028.000000	21.043800
1027.000000	21.001600
1026.000000	20.954700
1025.000000	20.919200
1024.000000	20.874400
1023.000000	20.839800
1022.000000	20.806900
1021.000000	20.762600
1020.000000	20.717000
1019.000000	20.665300
1018.000000	20.631500
1017.000000	20.609900
1016.000000	20.567500
1015.000000	20.534500
1014.000000	20.515500
1013.000000	20.486600
1012.000000	20.450800
1011.000000	20.442200
1010.000000	20.429200
1009.000000	20.400100
1008.000000	20.376900
1007.000000	20.376300
1006.000000	20.373800
1005.000000	20.373000
1004.000000	20.352900
1003.000000	20.321100
1002.000000	20.329400
1001.000000	20.320800
1000.000000	20.302100
999.000000	20.265300
998.000000	20.275100
997.000000	20.254300
996.000000	20.225700
995.000000	20.233800
994.000000	20.225300
993.000000	20.209700
992.000000	20.212400
991.000000	20.201800
990.000000	20.189900
989.000000	20.177700
988.000000	20.177100
987.000000	20.177700
986.000000	20.184100
985.000000	20.196000
984.000000	20.197500
983.000000	20.194500
982.000000	20.217000
981.000000	20.206900
980.000000	20.211700
979.000000	20.214800
978.000000	20.208400
977.000000	20.207200
976.000000	20.211300
975.000000	20.202700
974.000000	20.201000
973.000000	20.206900
972.000000	20.192000
971.000000	20.222600
970.000000	20.227000
969.000000	20.228300
968.000000	20.216300
967.000000	20.222200
966.000000	20.216500
965.000000	20.224400
964.000000	20.225000
963.000000	20.230200
962.000000	20.256700
961.000000	20.258500
960.000000	20.268600
959.000000	20.297200
958.000000	20.310900
957.000000	20.329900
956.000000	20.308800
955.000000	20.312200
954.000000	20.322200
953.000000	20.340500
952.000000	20.353500
951.000000	20.350800
950.000000	20.367200
949.000000	20.365800
948.000000	20.371200
947.000000	20.400400
946.000000	20.408100
945.000000	20.425900
944.000000	20.420200
943.000000	20.457300
942.000000	20.489300
941.000000	20.510400
940.000000	20.544100
939.000000	20.578600
938.000000	20.617300
937.000000	20.634500
936.000000	20.653400
935.000000	20.683900
934.000000	20.712600
933.000000	20.731200
932.000000	20.758800
931.000000	20.789400
930.000000	20.838300
929.000000	20.859200
928.000000	20.897400
927.000000	20.919600
926.000000	20.955300
925.000000	20.973200
924.000000	20.995600
923.000000	21.043800
922.000000	21.077700
921.000000	21.105900
920.000000	21.106100
919.000000	21.109700
918.000000	21.145300
917.000000	21.150200
916.000000	21.174800
915.000000	21.205300
914.000000	21.210500
913.000000	21.218800
912.000000	21.223600
911.000000	21.252300
910.000000	21.273400
909.000000	21.298700
908.000000	21.307900
907.000000	21.335100
906.000000	21.373400
905.000000	21.407300
904.000000	21.464200
903.000000	21.502700
902.000000	21.558400
901.000000	21.620300
900.000000	21.680100
899.000000	21.721700
898.000000	21.761700
897.000000	21.823600
896.000000	21.880800
895.000000	21.924700
894.000000	22.012800
893.000000	22.056100
892.000000	22.094700
891.000000	22.152300
890.000000	22.216900
889.000000	22.252800
888.000000	22.277800
887.000000	22.299000
886.000000	22.308600
885.000000	22.330100
884.000000	22.376000
883.000000	22.362400
882.000000	22.377000
881.000000	22.392500
880.000000	22.390300
879.000000	22.414200
878.000000	22.437700
877.000000	22.429500
876.000000	22.449200
875.000000	22.449200
874.000000	22.443900
873.000000	22.426000
872.000000	22.418300
871.000000	22.427900
870.000000	22.431400
869.000000	22.437500
868.000000	22.457700
867.000000	22.465300
866.000000	22.473300
865.000000	22.487600
864.000000	22.503900
863.000000	22.516400
862.000000	22.500400
861.000000	22.478000
860.000000	22.464400
859.000000	22.436800
858.000000	24.650189
857.000000	21.930028
856.000000	21.540907
855.000000	21.541354
854.000000	21.510622
853.000000	21.508164
852.000000	21.336848
851.000000	21.549177
850.000000	21.702613
849.000000	21.501794
848.000000	21.550741
847.000000	21.578456
846.000000	21.630421
845.000000	21.619246
844.000000	21.659365
843.000000	21.601030
842.000000	21.659029
841.000000	21.714123
840.000000	21.531855
839.000000	21.766311
838.000000	21.698143
837.000000	21.688532
836.000000	21.630197
835.000000	21.555547
834.000000	21.652101
833.000000	21.686297
832.000000	21.576556
831.000000	21.568063
830.000000	21.485702
829.000000	21.550741
828.000000	21.577115
827.000000	21.499447
826.000000	21.585608
825.000000	21.598907
824.000000	21.563481
823.000000	21.513528
822.000000	21.565381
821.000000	21.646066
820.000000	21.660817
819.000000	21.726639
818.000000	21.794585
817.000000	21.769999
816.000000	21.945003
815.000000	22.063796
814.000000	22.176442
813.000000	22.326860
812.000000	22.457164
811.000000	22.555952
810.000000	22.636414
809.000000	22.759565
808.000000	22.942727
807.000000	23.038051
806.000000	23.162208
805.000000	23.301787
804.000000	23.527638
803.000000	23.742537
802.000000	23.902566
801.000000	24.023259
800.000000	24.150545
799.000000	24.333930
798.000000	24.531843
797.000000	24.649965
796.000000	24.763729
795.000000	24.952814
794.000000	25.058308
793.000000	25.182353
792.000000	25.315338
791.000000	25.427202
790.000000	25.601759
789.000000	25.666687
788.000000	25.783021
787.000000	25.884492
786.000000	25.973223
785.000000	26.039716
784.000000	26.159067
783.000000	26.240870
782.000000	26.295516
781.000000	26.405034
780.000000	26.490077
779.000000	26.573444
778.000000	26.682179
777.000000	26.745766
776.000000	26.766887
775.000000	26.838632
774.000000	26.865453
773.000000	26.899984
772.000000	26.914400
771.000000	26.964689
770.000000	27.028164
769.000000	27.093204
768.000000	27.090745
767.000000	27.051632
766.000000	27.110972
765.000000	27.179588
764.000000	27.210320
763.000000	27.200150
762.000000	27.196351
761.000000	27.231776
760.000000	27.176906
759.000000	27.165284
758.000000	27.201491
757.000000	27.218813
756.000000	27.234794
755.000000	27.200150
754.000000	27.166960
753.000000	27.175118
752.000000	27.149415
751.000000	27.092198
750.000000	27.054090
749.000000	27.067165
748.000000	27.078564
747.000000	27.043139
746.000000	26.998773
745.000000	26.943791
744.000000	26.888585
743.000000	26.877745
742.000000	26.832821
741.000000	26.775827
740.000000	26.722857
739.000000	26.653570
738.000000	26.634461
737.000000	26.573444
736.000000	26.513433
735.000000	26.492088
734.000000	26.448505
733.000000	26.402687
732.000000	26.385924
731.000000	26.331836
730.000000	26.300545
729.000000	26.305909
728.000000	26.257074
727.000000	26.247910
726.000000	26.235617
725.000000	26.202650
724.000000	26.170801
723.000000	26.173818
722.000000	26.152474
721.000000	26.122636
720.000000	26.116266
719.000000	26.110455
718.000000	26.078382
717.000000	26.071453
716.000000	26.111572
715.000000	26.079835
714.000000	26.047538
713.000000	26.066760
712.000000	26.072012
711.000000	26.039716
710.000000	26.078829
709.000000	26.067318
708.000000	26.020382
707.000000	25.983951
706.000000	25.960707
705.000000	25.932433
704.000000	25.889185
703.000000	25.833980
702.000000	25.772181
701.000000	25.716528
700.000000	25.714964
699.000000	25.663893
698.000000	25.563092
697.000000	25.483413
696.000000	25.413233
695.000000	25.307292
694.000000	25.187940
693.000000	25.073506
692.000000	24.924429
691.000000	24.737467
690.000000	24.599341
689.000000	24.379860
688.000000	24.178147
687.000000	23.950843
686.000000	23.729462
685.000000	23.466174
684.000000	23.193611
683.000000	22.930211
682.000000	22.629709
681.000000	22.365862
680.000000	22.064019
679.000000	21.754577
678.000000	21.498330
677.000000	21.247222
676.000000	20.988293
675.000000	20.715058
674.000000	20.489543
673.000000	20.276543
672.000000	20.083100
671.000000	19.948103
670.000000	19.820706
669.000000	19.713982
668.000000	19.654307
667.000000	19.618099
666.000000	19.593178
665.000000	19.608823
664.000000	19.626257
663.000000	19.641455
662.000000	19.674534
661.000000	19.711971
660.000000	19.723816
659.000000	19.731304
658.000000	19.745496
657.000000	19.763600
656.000000	19.743038
655.000000	19.696102
654.000000	19.620446
653.000000	19.566469
652.000000	19.454270
651.000000	19.329778
650.000000	19.195229
649.000000	19.015643
648.000000	18.855055
647.000000	18.645184
646.000000	18.448947
645.000000	18.236171
644.000000	18.017025
643.000000	17.814307
642.000000	17.609577
641.000000	17.382943
640.000000	17.191959
639.000000	16.999186
638.000000	16.797697
637.000000	16.670858
636.000000	16.546143
635.000000	16.435843
634.000000	16.346441
633.000000	16.280284
632.000000	16.228766
631.000000	16.210104
630.000000	16.228990
629.000000	16.277826
628.000000	16.365551
627.000000	16.431485
626.000000	16.543684
625.000000	16.691420
624.000000	16.866760
623.000000	17.045898
622.000000	17.229954
621.000000	17.417475
620.000000	17.625781
619.000000	17.814083
618.000000	18.000486
617.000000	18.148334
616.000000	18.358987
615.000000	18.497671
614.000000	18.670775
613.000000	18.784316
612.000000	18.908025
611.000000	19.085600
610.000000	19.221937
609.000000	19.348329
608.000000	19.490143
607.000000	19.569263
606.000000	19.688838
605.000000	19.783157
604.000000	19.858925
603.000000	19.978723
602.000000	20.118749
601.000000	20.211727
600.000000	20.352311
599.000000	20.469204
598.000000	20.655718
597.000000	20.821894
596.000000	20.990863
595.000000	21.170672
594.000000	21.244317
593.000000	21.376184
592.000000	21.449382
591.000000	21.532749
590.000000	21.580021
589.000000	21.642825
588.000000	21.689985
587.000000	21.788327
586.000000	21.860742
585.000000	21.947126
584.000000	22.032617
583.000000	22.057761
582.000000	22.096539
581.000000	22.096316
580.000000	22.067484
579.000000	22.011160
578.000000	21.948244
577.000000	21.875829
576.000000	21.821294
575.000000	21.792685
574.000000	21.775140
573.000000	21.743514
572.000000	21.729433
571.000000	21.700042
570.000000	21.670316
569.000000	21.578121
568.000000	21.498218
567.000000	21.399988
566.000000	21.334166
565.000000	21.273931
564.000000	21.227107
563.000000	21.206433
562.000000	21.182965
561.000000	21.149104
560.000000	21.171678
559.000000	21.511293
558.000000	21.382778
557.000000	21.250016
556.000000	21.086411
555.000000	20.901014
554.000000	20.718635
553.000000	20.545642
552.000000	20.402823
551.000000	20.240894
550.000000	20.072707
549.000000	19.901391
548.000000	19.687497
547.000000	19.487125
546.000000	19.259710
545.000000	19.068055
544.000000	18.852596
543.000000	18.639820
542.000000	18.411846
541.000000	18.202869
540.000000	17.976236
539.000000	17.729934
538.000000	17.477932
537.000000	17.219114
536.000000	16.954932
535.000000	16.681698
534.000000	16.384214
533.000000	16.076001
532.000000	15.756837
531.000000	15.440802
530.000000	15.134377
529.000000	14.812978
528.000000	14.494596
527.000000	14.183589
526.000000	13.887893
525.000000	13.594655
524.000000	13.324438
523.000000	13.059362
522.000000	12.809484
521.000000	12.581063
520.000000	12.351636
519.000000	12.121314
518.000000	11.905409
517.000000	11.707384
516.000000	11.512712
515.000000	11.336926
514.000000	11.161810
513.000000	10.997199
512.000000	10.851809
511.000000	10.721618
510.000000	10.610201
509.000000	10.505377
508.000000	10.406477
507.000000	10.328474
506.000000	10.283996
505.000000	10.218062
504.000000	10.166209
503.000000	10.107651
502.000000	10.066079
501.000000	10.011209
500.000000	9.962150
499.000000	9.911191
498.000000	9.852633
497.000000	9.788152
496.000000	9.718418
495.000000	9.640304
494.000000	9.551684
493.000000	9.439708
492.000000	9.316334
491.000000	9.200670
490.000000	9.082437
489.000000	8.956939
488.000000	8.819931
487.000000	8.696109
486.000000	8.566700
485.000000	8.446455
484.000000	8.338279
483.000000	8.245524
482.000000	8.190654
481.000000	8.172550
480.000000	8.177579
479.000000	8.166851
478.000000	8.142154
477.000000	8.135113
476.000000	8.143718
475.000000	8.154782
474.000000	8.164616
473.000000	8.189984
472.000000	8.222168
471.000000	8.260946
470.000000	8.298160
469.000000	8.332915
468.000000	8.373034
467.000000	8.397060
466.000000	8.426898
465.000000	8.451931
464.000000	8.465564
463.000000	8.490820
462.000000	8.502890
461.000000	8.497749
460.000000	8.493726
459.000000	8.478751
458.000000	8.454278
457.000000	8.436397
456.000000	8.423993
455.000000	8.393484
454.000000	8.350013
453.000000	8.310229
452.000000	8.271674
451.000000	8.237031
450.000000	8.190766
449.000000	8.147406
448.000000	8.087507
447.000000	8.032748
446.000000	7.987042
445.000000	7.900210
444.000000	7.814943
443.000000	7.757167
442.000000	7.699056
441.000000	7.627982
440.000000	7.557913
439.000000	7.468623
438.000000	7.386150
437.000000	7.319210
436.000000	7.223886
435.000000	7.119174
434.000000	7.018373
433.000000	6.915561
432.000000	6.816996
431.000000	6.705914
430.000000	6.593156
429.000000	6.479951
428.000000	6.361047
427.000000	6.216663
426.000000	6.068592
425.000000	5.926890
424.000000	5.782282
423.000000	5.641139
422.000000	5.493850
421.000000	5.332145
420.000000	5.165187
419.000000	4.993312
418.000000	4.831495
417.000000	4.672583
416.000000	4.505737
415.000000	4.333303
414.000000	4.187243
413.000000	4.046994
412.000000	3.888641
411.000000	3.745599
410.000000	3.613060
409.000000	3.491809
408.000000	3.364635
407.000000	3.260035
406.000000	3.159011
405.000000	3.073633
404.000000	3.002111
403.000000	2.916397
402.000000	2.842305
401.000000	2.787323
400.000000	2.729771
399.000000	2.671325
398.000000	2.616566
397.000000	2.570189
396.000000	2.540798
395.000000	2.508166
394.000000	2.478999
393.000000	2.445697
392.000000	2.417088
391.000000	2.386468
390.000000	2.359759
389.000000	2.344673
388.000000	2.335286
387.000000	2.321428
386.000000	2.311594
385.000000	2.293602
384.000000	2.282203
383.000000	2.277286
382.000000	2.257953
381.000000	2.261865
380.000000	2.245437
379.000000	2.227221
378.000000	2.220069
377.000000	2.212358
376.000000	2.248343
375.000000	2.187214
374.000000	2.342103
373.000000	2.338750
372.000000	2.341544
371.000000	2.371829
370.000000	2.453296
369.000000	2.381216
368.000000	2.380769
367.000000	2.386580
366.000000	2.333498
365.000000	2.422788
364.000000	2.454861
363.000000	2.404796
362.000000	2.459554
361.000000	2.376634
360.000000	2.434969
359.000000	2.434186
358.000000	2.413848
357.000000	2.410942
356.000000	2.450838
355.000000	2.446814
354.000000	2.316623
353.000000	2.327351
352.000000	2.398537
351.000000	2.328916
350.000000	2.307236
349.000000	2.264658
348.000000	2.354284
347.000000	2.349590
346.000000	2.368476
345.000000	2.417647
344.000000	2.417982
343.000000	2.435639
342.000000	2.383116
341.000000	2.306565
340.000000	2.372499
339.000000	2.379651
338.000000	2.224428
337.000000	2.396079
336.000000	2.482799
335.000000	2.440556
334.000000	2.419547
333.000000	2.282762
332.000000	2.351602
331.000000	2.652327
330.000000	2.451173
329.000000	2.377193
328.000000	2.543927
327.000000	2.578012
326.000000	2.689652
325.000000	2.430052
324.000000	2.574324
323.000000	2.574547
322.000000	2.766984
321.000000	2.707979
320.000000	2.539681
319.000000	2.545492
318.000000	2.411836
317.000000	3.005128
316.000000	2.180062
315.000000	2.104517
314.000000	2.105970
313.000000	2.096360
312.000000	2.116587
311.000000	2.085743
310.000000	2.110105
309.000000	2.106417
308.000000	2.149665
307.000000	2.069092
306.000000	2.095801
305.000000	2.075574
304.000000	2.053782
303.000000	2.129773
302.000000	2.052329
301.000000	2.083285
300.000000	2.127650
299.000000	2.096918
298.000000	2.087866
297.000000	2.087643
296.000000	2.063281
295.000000	2.076244
294.000000	2.119380
293.000000	2.144078
292.000000	2.078367
291.000000	2.095354
290.000000	2.079597
289.000000	2.105411
288.000000	2.107647
287.000000	2.122398
286.000000	2.106529
285.000000	2.121057
284.000000	2.128544
283.000000	2.088984
282.000000	2.128097
281.000000	2.138825
280.000000	2.118039
279.000000	2.095801
278.000000	2.115469
277.000000	2.123962
276.000000	2.135808
275.000000	2.177380
274.000000	2.168104
273.000000	2.174921
272.000000	2.140949
271.000000	2.141060
270.000000	2.167769
269.000000	2.207106
268.000000	2.200513
267.000000	2.179391
266.000000	2.181068
265.000000	2.193472
264.000000	2.210906
263.000000	2.216493
262.000000	2.210459
261.000000	2.269575
260.000000	2.252142
259.000000	2.259741
258.000000	2.240855
257.000000	2.226216
256.000000	2.251695
255.000000	2.230686
254.000000	2.228898
253.000000	2.255942
252.000000	2.285780
251.000000	2.300196
250.000000	2.297849
