PE UV       SUBTECH     SPECTRUM    ASCII       PEDS        4.00        
   -1
CICIMAUCR0014-2.Sample.ASC
24/04/04
11:56:19.00
24/04/04
11:56:19.00
Vinicio Soto Monge
C. cupreomarginata
250,000000
1
Lambda 1050
1050L1511233
PerkinElmer UV WinLab 6.3.2.0749 / 2.02.05 Lambda 900 UV/VIS/NIR, Aug  7 2015 09:38:08

0
0
3350/servo 860,8/2
0
0
UV/VIS
1
1
1
DoubleDePol,CommonBeamDepol,RBeamAtt,SBeamAtt,60mm sphere, WB InGaAs Detector
0
0
0
0
Program
Program
3350/servo 860,8/2
3350/0,2 860,8/0,2
3350/0,2 860,8/0,2
0
15.00
 
 
 
0
 
860,8
319,2
860,8
Front
100
on
S:100 R:100
0
0
0
0
 
0
 
 
 
0
 
 
0
0
0
0
0
 
 
 
 
0
0


0
0
#HDR
-1
-1
#GR
nm
%R
1.0
0.0
2500,000000
-1,000000
2251
8
66,693600
4,828800
#DATA
2500.000000	11.186500
2499.000000	11.061400
2498.000000	11.143100
2497.000000	11.127700
2496.000000	11.172600
2495.000000	11.114200
2494.000000	11.151500
2493.000000	11.203800
2492.000000	11.206100
2491.000000	11.238300
2490.000000	11.223600
2489.000000	11.196100
2488.000000	11.194700
2487.000000	11.176100
2486.000000	11.257900
2485.000000	11.212600
2484.000000	11.221300
2483.000000	11.333800
2482.000000	11.268400
2481.000000	11.242100
2480.000000	11.310700
2479.000000	11.364500
2478.000000	11.364300
2477.000000	11.431800
2476.000000	11.424900
2475.000000	11.416200
2474.000000	11.467700
2473.000000	11.512100
2472.000000	11.558400
2471.000000	11.565800
2470.000000	11.589500
2469.000000	11.633400
2468.000000	11.700900
2467.000000	11.729400
2466.000000	11.760100
2465.000000	11.854500
2464.000000	11.913400
2463.000000	11.991500
2462.000000	12.031100
2461.000000	12.126500
2460.000000	12.183700
2459.000000	12.253300
2458.000000	12.341800
2457.000000	12.411800
2456.000000	12.513300
2455.000000	12.587400
2454.000000	12.702600
2453.000000	12.779400
2452.000000	12.872000
2451.000000	12.974400
2450.000000	13.083600
2449.000000	13.205900
2448.000000	13.307700
2447.000000	13.437000
2446.000000	13.536200
2445.000000	13.670600
2444.000000	13.772600
2443.000000	13.894700
2442.000000	13.978200
2441.000000	14.102000
2440.000000	14.211100
2439.000000	14.335000
2438.000000	14.426600
2437.000000	14.542000
2436.000000	14.653800
2435.000000	14.769400
2434.000000	14.883400
2433.000000	14.962700
2432.000000	15.062600
2431.000000	15.158800
2430.000000	15.271400
2429.000000	15.373200
2428.000000	15.457600
2427.000000	15.554100
2426.000000	15.637200
2425.000000	15.726400
2424.000000	15.809100
2423.000000	15.879900
2422.000000	15.968600
2421.000000	16.059400
2420.000000	16.132100
2419.000000	16.189200
2418.000000	16.263700
2417.000000	16.328800
2416.000000	16.375600
2415.000000	16.439100
2414.000000	16.504200
2413.000000	16.553700
2412.000000	16.608300
2411.000000	16.665100
2410.000000	16.714900
2409.000000	16.740200
2408.000000	16.778400
2407.000000	16.838500
2406.000000	16.889600
2405.000000	16.922500
2404.000000	16.955200
2403.000000	16.980800
2402.000000	17.012600
2401.000000	17.052500
2400.000000	17.082900
2399.000000	17.107000
2398.000000	17.122800
2397.000000	17.154000
2396.000000	17.196900
2395.000000	17.215400
2394.000000	17.236300
2393.000000	17.253300
2392.000000	17.274300
2391.000000	17.291500
2390.000000	17.299000
2389.000000	17.297400
2388.000000	17.301000
2387.000000	17.316100
2386.000000	17.296900
2385.000000	17.288100
2384.000000	17.285400
2383.000000	17.272600
2382.000000	17.270000
2381.000000	17.236100
2380.000000	17.202200
2379.000000	17.200800
2378.000000	17.188200
2377.000000	17.158500
2376.000000	17.131700
2375.000000	17.097000
2374.000000	17.049500
2373.000000	17.020300
2372.000000	16.984200
2371.000000	16.942900
2370.000000	16.916200
2369.000000	16.875400
2368.000000	16.836800
2367.000000	16.800600
2366.000000	16.757200
2365.000000	16.720800
2364.000000	16.673200
2363.000000	16.618500
2362.000000	16.572400
2361.000000	16.539300
2360.000000	16.500600
2359.000000	16.447600
2358.000000	16.403300
2357.000000	16.371600
2356.000000	16.337700
2355.000000	16.290300
2354.000000	16.252500
2353.000000	16.230900
2352.000000	16.188700
2351.000000	16.162200
2350.000000	16.156600
2349.000000	16.140000
2348.000000	16.129400
2347.000000	16.129300
2346.000000	16.121700
2345.000000	16.110400
2344.000000	16.104400
2343.000000	16.092200
2342.000000	16.085500
2341.000000	16.069900
2340.000000	16.063400
2339.000000	16.050800
2338.000000	16.051600
2337.000000	16.022000
2336.000000	16.001200
2335.000000	15.972900
2334.000000	15.942600
2333.000000	15.926700
2332.000000	15.898100
2331.000000	15.870600
2330.000000	15.829400
2329.000000	15.805500
2328.000000	15.774400
2327.000000	15.726300
2326.000000	15.689400
2325.000000	15.648800
2324.000000	15.602800
2323.000000	15.550100
2322.000000	15.496100
2321.000000	15.435600
2320.000000	15.362600
2319.000000	15.297600
2318.000000	15.211600
2317.000000	15.122800
2316.000000	15.036400
2315.000000	14.926000
2314.000000	14.838800
2313.000000	14.747500
2312.000000	14.651300
2311.000000	14.553200
2310.000000	14.463200
2309.000000	14.384000
2308.000000	14.327800
2307.000000	14.277300
2306.000000	14.211200
2305.000000	14.161800
2304.000000	14.145900
2303.000000	14.115400
2302.000000	14.105500
2301.000000	14.111900
2300.000000	14.111200
2299.000000	14.103000
2298.000000	14.123500
2297.000000	14.149600
2296.000000	14.150700
2295.000000	14.151100
2294.000000	14.164200
2293.000000	14.181400
2292.000000	14.186000
2291.000000	14.171100
2290.000000	14.148200
2289.000000	14.151600
2288.000000	14.126700
2287.000000	14.095800
2286.000000	14.058200
2285.000000	14.024300
2284.000000	14.010800
2283.000000	13.951900
2282.000000	13.901800
2281.000000	13.865200
2280.000000	13.805600
2279.000000	13.746900
2278.000000	13.693900
2277.000000	13.636400
2276.000000	13.587000
2275.000000	13.531200
2274.000000	13.489900
2273.000000	13.447900
2272.000000	13.411000
2271.000000	13.355100
2270.000000	13.345300
2269.000000	13.323500
2268.000000	13.326600
2267.000000	13.332000
2266.000000	13.370700
2265.000000	13.404600
2264.000000	13.457400
2263.000000	13.517200
2262.000000	13.589700
2261.000000	13.679700
2260.000000	13.774100
2259.000000	13.895800
2258.000000	14.013700
2257.000000	14.140900
2256.000000	14.274200
2255.000000	14.399900
2254.000000	14.554600
2253.000000	14.689000
2252.000000	14.802400
2251.000000	14.948600
2250.000000	15.073200
2249.000000	15.185200
2248.000000	15.303600
2247.000000	15.397400
2246.000000	15.508300
2245.000000	15.602900
2244.000000	15.676800
2243.000000	15.758800
2242.000000	15.843100
2241.000000	15.889800
2240.000000	15.928200
2239.000000	15.974100
2238.000000	16.028700
2237.000000	16.046800
2236.000000	16.033400
2235.000000	16.063800
2234.000000	16.039800
2233.000000	16.019300
2232.000000	16.006800
2231.000000	15.952700
2230.000000	15.913300
2229.000000	15.832600
2228.000000	15.751400
2227.000000	15.686600
2226.000000	15.585100
2225.000000	15.451800
2224.000000	15.343400
2223.000000	15.240200
2222.000000	15.124700
2221.000000	14.991500
2220.000000	14.859300
2219.000000	14.722300
2218.000000	14.594700
2217.000000	14.463700
2216.000000	14.366700
2215.000000	14.254900
2214.000000	14.156500
2213.000000	14.088200
2212.000000	14.032600
2211.000000	14.004800
2210.000000	13.971100
2209.000000	13.978300
2208.000000	14.006400
2207.000000	14.057900
2206.000000	14.157500
2205.000000	14.274000
2204.000000	14.401700
2203.000000	14.536200
2202.000000	14.726100
2201.000000	14.906900
2200.000000	15.098700
2199.000000	15.322700
2198.000000	15.528700
2197.000000	15.748300
2196.000000	15.961100
2195.000000	16.172100
2194.000000	16.358300
2193.000000	16.563300
2192.000000	16.744100
2191.000000	16.909400
2190.000000	17.074200
2189.000000	17.202900
2188.000000	17.337300
2187.000000	17.429700
2186.000000	17.543200
2185.000000	17.631500
2184.000000	17.715500
2183.000000	17.789100
2182.000000	17.852200
2181.000000	17.918500
2180.000000	17.964400
2179.000000	18.004400
2178.000000	18.073500
2177.000000	18.099400
2176.000000	18.129200
2175.000000	18.164400
2174.000000	18.211300
2173.000000	18.251000
2172.000000	18.323700
2171.000000	18.365100
2170.000000	18.416200
2169.000000	18.451000
2168.000000	18.511100
2167.000000	18.569300
2166.000000	18.611600
2165.000000	18.685000
2164.000000	18.766200
2163.000000	18.834100
2162.000000	18.889600
2161.000000	18.972300
2160.000000	19.057800
2159.000000	19.145600
2158.000000	19.234900
2157.000000	19.333000
2156.000000	19.424800
2155.000000	19.538700
2154.000000	19.658700
2153.000000	19.764800
2152.000000	19.872300
2151.000000	19.988500
2150.000000	20.121100
2149.000000	20.244500
2148.000000	20.367900
2147.000000	20.490600
2146.000000	20.619400
2145.000000	20.738800
2144.000000	20.860700
2143.000000	20.978200
2142.000000	21.092800
2141.000000	21.201700
2140.000000	21.315600
2139.000000	21.432300
2138.000000	21.529300
2137.000000	21.633500
2136.000000	21.731300
2135.000000	21.826800
2134.000000	21.918400
2133.000000	21.991200
2132.000000	22.074600
2131.000000	22.160900
2130.000000	22.228500
2129.000000	22.288500
2128.000000	22.353900
2127.000000	22.417200
2126.000000	22.476000
2125.000000	22.523100
2124.000000	22.561700
2123.000000	22.605600
2122.000000	22.634200
2121.000000	22.671100
2120.000000	22.700200
2119.000000	22.723900
2118.000000	22.739200
2117.000000	22.755600
2116.000000	22.762300
2115.000000	22.774900
2114.000000	22.782200
2113.000000	22.791200
2112.000000	22.788500
2111.000000	22.784100
2110.000000	22.779200
2109.000000	22.778900
2108.000000	22.773800
2107.000000	22.755500
2106.000000	22.743200
2105.000000	22.740000
2104.000000	22.733100
2103.000000	22.724800
2102.000000	22.711300
2101.000000	22.706400
2100.000000	22.696600
2099.000000	22.680200
2098.000000	22.675000
2097.000000	22.678900
2096.000000	22.672500
2095.000000	22.668700
2094.000000	22.674700
2093.000000	22.670400
2092.000000	22.664900
2091.000000	22.666900
2090.000000	22.674500
2089.000000	22.674300
2088.000000	22.660100
2087.000000	22.648700
2086.000000	22.631000
2085.000000	22.613900
2084.000000	22.590300
2083.000000	22.554700
2082.000000	22.525800
2081.000000	22.496700
2080.000000	22.447200
2079.000000	22.388100
2078.000000	22.322600
2077.000000	22.258100
2076.000000	22.192900
2075.000000	22.110600
2074.000000	22.012900
2073.000000	21.939100
2072.000000	21.843100
2071.000000	21.737700
2070.000000	21.658200
2069.000000	21.554600
2068.000000	21.432700
2067.000000	21.338100
2066.000000	21.243300
2065.000000	21.125100
2064.000000	21.030400
2063.000000	20.930700
2062.000000	20.825600
2061.000000	20.748500
2060.000000	20.682900
2059.000000	20.616400
2058.000000	20.553600
2057.000000	20.518000
2056.000000	20.498600
2055.000000	20.492900
2054.000000	20.523100
2053.000000	20.567800
2052.000000	20.615100
2051.000000	20.703600
2050.000000	20.793000
2049.000000	20.909700
2048.000000	21.048300
2047.000000	21.195900
2046.000000	21.365400
2045.000000	21.539500
2044.000000	21.703000
2043.000000	21.880700
2042.000000	22.079500
2041.000000	22.271300
2040.000000	22.457100
2039.000000	22.646800
2038.000000	22.798300
2037.000000	22.971200
2036.000000	23.134900
2035.000000	23.299800
2034.000000	23.450100
2033.000000	23.590800
2032.000000	23.729000
2031.000000	23.873200
2030.000000	24.008000
2029.000000	24.116300
2028.000000	24.227200
2027.000000	24.339800
2026.000000	24.444800
2025.000000	24.546700
2024.000000	24.635100
2023.000000	24.714200
2022.000000	24.792400
2021.000000	24.894200
2020.000000	24.965400
2019.000000	25.020200
2018.000000	25.083600
2017.000000	25.128500
2016.000000	25.190900
2015.000000	25.224900
2014.000000	25.268800
2013.000000	25.330900
2012.000000	25.351400
2011.000000	25.377200
2010.000000	25.389700
2009.000000	25.402700
2008.000000	25.419400
2007.000000	25.401800
2006.000000	25.407100
2005.000000	25.395100
2004.000000	25.379000
2003.000000	25.355300
2002.000000	25.306600
2001.000000	25.281400
2000.000000	25.228100
1999.000000	25.196200
1998.000000	25.150700
1997.000000	25.089000
1996.000000	25.039600
1995.000000	24.976300
1994.000000	24.910200
1993.000000	24.841600
1992.000000	24.758700
1991.000000	24.680900
1990.000000	24.596900
1989.000000	24.531800
1988.000000	24.436700
1987.000000	24.333800
1986.000000	24.256300
1985.000000	24.169000
1984.000000	24.062700
1983.000000	23.984900
1982.000000	23.887700
1981.000000	23.811800
1980.000000	23.703300
1979.000000	23.618100
1978.000000	23.511400
1977.000000	23.424300
1976.000000	23.335500
1975.000000	23.249300
1974.000000	23.175300
1973.000000	23.080800
1972.000000	23.005400
1971.000000	22.924600
1970.000000	22.843100
1969.000000	22.750700
1968.000000	22.672400
1967.000000	22.592900
1966.000000	22.509700
1965.000000	22.433500
1964.000000	22.335700
1963.000000	22.293000
1962.000000	22.192800
1961.000000	22.112000
1960.000000	21.999500
1959.000000	21.936800
1958.000000	21.853300
1957.000000	21.768700
1956.000000	21.688200
1955.000000	21.637000
1954.000000	21.529400
1953.000000	21.423100
1952.000000	21.363900
1951.000000	21.272500
1950.000000	21.216200
1949.000000	21.153700
1948.000000	21.091700
1947.000000	21.009200
1946.000000	20.977700
1945.000000	20.919500
1944.000000	20.851700
1943.000000	20.819900
1942.000000	20.806400
1941.000000	20.787600
1940.000000	20.785500
1939.000000	20.766800
1938.000000	20.742100
1937.000000	20.737300
1936.000000	20.744100
1935.000000	20.787900
1934.000000	20.826300
1933.000000	20.902000
1932.000000	20.955400
1931.000000	21.029600
1930.000000	21.114200
1929.000000	21.190200
1928.000000	21.289100
1927.000000	21.397500
1926.000000	21.512900
1925.000000	21.641300
1924.000000	21.814700
1923.000000	21.959900
1922.000000	22.158800
1921.000000	22.336500
1920.000000	22.507100
1919.000000	22.686800
1918.000000	22.891500
1917.000000	23.145500
1916.000000	23.399700
1915.000000	23.659300
1914.000000	23.955800
1913.000000	24.219900
1912.000000	24.486700
1911.000000	24.784500
1910.000000	25.092800
1909.000000	25.443500
1908.000000	25.788600
1907.000000	26.171500
1906.000000	26.574800
1905.000000	26.978000
1904.000000	27.388300
1903.000000	27.806400
1902.000000	28.256900
1901.000000	28.692500
1900.000000	29.161300
1899.000000	29.637500
1898.000000	30.117100
1897.000000	30.582500
1896.000000	31.026500
1895.000000	31.517400
1894.000000	32.025900
1893.000000	32.544600
1892.000000	33.066200
1891.000000	33.567100
1890.000000	34.048900
1889.000000	34.501300
1888.000000	35.010500
1887.000000	35.474900
1886.000000	35.927900
1885.000000	36.413600
1884.000000	36.875200
1883.000000	37.292700
1882.000000	37.683500
1881.000000	38.069600
1880.000000	38.425400
1879.000000	38.780300
1878.000000	39.124800
1877.000000	39.442500
1876.000000	39.733200
1875.000000	40.008900
1874.000000	40.274300
1873.000000	40.508100
1872.000000	40.699300
1871.000000	40.860700
1870.000000	40.947400
1869.000000	41.063400
1868.000000	41.187500
1867.000000	41.252800
1866.000000	41.330000
1865.000000	41.416700
1864.000000	41.520200
1863.000000	41.631500
1862.000000	41.724300
1861.000000	41.811000
1860.000000	41.880700
1859.000000	41.905600
1858.000000	41.926300
1857.000000	41.965500
1856.000000	41.998600
1855.000000	42.016800
1854.000000	42.011100
1853.000000	41.976700
1852.000000	41.977700
1851.000000	42.031300
1850.000000	42.113600
1849.000000	42.151600
1848.000000	42.074600
1847.000000	41.940100
1846.000000	41.843400
1845.000000	41.834100
1844.000000	41.865600
1843.000000	41.927700
1842.000000	41.937100
1841.000000	41.860500
1840.000000	41.765900
1839.000000	41.704200
1838.000000	41.681500
1837.000000	41.619300
1836.000000	41.525900
1835.000000	41.438000
1834.000000	41.371800
1833.000000	41.327300
1832.000000	41.306500
1831.000000	41.279200
1830.000000	41.208700
1829.000000	41.153400
1828.000000	41.087400
1827.000000	41.021700
1826.000000	40.955600
1825.000000	40.905200
1824.000000	40.914100
1823.000000	40.984500
1822.000000	41.030300
1821.000000	40.998900
1820.000000	40.921200
1819.000000	40.849200
1818.000000	40.840100
1817.000000	40.865000
1816.000000	40.876200
1815.000000	40.838300
1814.000000	40.822900
1813.000000	40.834000
1812.000000	40.814600
1811.000000	40.762100
1810.000000	40.685000
1809.000000	40.659500
1808.000000	40.659800
1807.000000	40.645100
1806.000000	40.586400
1805.000000	40.512100
1804.000000	40.489500
1803.000000	40.485000
1802.000000	40.465900
1801.000000	40.421700
1800.000000	40.358500
1799.000000	40.313900
1798.000000	40.289300
1797.000000	40.269100
1796.000000	40.224900
1795.000000	40.180100
1794.000000	40.153800
1793.000000	40.117600
1792.000000	40.096700
1791.000000	40.058100
1790.000000	40.031400
1789.000000	39.998600
1788.000000	39.974400
1787.000000	39.963500
1786.000000	39.939500
1785.000000	39.901400
1784.000000	39.863500
1783.000000	39.819400
1782.000000	39.781700
1781.000000	39.737000
1780.000000	39.673600
1779.000000	39.620900
1778.000000	39.555800
1777.000000	39.474300
1776.000000	39.386100
1775.000000	39.309900
1774.000000	39.208100
1773.000000	39.135000
1772.000000	39.042200
1771.000000	38.940300
1770.000000	38.852400
1769.000000	38.759300
1768.000000	38.672200
1767.000000	38.592100
1766.000000	38.521600
1765.000000	38.451800
1764.000000	38.409100
1763.000000	38.380500
1762.000000	38.350700
1761.000000	38.319600
1760.000000	38.319300
1759.000000	38.314800
1758.000000	38.315000
1757.000000	38.290700
1756.000000	38.277300
1755.000000	38.269300
1754.000000	38.231300
1753.000000	38.207100
1752.000000	38.177100
1751.000000	38.111100
1750.000000	38.060000
1749.000000	37.980300
1748.000000	37.903300
1747.000000	37.804000
1746.000000	37.686700
1745.000000	37.575600
1744.000000	37.426000
1743.000000	37.292400
1742.000000	37.153200
1741.000000	36.990000
1740.000000	36.837300
1739.000000	36.695700
1738.000000	36.565600
1737.000000	36.454100
1736.000000	36.377600
1735.000000	36.291600
1734.000000	36.263300
1733.000000	36.230300
1732.000000	36.206900
1731.000000	36.206000
1730.000000	36.197200
1729.000000	36.202300
1728.000000	36.199600
1727.000000	36.194400
1726.000000	36.169300
1725.000000	36.189000
1724.000000	36.209000
1723.000000	36.242000
1722.000000	36.302500
1721.000000	36.393000
1720.000000	36.518600
1719.000000	36.692200
1718.000000	36.857600
1717.000000	37.026600
1716.000000	37.235100
1715.000000	37.382600
1714.000000	37.555300
1713.000000	37.701600
1712.000000	37.836900
1711.000000	37.940200
1710.000000	38.025600
1709.000000	38.086000
1708.000000	38.118600
1707.000000	38.161200
1706.000000	38.179400
1705.000000	38.164000
1704.000000	38.156300
1703.000000	38.119500
1702.000000	38.065400
1701.000000	37.987400
1700.000000	37.921200
1699.000000	37.840800
1698.000000	37.790900
1697.000000	37.746500
1696.000000	37.697200
1695.000000	37.682300
1694.000000	37.679100
1693.000000	37.653800
1692.000000	37.651800
1691.000000	37.629100
1690.000000	37.630600
1689.000000	37.646500
1688.000000	37.707100
1687.000000	37.772500
1686.000000	37.896400
1685.000000	38.053500
1684.000000	38.270500
1683.000000	38.543100
1682.000000	38.846500
1681.000000	39.178500
1680.000000	39.530800
1679.000000	39.880600
1678.000000	40.198100
1677.000000	40.505500
1676.000000	40.768000
1675.000000	41.032700
1674.000000	41.275100
1673.000000	41.520500
1672.000000	41.751100
1671.000000	41.981100
1670.000000	42.179300
1669.000000	42.395600
1668.000000	42.583700
1667.000000	42.771300
1666.000000	42.928800
1665.000000	43.078100
1664.000000	43.221700
1663.000000	43.367800
1662.000000	43.503400
1661.000000	43.634200
1660.000000	43.720200
1659.000000	43.833800
1658.000000	43.905200
1657.000000	43.985900
1656.000000	44.039500
1655.000000	44.090500
1654.000000	44.123700
1653.000000	44.170600
1652.000000	44.154200
1651.000000	44.178100
1650.000000	44.188100
1649.000000	44.169600
1648.000000	44.162000
1647.000000	44.138500
1646.000000	44.120700
1645.000000	44.099000
1644.000000	44.072200
1643.000000	44.056800
1642.000000	44.031600
1641.000000	44.015700
1640.000000	43.994200
1639.000000	43.978600
1638.000000	43.946300
1637.000000	43.914700
1636.000000	43.886600
1635.000000	43.858500
1634.000000	43.820600
1633.000000	43.785300
1632.000000	43.735400
1631.000000	43.678100
1630.000000	43.606600
1629.000000	43.552200
1628.000000	43.508500
1627.000000	43.465600
1626.000000	43.397300
1625.000000	43.325300
1624.000000	43.289300
1623.000000	43.237600
1622.000000	43.172000
1621.000000	43.129500
1620.000000	43.073800
1619.000000	43.029000
1618.000000	42.991100
1617.000000	42.932900
1616.000000	42.886400
1615.000000	42.841000
1614.000000	42.783500
1613.000000	42.730400
1612.000000	42.675800
1611.000000	42.607000
1610.000000	42.534100
1609.000000	42.471600
1608.000000	42.410700
1607.000000	42.329000
1606.000000	42.258800
1605.000000	42.167400
1604.000000	42.086300
1603.000000	42.016200
1602.000000	41.927600
1601.000000	41.851900
1600.000000	41.774600
1599.000000	41.696700
1598.000000	41.625100
1597.000000	41.546800
1596.000000	41.473800
1595.000000	41.414300
1594.000000	41.344800
1593.000000	41.272800
1592.000000	41.209700
1591.000000	41.156100
1590.000000	41.112100
1589.000000	41.056900
1588.000000	41.002600
1587.000000	40.960200
1586.000000	40.902900
1585.000000	40.838700
1584.000000	40.796200
1583.000000	40.764000
1582.000000	40.720200
1581.000000	40.664700
1580.000000	40.620400
1579.000000	40.599800
1578.000000	40.577000
1577.000000	40.565700
1576.000000	40.560300
1575.000000	40.545700
1574.000000	40.544300
1573.000000	40.551500
1572.000000	40.559100
1571.000000	40.574300
1570.000000	40.587700
1569.000000	40.607500
1568.000000	40.639300
1567.000000	40.666000
1566.000000	40.688400
1565.000000	40.719900
1564.000000	40.739100
1563.000000	40.747900
1562.000000	40.759100
1561.000000	40.756200
1560.000000	40.738200
1559.000000	40.733000
1558.000000	40.716400
1557.000000	40.675200
1556.000000	40.633900
1555.000000	40.595100
1554.000000	40.544500
1553.000000	40.474100
1552.000000	40.410200
1551.000000	40.342400
1550.000000	40.268700
1549.000000	40.189800
1548.000000	40.103100
1547.000000	40.040200
1546.000000	39.970400
1545.000000	39.908700
1544.000000	39.852700
1543.000000	39.800800
1542.000000	39.771800
1541.000000	39.744500
1540.000000	39.708000
1539.000000	39.677400
1538.000000	39.643300
1537.000000	39.614200
1536.000000	39.590800
1535.000000	39.571100
1534.000000	39.528200
1533.000000	39.469300
1532.000000	39.431600
1531.000000	39.400500
1530.000000	39.378000
1529.000000	39.319600
1528.000000	39.272900
1527.000000	39.216700
1526.000000	39.166900
1525.000000	39.119500
1524.000000	39.075700
1523.000000	39.022200
1522.000000	38.979400
1521.000000	38.917400
1520.000000	38.871100
1519.000000	38.815300
1518.000000	38.757800
1517.000000	38.708900
1516.000000	38.650200
1515.000000	38.598700
1514.000000	38.544000
1513.000000	38.495800
1512.000000	38.436500
1511.000000	38.391100
1510.000000	38.342000
1509.000000	38.294900
1508.000000	38.234800
1507.000000	38.170500
1506.000000	38.112400
1505.000000	38.074000
1504.000000	38.024700
1503.000000	37.984100
1502.000000	37.953700
1501.000000	37.895900
1500.000000	37.875200
1499.000000	37.848000
1498.000000	37.838100
1497.000000	37.843600
1496.000000	37.814400
1495.000000	37.797600
1494.000000	37.812300
1493.000000	37.854400
1492.000000	37.873400
1491.000000	37.887000
1490.000000	37.925800
1489.000000	37.954700
1488.000000	37.984700
1487.000000	38.015000
1486.000000	38.041000
1485.000000	38.061200
1484.000000	38.118500
1483.000000	38.152300
1482.000000	38.200500
1481.000000	38.245000
1480.000000	38.284900
1479.000000	38.332100
1478.000000	38.404100
1477.000000	38.450300
1476.000000	38.512500
1475.000000	38.559300
1474.000000	38.658200
1473.000000	38.742400
1472.000000	38.836500
1471.000000	38.891900
1470.000000	38.950500
1469.000000	38.999700
1468.000000	39.092000
1467.000000	39.180900
1466.000000	39.261900
1465.000000	39.341600
1464.000000	39.446800
1463.000000	39.515100
1462.000000	39.615300
1461.000000	39.708900
1460.000000	39.812000
1459.000000	39.905800
1458.000000	39.999100
1457.000000	40.108900
1456.000000	40.238600
1455.000000	40.314600
1454.000000	40.429600
1453.000000	40.557600
1452.000000	40.702200
1451.000000	40.799500
1450.000000	40.860600
1449.000000	40.938600
1448.000000	41.037300
1447.000000	41.183500
1446.000000	41.350200
1445.000000	41.412700
1444.000000	41.483000
1443.000000	41.623200
1442.000000	41.754900
1441.000000	41.858700
1440.000000	41.983200
1439.000000	42.104300
1438.000000	42.241400
1437.000000	42.341500
1436.000000	42.483800
1435.000000	42.609000
1434.000000	42.748500
1433.000000	42.925400
1432.000000	43.049500
1431.000000	43.159500
1430.000000	43.309100
1429.000000	43.516000
1428.000000	43.683400
1427.000000	43.841100
1426.000000	44.044500
1425.000000	44.284000
1424.000000	44.509600
1423.000000	44.674800
1422.000000	44.889500
1421.000000	45.142400
1420.000000	45.400800
1419.000000	45.628600
1418.000000	45.799000
1417.000000	45.962700
1416.000000	46.271100
1415.000000	46.551900
1414.000000	46.786500
1413.000000	46.978600
1412.000000	47.172800
1411.000000	47.480700
1410.000000	47.783600
1409.000000	48.044800
1408.000000	48.265500
1407.000000	48.504400
1406.000000	48.744500
1405.000000	48.974600
1404.000000	49.074100
1403.000000	49.299100
1402.000000	49.546300
1401.000000	49.837700
1400.000000	49.818800
1399.000000	49.780500
1398.000000	49.856300
1397.000000	50.013300
1396.000000	50.098000
1395.000000	50.037300
1394.000000	49.971000
1393.000000	49.962500
1392.000000	49.953700
1391.000000	49.904500
1390.000000	49.915400
1389.000000	50.006700
1388.000000	50.074700
1387.000000	50.104500
1386.000000	50.213100
1385.000000	50.409000
1384.000000	50.621200
1383.000000	50.801500
1382.000000	51.030300
1381.000000	51.269400
1380.000000	51.504200
1379.000000	52.005600
1378.000000	52.476800
1377.000000	53.039500
1376.000000	53.614800
1375.000000	54.180000
1374.000000	54.782900
1373.000000	55.376400
1372.000000	55.912300
1371.000000	56.339700
1370.000000	56.689900
1369.000000	57.014600
1368.000000	57.281300
1367.000000	57.454000
1366.000000	57.651600
1365.000000	57.859000
1364.000000	58.005000
1363.000000	58.167800
1362.000000	58.310300
1361.000000	58.378000
1360.000000	58.383300
1359.000000	58.464300
1358.000000	58.575800
1357.000000	58.713800
1356.000000	58.869000
1355.000000	59.034500
1354.000000	59.214000
1353.000000	59.409100
1352.000000	59.644900
1351.000000	59.883300
1350.000000	60.120700
1349.000000	60.347200
1348.000000	60.583100
1347.000000	60.767200
1346.000000	60.972100
1345.000000	61.189800
1344.000000	61.397200
1343.000000	61.566600
1342.000000	61.746300
1341.000000	61.921700
1340.000000	62.060200
1339.000000	62.203300
1338.000000	62.358800
1337.000000	62.498500
1336.000000	62.610100
1335.000000	62.723500
1334.000000	62.843000
1333.000000	62.951000
1332.000000	63.065900
1331.000000	63.165400
1330.000000	63.241700
1329.000000	63.320400
1328.000000	63.395700
1327.000000	63.468500
1326.000000	63.538300
1325.000000	63.603400
1324.000000	63.670700
1323.000000	63.726700
1322.000000	63.776900
1321.000000	63.837500
1320.000000	63.895400
1319.000000	63.937200
1318.000000	63.976200
1317.000000	64.022700
1316.000000	64.068000
1315.000000	64.117700
1314.000000	64.168000
1313.000000	64.197900
1312.000000	64.236100
1311.000000	64.279300
1310.000000	64.305400
1309.000000	64.332900
1308.000000	64.365500
1307.000000	64.393000
1306.000000	64.415300
1305.000000	64.430000
1304.000000	64.441100
1303.000000	64.452400
1302.000000	64.451400
1301.000000	64.446400
1300.000000	64.459900
1299.000000	64.463200
1298.000000	64.457200
1297.000000	64.452900
1296.000000	64.444100
1295.000000	64.446600
1294.000000	64.436400
1293.000000	64.413300
1292.000000	64.398700
1291.000000	64.379300
1290.000000	64.352500
1289.000000	64.328300
1288.000000	64.299700
1287.000000	64.269000
1286.000000	64.239900
1285.000000	64.195600
1284.000000	64.141800
1283.000000	64.111400
1282.000000	64.087100
1281.000000	64.052900
1280.000000	64.013600
1279.000000	63.981300
1278.000000	63.968300
1277.000000	63.950800
1276.000000	63.923200
1275.000000	63.915100
1274.000000	63.907400
1273.000000	63.907000
1272.000000	63.916200
1271.000000	63.918400
1270.000000	63.925900
1269.000000	63.922900
1268.000000	63.926900
1267.000000	63.910200
1266.000000	63.894100
1265.000000	63.895500
1264.000000	63.884300
1263.000000	63.872800
1262.000000	63.877200
1261.000000	63.857800
1260.000000	63.851300
1259.000000	63.836600
1258.000000	63.814500
1257.000000	63.785600
1256.000000	63.760900
1255.000000	63.729000
1254.000000	63.688600
1253.000000	63.647900
1252.000000	63.603300
1251.000000	63.552600
1250.000000	63.508600
1249.000000	63.449000
1248.000000	63.399700
1247.000000	63.352000
1246.000000	63.303600
1245.000000	63.232500
1244.000000	63.167600
1243.000000	63.123000
1242.000000	63.075400
1241.000000	63.051400
1240.000000	63.005800
1239.000000	62.966600
1238.000000	62.943100
1237.000000	62.919100
1236.000000	62.889900
1235.000000	62.872700
1234.000000	62.829400
1233.000000	62.798800
1232.000000	62.761300
1231.000000	62.721700
1230.000000	62.699600
1229.000000	62.644200
1228.000000	62.599600
1227.000000	62.554800
1226.000000	62.507800
1225.000000	62.475900
1224.000000	62.434600
1223.000000	62.386900
1222.000000	62.345100
1221.000000	62.300200
1220.000000	62.243000
1219.000000	62.208900
1218.000000	62.158700
1217.000000	62.113800
1216.000000	62.063900
1215.000000	62.018400
1214.000000	61.962200
1213.000000	61.906500
1212.000000	61.856800
1211.000000	61.777000
1210.000000	61.728300
1209.000000	61.668300
1208.000000	61.580200
1207.000000	61.518000
1206.000000	61.471500
1205.000000	61.414600
1204.000000	61.350900
1203.000000	61.292400
1202.000000	61.247100
1201.000000	61.186300
1200.000000	61.119900
1199.000000	61.052600
1198.000000	60.961200
1197.000000	60.879800
1196.000000	60.785500
1195.000000	60.676700
1194.000000	60.542600
1193.000000	60.399400
1192.000000	60.269500
1191.000000	60.125600
1190.000000	60.021100
1189.000000	59.918400
1188.000000	59.827200
1187.000000	59.808600
1186.000000	59.828500
1185.000000	59.857300
1184.000000	59.942800
1183.000000	60.053800
1182.000000	60.178400
1181.000000	60.321800
1180.000000	60.468600
1179.000000	60.613300
1178.000000	60.745300
1177.000000	60.909500
1176.000000	61.017800
1175.000000	61.133300
1174.000000	61.249000
1173.000000	61.373800
1172.000000	61.500600
1171.000000	61.632700
1170.000000	61.790700
1169.000000	61.937900
1168.000000	62.075300
1167.000000	62.256200
1166.000000	62.406300
1165.000000	62.581700
1164.000000	62.756600
1163.000000	62.916300
1162.000000	63.095200
1161.000000	63.254600
1160.000000	63.402000
1159.000000	63.563900
1158.000000	63.683400
1157.000000	63.814700
1156.000000	63.925700
1155.000000	64.011700
1154.000000	64.097100
1153.000000	64.163700
1152.000000	64.209900
1151.000000	64.239600
1150.000000	64.277700
1149.000000	64.331300
1148.000000	64.361100
1147.000000	64.418800
1146.000000	64.447100
1145.000000	64.528800
1144.000000	64.570800
1143.000000	64.655400
1142.000000	64.768600
1141.000000	64.878700
1140.000000	64.980200
1139.000000	65.101200
1138.000000	65.234200
1137.000000	65.396000
1136.000000	65.578100
1135.000000	65.707200
1134.000000	65.815700
1133.000000	65.867400
1132.000000	65.987800
1131.000000	66.124800
1130.000000	66.226300
1129.000000	66.322500
1128.000000	66.368600
1127.000000	66.447200
1126.000000	66.499700
1125.000000	66.550700
1124.000000	66.601600
1123.000000	66.626100
1122.000000	66.646200
1121.000000	66.662600
1120.000000	66.676600
1119.000000	66.683600
1118.000000	66.684500
1117.000000	66.693600
1116.000000	66.677200
1115.000000	66.677200
1114.000000	66.679200
1113.000000	66.663000
1112.000000	66.675900
1111.000000	66.688800
1110.000000	66.668000
1109.000000	66.655400
1108.000000	66.650900
1107.000000	66.657900
1106.000000	66.655900
1105.000000	66.639800
1104.000000	66.622800
1103.000000	66.609900
1102.000000	66.606700
1101.000000	66.596600
1100.000000	66.591200
1099.000000	66.576600
1098.000000	66.564800
1097.000000	66.553700
1096.000000	66.543500
1095.000000	66.525200
1094.000000	66.496400
1093.000000	66.468600
1092.000000	66.464400
1091.000000	66.438900
1090.000000	66.407300
1089.000000	66.384800
1088.000000	66.365500
1087.000000	66.333900
1086.000000	66.296700
1085.000000	66.268900
1084.000000	66.238300
1083.000000	66.222300
1082.000000	66.183300
1081.000000	66.137900
1080.000000	66.096900
1079.000000	66.054500
1078.000000	66.027100
1077.000000	65.988300
1076.000000	65.955400
1075.000000	65.918600
1074.000000	65.890000
1073.000000	65.854900
1072.000000	65.814900
1071.000000	65.766500
1070.000000	65.724500
1069.000000	65.674100
1068.000000	65.636700
1067.000000	65.595800
1066.000000	65.554100
1065.000000	65.517400
1064.000000	65.483900
1063.000000	65.439100
1062.000000	65.396100
1061.000000	65.338200
1060.000000	65.303500
1059.000000	65.279400
1058.000000	65.227000
1057.000000	65.187400
1056.000000	65.147800
1055.000000	65.105700
1054.000000	65.070500
1053.000000	65.038200
1052.000000	64.994400
1051.000000	64.975500
1050.000000	64.950200
1049.000000	64.919000
1048.000000	64.895200
1047.000000	64.853900
1046.000000	64.833500
1045.000000	64.820800
1044.000000	64.793200
1043.000000	64.766900
1042.000000	64.748300
1041.000000	64.728900
1040.000000	64.697800
1039.000000	64.676000
1038.000000	64.659700
1037.000000	64.635300
1036.000000	64.619800
1035.000000	64.613300
1034.000000	64.592800
1033.000000	64.564100
1032.000000	64.535000
1031.000000	64.523200
1030.000000	64.512300
1029.000000	64.496100
1028.000000	64.491400
1027.000000	64.480200
1026.000000	64.461000
1025.000000	64.451800
1024.000000	64.431700
1023.000000	64.418700
1022.000000	64.424900
1021.000000	64.416400
1020.000000	64.403800
1019.000000	64.404700
1018.000000	64.403600
1017.000000	64.394900
1016.000000	64.388700
1015.000000	64.382800
1014.000000	64.392600
1013.000000	64.403600
1012.000000	64.404800
1011.000000	64.411400
1010.000000	64.414500
1009.000000	64.423200
1008.000000	64.444800
1007.000000	64.461000
1006.000000	64.447700
1005.000000	64.449600
1004.000000	64.468800
1003.000000	64.466900
1002.000000	64.465700
1001.000000	64.457400
1000.000000	64.462000
999.000000	64.483800
998.000000	64.491500
997.000000	64.495600
996.000000	64.500700
995.000000	64.493400
994.000000	64.480100
993.000000	64.482200
992.000000	64.487500
991.000000	64.492100
990.000000	64.508000
989.000000	64.507100
988.000000	64.501000
987.000000	64.504400
986.000000	64.521500
985.000000	64.532000
984.000000	64.531300
983.000000	64.549500
982.000000	64.556700
981.000000	64.575300
980.000000	64.578200
979.000000	64.591000
978.000000	64.620600
977.000000	64.640500
976.000000	64.644300
975.000000	64.649000
974.000000	64.676900
973.000000	64.701900
972.000000	64.702600
971.000000	64.733400
970.000000	64.743200
969.000000	64.759000
968.000000	64.797200
967.000000	64.817100
966.000000	64.829300
965.000000	64.873600
964.000000	64.904000
963.000000	64.945500
962.000000	64.959700
961.000000	65.004600
960.000000	65.044700
959.000000	65.086100
958.000000	65.095900
957.000000	65.129800
956.000000	65.171800
955.000000	65.211800
954.000000	65.252500
953.000000	65.276800
952.000000	65.302000
951.000000	65.317200
950.000000	65.334700
949.000000	65.384100
948.000000	65.379900
947.000000	65.396700
946.000000	65.425600
945.000000	65.446600
944.000000	65.444700
943.000000	65.489200
942.000000	65.512200
941.000000	65.550800
940.000000	65.628400
939.000000	65.656700
938.000000	65.686400
937.000000	65.728100
936.000000	65.781400
935.000000	65.837600
934.000000	65.844200
933.000000	65.871000
932.000000	65.883000
931.000000	65.914000
930.000000	65.929500
929.000000	65.924000
928.000000	65.960700
927.000000	65.956800
926.000000	65.965400
925.000000	65.967800
924.000000	65.989200
923.000000	65.969800
922.000000	65.972400
921.000000	65.976800
920.000000	65.976800
919.000000	65.987800
918.000000	65.992900
917.000000	66.023000
916.000000	66.001300
915.000000	65.971000
914.000000	65.979700
913.000000	65.966400
912.000000	65.965800
911.000000	65.950300
910.000000	65.930000
909.000000	65.937000
908.000000	65.921900
907.000000	65.901000
906.000000	65.892400
905.000000	65.920500
904.000000	65.888600
903.000000	65.830200
902.000000	65.824200
901.000000	65.808800
900.000000	65.775400
899.000000	65.763600
898.000000	65.727000
897.000000	65.726700
896.000000	65.705800
895.000000	65.660600
894.000000	65.634900
893.000000	65.575900
892.000000	65.548100
891.000000	65.505100
890.000000	65.464900
889.000000	65.454200
888.000000	65.385600
887.000000	65.335500
886.000000	65.260100
885.000000	65.178100
884.000000	65.128000
883.000000	65.031700
882.000000	64.965400
881.000000	64.863600
880.000000	64.798000
879.000000	64.707500
878.000000	64.615500
877.000000	64.542600
876.000000	64.467500
875.000000	64.341700
874.000000	64.256100
873.000000	64.130600
872.000000	64.055100
871.000000	63.946500
870.000000	63.851800
869.000000	63.735300
868.000000	63.657600
867.000000	63.532000
866.000000	63.439700
865.000000	63.299500
864.000000	63.179500
863.000000	62.992100
862.000000	62.809300
861.000000	62.615500
860.000000	62.460800
859.000000	62.309100
858.000000	60.277477
857.000000	61.172110
856.000000	60.790517
855.000000	61.224553
854.000000	60.833109
853.000000	60.874349
852.000000	60.574271
851.000000	60.857931
850.000000	60.784239
849.000000	60.557080
848.000000	60.275062
847.000000	60.298821
846.000000	60.271489
845.000000	60.120242
844.000000	59.951128
843.000000	59.955378
842.000000	60.017769
841.000000	59.576972
840.000000	59.477976
839.000000	59.279791
838.000000	59.279405
837.000000	59.289643
836.000000	59.129125
835.000000	58.849039
834.000000	58.844596
833.000000	58.686106
832.000000	58.661478
831.000000	58.408821
830.000000	58.371830
829.000000	58.199529
828.000000	58.030029
827.000000	57.881680
826.000000	57.660122
825.000000	57.583437
824.000000	57.439627
823.000000	57.397325
822.000000	57.145440
821.000000	56.885154
820.000000	56.839084
819.000000	56.856952
818.000000	56.786351
817.000000	56.610380
816.000000	56.261045
815.000000	56.215845
814.000000	56.064116
813.000000	55.969080
812.000000	55.899734
811.000000	55.687159
810.000000	55.544991
809.000000	55.451693
808.000000	55.209757
807.000000	55.045279
806.000000	54.963378
805.000000	54.768863
804.000000	54.794071
803.000000	54.652386
802.000000	54.479023
801.000000	54.375294
800.000000	54.230809
799.000000	54.049332
798.000000	53.943383
797.000000	53.851147
796.000000	53.619835
795.000000	53.484428
794.000000	53.404459
793.000000	53.190048
792.000000	53.120606
791.000000	53.014753
790.000000	52.891129
789.000000	52.753694
788.000000	52.612395
787.000000	52.513689
786.000000	52.409574
785.000000	52.209168
784.000000	52.045559
783.000000	51.855391
782.000000	51.732443
781.000000	51.655467
780.000000	51.518225
779.000000	51.324966
778.000000	51.263540
777.000000	51.168311
776.000000	50.959599
775.000000	50.739297
774.000000	50.619826
773.000000	50.543140
772.000000	50.401938
771.000000	50.231762
770.000000	50.062648
769.000000	49.882813
768.000000	49.690134
767.000000	49.540143
766.000000	49.374409
765.000000	49.149085
764.000000	49.010877
763.000000	48.908018
762.000000	48.736103
761.000000	48.540236
760.000000	48.397875
759.000000	48.235908
758.000000	48.033860
757.000000	47.914679
756.000000	47.743537
755.000000	47.569883
754.000000	47.450509
753.000000	47.292019
752.000000	47.137199
751.000000	46.976874
750.000000	46.808533
749.000000	46.673802
748.000000	46.559256
747.000000	46.412259
746.000000	46.238703
745.000000	46.101364
744.000000	45.933796
743.000000	45.798002
742.000000	45.714266
741.000000	45.571036
740.000000	45.443259
739.000000	45.357012
738.000000	45.192437
737.000000	45.038004
736.000000	44.932730
735.000000	44.840302
734.000000	44.703060
733.000000	44.554807
732.000000	44.443932
731.000000	44.319438
730.000000	44.163460
729.000000	44.031240
728.000000	43.886175
727.000000	43.753665
726.000000	43.623666
725.000000	43.446440
724.000000	43.271724
723.000000	43.071414
722.000000	42.864441
721.000000	42.681322
720.000000	42.535291
719.000000	42.352656
718.000000	42.139887
717.000000	41.947980
716.000000	41.768339
715.000000	41.591305
714.000000	41.395825
713.000000	41.184312
712.000000	40.986416
711.000000	40.788231
710.000000	40.615544
709.000000	40.402003
708.000000	40.202369
707.000000	40.023018
706.000000	39.817010
705.000000	39.649924
704.000000	39.520408
703.000000	39.345499
702.000000	39.188362
701.000000	38.986120
700.000000	38.819807
699.000000	38.676770
698.000000	38.524944
697.000000	38.400065
696.000000	38.266300
695.000000	38.176286
694.000000	38.055752
693.000000	37.961972
692.000000	37.910590
691.000000	37.828689
690.000000	37.802516
689.000000	37.780978
688.000000	37.762628
687.000000	37.736841
686.000000	37.737324
685.000000	37.734619
684.000000	37.707190
683.000000	37.707094
682.000000	37.717138
681.000000	37.691737
680.000000	37.656678
679.000000	37.622392
678.000000	37.565409
677.000000	37.466220
676.000000	37.449994
675.000000	37.339408
674.000000	37.217330
673.000000	37.091194
672.000000	37.016634
671.000000	36.854667
670.000000	36.668844
669.000000	36.507553
668.000000	36.370504
667.000000	36.236160
666.000000	36.074772
665.000000	35.904982
664.000000	35.767354
663.000000	35.603455
662.000000	35.440619
661.000000	35.317188
660.000000	35.163624
659.000000	35.023098
658.000000	34.861807
657.000000	34.698681
656.000000	34.555258
655.000000	34.421010
654.000000	34.273241
653.000000	34.097173
652.000000	33.937717
651.000000	33.774301
650.000000	33.624793
649.000000	33.466593
648.000000	33.319114
647.000000	33.201767
646.000000	33.112623
645.000000	33.045788
644.000000	33.039511
643.000000	33.090023
642.000000	33.191916
641.000000	33.316796
640.000000	33.534393
639.000000	33.769086
638.000000	34.048013
637.000000	34.370498
636.000000	34.719640
635.000000	35.076025
634.000000	35.492580
633.000000	35.888757
632.000000	36.236450
631.000000	36.619684
630.000000	37.036529
629.000000	37.389438
628.000000	37.748624
627.000000	38.138040
626.000000	38.471631
625.000000	38.811888
624.000000	39.142292
623.000000	39.516255
622.000000	39.861244
621.000000	40.243416
620.000000	40.591785
619.000000	40.955124
618.000000	41.391092
617.000000	41.735405
616.000000	42.091886
615.000000	42.444891
614.000000	42.783119
613.000000	43.177268
612.000000	43.456001
611.000000	43.798962
610.000000	44.089671
609.000000	44.370433
608.000000	44.601070
607.000000	44.790852
606.000000	44.988071
605.000000	45.178529
604.000000	45.369278
603.000000	45.563406
602.000000	45.713976
601.000000	45.869086
600.000000	45.985467
599.000000	46.130145
598.000000	46.321570
597.000000	46.482474
596.000000	46.644827
595.000000	46.774633
594.000000	46.975908
593.000000	47.163179
592.000000	47.327271
591.000000	47.544096
590.000000	47.656517
589.000000	47.801485
588.000000	47.936410
587.000000	48.033474
586.000000	48.128027
585.000000	48.209831
584.000000	48.241510
583.000000	48.234749
582.000000	48.219200
581.000000	48.171489
580.000000	48.129186
579.000000	48.070947
578.000000	48.029321
577.000000	47.966736
576.000000	47.873632
575.000000	47.818580
574.000000	47.723255
573.000000	47.677185
572.000000	47.605232
571.000000	47.535790
570.000000	47.442010
569.000000	47.364551
568.000000	47.261692
567.000000	47.163373
566.000000	47.006331
565.000000	46.872083
564.000000	46.723348
563.000000	46.555200
562.000000	46.353828
561.000000	46.133622
560.000000	45.908878
559.000000	45.504878
558.000000	45.249517
557.000000	44.980538
556.000000	44.665006
555.000000	44.377677
554.000000	44.049687
553.000000	43.687314
552.000000	43.365601
551.000000	42.949625
550.000000	42.544370
549.000000	42.095267
548.000000	41.647129
547.000000	41.145872
546.000000	40.611101
545.000000	40.034511
544.000000	39.438314
543.000000	38.786293
542.000000	38.125387
541.000000	37.440239
540.000000	36.752870
539.000000	36.059512
538.000000	35.338919
537.000000	34.630398
536.000000	33.928059
535.000000	33.231321
534.000000	32.537288
533.000000	31.868076
532.000000	31.211033
531.000000	30.569346
530.000000	29.943499
529.000000	29.348365
528.000000	28.789062
527.000000	28.258348
526.000000	27.742024
525.000000	27.222320
524.000000	26.723284
523.000000	26.242695
522.000000	25.783355
521.000000	25.348545
520.000000	24.912094
519.000000	24.491096
518.000000	24.082557
517.000000	23.667547
516.000000	23.264030
515.000000	22.879347
514.000000	22.485971
513.000000	22.116451
512.000000	21.750214
511.000000	21.388904
510.000000	21.041307
509.000000	20.677196
508.000000	20.312698
507.000000	19.966550
506.000000	19.628226
505.000000	19.313177
504.000000	18.994845
503.000000	18.672264
502.000000	18.359726
501.000000	18.055688
500.000000	17.775216
499.000000	17.522753
498.000000	17.289605
497.000000	17.066406
496.000000	16.845041
495.000000	16.665593
494.000000	16.482861
493.000000	16.325337
492.000000	16.174574
491.000000	16.043030
490.000000	15.940750
489.000000	15.840982
488.000000	15.760433
487.000000	15.685099
486.000000	15.618845
485.000000	15.556356
484.000000	15.485562
483.000000	15.409456
482.000000	15.365801
481.000000	15.326879
480.000000	15.273566
479.000000	15.204994
478.000000	15.123769
477.000000	15.041095
476.000000	14.955524
475.000000	14.873237
474.000000	14.770281
473.000000	14.671961
472.000000	14.580595
471.000000	14.476577
470.000000	14.359231
469.000000	14.238311
468.000000	14.123186
467.000000	14.014532
466.000000	13.895640
465.000000	13.767187
464.000000	13.638637
463.000000	13.515882
462.000000	13.385981
461.000000	13.257334
460.000000	13.122507
459.000000	12.994536
458.000000	12.863089
457.000000	12.734733
456.000000	12.603961
455.000000	12.465271
454.000000	12.325421
453.000000	12.183350
452.000000	12.032779
451.000000	11.874676
450.000000	11.718987
449.000000	11.560883
448.000000	11.404325
447.000000	11.235114
446.000000	11.061557
445.000000	10.885876
444.000000	10.707877
443.000000	10.523406
442.000000	10.344055
441.000000	10.161226
440.000000	9.964200
439.000000	9.769782
438.000000	9.594294
437.000000	9.420544
436.000000	9.228733
435.000000	9.047643
434.000000	8.865781
433.000000	8.684884
432.000000	8.503601
431.000000	8.318744
430.000000	8.129734
429.000000	7.950479
428.000000	7.789865
427.000000	7.617563
426.000000	7.433673
425.000000	7.267360
424.000000	7.117852
423.000000	6.970662
422.000000	6.827818
421.000000	6.680242
420.000000	6.539136
419.000000	6.408365
418.000000	6.287832
417.000000	6.171161
416.000000	6.056712
415.000000	5.949411
414.000000	5.851670
413.000000	5.760980
412.000000	5.676665
411.000000	5.591287
410.000000	5.525418
409.000000	5.458777
408.000000	5.404982
407.000000	5.348481
406.000000	5.297293
405.000000	5.259627
404.000000	5.233260
403.000000	5.197525
402.000000	5.147303
401.000000	5.120646
400.000000	5.097660
399.000000	5.085973
398.000000	5.060379
397.000000	5.028314
396.000000	5.017980
395.000000	4.999726
394.000000	4.985819
393.000000	4.973263
392.000000	4.963508
391.000000	4.959065
390.000000	4.942647
389.000000	4.931733
388.000000	4.917053
387.000000	4.908747
386.000000	4.904594
385.000000	4.897157
384.000000	4.880738
383.000000	4.891555
382.000000	4.880641
381.000000	4.875523
380.000000	4.869052
379.000000	4.867603
378.000000	4.858138
377.000000	4.843458
376.000000	4.943612
375.000000	4.812841
374.000000	4.769573
373.000000	4.809751
372.000000	4.832641
371.000000	4.843071
370.000000	4.880159
369.000000	4.870887
368.000000	4.893100
367.000000	4.954430
366.000000	4.928739
365.000000	4.983597
364.000000	4.929415
363.000000	4.845099
362.000000	4.920819
361.000000	4.922751
360.000000	4.874074
359.000000	4.916956
358.000000	4.904594
357.000000	4.878806
356.000000	4.915894
355.000000	4.894453
354.000000	4.847031
353.000000	4.961577
352.000000	4.889817
351.000000	4.921495
350.000000	4.916763
349.000000	4.948731
348.000000	4.964377
347.000000	4.865478
346.000000	4.889334
345.000000	4.944095
344.000000	4.880641
343.000000	4.986012
342.000000	4.953367
341.000000	4.932602
340.000000	4.916183
339.000000	5.138224
338.000000	5.004266
337.000000	4.936755
336.000000	4.893680
335.000000	4.920047
334.000000	4.952498
333.000000	5.029956
332.000000	4.972297
331.000000	4.964957
330.000000	5.026093
329.000000	4.852150
328.000000	4.994607
327.000000	5.166715
326.000000	5.085587
325.000000	4.663720
324.000000	5.278557
323.000000	4.822210
322.000000	4.971428
321.000000	5.012378
320.000000	4.952112
319.000000	5.189412
318.000000	5.110602
317.000000	5.027155
316.000000	4.887788
315.000000	4.898895
314.000000	4.870114
313.000000	4.890396
312.000000	4.907298
311.000000	4.914155
310.000000	4.889913
309.000000	4.898799
308.000000	4.873591
307.000000	4.844037
306.000000	4.862388
305.000000	4.879965
304.000000	4.923427
303.000000	4.862098
302.000000	4.907008
301.000000	4.901793
300.000000	4.915604
299.000000	4.897060
298.000000	4.927966
297.000000	4.888368
296.000000	4.951242
295.000000	4.954719
294.000000	4.914155
293.000000	4.999919
292.000000	4.901117
291.000000	4.976836
290.000000	4.959259
289.000000	4.979251
288.000000	4.917342
287.000000	5.002817
286.000000	5.002044
285.000000	4.969979
284.000000	4.967854
283.000000	4.977126
282.000000	5.004072
281.000000	5.031405
280.000000	4.984853
279.000000	5.028025
278.000000	5.044057
277.000000	5.087325
276.000000	5.037296
275.000000	5.086939
274.000000	5.093120
273.000000	5.101233
272.000000	5.096984
271.000000	5.099978
270.000000	5.110698
269.000000	5.106835
268.000000	5.146144
267.000000	5.165750
266.000000	5.152614
265.000000	5.201098
264.000000	5.208439
263.000000	5.177919
262.000000	5.172897
261.000000	5.271313
260.000000	5.299322
259.000000	5.303957
258.000000	5.310139
257.000000	5.278943
256.000000	5.298742
255.000000	5.330807
254.000000	5.344618
253.000000	5.354373
252.000000	5.337181
251.000000	5.335346
250.000000	5.331773
