PE UV       SUBTECH     SPECTRUM    ASCII       PEDS        4.00        
   -1
CICIMAUCR0141-3.Sample.ASC
24/04/04
11:43:11.00
24/04/04
11:43:11.00
Vinicio Soto Monge
C. kalinini
250,000000
1
Lambda 1050
1050L1511233
PerkinElmer UV WinLab 6.3.2.0749 / 2.02.05 Lambda 900 UV/VIS/NIR, Aug  7 2015 09:38:08

0
0
3350/servo 860,8/2
0
0
UV/VIS
1
1
1
DoubleDePol,CommonBeamDepol,RBeamAtt,SBeamAtt,60mm sphere, WB InGaAs Detector
0
0
0
0
Program
Program
3350/servo 860,8/2
3350/0,2 860,8/0,2
3350/0,2 860,8/0,2
0
15.00
 
 
 
0
 
860,8
319,2
860,8
Front
100
on
S:100 R:100
0
0
0
0
 
0
 
 
 
0
 
 
0
0
0
0
0
 
 
 
 
0
0


0
0
#HDR
-1
-1
#GR
nm
%R
1.0
0.0
2500,000000
-1,000000
2251
8
77,545500
5,529700
#DATA
2500.000000	6.789500
2499.000000	6.640300
2498.000000	6.695000
2497.000000	6.608200
2496.000000	6.652200
2495.000000	6.575200
2494.000000	6.585100
2493.000000	6.618500
2492.000000	6.659200
2491.000000	6.568400
2490.000000	6.620800
2489.000000	6.646200
2488.000000	6.631300
2487.000000	6.603200
2486.000000	6.620000
2485.000000	6.696900
2484.000000	6.602800
2483.000000	6.639900
2482.000000	6.638800
2481.000000	6.729900
2480.000000	6.701000
2479.000000	6.680200
2478.000000	6.730500
2477.000000	6.730800
2476.000000	6.760300
2475.000000	6.752900
2474.000000	6.749000
2473.000000	6.771600
2472.000000	6.826600
2471.000000	6.833400
2470.000000	6.898800
2469.000000	6.948100
2468.000000	6.884500
2467.000000	6.925200
2466.000000	6.992400
2465.000000	6.988900
2464.000000	7.017200
2463.000000	7.085300
2462.000000	7.106600
2461.000000	7.121200
2460.000000	7.179600
2459.000000	7.238600
2458.000000	7.266100
2457.000000	7.309900
2456.000000	7.357400
2455.000000	7.400000
2454.000000	7.454700
2453.000000	7.517600
2452.000000	7.559000
2451.000000	7.603000
2450.000000	7.651100
2449.000000	7.724200
2448.000000	7.796600
2447.000000	7.831000
2446.000000	7.918600
2445.000000	7.983600
2444.000000	8.050600
2443.000000	8.118300
2442.000000	8.184500
2441.000000	8.250100
2440.000000	8.328000
2439.000000	8.383100
2438.000000	8.465100
2437.000000	8.516100
2436.000000	8.580100
2435.000000	8.664100
2434.000000	8.716100
2433.000000	8.780500
2432.000000	8.858200
2431.000000	8.923900
2430.000000	8.990000
2429.000000	9.036900
2428.000000	9.114700
2427.000000	9.174300
2426.000000	9.239800
2425.000000	9.306400
2424.000000	9.353400
2423.000000	9.400400
2422.000000	9.447800
2421.000000	9.500100
2420.000000	9.557500
2419.000000	9.608200
2418.000000	9.630100
2417.000000	9.673600
2416.000000	9.720700
2415.000000	9.779900
2414.000000	9.823400
2413.000000	9.866800
2412.000000	9.892800
2411.000000	9.912100
2410.000000	9.953900
2409.000000	9.994700
2408.000000	10.013800
2407.000000	10.042100
2406.000000	10.063200
2405.000000	10.086300
2404.000000	10.102400
2403.000000	10.133100
2402.000000	10.153300
2401.000000	10.187500
2400.000000	10.208400
2399.000000	10.221700
2398.000000	10.254700
2397.000000	10.278600
2396.000000	10.290800
2395.000000	10.298700
2394.000000	10.305000
2393.000000	10.316300
2392.000000	10.329400
2391.000000	10.342300
2390.000000	10.348300
2389.000000	10.356900
2388.000000	10.366700
2387.000000	10.378500
2386.000000	10.382900
2385.000000	10.394500
2384.000000	10.394400
2383.000000	10.384000
2382.000000	10.381200
2381.000000	10.379200
2380.000000	10.365100
2379.000000	10.364700
2378.000000	10.366300
2377.000000	10.353500
2376.000000	10.347200
2375.000000	10.348000
2374.000000	10.332400
2373.000000	10.327600
2372.000000	10.309300
2371.000000	10.293900
2370.000000	10.301200
2369.000000	10.294800
2368.000000	10.286700
2367.000000	10.286400
2366.000000	10.280400
2365.000000	10.280900
2364.000000	10.273000
2363.000000	10.270400
2362.000000	10.269300
2361.000000	10.265500
2360.000000	10.272600
2359.000000	10.256500
2358.000000	10.227200
2357.000000	10.225000
2356.000000	10.233300
2355.000000	10.214800
2354.000000	10.184400
2353.000000	10.174400
2352.000000	10.169700
2351.000000	10.162600
2350.000000	10.147800
2349.000000	10.123600
2348.000000	10.101800
2347.000000	10.089100
2346.000000	10.082700
2345.000000	10.053700
2344.000000	10.050200
2343.000000	10.039700
2342.000000	10.009900
2341.000000	10.000900
2340.000000	10.010400
2339.000000	10.007900
2338.000000	9.979100
2337.000000	9.966700
2336.000000	9.975100
2335.000000	9.960000
2334.000000	9.952200
2333.000000	9.957000
2332.000000	9.956600
2331.000000	9.943200
2330.000000	9.953800
2329.000000	9.964500
2328.000000	9.968500
2327.000000	9.976900
2326.000000	9.983400
2325.000000	9.995300
2324.000000	10.010100
2323.000000	9.987200
2322.000000	9.968200
2321.000000	9.970200
2320.000000	9.978600
2319.000000	9.960700
2318.000000	9.938900
2317.000000	9.910700
2316.000000	9.900200
2315.000000	9.872100
2314.000000	9.819500
2313.000000	9.795900
2312.000000	9.761600
2311.000000	9.724000
2310.000000	9.690200
2309.000000	9.647200
2308.000000	9.593200
2307.000000	9.562800
2306.000000	9.524100
2305.000000	9.506300
2304.000000	9.480500
2303.000000	9.441000
2302.000000	9.416400
2301.000000	9.387300
2300.000000	9.364700
2299.000000	9.337900
2298.000000	9.318100
2297.000000	9.294700
2296.000000	9.291500
2295.000000	9.270800
2294.000000	9.244400
2293.000000	9.246400
2292.000000	9.217400
2291.000000	9.216800
2290.000000	9.220800
2289.000000	9.195400
2288.000000	9.187800
2287.000000	9.187000
2286.000000	9.161300
2285.000000	9.153300
2284.000000	9.148200
2283.000000	9.123800
2282.000000	9.107800
2281.000000	9.104200
2280.000000	9.091600
2279.000000	9.066800
2278.000000	9.062300
2277.000000	9.034500
2276.000000	9.018700
2275.000000	8.991300
2274.000000	8.972000
2273.000000	8.957700
2272.000000	8.926800
2271.000000	8.906000
2270.000000	8.880300
2269.000000	8.847800
2268.000000	8.826900
2267.000000	8.846100
2266.000000	8.832600
2265.000000	8.804200
2264.000000	8.807600
2263.000000	8.807000
2262.000000	8.815900
2261.000000	8.840300
2260.000000	8.870600
2259.000000	8.873200
2258.000000	8.938200
2257.000000	8.966800
2256.000000	9.017300
2255.000000	9.053600
2254.000000	9.082900
2253.000000	9.143000
2252.000000	9.192500
2251.000000	9.245600
2250.000000	9.315700
2249.000000	9.358600
2248.000000	9.393000
2247.000000	9.464700
2246.000000	9.511500
2245.000000	9.524600
2244.000000	9.550500
2243.000000	9.624000
2242.000000	9.650500
2241.000000	9.675600
2240.000000	9.673600
2239.000000	9.698600
2238.000000	9.712500
2237.000000	9.711600
2236.000000	9.719600
2235.000000	9.710500
2234.000000	9.687000
2233.000000	9.667900
2232.000000	9.647700
2231.000000	9.600200
2230.000000	9.562300
2229.000000	9.516300
2228.000000	9.443900
2227.000000	9.403800
2226.000000	9.322300
2225.000000	9.245200
2224.000000	9.168900
2223.000000	9.078300
2222.000000	9.007900
2221.000000	8.917500
2220.000000	8.827200
2219.000000	8.723500
2218.000000	8.663200
2217.000000	8.578700
2216.000000	8.503500
2215.000000	8.426000
2214.000000	8.364400
2213.000000	8.325900
2212.000000	8.302600
2211.000000	8.291100
2210.000000	8.249000
2209.000000	8.252200
2208.000000	8.282900
2207.000000	8.297000
2206.000000	8.323900
2205.000000	8.402300
2204.000000	8.491500
2203.000000	8.570400
2202.000000	8.672600
2201.000000	8.768200
2200.000000	8.891600
2199.000000	9.006700
2198.000000	9.096100
2197.000000	9.219300
2196.000000	9.344800
2195.000000	9.474700
2194.000000	9.576100
2193.000000	9.677000
2192.000000	9.762900
2191.000000	9.865100
2190.000000	9.948100
2189.000000	10.023400
2188.000000	10.088300
2187.000000	10.152800
2186.000000	10.200200
2185.000000	10.254000
2184.000000	10.307400
2183.000000	10.337800
2182.000000	10.375600
2181.000000	10.399000
2180.000000	10.427100
2179.000000	10.456700
2178.000000	10.472700
2177.000000	10.502900
2176.000000	10.514900
2175.000000	10.534700
2174.000000	10.581100
2173.000000	10.604700
2172.000000	10.640100
2171.000000	10.664700
2170.000000	10.701100
2169.000000	10.732500
2168.000000	10.770300
2167.000000	10.808700
2166.000000	10.840600
2165.000000	10.884300
2164.000000	10.937500
2163.000000	10.961300
2162.000000	11.009800
2161.000000	11.069800
2160.000000	11.130800
2159.000000	11.173500
2158.000000	11.251700
2157.000000	11.322100
2156.000000	11.379800
2155.000000	11.465100
2154.000000	11.538000
2153.000000	11.615100
2152.000000	11.699100
2151.000000	11.798600
2150.000000	11.880700
2149.000000	11.952200
2148.000000	12.035200
2147.000000	12.122800
2146.000000	12.215100
2145.000000	12.295000
2144.000000	12.383500
2143.000000	12.464100
2142.000000	12.533700
2141.000000	12.619000
2140.000000	12.708100
2139.000000	12.769400
2138.000000	12.848100
2137.000000	12.929000
2136.000000	12.998400
2135.000000	13.062600
2134.000000	13.135100
2133.000000	13.198300
2132.000000	13.249600
2131.000000	13.310200
2130.000000	13.372100
2129.000000	13.412100
2128.000000	13.460400
2127.000000	13.513100
2126.000000	13.548900
2125.000000	13.588500
2124.000000	13.633200
2123.000000	13.673700
2122.000000	13.704900
2121.000000	13.729500
2120.000000	13.769100
2119.000000	13.786900
2118.000000	13.797600
2117.000000	13.828100
2116.000000	13.844400
2115.000000	13.855600
2114.000000	13.868100
2113.000000	13.872300
2112.000000	13.895500
2111.000000	13.906300
2110.000000	13.897700
2109.000000	13.905000
2108.000000	13.919400
2107.000000	13.922900
2106.000000	13.921200
2105.000000	13.910400
2104.000000	13.904100
2103.000000	13.907200
2102.000000	13.910800
2101.000000	13.922700
2100.000000	13.923800
2099.000000	13.920300
2098.000000	13.918900
2097.000000	13.927200
2096.000000	13.942800
2095.000000	13.950000
2094.000000	13.953900
2093.000000	13.973900
2092.000000	13.989000
2091.000000	13.991100
2090.000000	14.000500
2089.000000	14.008200
2088.000000	14.017200
2087.000000	14.026100
2086.000000	14.024500
2085.000000	14.021200
2084.000000	14.013400
2083.000000	14.000600
2082.000000	13.970800
2081.000000	13.945200
2080.000000	13.923000
2079.000000	13.882900
2078.000000	13.854700
2077.000000	13.816400
2076.000000	13.761000
2075.000000	13.702600
2074.000000	13.641000
2073.000000	13.581300
2072.000000	13.505700
2071.000000	13.434900
2070.000000	13.381300
2069.000000	13.306300
2068.000000	13.198300
2067.000000	13.110700
2066.000000	13.027300
2065.000000	12.950500
2064.000000	12.868000
2063.000000	12.781500
2062.000000	12.707700
2061.000000	12.632900
2060.000000	12.561400
2059.000000	12.502900
2058.000000	12.454500
2057.000000	12.417200
2056.000000	12.353500
2055.000000	12.317800
2054.000000	12.310800
2053.000000	12.314300
2052.000000	12.334700
2051.000000	12.358800
2050.000000	12.388500
2049.000000	12.436700
2048.000000	12.518400
2047.000000	12.590700
2046.000000	12.667700
2045.000000	12.738700
2044.000000	12.835200
2043.000000	12.950000
2042.000000	13.047400
2041.000000	13.127900
2040.000000	13.222200
2039.000000	13.323800
2038.000000	13.426400
2037.000000	13.500400
2036.000000	13.604200
2035.000000	13.676400
2034.000000	13.764400
2033.000000	13.846100
2032.000000	13.919000
2031.000000	13.995400
2030.000000	14.055200
2029.000000	14.112600
2028.000000	14.174700
2027.000000	14.247100
2026.000000	14.309100
2025.000000	14.356300
2024.000000	14.409000
2023.000000	14.444300
2022.000000	14.506600
2021.000000	14.541900
2020.000000	14.589100
2019.000000	14.628400
2018.000000	14.650200
2017.000000	14.695900
2016.000000	14.733500
2015.000000	14.770300
2014.000000	14.777800
2013.000000	14.801200
2012.000000	14.813400
2011.000000	14.860900
2010.000000	14.839200
2009.000000	14.837500
2008.000000	14.843900
2007.000000	14.842600
2006.000000	14.841300
2005.000000	14.821600
2004.000000	14.795000
2003.000000	14.800400
2002.000000	14.774000
2001.000000	14.757100
2000.000000	14.699900
1999.000000	14.673600
1998.000000	14.639500
1997.000000	14.599700
1996.000000	14.577700
1995.000000	14.520400
1994.000000	14.468000
1993.000000	14.431400
1992.000000	14.390700
1991.000000	14.324900
1990.000000	14.275900
1989.000000	14.225700
1988.000000	14.168100
1987.000000	14.119000
1986.000000	14.053500
1985.000000	13.986100
1984.000000	13.926900
1983.000000	13.858200
1982.000000	13.802400
1981.000000	13.757000
1980.000000	13.696700
1979.000000	13.609000
1978.000000	13.583100
1977.000000	13.501700
1976.000000	13.447000
1975.000000	13.391300
1974.000000	13.311400
1973.000000	13.281700
1972.000000	13.204400
1971.000000	13.147500
1970.000000	13.092200
1969.000000	13.042600
1968.000000	12.982200
1967.000000	12.917200
1966.000000	12.871800
1965.000000	12.803400
1964.000000	12.766100
1963.000000	12.693200
1962.000000	12.622800
1961.000000	12.574800
1960.000000	12.501300
1959.000000	12.451900
1958.000000	12.375000
1957.000000	12.335100
1956.000000	12.255500
1955.000000	12.198900
1954.000000	12.139800
1953.000000	12.093000
1952.000000	12.012400
1951.000000	11.934900
1950.000000	11.892300
1949.000000	11.848200
1948.000000	11.798600
1947.000000	11.742400
1946.000000	11.697000
1945.000000	11.637800
1944.000000	11.610600
1943.000000	11.583300
1942.000000	11.553200
1941.000000	11.512900
1940.000000	11.486800
1939.000000	11.477500
1938.000000	11.467000
1937.000000	11.450000
1936.000000	11.437600
1935.000000	11.430700
1934.000000	11.428800
1933.000000	11.446200
1932.000000	11.464600
1931.000000	11.495900
1930.000000	11.521200
1929.000000	11.570300
1928.000000	11.620100
1927.000000	11.661400
1926.000000	11.733200
1925.000000	11.792000
1924.000000	11.854600
1923.000000	11.926400
1922.000000	12.029200
1921.000000	12.168700
1920.000000	12.281500
1919.000000	12.389500
1918.000000	12.517200
1917.000000	12.636100
1916.000000	12.753000
1915.000000	12.893900
1914.000000	13.105600
1913.000000	13.327900
1912.000000	13.549800
1911.000000	13.760500
1910.000000	13.961900
1909.000000	14.132200
1908.000000	14.371400
1907.000000	14.669000
1906.000000	14.993000
1905.000000	15.377100
1904.000000	15.733600
1903.000000	16.053500
1902.000000	16.410500
1901.000000	16.784600
1900.000000	17.219300
1899.000000	17.684200
1898.000000	18.145400
1897.000000	18.614400
1896.000000	18.989700
1895.000000	19.383100
1894.000000	19.831100
1893.000000	20.298200
1892.000000	20.839000
1891.000000	21.370400
1890.000000	21.860300
1889.000000	22.304900
1888.000000	22.751800
1887.000000	23.186700
1886.000000	23.598400
1885.000000	24.038300
1884.000000	24.489000
1883.000000	24.865500
1882.000000	25.222900
1881.000000	25.570200
1880.000000	25.858200
1879.000000	26.156600
1878.000000	26.456500
1877.000000	26.757600
1876.000000	27.022500
1875.000000	27.282400
1874.000000	27.540600
1873.000000	27.776800
1872.000000	28.008500
1871.000000	28.209400
1870.000000	28.394600
1869.000000	28.577500
1868.000000	28.719500
1867.000000	28.813000
1866.000000	28.890200
1865.000000	28.972100
1864.000000	29.058500
1863.000000	29.150600
1862.000000	29.245700
1861.000000	29.358800
1860.000000	29.467400
1859.000000	29.552400
1858.000000	29.626800
1857.000000	29.686300
1856.000000	29.736000
1855.000000	29.790700
1854.000000	29.833100
1853.000000	29.841900
1852.000000	29.875500
1851.000000	29.908300
1850.000000	29.935000
1849.000000	29.989900
1848.000000	30.034000
1847.000000	30.040000
1846.000000	30.023200
1845.000000	29.977900
1844.000000	29.940700
1843.000000	29.953700
1842.000000	29.979300
1841.000000	29.994000
1840.000000	29.983400
1839.000000	29.946300
1838.000000	29.926600
1837.000000	29.909000
1836.000000	29.889000
1835.000000	29.852600
1834.000000	29.791600
1833.000000	29.747800
1832.000000	29.730200
1831.000000	29.729600
1830.000000	29.719000
1829.000000	29.700800
1828.000000	29.664200
1827.000000	29.641600
1826.000000	29.644000
1825.000000	29.622100
1824.000000	29.604800
1823.000000	29.609200
1822.000000	29.658200
1821.000000	29.708900
1820.000000	29.716100
1819.000000	29.688700
1818.000000	29.670400
1817.000000	29.661900
1816.000000	29.668800
1815.000000	29.674800
1814.000000	29.655400
1813.000000	29.632200
1812.000000	29.629100
1811.000000	29.615600
1810.000000	29.571000
1809.000000	29.543100
1808.000000	29.523600
1807.000000	29.509100
1806.000000	29.491200
1805.000000	29.457000
1804.000000	29.435300
1803.000000	29.412900
1802.000000	29.395500
1801.000000	29.387100
1800.000000	29.355500
1799.000000	29.331900
1798.000000	29.302300
1797.000000	29.272200
1796.000000	29.254900
1795.000000	29.225600
1794.000000	29.208400
1793.000000	29.175200
1792.000000	29.143400
1791.000000	29.124400
1790.000000	29.104200
1789.000000	29.090900
1788.000000	29.094700
1787.000000	29.093600
1786.000000	29.088400
1785.000000	29.074200
1784.000000	29.072700
1783.000000	29.056000
1782.000000	29.022200
1781.000000	28.999400
1780.000000	28.973000
1779.000000	28.929100
1778.000000	28.881100
1777.000000	28.848200
1776.000000	28.794600
1775.000000	28.733100
1774.000000	28.692300
1773.000000	28.638400
1772.000000	28.581000
1771.000000	28.512000
1770.000000	28.465000
1769.000000	28.416200
1768.000000	28.352200
1767.000000	28.312600
1766.000000	28.275500
1765.000000	28.219700
1764.000000	28.188700
1763.000000	28.173500
1762.000000	28.136100
1761.000000	28.121900
1760.000000	28.104100
1759.000000	28.090500
1758.000000	28.094300
1757.000000	28.067800
1756.000000	28.043600
1755.000000	28.060500
1754.000000	28.056200
1753.000000	28.032300
1752.000000	28.014200
1751.000000	28.004100
1750.000000	27.953900
1749.000000	27.921000
1748.000000	27.899500
1747.000000	27.849600
1746.000000	27.787200
1745.000000	27.714400
1744.000000	27.641300
1743.000000	27.564300
1742.000000	27.489300
1741.000000	27.403900
1740.000000	27.338700
1739.000000	27.253500
1738.000000	27.173100
1737.000000	27.122600
1736.000000	27.070800
1735.000000	27.024100
1734.000000	26.961300
1733.000000	26.925100
1732.000000	26.863800
1731.000000	26.816400
1730.000000	26.775600
1729.000000	26.714600
1728.000000	26.675800
1727.000000	26.639000
1726.000000	26.600000
1725.000000	26.566800
1724.000000	26.594800
1723.000000	26.637600
1722.000000	26.716500
1721.000000	26.845500
1720.000000	27.005400
1719.000000	27.206000
1718.000000	27.407000
1717.000000	27.644700
1716.000000	27.868700
1715.000000	28.076000
1714.000000	28.279500
1713.000000	28.454800
1712.000000	28.629600
1711.000000	28.795400
1710.000000	28.910200
1709.000000	29.034000
1708.000000	29.136700
1707.000000	29.253900
1706.000000	29.325400
1705.000000	29.389900
1704.000000	29.436700
1703.000000	29.493800
1702.000000	29.516100
1701.000000	29.555900
1700.000000	29.573400
1699.000000	29.589000
1698.000000	29.589700
1697.000000	29.592000
1696.000000	29.570900
1695.000000	29.539400
1694.000000	29.492400
1693.000000	29.423700
1692.000000	29.346200
1691.000000	29.274600
1690.000000	29.198600
1689.000000	29.172400
1688.000000	29.187900
1687.000000	29.260700
1686.000000	29.350600
1685.000000	29.497200
1684.000000	29.691300
1683.000000	29.881900
1682.000000	30.104200
1681.000000	30.295200
1680.000000	30.516100
1679.000000	30.705700
1678.000000	30.875600
1677.000000	31.055800
1676.000000	31.197000
1675.000000	31.336700
1674.000000	31.490900
1673.000000	31.634000
1672.000000	31.800500
1671.000000	31.937600
1670.000000	32.101500
1669.000000	32.263200
1668.000000	32.404400
1667.000000	32.547500
1666.000000	32.692300
1665.000000	32.819900
1664.000000	32.956400
1663.000000	33.088000
1662.000000	33.197300
1661.000000	33.319900
1660.000000	33.396700
1659.000000	33.481100
1658.000000	33.564100
1657.000000	33.630900
1656.000000	33.662600
1655.000000	33.722700
1654.000000	33.751700
1653.000000	33.776200
1652.000000	33.800200
1651.000000	33.804800
1650.000000	33.810000
1649.000000	33.806100
1648.000000	33.795500
1647.000000	33.776700
1646.000000	33.768300
1645.000000	33.748700
1644.000000	33.737200
1643.000000	33.721300
1642.000000	33.699000
1641.000000	33.697700
1640.000000	33.699700
1639.000000	33.670600
1638.000000	33.645600
1637.000000	33.619100
1636.000000	33.581100
1635.000000	33.570500
1634.000000	33.534200
1633.000000	33.488900
1632.000000	33.462100
1631.000000	33.422400
1630.000000	33.378000
1629.000000	33.345700
1628.000000	33.310300
1627.000000	33.270200
1626.000000	33.235300
1625.000000	33.195900
1624.000000	33.158200
1623.000000	33.133300
1622.000000	33.099400
1621.000000	33.069100
1620.000000	33.035900
1619.000000	33.022900
1618.000000	32.992600
1617.000000	32.954000
1616.000000	32.935100
1615.000000	32.898700
1614.000000	32.864200
1613.000000	32.822900
1612.000000	32.793100
1611.000000	32.761700
1610.000000	32.714300
1609.000000	32.680500
1608.000000	32.626000
1607.000000	32.570600
1606.000000	32.509500
1605.000000	32.445000
1604.000000	32.378000
1603.000000	32.322600
1602.000000	32.274200
1601.000000	32.206600
1600.000000	32.141700
1599.000000	32.091200
1598.000000	32.039300
1597.000000	31.995400
1596.000000	31.952500
1595.000000	31.919300
1594.000000	31.867400
1593.000000	31.826200
1592.000000	31.774800
1591.000000	31.726100
1590.000000	31.700400
1589.000000	31.677900
1588.000000	31.644800
1587.000000	31.613800
1586.000000	31.566600
1585.000000	31.522900
1584.000000	31.500300
1583.000000	31.473200
1582.000000	31.432200
1581.000000	31.400500
1580.000000	31.381600
1579.000000	31.366000
1578.000000	31.353100
1577.000000	31.346700
1576.000000	31.330900
1575.000000	31.322500
1574.000000	31.329900
1573.000000	31.330300
1572.000000	31.319700
1571.000000	31.326500
1570.000000	31.339700
1569.000000	31.358600
1568.000000	31.371800
1567.000000	31.386000
1566.000000	31.405900
1565.000000	31.420200
1564.000000	31.431300
1563.000000	31.430400
1562.000000	31.424700
1561.000000	31.415200
1560.000000	31.398900
1559.000000	31.372700
1558.000000	31.339700
1557.000000	31.298900
1556.000000	31.255100
1555.000000	31.199000
1554.000000	31.142400
1553.000000	31.082900
1552.000000	31.013600
1551.000000	30.933400
1550.000000	30.848000
1549.000000	30.763600
1548.000000	30.674700
1547.000000	30.607800
1546.000000	30.525100
1545.000000	30.465100
1544.000000	30.405200
1543.000000	30.336400
1542.000000	30.292700
1541.000000	30.244300
1540.000000	30.185100
1539.000000	30.124900
1538.000000	30.072900
1537.000000	30.041900
1536.000000	29.995800
1535.000000	29.951400
1534.000000	29.895300
1533.000000	29.830100
1532.000000	29.778700
1531.000000	29.709100
1530.000000	29.653400
1529.000000	29.597600
1528.000000	29.534800
1527.000000	29.477100
1526.000000	29.419400
1525.000000	29.362400
1524.000000	29.298700
1523.000000	29.235900
1522.000000	29.181300
1521.000000	29.113300
1520.000000	29.055900
1519.000000	29.001200
1518.000000	28.945800
1517.000000	28.887100
1516.000000	28.822100
1515.000000	28.755800
1514.000000	28.702300
1513.000000	28.650700
1512.000000	28.594400
1511.000000	28.528300
1510.000000	28.465700
1509.000000	28.412500
1508.000000	28.359900
1507.000000	28.309200
1506.000000	28.253300
1505.000000	28.196600
1504.000000	28.168900
1503.000000	28.114000
1502.000000	28.077100
1501.000000	28.040200
1500.000000	28.001900
1499.000000	27.989800
1498.000000	27.980600
1497.000000	27.983200
1496.000000	27.987600
1495.000000	27.976900
1494.000000	27.977000
1493.000000	28.005200
1492.000000	28.033200
1491.000000	28.048000
1490.000000	28.061500
1489.000000	28.090200
1488.000000	28.117400
1487.000000	28.168700
1486.000000	28.207200
1485.000000	28.228800
1484.000000	28.255400
1483.000000	28.279500
1482.000000	28.305600
1481.000000	28.329700
1480.000000	28.365000
1479.000000	28.408400
1478.000000	28.455200
1477.000000	28.496800
1476.000000	28.523900
1475.000000	28.552000
1474.000000	28.644900
1473.000000	28.713200
1472.000000	28.782700
1471.000000	28.851000
1470.000000	28.896900
1469.000000	28.947100
1468.000000	28.997500
1467.000000	29.072800
1466.000000	29.154700
1465.000000	29.209700
1464.000000	29.286300
1463.000000	29.355000
1462.000000	29.409400
1461.000000	29.514400
1460.000000	29.595100
1459.000000	29.655100
1458.000000	29.739400
1457.000000	29.808400
1456.000000	29.900900
1455.000000	29.988500
1454.000000	30.039900
1453.000000	30.106800
1452.000000	30.223800
1451.000000	30.302900
1450.000000	30.366000
1449.000000	30.410900
1448.000000	30.476800
1447.000000	30.565600
1446.000000	30.659100
1445.000000	30.721900
1444.000000	30.794600
1443.000000	30.861300
1442.000000	30.942200
1441.000000	31.024500
1440.000000	31.129300
1439.000000	31.220400
1438.000000	31.331100
1437.000000	31.423300
1436.000000	31.494600
1435.000000	31.613200
1434.000000	31.731000
1433.000000	31.863900
1432.000000	31.984300
1431.000000	32.109900
1430.000000	32.239200
1429.000000	32.374500
1428.000000	32.556000
1427.000000	32.707500
1426.000000	32.877500
1425.000000	33.068700
1424.000000	33.281500
1423.000000	33.452000
1422.000000	33.680300
1421.000000	33.892400
1420.000000	34.138600
1419.000000	34.396800
1418.000000	34.627000
1417.000000	34.837600
1416.000000	35.116800
1415.000000	35.426900
1414.000000	35.719200
1413.000000	36.007200
1412.000000	36.233100
1411.000000	36.561100
1410.000000	36.925100
1409.000000	37.294500
1408.000000	37.637000
1407.000000	37.943600
1406.000000	38.227000
1405.000000	38.559400
1404.000000	38.852800
1403.000000	39.134600
1402.000000	39.424600
1401.000000	39.807500
1400.000000	40.055800
1399.000000	40.219000
1398.000000	40.342300
1397.000000	40.546500
1396.000000	40.835000
1395.000000	41.007200
1394.000000	41.072500
1393.000000	41.160800
1392.000000	41.314700
1391.000000	41.425300
1390.000000	41.518800
1389.000000	41.661000
1388.000000	41.840400
1387.000000	41.953200
1386.000000	42.101200
1385.000000	42.304000
1384.000000	42.530000
1383.000000	42.759900
1382.000000	43.048200
1381.000000	43.338300
1380.000000	43.604600
1379.000000	44.047000
1378.000000	44.467200
1377.000000	44.991400
1376.000000	45.490200
1375.000000	46.004400
1374.000000	46.500200
1373.000000	47.004900
1372.000000	47.465000
1371.000000	47.839800
1370.000000	48.126800
1369.000000	48.364300
1368.000000	48.606900
1367.000000	48.781000
1366.000000	48.934000
1365.000000	49.095500
1364.000000	49.223000
1363.000000	49.342000
1362.000000	49.461900
1361.000000	49.566700
1360.000000	49.594200
1359.000000	49.647300
1358.000000	49.731100
1357.000000	49.819300
1356.000000	49.925500
1355.000000	50.073500
1354.000000	50.217500
1353.000000	50.336200
1352.000000	50.499900
1351.000000	50.710700
1350.000000	50.918000
1349.000000	51.127100
1348.000000	51.358000
1347.000000	51.551000
1346.000000	51.727800
1345.000000	51.945700
1344.000000	52.164600
1343.000000	52.333700
1342.000000	52.497000
1341.000000	52.670500
1340.000000	52.826400
1339.000000	52.977600
1338.000000	53.121600
1337.000000	53.264400
1336.000000	53.412800
1335.000000	53.555800
1334.000000	53.681500
1333.000000	53.792400
1332.000000	53.906800
1331.000000	54.014300
1330.000000	54.112500
1329.000000	54.209300
1328.000000	54.298900
1327.000000	54.382800
1326.000000	54.454400
1325.000000	54.521600
1324.000000	54.600900
1323.000000	54.675000
1322.000000	54.733100
1321.000000	54.781100
1320.000000	54.831900
1319.000000	54.886400
1318.000000	54.944600
1317.000000	54.992900
1316.000000	55.042000
1315.000000	55.083400
1314.000000	55.125500
1313.000000	55.170300
1312.000000	55.203300
1311.000000	55.229800
1310.000000	55.262600
1309.000000	55.288400
1308.000000	55.314200
1307.000000	55.337700
1306.000000	55.352300
1305.000000	55.366900
1304.000000	55.388600
1303.000000	55.402600
1302.000000	55.405800
1301.000000	55.396700
1300.000000	55.390400
1299.000000	55.387700
1298.000000	55.378900
1297.000000	55.374200
1296.000000	55.366500
1295.000000	55.346700
1294.000000	55.322700
1293.000000	55.289400
1292.000000	55.264900
1291.000000	55.244800
1290.000000	55.218100
1289.000000	55.180800
1288.000000	55.135500
1287.000000	55.099000
1286.000000	55.056000
1285.000000	55.017300
1284.000000	54.991700
1283.000000	54.953900
1282.000000	54.904700
1281.000000	54.872600
1280.000000	54.839900
1279.000000	54.804500
1278.000000	54.783500
1277.000000	54.761300
1276.000000	54.737600
1275.000000	54.720300
1274.000000	54.706000
1273.000000	54.710200
1272.000000	54.716600
1271.000000	54.706400
1270.000000	54.708400
1269.000000	54.707500
1268.000000	54.704800
1267.000000	54.701800
1266.000000	54.694100
1265.000000	54.680100
1264.000000	54.672400
1263.000000	54.666500
1262.000000	54.665500
1261.000000	54.656100
1260.000000	54.642800
1259.000000	54.630500
1258.000000	54.617900
1257.000000	54.607700
1256.000000	54.592800
1255.000000	54.564000
1254.000000	54.545000
1253.000000	54.535200
1252.000000	54.487100
1251.000000	54.442500
1250.000000	54.408400
1249.000000	54.375400
1248.000000	54.309000
1247.000000	54.260000
1246.000000	54.209000
1245.000000	54.162900
1244.000000	54.127800
1243.000000	54.075500
1242.000000	54.024900
1241.000000	53.974400
1240.000000	53.929300
1239.000000	53.901600
1238.000000	53.862800
1237.000000	53.834800
1236.000000	53.817700
1235.000000	53.778200
1234.000000	53.737300
1233.000000	53.704800
1232.000000	53.671700
1231.000000	53.629600
1230.000000	53.587400
1229.000000	53.543100
1228.000000	53.496200
1227.000000	53.434700
1226.000000	53.382200
1225.000000	53.325800
1224.000000	53.301200
1223.000000	53.256700
1222.000000	53.192000
1221.000000	53.128100
1220.000000	53.075000
1219.000000	53.039600
1218.000000	52.972100
1217.000000	52.918600
1216.000000	52.905400
1215.000000	52.842100
1214.000000	52.785600
1213.000000	52.729000
1212.000000	52.663000
1211.000000	52.614500
1210.000000	52.555100
1209.000000	52.497300
1208.000000	52.434800
1207.000000	52.364200
1206.000000	52.324800
1205.000000	52.261500
1204.000000	52.185800
1203.000000	52.134400
1202.000000	52.066500
1201.000000	52.005200
1200.000000	51.947600
1199.000000	51.882800
1198.000000	51.789700
1197.000000	51.723200
1196.000000	51.651600
1195.000000	51.575800
1194.000000	51.486800
1193.000000	51.397500
1192.000000	51.327100
1191.000000	51.250700
1190.000000	51.192600
1189.000000	51.129000
1188.000000	51.074900
1187.000000	51.054700
1186.000000	51.048300
1185.000000	51.044200
1184.000000	51.075000
1183.000000	51.103400
1182.000000	51.126300
1181.000000	51.190100
1180.000000	51.218900
1179.000000	51.264200
1178.000000	51.337300
1177.000000	51.378300
1176.000000	51.416200
1175.000000	51.458100
1174.000000	51.492700
1173.000000	51.559800
1172.000000	51.601100
1171.000000	51.673600
1170.000000	51.753500
1169.000000	51.823100
1168.000000	51.907700
1167.000000	52.020200
1166.000000	52.131600
1165.000000	52.242400
1164.000000	52.351400
1163.000000	52.452400
1162.000000	52.571300
1161.000000	52.698400
1160.000000	52.811700
1159.000000	52.924600
1158.000000	52.994100
1157.000000	53.093400
1156.000000	53.196200
1155.000000	53.266600
1154.000000	53.331900
1153.000000	53.365100
1152.000000	53.446400
1151.000000	53.477900
1150.000000	53.505500
1149.000000	53.536800
1148.000000	53.574300
1147.000000	53.635700
1146.000000	53.651800
1145.000000	53.709900
1144.000000	53.737900
1143.000000	53.774300
1142.000000	53.830300
1141.000000	53.889700
1140.000000	53.945800
1139.000000	54.004600
1138.000000	54.099300
1137.000000	54.176700
1136.000000	54.250200
1135.000000	54.361000
1134.000000	54.418700
1133.000000	54.433700
1132.000000	54.482300
1131.000000	54.522400
1130.000000	54.576700
1129.000000	54.614700
1128.000000	54.621200
1127.000000	54.652500
1126.000000	54.652000
1125.000000	54.661800
1124.000000	54.673500
1123.000000	54.665500
1122.000000	54.630600
1121.000000	54.596100
1120.000000	54.558900
1119.000000	54.519100
1118.000000	54.480800
1117.000000	54.429700
1116.000000	54.391800
1115.000000	54.350200
1114.000000	54.298900
1113.000000	54.246100
1112.000000	54.191000
1111.000000	54.152400
1110.000000	54.089600
1109.000000	54.043100
1108.000000	54.002500
1107.000000	53.948500
1106.000000	53.901800
1105.000000	53.862100
1104.000000	53.810400
1103.000000	53.746600
1102.000000	53.725300
1101.000000	53.668700
1100.000000	53.605600
1099.000000	53.565000
1098.000000	53.525400
1097.000000	53.463400
1096.000000	53.410300
1095.000000	53.363700
1094.000000	53.306700
1093.000000	53.255400
1092.000000	53.210900
1091.000000	53.170800
1090.000000	53.117700
1089.000000	53.068500
1088.000000	53.022900
1087.000000	52.967000
1086.000000	52.908100
1085.000000	52.852100
1084.000000	52.810700
1083.000000	52.735400
1082.000000	52.677100
1081.000000	52.630000
1080.000000	52.560800
1079.000000	52.499100
1078.000000	52.456800
1077.000000	52.377600
1076.000000	52.301400
1075.000000	52.246900
1074.000000	52.184100
1073.000000	52.117900
1072.000000	52.053200
1071.000000	51.982000
1070.000000	51.909100
1069.000000	51.849900
1068.000000	51.781000
1067.000000	51.711200
1066.000000	51.642400
1065.000000	51.587300
1064.000000	51.521900
1063.000000	51.438000
1062.000000	51.380500
1061.000000	51.322100
1060.000000	51.273200
1059.000000	51.230000
1058.000000	51.174000
1057.000000	51.115000
1056.000000	51.057300
1055.000000	50.994500
1054.000000	50.935100
1053.000000	50.875700
1052.000000	50.832800
1051.000000	50.797300
1050.000000	50.732200
1049.000000	50.672100
1048.000000	50.634200
1047.000000	50.601700
1046.000000	50.556600
1045.000000	50.494600
1044.000000	50.446200
1043.000000	50.421900
1042.000000	50.381200
1041.000000	50.338500
1040.000000	50.308200
1039.000000	50.270800
1038.000000	50.236300
1037.000000	50.197200
1036.000000	50.159300
1035.000000	50.112800
1034.000000	50.069100
1033.000000	50.046300
1032.000000	50.019600
1031.000000	49.984900
1030.000000	49.948700
1029.000000	49.910500
1028.000000	49.873000
1027.000000	49.840600
1026.000000	49.811600
1025.000000	49.786800
1024.000000	49.751500
1023.000000	49.716300
1022.000000	49.697900
1021.000000	49.686100
1020.000000	49.679000
1019.000000	49.672500
1018.000000	49.663900
1017.000000	49.655100
1016.000000	49.658700
1015.000000	49.671900
1014.000000	49.677000
1013.000000	49.677400
1012.000000	49.669500
1011.000000	49.656700
1010.000000	49.662400
1009.000000	49.670400
1008.000000	49.669700
1007.000000	49.677200
1006.000000	49.683300
1005.000000	49.684700
1004.000000	49.699600
1003.000000	49.724300
1002.000000	49.748200
1001.000000	49.785000
1000.000000	49.819800
999.000000	49.843100
998.000000	49.874400
997.000000	49.910000
996.000000	49.952800
995.000000	49.993900
994.000000	50.025900
993.000000	50.058100
992.000000	50.085100
991.000000	50.137700
990.000000	50.190400
989.000000	50.241300
988.000000	50.293600
987.000000	50.348500
986.000000	50.406800
985.000000	50.467100
984.000000	50.542900
983.000000	50.615800
982.000000	50.697200
981.000000	50.766300
980.000000	50.850800
979.000000	50.930300
978.000000	51.016300
977.000000	51.097800
976.000000	51.190800
975.000000	51.282900
974.000000	51.382300
973.000000	51.451900
972.000000	51.534300
971.000000	51.628100
970.000000	51.729000
969.000000	51.826700
968.000000	51.909100
967.000000	52.001300
966.000000	52.110500
965.000000	52.209900
964.000000	52.324600
963.000000	52.424500
962.000000	52.524200
961.000000	52.626300
960.000000	52.718200
959.000000	52.817700
958.000000	52.915200
957.000000	52.991400
956.000000	53.065300
955.000000	53.148000
954.000000	53.247700
953.000000	53.318600
952.000000	53.405000
951.000000	53.497800
950.000000	53.597700
949.000000	53.674200
948.000000	53.766300
947.000000	53.863900
946.000000	53.975400
945.000000	54.100100
944.000000	54.198900
943.000000	54.321600
942.000000	54.445400
941.000000	54.566000
940.000000	54.687300
939.000000	54.812600
938.000000	54.935000
937.000000	55.070800
936.000000	55.191300
935.000000	55.333700
934.000000	55.470400
933.000000	55.588600
932.000000	55.714100
931.000000	55.845300
930.000000	55.978900
929.000000	56.100600
928.000000	56.228000
927.000000	56.359000
926.000000	56.487200
925.000000	56.638200
924.000000	56.733200
923.000000	56.863100
922.000000	57.002400
921.000000	57.104600
920.000000	57.219300
919.000000	57.319500
918.000000	57.446400
917.000000	57.523100
916.000000	57.612300
915.000000	57.719100
914.000000	57.839400
913.000000	57.918300
912.000000	57.999200
911.000000	58.097400
910.000000	58.158900
909.000000	58.305000
908.000000	58.368700
907.000000	58.484500
906.000000	58.566000
905.000000	58.651100
904.000000	58.740100
903.000000	58.824400
902.000000	58.918200
901.000000	59.004900
900.000000	59.081400
899.000000	59.158900
898.000000	59.259600
897.000000	59.354600
896.000000	59.460600
895.000000	59.562400
894.000000	59.683300
893.000000	59.801600
892.000000	59.930700
891.000000	60.059600
890.000000	60.197500
889.000000	60.315400
888.000000	60.474900
887.000000	60.623400
886.000000	60.783200
885.000000	60.921400
884.000000	61.070800
883.000000	61.211300
882.000000	61.399200
881.000000	61.559900
880.000000	61.733700
879.000000	61.890400
878.000000	62.063700
877.000000	62.245400
876.000000	62.428900
875.000000	62.641900
874.000000	62.811200
873.000000	63.012800
872.000000	63.208000
871.000000	63.412400
870.000000	63.637900
869.000000	63.864000
868.000000	64.096200
867.000000	64.322100
866.000000	64.557000
865.000000	64.786400
864.000000	65.019000
863.000000	65.248400
862.000000	65.486800
861.000000	65.718700
860.000000	65.947600
859.000000	66.206300
858.000000	65.135697
857.000000	64.774492
856.000000	64.559768
855.000000	65.084811
854.000000	65.686919
853.000000	65.967922
852.000000	66.141662
851.000000	66.541890
850.000000	66.888585
849.000000	67.366369
848.000000	67.894844
847.000000	68.086134
846.000000	68.563232
845.000000	68.972383
844.000000	69.626652
843.000000	69.872260
842.000000	70.002368
841.000000	70.268861
840.000000	70.476034
839.000000	70.926169
838.000000	70.947053
837.000000	71.261491
836.000000	71.440525
835.000000	71.847421
834.000000	72.148033
833.000000	72.363345
832.000000	72.624739
831.000000	72.953687
830.000000	73.049675
829.000000	73.321756
828.000000	73.614819
827.000000	73.655803
826.000000	73.830817
825.000000	73.841701
824.000000	73.927884
823.000000	74.011420
822.000000	74.067405
821.000000	74.043188
820.000000	74.039756
819.000000	74.145941
818.000000	74.026618
817.000000	74.030834
816.000000	74.094957
815.000000	74.103291
814.000000	74.128489
813.000000	74.104957
812.000000	74.161040
811.000000	74.219477
810.000000	74.158785
809.000000	74.164864
808.000000	74.272422
807.000000	74.485185
806.000000	74.486067
805.000000	74.442338
804.000000	74.446456
803.000000	74.490381
802.000000	74.650394
801.000000	74.627451
800.000000	74.659316
799.000000	74.668533
798.000000	74.779522
797.000000	74.832076
796.000000	74.916396
795.000000	75.084253
794.000000	75.130727
793.000000	75.213087
792.000000	75.283975
791.000000	75.278190
790.000000	75.487619
789.000000	75.623905
788.000000	75.610374
787.000000	75.704009
786.000000	75.737934
785.000000	75.915105
784.000000	75.936283
783.000000	75.892456
782.000000	76.031193
781.000000	76.019231
780.000000	76.009818
779.000000	75.924419
778.000000	75.868631
777.000000	75.834020
776.000000	75.838530
775.000000	75.763034
774.000000	75.627238
773.000000	75.651064
772.000000	75.633317
771.000000	75.562037
770.000000	75.466539
769.000000	75.337509
768.000000	75.229657
767.000000	75.157102
766.000000	74.978558
765.000000	74.773149
764.000000	74.591272
763.000000	74.404786
762.000000	74.127999
761.000000	73.825817
760.000000	73.626095
759.000000	73.432550
758.000000	73.119681
757.000000	72.865151
756.000000	72.579049
755.000000	72.345893
754.000000	72.184605
753.000000	71.921937
752.000000	71.649856
751.000000	71.417582
750.000000	71.161090
749.000000	70.883813
748.000000	70.573984
747.000000	70.223367
746.000000	69.940795
745.000000	69.640574
744.000000	69.269269
743.000000	68.838156
742.000000	68.398414
741.000000	68.023678
740.000000	67.652373
739.000000	67.223319
738.000000	66.785734
737.000000	66.421783
736.000000	66.017828
735.000000	65.587499
734.000000	65.272179
733.000000	64.926073
732.000000	64.499959
731.000000	64.137871
730.000000	63.815884
729.000000	63.532528
728.000000	63.267408
727.000000	63.008563
726.000000	62.732659
725.000000	62.469598
724.000000	62.206439
723.000000	61.989167
722.000000	61.811505
721.000000	61.586095
720.000000	61.351174
719.000000	61.190670
718.000000	61.017421
717.000000	60.883979
716.000000	60.677981
715.000000	60.520812
714.000000	60.444629
713.000000	60.298441
712.000000	60.092738
711.000000	59.946059
710.000000	59.817323
709.000000	59.662899
708.000000	59.503376
707.000000	59.345716
706.000000	59.144915
705.000000	58.898719
704.000000	58.679878
703.000000	58.403286
702.000000	58.053062
701.000000	57.725486
700.000000	57.293686
699.000000	56.791292
698.000000	56.290369
697.000000	55.802584
696.000000	55.269698
695.000000	54.749754
694.000000	54.214710
693.000000	53.719375
692.000000	53.213844
691.000000	52.732530
690.000000	52.272689
689.000000	51.862263
688.000000	51.502626
687.000000	51.105829
686.000000	50.785411
685.000000	50.501957
684.000000	50.206148
683.000000	49.949166
682.000000	49.726011
681.000000	49.456871
680.000000	49.183418
679.000000	48.907415
678.000000	48.642982
677.000000	48.451692
676.000000	48.220496
675.000000	48.006655
674.000000	47.851545
673.000000	47.697316
672.000000	47.603681
671.000000	47.565541
670.000000	47.571620
669.000000	47.643586
668.000000	47.709278
667.000000	47.854682
666.000000	48.016068
665.000000	48.177159
664.000000	48.347958
663.000000	48.505617
662.000000	48.627980
661.000000	48.682691
660.000000	48.730832
659.000000	48.645433
658.000000	48.536502
657.000000	48.322367
656.000000	48.052149
655.000000	47.717318
654.000000	47.378761
653.000000	47.024026
652.000000	46.685175
651.000000	46.367992
650.000000	46.105128
649.000000	45.876874
648.000000	45.723234
647.000000	45.639208
646.000000	45.542729
645.000000	45.497039
644.000000	45.543513
643.000000	45.595871
642.000000	45.650189
641.000000	45.732941
640.000000	45.819320
639.000000	45.883345
638.000000	45.980118
637.000000	46.096696
636.000000	46.281221
635.000000	46.444763
634.000000	46.615562
633.000000	46.869112
632.000000	47.155017
631.000000	47.470239
630.000000	47.889293
629.000000	48.320210
628.000000	48.756618
627.000000	49.274308
626.000000	49.854355
625.000000	50.380672
624.000000	50.977387
623.000000	51.582535
622.000000	52.184937
621.000000	52.796065
620.000000	53.404644
619.000000	53.984397
618.000000	54.580622
617.000000	55.131647
616.000000	55.668358
615.000000	56.083195
614.000000	56.566862
613.000000	56.976994
612.000000	57.430364
611.000000	57.760587
610.000000	58.155031
609.000000	58.526336
608.000000	58.884502
607.000000	59.282770
606.000000	59.674762
605.000000	60.112641
604.000000	60.453453
603.000000	60.844073
602.000000	61.199396
601.000000	61.429513
600.000000	61.615901
599.000000	61.798857
598.000000	62.009462
597.000000	62.171731
596.000000	62.286642
595.000000	62.517543
594.000000	62.655594
593.000000	62.816587
592.000000	62.952480
591.000000	63.094159
590.000000	63.118670
589.000000	63.077295
588.000000	63.007975
587.000000	62.908261
586.000000	62.737659
585.000000	62.603923
584.000000	62.479501
583.000000	62.406358
582.000000	62.320762
581.000000	62.201341
580.000000	62.123491
579.000000	61.997893
578.000000	61.872000
577.000000	61.607273
576.000000	61.371469
575.000000	61.158707
574.000000	60.960750
573.000000	60.735339
572.000000	60.587484
571.000000	60.411097
570.000000	60.226278
569.000000	59.999397
568.000000	59.747808
567.000000	59.422095
566.000000	59.055692
565.000000	58.630560
564.000000	58.220134
563.000000	57.823729
562.000000	57.432325
561.000000	56.985916
560.000000	56.523820
559.000000	56.024269
558.000000	55.488539
557.000000	54.913296
556.000000	54.250595
555.000000	53.580541
554.000000	52.931958
553.000000	52.229352
552.000000	51.534982
551.000000	50.779332
550.000000	50.029271
549.000000	49.237834
548.000000	48.457280
547.000000	47.655940
546.000000	46.825873
545.000000	46.048457
544.000000	45.201329
543.000000	44.385478
542.000000	43.524820
541.000000	42.693281
540.000000	41.824583
539.000000	40.982063
538.000000	40.157585
537.000000	39.371148
536.000000	38.577652
535.000000	37.806707
534.000000	37.036938
533.000000	36.305114
532.000000	35.584369
531.000000	34.897058
530.000000	34.265830
529.000000	33.674802
528.000000	33.093088
527.000000	32.546867
526.000000	32.017412
525.000000	31.497860
524.000000	30.988897
523.000000	30.499837
522.000000	30.026759
521.000000	29.546524
520.000000	29.076976
519.000000	28.620665
518.000000	28.192002
517.000000	27.747456
516.000000	27.278692
515.000000	26.821204
514.000000	26.346067
513.000000	25.874951
512.000000	25.423149
511.000000	24.954287
510.000000	24.478268
509.000000	23.985189
508.000000	23.534662
507.000000	23.106588
506.000000	22.695280
505.000000	22.303287
504.000000	21.970123
503.000000	21.669510
502.000000	21.451845
501.000000	21.259183
500.000000	21.128388
499.000000	21.044655
498.000000	21.004260
497.000000	21.002789
496.000000	21.028281
495.000000	21.109366
494.000000	21.219179
493.000000	21.355955
492.000000	21.518910
491.000000	21.719122
490.000000	21.908451
489.000000	22.109350
488.000000	22.343683
487.000000	22.563014
486.000000	22.788621
485.000000	22.993245
484.000000	23.182575
483.000000	23.368374
482.000000	23.504365
481.000000	23.627709
480.000000	23.731247
479.000000	23.823607
478.000000	23.912732
477.000000	24.002935
476.000000	24.069313
475.000000	24.119416
474.000000	24.143045
473.000000	24.152457
472.000000	24.154418
471.000000	24.137652
470.000000	24.109023
469.000000	24.081177
468.000000	24.025780
467.000000	23.936754
466.000000	23.836745
465.000000	23.737129
464.000000	23.626728
463.000000	23.505444
462.000000	23.374061
461.000000	23.223558
460.000000	23.069134
459.000000	22.919906
458.000000	22.745578
457.000000	22.549092
456.000000	22.365939
455.000000	22.159550
454.000000	21.925413
453.000000	21.682943
452.000000	21.423117
451.000000	21.167606
450.000000	20.912880
449.000000	20.628641
448.000000	20.342637
447.000000	20.048888
446.000000	19.723175
445.000000	19.398835
444.000000	19.048904
443.000000	18.687797
442.000000	18.306099
441.000000	17.911361
440.000000	17.543390
439.000000	17.154338
438.000000	16.740383
437.000000	16.335056
436.000000	15.907080
435.000000	15.455082
434.000000	15.010046
433.000000	14.561382
432.000000	14.112522
431.000000	13.679938
430.000000	13.256864
429.000000	12.826143
428.000000	12.400422
427.000000	12.005095
426.000000	11.603396
425.000000	11.199442
424.000000	10.828333
423.000000	10.472324
422.000000	10.123276
421.000000	9.789327
420.000000	9.477831
419.000000	9.185748
418.000000	8.922688
417.000000	8.671491
416.000000	8.429118
415.000000	8.218709
414.000000	8.013496
413.000000	7.817696
412.000000	7.644642
411.000000	7.483257
410.000000	7.332950
409.000000	7.201665
408.000000	7.072243
407.000000	6.953409
406.000000	6.848401
405.000000	6.752315
404.000000	6.663778
403.000000	6.582301
402.000000	6.504647
401.000000	6.443270
400.000000	6.366205
399.000000	6.316005
398.000000	6.272374
397.000000	6.218840
396.000000	6.183935
395.000000	6.144912
394.000000	6.095006
393.000000	6.054807
392.000000	6.021079
391.000000	5.991076
390.000000	5.956564
389.000000	5.933130
388.000000	5.900088
387.000000	5.877832
386.000000	5.862438
385.000000	5.834201
384.000000	5.810865
383.000000	5.804787
382.000000	5.775274
381.000000	5.745272
380.000000	5.716446
379.000000	5.710367
378.000000	5.687914
377.000000	5.676639
376.000000	5.836064
375.000000	5.641636
374.000000	5.563492
373.000000	5.639087
372.000000	5.661932
371.000000	5.689777
370.000000	5.579278
369.000000	5.560159
368.000000	5.630655
367.000000	5.550550
366.000000	5.663010
365.000000	5.646244
364.000000	5.689483
363.000000	5.666932
362.000000	5.577317
361.000000	5.522705
360.000000	5.559570
359.000000	5.609575
358.000000	5.611045
357.000000	5.585749
356.000000	5.643205
355.000000	5.528784
354.000000	5.570454
353.000000	5.616438
352.000000	5.536922
351.000000	5.548491
350.000000	5.517508
349.000000	5.519567
348.000000	5.579964
347.000000	5.493585
346.000000	5.477995
345.000000	5.601535
344.000000	5.527019
343.000000	5.608692
342.000000	5.545158
341.000000	5.471818
340.000000	5.547609
339.000000	5.547020
338.000000	5.559669
337.000000	5.598593
336.000000	5.525254
335.000000	5.507605
334.000000	5.513096
333.000000	5.492506
332.000000	5.536725
331.000000	5.591338
330.000000	5.516920
329.000000	5.657127
328.000000	5.526234
327.000000	5.582121
326.000000	5.498487
325.000000	5.735565
324.000000	5.812924
323.000000	5.671344
322.000000	5.939601
321.000000	5.752625
320.000000	5.739585
319.000000	5.803904
318.000000	5.873616
317.000000	5.611928
316.000000	5.476034
315.000000	5.518685
314.000000	5.477309
313.000000	5.471818
312.000000	5.421716
311.000000	5.527705
310.000000	5.493585
309.000000	5.488584
308.000000	5.503978
307.000000	5.448483
306.000000	5.537216
305.000000	5.528097
304.000000	5.553099
303.000000	5.519273
302.000000	5.550354
301.000000	5.473387
300.000000	5.593005
299.000000	5.542804
298.000000	5.576631
297.000000	5.581239
296.000000	5.580258
295.000000	5.579866
294.000000	5.644087
293.000000	5.596142
292.000000	5.587416
291.000000	5.629968
290.000000	5.593005
289.000000	5.539373
288.000000	5.621634
287.000000	5.590553
286.000000	5.645264
285.000000	5.602319
284.000000	5.611732
283.000000	5.647813
282.000000	5.639087
281.000000	5.672521
280.000000	5.658696
279.000000	5.683306
278.000000	5.664383
277.000000	5.739193
276.000000	5.679776
275.000000	5.671835
274.000000	5.693895
273.000000	5.698209
272.000000	5.725466
271.000000	5.722427
270.000000	5.684581
269.000000	5.722329
268.000000	5.758998
267.000000	5.774490
266.000000	5.823415
265.000000	5.801355
264.000000	5.811650
263.000000	5.856948
262.000000	5.836358
261.000000	5.894009
260.000000	5.927346
259.000000	5.956858
258.000000	5.950191
257.000000	5.925188
256.000000	5.999018
255.000000	6.003528
254.000000	5.980095
253.000000	5.995979
252.000000	6.027158
251.000000	6.024118
250.000000	6.027060
