PE UV       SUBTECH     SPECTRUM    ASCII       PEDS        4.00        
   -1
CICIMAUCR0101-1.ASC
24/04/03
16:31:32.00
24/04/03
16:31:32.00
Vinicio Soto Monge
C. resplendens
250,000000
1
Lambda 1050
1050L1511233
PerkinElmer UV WinLab 6.3.2.0749 / 2.02.05 Lambda 900 UV/VIS/NIR, Aug  7 2015 09:38:08

0
0
3350/servo 860,8/2
0
0
UV/VIS
1
1
1
DoubleDePol,CommonBeamDepol,RBeamAtt,SBeamAtt,60mm sphere, WB InGaAs Detector
0
0
0
0
Program
Program
3350/servo 860,8/2
3350/0,2 860,8/0,2
3350/0,2 860,8/0,2
0
15.00
 
 
 
0
 
860,8
319,2
860,8
Front
100
on
S:100 R:100
0
0
0
0
 
0
 
 
 
0
 
 
0
0
0
0
0
 
 
 
 
0
0


0
0
#HDR
-1
-1
#GR
nm
%R
1.0
0.0
2500,000000
-1,000000
2251
8
72,895300
3,379900
#DATA
2500.000000	3.811100
2499.000000	3.690800
2498.000000	3.689000
2497.000000	3.651200
2496.000000	3.612000
2495.000000	3.677100
2494.000000	3.665300
2493.000000	3.724700
2492.000000	3.628300
2491.000000	3.624200
2490.000000	3.584700
2489.000000	3.681500
2488.000000	3.732700
2487.000000	3.661700
2486.000000	3.626100
2485.000000	3.663500
2484.000000	3.657500
2483.000000	3.644300
2482.000000	3.613200
2481.000000	3.568800
2480.000000	3.646000
2479.000000	3.631200
2478.000000	3.651900
2477.000000	3.585500
2476.000000	3.574400
2475.000000	3.637400
2474.000000	3.597900
2473.000000	3.615300
2472.000000	3.615400
2471.000000	3.620500
2470.000000	3.622300
2469.000000	3.575300
2468.000000	3.595400
2467.000000	3.589800
2466.000000	3.611700
2465.000000	3.603900
2464.000000	3.600100
2463.000000	3.634500
2462.000000	3.647900
2461.000000	3.649800
2460.000000	3.642500
2459.000000	3.655000
2458.000000	3.649400
2457.000000	3.636200
2456.000000	3.667400
2455.000000	3.656900
2454.000000	3.686200
2453.000000	3.693100
2452.000000	3.706700
2451.000000	3.686000
2450.000000	3.707400
2449.000000	3.720700
2448.000000	3.727100
2447.000000	3.737800
2446.000000	3.737400
2445.000000	3.749000
2444.000000	3.761600
2443.000000	3.774500
2442.000000	3.772300
2441.000000	3.786500
2440.000000	3.793900
2439.000000	3.793700
2438.000000	3.808100
2437.000000	3.833500
2436.000000	3.825700
2435.000000	3.834500
2434.000000	3.853500
2433.000000	3.861300
2432.000000	3.873800
2431.000000	3.901200
2430.000000	3.896300
2429.000000	3.890300
2428.000000	3.912200
2427.000000	3.925000
2426.000000	3.927200
2425.000000	3.941100
2424.000000	3.950800
2423.000000	3.950600
2422.000000	3.956100
2421.000000	3.977400
2420.000000	3.995200
2419.000000	4.007200
2418.000000	4.002700
2417.000000	4.026900
2416.000000	4.024900
2415.000000	4.031300
2414.000000	4.031200
2413.000000	4.046100
2412.000000	4.063800
2411.000000	4.080400
2410.000000	4.088800
2409.000000	4.099900
2408.000000	4.087800
2407.000000	4.076000
2406.000000	4.109500
2405.000000	4.123700
2404.000000	4.126300
2403.000000	4.144200
2402.000000	4.158400
2401.000000	4.155700
2400.000000	4.175100
2399.000000	4.171800
2398.000000	4.170400
2397.000000	4.184600
2396.000000	4.199900
2395.000000	4.211000
2394.000000	4.226300
2393.000000	4.221300
2392.000000	4.223200
2391.000000	4.227900
2390.000000	4.240600
2389.000000	4.255300
2388.000000	4.237700
2387.000000	4.235300
2386.000000	4.260300
2385.000000	4.269900
2384.000000	4.264900
2383.000000	4.268100
2382.000000	4.270900
2381.000000	4.256400
2380.000000	4.272000
2379.000000	4.286300
2378.000000	4.285300
2377.000000	4.289600
2376.000000	4.283400
2375.000000	4.276200
2374.000000	4.279300
2373.000000	4.281800
2372.000000	4.282800
2371.000000	4.287200
2370.000000	4.281800
2369.000000	4.271700
2368.000000	4.269600
2367.000000	4.270800
2366.000000	4.267800
2365.000000	4.279000
2364.000000	4.274600
2363.000000	4.261000
2362.000000	4.260900
2361.000000	4.261700
2360.000000	4.247400
2359.000000	4.236800
2358.000000	4.230700
2357.000000	4.224000
2356.000000	4.220200
2355.000000	4.225500
2354.000000	4.226000
2353.000000	4.218500
2352.000000	4.218500
2351.000000	4.236500
2350.000000	4.242800
2349.000000	4.233600
2348.000000	4.221900
2347.000000	4.228400
2346.000000	4.230700
2345.000000	4.241200
2344.000000	4.247300
2343.000000	4.234900
2342.000000	4.229100
2341.000000	4.256200
2340.000000	4.254700
2339.000000	4.241500
2338.000000	4.235800
2337.000000	4.241800
2336.000000	4.243000
2335.000000	4.228400
2334.000000	4.215900
2333.000000	4.216000
2332.000000	4.223300
2331.000000	4.211700
2330.000000	4.214500
2329.000000	4.192600
2328.000000	4.180900
2327.000000	4.182900
2326.000000	4.164600
2325.000000	4.125200
2324.000000	4.115400
2323.000000	4.120900
2322.000000	4.110600
2321.000000	4.080700
2320.000000	4.082500
2319.000000	4.071300
2318.000000	4.063400
2317.000000	4.040500
2316.000000	4.025100
2315.000000	3.997500
2314.000000	3.991300
2313.000000	3.986800
2312.000000	3.973400
2311.000000	3.951600
2310.000000	3.928600
2309.000000	3.923900
2308.000000	3.925300
2307.000000	3.896900
2306.000000	3.889500
2305.000000	3.885200
2304.000000	3.885800
2303.000000	3.879400
2302.000000	3.870100
2301.000000	3.867400
2300.000000	3.840100
2299.000000	3.855700
2298.000000	3.837800
2297.000000	3.837400
2296.000000	3.848900
2295.000000	3.837200
2294.000000	3.831800
2293.000000	3.806200
2292.000000	3.811100
2291.000000	3.787000
2290.000000	3.781200
2289.000000	3.759100
2288.000000	3.749000
2287.000000	3.737300
2286.000000	3.719900
2285.000000	3.713300
2284.000000	3.684100
2283.000000	3.672200
2282.000000	3.664600
2281.000000	3.650100
2280.000000	3.623400
2279.000000	3.604200
2278.000000	3.592600
2277.000000	3.584200
2276.000000	3.563400
2275.000000	3.546000
2274.000000	3.504200
2273.000000	3.517600
2272.000000	3.498700
2271.000000	3.465400
2270.000000	3.459100
2269.000000	3.448700
2268.000000	3.419100
2267.000000	3.428900
2266.000000	3.415700
2265.000000	3.422400
2264.000000	3.398900
2263.000000	3.408700
2262.000000	3.384200
2261.000000	3.379900
2260.000000	3.382000
2259.000000	3.380600
2258.000000	3.385500
2257.000000	3.391400
2256.000000	3.402100
2255.000000	3.428900
2254.000000	3.413900
2253.000000	3.455800
2252.000000	3.440000
2251.000000	3.467400
2250.000000	3.470900
2249.000000	3.490400
2248.000000	3.474900
2247.000000	3.495700
2246.000000	3.505900
2245.000000	3.524300
2244.000000	3.533000
2243.000000	3.561600
2242.000000	3.580700
2241.000000	3.592700
2240.000000	3.565400
2239.000000	3.612200
2238.000000	3.615300
2237.000000	3.614300
2236.000000	3.618900
2235.000000	3.643700
2234.000000	3.662900
2233.000000	3.654000
2232.000000	3.644000
2231.000000	3.656600
2230.000000	3.661900
2229.000000	3.657800
2228.000000	3.625400
2227.000000	3.633100
2226.000000	3.610600
2225.000000	3.611900
2224.000000	3.611500
2223.000000	3.598900
2222.000000	3.556600
2221.000000	3.555400
2220.000000	3.528000
2219.000000	3.531300
2218.000000	3.481700
2217.000000	3.473200
2216.000000	3.503100
2215.000000	3.480000
2214.000000	3.449800
2213.000000	3.455400
2212.000000	3.441900
2211.000000	3.448800
2210.000000	3.460400
2209.000000	3.466300
2208.000000	3.503000
2207.000000	3.521900
2206.000000	3.554200
2205.000000	3.599700
2204.000000	3.628600
2203.000000	3.682900
2202.000000	3.730100
2201.000000	3.783100
2200.000000	3.848700
2199.000000	3.907700
2198.000000	3.979100
2197.000000	4.034300
2196.000000	4.095500
2195.000000	4.162500
2194.000000	4.238600
2193.000000	4.303600
2192.000000	4.354900
2191.000000	4.395500
2190.000000	4.432800
2189.000000	4.475700
2188.000000	4.540000
2187.000000	4.568000
2186.000000	4.593800
2185.000000	4.654100
2184.000000	4.689400
2183.000000	4.715400
2182.000000	4.737900
2181.000000	4.747100
2180.000000	4.759900
2179.000000	4.789700
2178.000000	4.817400
2177.000000	4.845000
2176.000000	4.856800
2175.000000	4.851800
2174.000000	4.864200
2173.000000	4.884900
2172.000000	4.918200
2171.000000	4.936600
2170.000000	4.940600
2169.000000	4.947600
2168.000000	4.984100
2167.000000	4.995300
2166.000000	5.003500
2165.000000	5.024200
2164.000000	5.030100
2163.000000	5.055600
2162.000000	5.064200
2161.000000	5.076500
2160.000000	5.086300
2159.000000	5.107000
2158.000000	5.117500
2157.000000	5.140600
2156.000000	5.152500
2155.000000	5.162600
2154.000000	5.171400
2153.000000	5.189300
2152.000000	5.203700
2151.000000	5.226700
2150.000000	5.238900
2149.000000	5.248400
2148.000000	5.251600
2147.000000	5.267900
2146.000000	5.290600
2145.000000	5.297000
2144.000000	5.310900
2143.000000	5.323900
2142.000000	5.336100
2141.000000	5.334700
2140.000000	5.340300
2139.000000	5.340100
2138.000000	5.360500
2137.000000	5.362300
2136.000000	5.363800
2135.000000	5.376300
2134.000000	5.376500
2133.000000	5.371400
2132.000000	5.373400
2131.000000	5.366900
2130.000000	5.366000
2129.000000	5.364400
2128.000000	5.365800
2127.000000	5.358800
2126.000000	5.356400
2125.000000	5.355500
2124.000000	5.346500
2123.000000	5.351800
2122.000000	5.342500
2121.000000	5.328800
2120.000000	5.319100
2119.000000	5.326200
2118.000000	5.316900
2117.000000	5.299000
2116.000000	5.289200
2115.000000	5.291900
2114.000000	5.291500
2113.000000	5.276400
2112.000000	5.270700
2111.000000	5.254100
2110.000000	5.247200
2109.000000	5.242900
2108.000000	5.228100
2107.000000	5.213100
2106.000000	5.203200
2105.000000	5.192000
2104.000000	5.181600
2103.000000	5.176400
2102.000000	5.172500
2101.000000	5.167200
2100.000000	5.153000
2099.000000	5.142900
2098.000000	5.127000
2097.000000	5.124200
2096.000000	5.138500
2095.000000	5.135900
2094.000000	5.123500
2093.000000	5.107800
2092.000000	5.098000
2091.000000	5.101000
2090.000000	5.091500
2089.000000	5.078600
2088.000000	5.071900
2087.000000	5.060500
2086.000000	5.044000
2085.000000	5.045200
2084.000000	5.049200
2083.000000	5.039500
2082.000000	5.046300
2081.000000	5.049200
2080.000000	5.033200
2079.000000	5.031800
2078.000000	5.031100
2077.000000	5.023800
2076.000000	5.010900
2075.000000	5.012500
2074.000000	5.019700
2073.000000	5.011400
2072.000000	5.006800
2071.000000	4.988400
2070.000000	4.973200
2069.000000	4.987800
2068.000000	4.993300
2067.000000	5.001400
2066.000000	4.990700
2065.000000	4.996800
2064.000000	4.987400
2063.000000	4.993400
2062.000000	4.985800
2061.000000	4.988900
2060.000000	4.985700
2059.000000	4.992100
2058.000000	4.997500
2057.000000	4.995000
2056.000000	4.993900
2055.000000	5.013800
2054.000000	5.036600
2053.000000	5.048100
2052.000000	5.061300
2051.000000	5.070900
2050.000000	5.089200
2049.000000	5.110300
2048.000000	5.130500
2047.000000	5.157700
2046.000000	5.187400
2045.000000	5.208900
2044.000000	5.243400
2043.000000	5.270600
2042.000000	5.307100
2041.000000	5.352000
2040.000000	5.385400
2039.000000	5.405900
2038.000000	5.442700
2037.000000	5.478400
2036.000000	5.486200
2035.000000	5.511800
2034.000000	5.546400
2033.000000	5.587300
2032.000000	5.619200
2031.000000	5.645100
2030.000000	5.684200
2029.000000	5.713500
2028.000000	5.745200
2027.000000	5.775700
2026.000000	5.798000
2025.000000	5.821100
2024.000000	5.836200
2023.000000	5.867500
2022.000000	5.904400
2021.000000	5.916000
2020.000000	5.937000
2019.000000	5.958300
2018.000000	5.976100
2017.000000	6.013000
2016.000000	6.023400
2015.000000	6.053300
2014.000000	6.078300
2013.000000	6.073800
2012.000000	6.103700
2011.000000	6.127300
2010.000000	6.127500
2009.000000	6.134600
2008.000000	6.143300
2007.000000	6.175000
2006.000000	6.178000
2005.000000	6.158700
2004.000000	6.164700
2003.000000	6.171900
2002.000000	6.188100
2001.000000	6.175400
2000.000000	6.161400
1999.000000	6.157300
1998.000000	6.160100
1997.000000	6.160500
1996.000000	6.154900
1995.000000	6.139300
1994.000000	6.132400
1993.000000	6.112100
1992.000000	6.098700
1991.000000	6.095800
1990.000000	6.070600
1989.000000	6.037800
1988.000000	6.036900
1987.000000	6.020900
1986.000000	6.022800
1985.000000	6.017700
1984.000000	5.984300
1983.000000	5.973600
1982.000000	5.942100
1981.000000	5.944000
1980.000000	5.903800
1979.000000	5.887900
1978.000000	5.869300
1977.000000	5.845600
1976.000000	5.825200
1975.000000	5.801300
1974.000000	5.785800
1973.000000	5.769400
1972.000000	5.742700
1971.000000	5.737800
1970.000000	5.723700
1969.000000	5.709400
1968.000000	5.677600
1967.000000	5.629800
1966.000000	5.651800
1965.000000	5.626700
1964.000000	5.613100
1963.000000	5.571400
1962.000000	5.549000
1961.000000	5.552500
1960.000000	5.535800
1959.000000	5.504100
1958.000000	5.490600
1957.000000	5.485400
1956.000000	5.472100
1955.000000	5.439100
1954.000000	5.440900
1953.000000	5.416000
1952.000000	5.377100
1951.000000	5.377800
1950.000000	5.367700
1949.000000	5.357600
1948.000000	5.316800
1947.000000	5.329700
1946.000000	5.292200
1945.000000	5.291400
1944.000000	5.291800
1943.000000	5.264800
1942.000000	5.265600
1941.000000	5.260400
1940.000000	5.238400
1939.000000	5.244200
1938.000000	5.220800
1937.000000	5.231700
1936.000000	5.243300
1935.000000	5.230900
1934.000000	5.236400
1933.000000	5.236300
1932.000000	5.247100
1931.000000	5.280000
1930.000000	5.260300
1929.000000	5.283700
1928.000000	5.296400
1927.000000	5.313500
1926.000000	5.330500
1925.000000	5.349500
1924.000000	5.391000
1923.000000	5.393000
1922.000000	5.419700
1921.000000	5.443800
1920.000000	5.488300
1919.000000	5.499100
1918.000000	5.548200
1917.000000	5.604200
1916.000000	5.632600
1915.000000	5.667400
1914.000000	5.736000
1913.000000	5.781700
1912.000000	5.827700
1911.000000	5.867100
1910.000000	5.939900
1909.000000	5.992000
1908.000000	6.065800
1907.000000	6.141200
1906.000000	6.214200
1905.000000	6.280100
1904.000000	6.336800
1903.000000	6.423300
1902.000000	6.517200
1901.000000	6.616400
1900.000000	6.690000
1899.000000	6.767000
1898.000000	6.850700
1897.000000	6.965300
1896.000000	7.044200
1895.000000	7.141900
1894.000000	7.240300
1893.000000	7.346200
1892.000000	7.441900
1891.000000	7.549000
1890.000000	7.667700
1889.000000	7.765300
1888.000000	7.904200
1887.000000	8.042800
1886.000000	8.182900
1885.000000	8.372000
1884.000000	8.577000
1883.000000	8.816500
1882.000000	9.085100
1881.000000	9.367800
1880.000000	9.643500
1879.000000	9.893400
1878.000000	10.176700
1877.000000	10.443500
1876.000000	10.702700
1875.000000	10.927200
1874.000000	11.139300
1873.000000	11.355200
1872.000000	11.545200
1871.000000	11.717200
1870.000000	11.866400
1869.000000	12.000500
1868.000000	12.116800
1867.000000	12.213200
1866.000000	12.280000
1865.000000	12.352000
1864.000000	12.397200
1863.000000	12.434100
1862.000000	12.466700
1861.000000	12.489100
1860.000000	12.509000
1859.000000	12.503000
1858.000000	12.483700
1857.000000	12.474100
1856.000000	12.455600
1855.000000	12.438700
1854.000000	12.386400
1853.000000	12.314900
1852.000000	12.255600
1851.000000	12.216700
1850.000000	12.177900
1849.000000	12.131000
1848.000000	12.050400
1847.000000	11.984900
1846.000000	11.923200
1845.000000	11.864900
1844.000000	11.826700
1843.000000	11.795900
1842.000000	11.788700
1841.000000	11.752300
1840.000000	11.697400
1839.000000	11.654700
1838.000000	11.612700
1837.000000	11.573600
1836.000000	11.517400
1835.000000	11.461600
1834.000000	11.401500
1833.000000	11.335700
1832.000000	11.275800
1831.000000	11.221700
1830.000000	11.160800
1829.000000	11.076900
1828.000000	11.002800
1827.000000	10.943700
1826.000000	10.873300
1825.000000	10.819500
1824.000000	10.781500
1823.000000	10.758700
1822.000000	10.736800
1821.000000	10.707800
1820.000000	10.666600
1819.000000	10.636900
1818.000000	10.611800
1817.000000	10.597100
1816.000000	10.603600
1815.000000	10.592800
1814.000000	10.571500
1813.000000	10.553600
1812.000000	10.545200
1811.000000	10.531300
1810.000000	10.501700
1809.000000	10.460200
1808.000000	10.418900
1807.000000	10.389100
1806.000000	10.337300
1805.000000	10.291300
1804.000000	10.251800
1803.000000	10.206500
1802.000000	10.168600
1801.000000	10.136100
1800.000000	10.095100
1799.000000	10.050500
1798.000000	10.003700
1797.000000	9.971100
1796.000000	9.941600
1795.000000	9.906800
1794.000000	9.851000
1793.000000	9.800700
1792.000000	9.772000
1791.000000	9.716500
1790.000000	9.667400
1789.000000	9.633100
1788.000000	9.566600
1787.000000	9.519700
1786.000000	9.462700
1785.000000	9.408500
1784.000000	9.329200
1783.000000	9.286800
1782.000000	9.239100
1781.000000	9.179900
1780.000000	9.122800
1779.000000	9.064500
1778.000000	8.992000
1777.000000	8.926900
1776.000000	8.862000
1775.000000	8.787400
1774.000000	8.703900
1773.000000	8.618100
1772.000000	8.536400
1771.000000	8.463800
1770.000000	8.393400
1769.000000	8.317400
1768.000000	8.248900
1767.000000	8.203900
1766.000000	8.157100
1765.000000	8.117800
1764.000000	8.090300
1763.000000	8.090900
1762.000000	8.104000
1761.000000	8.126500
1760.000000	8.163200
1759.000000	8.201200
1758.000000	8.250200
1757.000000	8.304300
1756.000000	8.344200
1755.000000	8.359000
1754.000000	8.388500
1753.000000	8.394200
1752.000000	8.397100
1751.000000	8.377400
1750.000000	8.343200
1749.000000	8.329700
1748.000000	8.310100
1747.000000	8.274000
1746.000000	8.221700
1745.000000	8.150300
1744.000000	8.065400
1743.000000	7.962700
1742.000000	7.885500
1741.000000	7.770900
1740.000000	7.645000
1739.000000	7.539100
1738.000000	7.451900
1737.000000	7.371700
1736.000000	7.310200
1735.000000	7.276200
1734.000000	7.273900
1733.000000	7.283800
1732.000000	7.302000
1731.000000	7.355400
1730.000000	7.385500
1729.000000	7.476400
1728.000000	7.536500
1727.000000	7.588500
1726.000000	7.652900
1725.000000	7.688000
1724.000000	7.704200
1723.000000	7.724000
1722.000000	7.732100
1721.000000	7.722500
1720.000000	7.724500
1719.000000	7.738000
1718.000000	7.730000
1717.000000	7.744900
1716.000000	7.768800
1715.000000	7.779900
1714.000000	7.807800
1713.000000	7.830800
1712.000000	7.839200
1711.000000	7.853000
1710.000000	7.862800
1709.000000	7.848500
1708.000000	7.807300
1707.000000	7.810700
1706.000000	7.789900
1705.000000	7.761800
1704.000000	7.727700
1703.000000	7.674000
1702.000000	7.619300
1701.000000	7.571400
1700.000000	7.475700
1699.000000	7.381300
1698.000000	7.342200
1697.000000	7.254200
1696.000000	7.207200
1695.000000	7.217500
1694.000000	7.237200
1693.000000	7.265300
1692.000000	7.312600
1691.000000	7.419600
1690.000000	7.457000
1689.000000	7.506800
1688.000000	7.561400
1687.000000	7.523600
1686.000000	7.516700
1685.000000	7.515100
1684.000000	7.538400
1683.000000	7.610000
1682.000000	7.751700
1681.000000	7.979700
1680.000000	8.247800
1679.000000	8.572300
1678.000000	8.900200
1677.000000	9.191800
1676.000000	9.488500
1675.000000	9.739000
1674.000000	9.956600
1673.000000	10.154000
1672.000000	10.309200
1671.000000	10.485700
1670.000000	10.575300
1669.000000	10.714300
1668.000000	10.819700
1667.000000	10.906000
1666.000000	10.973700
1665.000000	11.012700
1664.000000	11.072600
1663.000000	11.120800
1662.000000	11.151000
1661.000000	11.166300
1660.000000	11.202000
1659.000000	11.203400
1658.000000	11.220500
1657.000000	11.253500
1656.000000	11.260100
1655.000000	11.262800
1654.000000	11.240500
1653.000000	11.241700
1652.000000	11.252000
1651.000000	11.239000
1650.000000	11.203300
1649.000000	11.158200
1648.000000	11.134200
1647.000000	11.104200
1646.000000	11.078700
1645.000000	11.051400
1644.000000	11.012600
1643.000000	10.987800
1642.000000	10.954700
1641.000000	10.914900
1640.000000	10.883600
1639.000000	10.839500
1638.000000	10.802700
1637.000000	10.756100
1636.000000	10.727600
1635.000000	10.673200
1634.000000	10.655600
1633.000000	10.597100
1632.000000	10.550400
1631.000000	10.517500
1630.000000	10.493100
1629.000000	10.430200
1628.000000	10.383800
1627.000000	10.359500
1626.000000	10.302100
1625.000000	10.263500
1624.000000	10.221300
1623.000000	10.172400
1622.000000	10.118100
1621.000000	10.072500
1620.000000	10.028700
1619.000000	9.990000
1618.000000	9.946000
1617.000000	9.909800
1616.000000	9.865900
1615.000000	9.829900
1614.000000	9.792900
1613.000000	9.756400
1612.000000	9.717300
1611.000000	9.664900
1610.000000	9.626600
1609.000000	9.594500
1608.000000	9.571500
1607.000000	9.539300
1606.000000	9.506400
1605.000000	9.463000
1604.000000	9.420100
1603.000000	9.378000
1602.000000	9.359100
1601.000000	9.317100
1600.000000	9.272700
1599.000000	9.228500
1598.000000	9.190700
1597.000000	9.152200
1596.000000	9.121200
1595.000000	9.094200
1594.000000	9.055700
1593.000000	9.028700
1592.000000	9.011100
1591.000000	8.985700
1590.000000	8.935700
1589.000000	8.920000
1588.000000	8.902000
1587.000000	8.869900
1586.000000	8.843900
1585.000000	8.831800
1584.000000	8.816700
1583.000000	8.799000
1582.000000	8.785100
1581.000000	8.773400
1580.000000	8.772200
1579.000000	8.752400
1578.000000	8.737600
1577.000000	8.728400
1576.000000	8.728100
1575.000000	8.729500
1574.000000	8.725900
1573.000000	8.725500
1572.000000	8.729000
1571.000000	8.721100
1570.000000	8.727500
1569.000000	8.749200
1568.000000	8.757500
1567.000000	8.769100
1566.000000	8.777200
1565.000000	8.790100
1564.000000	8.815800
1563.000000	8.829100
1562.000000	8.845600
1561.000000	8.875500
1560.000000	8.889100
1559.000000	8.900200
1558.000000	8.914300
1557.000000	8.913000
1556.000000	8.926000
1555.000000	8.942400
1554.000000	8.958700
1553.000000	8.984700
1552.000000	9.010400
1551.000000	9.007000
1550.000000	9.004200
1549.000000	9.010500
1548.000000	9.020500
1547.000000	9.033100
1546.000000	9.032100
1545.000000	9.046000
1544.000000	9.062500
1543.000000	9.065600
1542.000000	9.087000
1541.000000	9.110600
1540.000000	9.125300
1539.000000	9.144400
1538.000000	9.156400
1537.000000	9.160900
1536.000000	9.157400
1535.000000	9.174800
1534.000000	9.193000
1533.000000	9.199400
1532.000000	9.209700
1531.000000	9.207700
1530.000000	9.231300
1529.000000	9.245400
1528.000000	9.233100
1527.000000	9.227400
1526.000000	9.229900
1525.000000	9.246000
1524.000000	9.256200
1523.000000	9.258800
1522.000000	9.248100
1521.000000	9.255200
1520.000000	9.251500
1519.000000	9.243700
1518.000000	9.232000
1517.000000	9.230700
1516.000000	9.232600
1515.000000	9.225900
1514.000000	9.203200
1513.000000	9.205800
1512.000000	9.200900
1511.000000	9.180700
1510.000000	9.175200
1509.000000	9.171600
1508.000000	9.181600
1507.000000	9.167300
1506.000000	9.159900
1505.000000	9.141100
1504.000000	9.132000
1503.000000	9.120400
1502.000000	9.101600
1501.000000	9.090700
1500.000000	9.078300
1499.000000	9.064700
1498.000000	9.057400
1497.000000	9.051200
1496.000000	9.054400
1495.000000	9.035500
1494.000000	9.019600
1493.000000	9.013600
1492.000000	9.026300
1491.000000	9.024700
1490.000000	9.030200
1489.000000	9.030000
1488.000000	9.029400
1487.000000	9.014900
1486.000000	9.018600
1485.000000	9.001400
1484.000000	9.024000
1483.000000	9.029200
1482.000000	9.029900
1481.000000	9.029800
1480.000000	9.032200
1479.000000	9.043900
1478.000000	9.065600
1477.000000	9.065000
1476.000000	9.070600
1475.000000	9.084600
1474.000000	9.111900
1473.000000	9.135600
1472.000000	9.142100
1471.000000	9.171600
1470.000000	9.176500
1469.000000	9.165200
1468.000000	9.205200
1467.000000	9.232900
1466.000000	9.268200
1465.000000	9.284800
1464.000000	9.310900
1463.000000	9.325900
1462.000000	9.361300
1461.000000	9.421700
1460.000000	9.469900
1459.000000	9.511000
1458.000000	9.571400
1457.000000	9.602800
1456.000000	9.643500
1455.000000	9.740000
1454.000000	9.757800
1453.000000	9.846500
1452.000000	9.904000
1451.000000	9.996800
1450.000000	10.039500
1449.000000	10.141600
1448.000000	10.185400
1447.000000	10.278200
1446.000000	10.365100
1445.000000	10.448000
1444.000000	10.536700
1443.000000	10.577000
1442.000000	10.695900
1441.000000	10.785700
1440.000000	10.863200
1439.000000	10.944300
1438.000000	11.047400
1437.000000	11.122400
1436.000000	11.190700
1435.000000	11.264500
1434.000000	11.385900
1433.000000	11.566400
1432.000000	11.658200
1431.000000	11.740200
1430.000000	11.823700
1429.000000	11.938800
1428.000000	12.042500
1427.000000	12.152300
1426.000000	12.262200
1425.000000	12.425100
1424.000000	12.570000
1423.000000	12.708900
1422.000000	12.802100
1421.000000	12.941300
1420.000000	13.093900
1419.000000	13.241800
1418.000000	13.351600
1417.000000	13.465600
1416.000000	13.608500
1415.000000	13.741900
1414.000000	13.888100
1413.000000	13.973400
1412.000000	14.084600
1411.000000	14.226300
1410.000000	14.374900
1409.000000	14.571400
1408.000000	14.783600
1407.000000	15.011700
1406.000000	15.245100
1405.000000	15.501800
1404.000000	15.720500
1403.000000	15.972700
1402.000000	16.217800
1401.000000	16.475000
1400.000000	16.678600
1399.000000	16.827700
1398.000000	16.924900
1397.000000	17.054500
1396.000000	17.151100
1395.000000	17.182400
1394.000000	17.187000
1393.000000	17.199500
1392.000000	17.228300
1391.000000	17.265700
1390.000000	17.309700
1389.000000	17.404300
1388.000000	17.546200
1387.000000	17.664700
1386.000000	17.870600
1385.000000	18.143200
1384.000000	18.459100
1383.000000	18.807700
1382.000000	19.141000
1381.000000	19.412400
1380.000000	19.597200
1379.000000	19.821800
1378.000000	20.059100
1377.000000	20.301200
1376.000000	20.598700
1375.000000	20.955900
1374.000000	21.422600
1373.000000	21.917200
1372.000000	22.445900
1371.000000	22.979000
1370.000000	23.440900
1369.000000	23.854300
1368.000000	24.242800
1367.000000	24.581100
1366.000000	24.861000
1365.000000	25.118200
1364.000000	25.366500
1363.000000	25.572000
1362.000000	25.745600
1361.000000	25.872600
1360.000000	25.955600
1359.000000	26.026700
1358.000000	26.151900
1357.000000	26.359700
1356.000000	26.701100
1355.000000	27.200000
1354.000000	27.860500
1353.000000	28.560000
1352.000000	29.300100
1351.000000	30.041900
1350.000000	30.727900
1349.000000	31.330900
1348.000000	31.915000
1347.000000	32.469400
1346.000000	32.936700
1345.000000	33.419100
1344.000000	33.890600
1343.000000	34.310100
1342.000000	34.705500
1341.000000	35.113100
1340.000000	35.509400
1339.000000	35.888400
1338.000000	36.231200
1337.000000	36.582400
1336.000000	36.921200
1335.000000	37.243800
1334.000000	37.547300
1333.000000	37.841200
1332.000000	38.131200
1331.000000	38.405100
1330.000000	38.665300
1329.000000	38.888200
1328.000000	39.113600
1327.000000	39.326600
1326.000000	39.538800
1325.000000	39.743300
1324.000000	39.919200
1323.000000	40.101100
1322.000000	40.266200
1321.000000	40.426600
1320.000000	40.569700
1319.000000	40.704000
1318.000000	40.842500
1317.000000	40.968400
1316.000000	41.081400
1315.000000	41.214600
1314.000000	41.332800
1313.000000	41.429300
1312.000000	41.517900
1311.000000	41.615100
1310.000000	41.701900
1309.000000	41.779000
1308.000000	41.849300
1307.000000	41.903600
1306.000000	41.946900
1305.000000	41.979300
1304.000000	42.009500
1303.000000	42.029000
1302.000000	42.030300
1301.000000	42.036500
1300.000000	42.043100
1299.000000	42.033600
1298.000000	42.018600
1297.000000	42.009100
1296.000000	42.001600
1295.000000	41.989700
1294.000000	41.971200
1293.000000	41.943500
1292.000000	41.911300
1291.000000	41.860400
1290.000000	41.813700
1289.000000	41.754900
1288.000000	41.671700
1287.000000	41.590900
1286.000000	41.512500
1285.000000	41.410800
1284.000000	41.299400
1283.000000	41.204300
1282.000000	41.100300
1281.000000	40.982600
1280.000000	40.870000
1279.000000	40.760300
1278.000000	40.650800
1277.000000	40.555400
1276.000000	40.462100
1275.000000	40.365200
1274.000000	40.279900
1273.000000	40.187500
1272.000000	40.101900
1271.000000	40.024500
1270.000000	39.932900
1269.000000	39.841600
1268.000000	39.757600
1267.000000	39.659200
1266.000000	39.567900
1265.000000	39.468800
1264.000000	39.372400
1263.000000	39.272400
1262.000000	39.159500
1261.000000	39.070600
1260.000000	38.989100
1259.000000	38.901200
1258.000000	38.811600
1257.000000	38.701100
1256.000000	38.590900
1255.000000	38.475100
1254.000000	38.353900
1253.000000	38.231500
1252.000000	38.121800
1251.000000	38.005300
1250.000000	37.892700
1249.000000	37.754600
1248.000000	37.607600
1247.000000	37.438200
1246.000000	37.270100
1245.000000	37.098800
1244.000000	36.908000
1243.000000	36.720000
1242.000000	36.524500
1241.000000	36.303800
1240.000000	36.079600
1239.000000	35.878900
1238.000000	35.661300
1237.000000	35.442100
1236.000000	35.202100
1235.000000	34.974400
1234.000000	34.735700
1233.000000	34.489100
1232.000000	34.248600
1231.000000	33.998800
1230.000000	33.753300
1229.000000	33.503900
1228.000000	33.261300
1227.000000	33.035200
1226.000000	32.782200
1225.000000	32.527700
1224.000000	32.308600
1223.000000	32.083600
1222.000000	31.859000
1221.000000	31.622300
1220.000000	31.409200
1219.000000	31.213500
1218.000000	31.024800
1217.000000	30.849300
1216.000000	30.686300
1215.000000	30.545900
1214.000000	30.409800
1213.000000	30.278100
1212.000000	30.130900
1211.000000	30.016400
1210.000000	29.897400
1209.000000	29.789900
1208.000000	29.703400
1207.000000	29.645900
1206.000000	29.600000
1205.000000	29.581700
1204.000000	29.553700
1203.000000	29.578600
1202.000000	29.568600
1201.000000	29.539100
1200.000000	29.478600
1199.000000	29.414500
1198.000000	29.299300
1197.000000	29.137900
1196.000000	28.908100
1195.000000	28.590700
1194.000000	28.170000
1193.000000	27.696100
1192.000000	27.117200
1191.000000	26.513900
1190.000000	25.950500
1189.000000	25.442700
1188.000000	25.069900
1187.000000	24.856300
1186.000000	24.783600
1185.000000	24.878100
1184.000000	25.119500
1183.000000	25.586800
1182.000000	26.134300
1181.000000	26.770200
1180.000000	27.438300
1179.000000	28.072700
1178.000000	28.648800
1177.000000	29.179000
1176.000000	29.629000
1175.000000	30.050800
1174.000000	30.467900
1173.000000	30.891000
1172.000000	31.374300
1171.000000	31.833300
1170.000000	32.323700
1169.000000	32.865300
1168.000000	33.384600
1167.000000	33.896800
1166.000000	34.404100
1165.000000	34.949100
1164.000000	35.502600
1163.000000	36.087700
1162.000000	36.668100
1161.000000	37.244100
1160.000000	37.750000
1159.000000	38.319800
1158.000000	38.821100
1157.000000	39.294800
1156.000000	39.716600
1155.000000	40.012600
1154.000000	40.235600
1153.000000	40.371900
1152.000000	40.427100
1151.000000	40.406600
1150.000000	40.399500
1149.000000	40.358800
1148.000000	40.350500
1147.000000	40.428400
1146.000000	40.583800
1145.000000	40.868800
1144.000000	41.308400
1143.000000	41.816500
1142.000000	42.371700
1141.000000	42.928300
1140.000000	43.536500
1139.000000	44.137800
1138.000000	44.769000
1137.000000	45.413200
1136.000000	46.084200
1135.000000	46.725600
1134.000000	47.354300
1133.000000	47.887700
1132.000000	48.407100
1131.000000	48.917400
1130.000000	49.377000
1129.000000	49.743200
1128.000000	50.058000
1127.000000	50.302100
1126.000000	50.488500
1125.000000	50.642100
1124.000000	50.795900
1123.000000	50.918500
1122.000000	51.050000
1121.000000	51.152600
1120.000000	51.251600
1119.000000	51.310900
1118.000000	51.365900
1117.000000	51.400500
1116.000000	51.413300
1115.000000	51.412400
1114.000000	51.406000
1113.000000	51.411500
1112.000000	51.415600
1111.000000	51.411900
1110.000000	51.411300
1109.000000	51.416400
1108.000000	51.411300
1107.000000	51.403200
1106.000000	51.386300
1105.000000	51.369400
1104.000000	51.363600
1103.000000	51.348800
1102.000000	51.331400
1101.000000	51.326300
1100.000000	51.308400
1099.000000	51.262300
1098.000000	51.231000
1097.000000	51.193100
1096.000000	51.148200
1095.000000	51.113600
1094.000000	51.059300
1093.000000	51.016800
1092.000000	50.990800
1091.000000	50.928100
1090.000000	50.862200
1089.000000	50.803900
1088.000000	50.761600
1087.000000	50.703900
1086.000000	50.652500
1085.000000	50.598600
1084.000000	50.538300
1083.000000	50.484400
1082.000000	50.431000
1081.000000	50.383200
1080.000000	50.343800
1079.000000	50.301000
1078.000000	50.247000
1077.000000	50.208500
1076.000000	50.160100
1075.000000	50.124700
1074.000000	50.084700
1073.000000	50.044100
1072.000000	50.004800
1071.000000	49.961000
1070.000000	49.905800
1069.000000	49.864200
1068.000000	49.817600
1067.000000	49.766600
1066.000000	49.718100
1065.000000	49.675700
1064.000000	49.613100
1063.000000	49.550100
1062.000000	49.498800
1061.000000	49.433600
1060.000000	49.352700
1059.000000	49.285300
1058.000000	49.206300
1057.000000	49.119400
1056.000000	49.023600
1055.000000	48.948800
1054.000000	48.861500
1053.000000	48.785300
1052.000000	48.701800
1051.000000	48.627900
1050.000000	48.568800
1049.000000	48.519900
1048.000000	48.463700
1047.000000	48.405000
1046.000000	48.361900
1045.000000	48.324600
1044.000000	48.265800
1043.000000	48.217700
1042.000000	48.187200
1041.000000	48.163300
1040.000000	48.128000
1039.000000	48.083500
1038.000000	48.043500
1037.000000	48.004700
1036.000000	47.970900
1035.000000	47.932400
1034.000000	47.897200
1033.000000	47.853400
1032.000000	47.801300
1031.000000	47.758700
1030.000000	47.711700
1029.000000	47.672800
1028.000000	47.627900
1027.000000	47.575400
1026.000000	47.515000
1025.000000	47.452100
1024.000000	47.405000
1023.000000	47.352000
1022.000000	47.301500
1021.000000	47.253100
1020.000000	47.195100
1019.000000	47.156500
1018.000000	47.127300
1017.000000	47.097500
1016.000000	47.070700
1015.000000	47.046900
1014.000000	47.036500
1013.000000	47.045800
1012.000000	47.074900
1011.000000	47.115500
1010.000000	47.173400
1009.000000	47.240200
1008.000000	47.316200
1007.000000	47.383600
1006.000000	47.444900
1005.000000	47.531000
1004.000000	47.607200
1003.000000	47.672300
1002.000000	47.729100
1001.000000	47.795100
1000.000000	47.873600
999.000000	47.941200
998.000000	47.997600
997.000000	48.070000
996.000000	48.153200
995.000000	48.211200
994.000000	48.299600
993.000000	48.378300
992.000000	48.458400
991.000000	48.534000
990.000000	48.603700
989.000000	48.690000
988.000000	48.786600
987.000000	48.869300
986.000000	48.950800
985.000000	49.054500
984.000000	49.148800
983.000000	49.238600
982.000000	49.353000
981.000000	49.439000
980.000000	49.538300
979.000000	49.622300
978.000000	49.694300
977.000000	49.761600
976.000000	49.827900
975.000000	49.906100
974.000000	49.956100
973.000000	50.029800
972.000000	50.111900
971.000000	50.193800
970.000000	50.255200
969.000000	50.354900
968.000000	50.457000
967.000000	50.552400
966.000000	50.656900
965.000000	50.744300
964.000000	50.858700
963.000000	50.983300
962.000000	51.125700
961.000000	51.254400
960.000000	51.413000
959.000000	51.560000
958.000000	51.701400
957.000000	51.832000
956.000000	51.945900
955.000000	52.072900
954.000000	52.176200
953.000000	52.272100
952.000000	52.392900
951.000000	52.474200
950.000000	52.563300
949.000000	52.658800
948.000000	52.750800
947.000000	52.844100
946.000000	52.925000
945.000000	53.003400
944.000000	53.074700
943.000000	53.137300
942.000000	53.205300
941.000000	53.265200
940.000000	53.359200
939.000000	53.434000
938.000000	53.491800
937.000000	53.535900
936.000000	53.597300
935.000000	53.672200
934.000000	53.726500
933.000000	53.782000
932.000000	53.856600
931.000000	53.933900
930.000000	53.979600
929.000000	54.053600
928.000000	54.116000
927.000000	54.180900
926.000000	54.261900
925.000000	54.304600
924.000000	54.415800
923.000000	54.449500
922.000000	54.513700
921.000000	54.576700
920.000000	54.655400
919.000000	54.705600
918.000000	54.782500
917.000000	54.870200
916.000000	54.906500
915.000000	54.950300
914.000000	54.992400
913.000000	55.052800
912.000000	55.134600
911.000000	55.214700
910.000000	55.282800
909.000000	55.392600
908.000000	55.490800
907.000000	55.664600
906.000000	55.766100
905.000000	55.917600
904.000000	56.094000
903.000000	56.249400
902.000000	56.429800
901.000000	56.604100
900.000000	56.805000
899.000000	56.977300
898.000000	57.161700
897.000000	57.325100
896.000000	57.519200
895.000000	57.686800
894.000000	57.842500
893.000000	57.973200
892.000000	58.092900
891.000000	58.246600
890.000000	58.334000
889.000000	58.425900
888.000000	58.544600
887.000000	58.642900
886.000000	58.707000
885.000000	58.764000
884.000000	58.800000
883.000000	58.863800
882.000000	58.886900
881.000000	58.940400
880.000000	58.946800
879.000000	58.990300
878.000000	59.016100
877.000000	59.012600
876.000000	59.059500
875.000000	59.089100
874.000000	59.122200
873.000000	59.156400
872.000000	59.218800
871.000000	59.265900
870.000000	59.317900
869.000000	59.357300
868.000000	59.453100
867.000000	59.519800
866.000000	59.601900
865.000000	59.660000
864.000000	59.736200
863.000000	59.788100
862.000000	59.844300
861.000000	59.842400
860.000000	59.838700
859.000000	59.831000
858.000000	57.861900
857.000000	58.669895
856.000000	58.858656
855.000000	58.505827
854.000000	58.940738
853.000000	59.034588
852.000000	59.024267
851.000000	58.958293
850.000000	58.878525
849.000000	59.180330
848.000000	59.623729
847.000000	59.514350
846.000000	59.478759
845.000000	59.497374
844.000000	59.447797
843.000000	59.338225
842.000000	59.305045
841.000000	59.311797
840.000000	59.319802
839.000000	59.048284
838.000000	59.034781
837.000000	58.836085
836.000000	58.771944
835.000000	58.721016
834.000000	58.782939
833.000000	58.654270
832.000000	58.603342
831.000000	58.611444
830.000000	58.485764
829.000000	58.479591
828.000000	58.604789
827.000000	58.468499
826.000000	58.628516
825.000000	58.870809
824.000000	58.956267
823.000000	58.917878
822.000000	58.936205
821.000000	59.104806
820.000000	59.335331
819.000000	59.470656
818.000000	59.580903
817.000000	59.561420
816.000000	59.649868
815.000000	59.714396
814.000000	59.907883
813.000000	60.112462
812.000000	60.176796
811.000000	60.281160
810.000000	60.307974
809.000000	60.441756
808.000000	60.601966
807.000000	60.739606
806.000000	60.826318
805.000000	60.912162
804.000000	61.040349
803.000000	61.298460
802.000000	61.488089
801.000000	61.637110
800.000000	61.803108
799.000000	62.014921
798.000000	62.278240
797.000000	62.538377
796.000000	62.776811
795.000000	63.071575
794.000000	63.359393
793.000000	63.550662
792.000000	63.748778
791.000000	63.998112
790.000000	64.103633
789.000000	64.229312
788.000000	64.269341
787.000000	64.375344
786.000000	64.480864
785.000000	64.505942
784.000000	64.488581
783.000000	64.490510
782.000000	64.461670
781.000000	64.398492
780.000000	64.386339
779.000000	64.241080
778.000000	64.029363
777.000000	63.928665
776.000000	63.847644
775.000000	63.856132
774.000000	63.792375
773.000000	63.777329
772.000000	63.861051
771.000000	63.933295
770.000000	63.886418
769.000000	63.976506
768.000000	64.189670
767.000000	64.377658
766.000000	64.522339
765.000000	64.672325
764.000000	64.910470
763.000000	65.188162
762.000000	65.418012
761.000000	65.661076
760.000000	65.853598
759.000000	66.055380
758.000000	66.216265
757.000000	66.359403
756.000000	66.527811
755.000000	66.647318
754.000000	66.737020
753.000000	66.837815
752.000000	66.870513
751.000000	66.882376
750.000000	66.917679
749.000000	66.926745
748.000000	66.981242
747.000000	66.983074
746.000000	66.864436
745.000000	66.742615
744.000000	66.672782
743.000000	66.565236
742.000000	66.475919
741.000000	66.328152
740.000000	66.224174
739.000000	66.116917
738.000000	65.972140
737.000000	65.888996
736.000000	65.850222
735.000000	65.813569
734.000000	65.719720
733.000000	65.661076
732.000000	65.596644
731.000000	65.553529
730.000000	65.492860
729.000000	65.450613
728.000000	65.388593
727.000000	65.296094
726.000000	65.160286
725.000000	65.013290
724.000000	64.897835
723.000000	64.762414
722.000000	64.532756
721.000000	64.342935
720.000000	64.150799
719.000000	63.833561
718.000000	63.585096
717.000000	63.283966
716.000000	62.977435
715.000000	62.765912
714.000000	62.493333
713.000000	62.140793
712.000000	61.835323
711.000000	61.603834
710.000000	61.324117
709.000000	61.052502
708.000000	60.764201
707.000000	60.539464
706.000000	60.378096
705.000000	60.247690
704.000000	60.134357
703.000000	59.983117
702.000000	59.893897
701.000000	59.887820
700.000000	59.864671
699.000000	59.902771
698.000000	59.907786
697.000000	59.931321
696.000000	59.958135
695.000000	60.035588
694.000000	60.034334
693.000000	60.050056
692.000000	60.062016
691.000000	60.089698
690.000000	60.090566
689.000000	60.026328
688.000000	60.008388
687.000000	59.990640
686.000000	59.968938
685.000000	59.962186
684.000000	59.931514
683.000000	59.917721
682.000000	59.908365
681.000000	59.866890
680.000000	59.814419
679.000000	59.771882
678.000000	59.721051
677.000000	59.683916
676.000000	59.552353
675.000000	59.371695
674.000000	59.246883
673.000000	59.062945
672.000000	58.815251
671.000000	58.591671
670.000000	58.292181
669.000000	57.972050
668.000000	57.661275
667.000000	57.323783
666.000000	56.949541
665.000000	56.504020
664.000000	56.011140
663.000000	55.516427
662.000000	54.951110
661.000000	54.319433
660.000000	53.716885
659.000000	53.023959
658.000000	52.290330
657.000000	51.528729
656.000000	50.706265
655.000000	49.947751
654.000000	49.145350
653.000000	48.339862
652.000000	47.585013
651.000000	46.883407
650.000000	46.240348
649.000000	45.645226
648.000000	45.189095
647.000000	44.822377
646.000000	44.531472
645.000000	44.403381
644.000000	44.374155
643.000000	44.437815
642.000000	44.653968
641.000000	44.994837
640.000000	45.449618
639.000000	46.016574
638.000000	46.721943
637.000000	47.515180
636.000000	48.356452
635.000000	49.309708
634.000000	50.356619
633.000000	51.457160
632.000000	52.555096
631.000000	53.664317
630.000000	54.794565
629.000000	55.950374
628.000000	57.037025
627.000000	58.093968
626.000000	59.102491
625.000000	60.067610
624.000000	60.941677
623.000000	61.823459
622.000000	62.616794
621.000000	63.308562
620.000000	64.009397
619.000000	64.650045
618.000000	65.208224
617.000000	65.728979
616.000000	66.223017
615.000000	66.659761
614.000000	67.041236
613.000000	67.437180
612.000000	67.748437
611.000000	68.042429
610.000000	68.352239
609.000000	68.561641
608.000000	68.807309
607.000000	68.969834
606.000000	69.225148
605.000000	69.369829
604.000000	69.531776
603.000000	69.649257
602.000000	69.793069
601.000000	69.912287
600.000000	70.018193
599.000000	70.069410
598.000000	70.186891
597.000000	70.240809
596.000000	70.262029
595.000000	70.298778
594.000000	70.278619
593.000000	70.310449
592.000000	70.258557
591.000000	70.199044
590.000000	70.113972
589.000000	70.045200
588.000000	69.942187
587.000000	69.844479
586.000000	69.697001
585.000000	69.541325
584.000000	69.435129
583.000000	69.299418
582.000000	69.210487
581.000000	69.073908
580.000000	68.873766
579.000000	68.787729
578.000000	68.611797
577.000000	68.444064
576.000000	68.307870
575.000000	68.110333
574.000000	67.937776
573.000000	67.682559
572.000000	67.465634
571.000000	67.214178
570.000000	66.925009
569.000000	66.625230
568.000000	66.246262
567.000000	65.895652
566.000000	65.466914
565.000000	65.089103
564.000000	64.645222
563.000000	64.221306
562.000000	63.740387
561.000000	63.286474
560.000000	62.773917
559.000000	62.044050
558.000000	61.551845
557.000000	61.026846
556.000000	60.510720
555.000000	59.957171
554.000000	59.394361
553.000000	58.817952
552.000000	58.244437
551.000000	57.625877
550.000000	57.005485
549.000000	56.346414
548.000000	55.655707
547.000000	54.969533
546.000000	54.218928
545.000000	53.442280
544.000000	52.613161
543.000000	51.751634
542.000000	50.826543
541.000000	49.893737
540.000000	48.912510
539.000000	47.947970
538.000000	46.902408
537.000000	45.836977
536.000000	44.717146
535.000000	43.606478
534.000000	42.414017
533.000000	41.247405
532.000000	40.041826
531.000000	38.838948
530.000000	37.670794
529.000000	36.520386
528.000000	35.385798
527.000000	34.320656
526.000000	33.345795
525.000000	32.426878
524.000000	31.567279
523.000000	30.802206
522.000000	30.115646
521.000000	29.514641
520.000000	28.991185
519.000000	28.538913
518.000000	28.155315
517.000000	27.841068
516.000000	27.557204
515.000000	27.346066
514.000000	27.180165
513.000000	27.044936
512.000000	26.930542
511.000000	26.823864
510.000000	26.724612
509.000000	26.634621
508.000000	26.524760
507.000000	26.398791
506.000000	26.239352
505.000000	26.048084
504.000000	25.835113
503.000000	25.607193
502.000000	25.351396
501.000000	25.068883
500.000000	24.776048
499.000000	24.462766
498.000000	24.113023
497.000000	23.780257
496.000000	23.414021
495.000000	23.057238
494.000000	22.720517
493.000000	22.375983
492.000000	22.048425
491.000000	21.750189
490.000000	21.488027
489.000000	21.244866
488.000000	21.052248
487.000000	20.897150
486.000000	20.753723
485.000000	20.658812
484.000000	20.593995
483.000000	20.539980
482.000000	20.517121
481.000000	20.500627
480.000000	20.513841
479.000000	20.527731
478.000000	20.543260
477.000000	20.567952
476.000000	20.609717
475.000000	20.662766
474.000000	20.699901
473.000000	20.739255
472.000000	20.778801
471.000000	20.795680
470.000000	20.800406
469.000000	20.797127
468.000000	20.791629
467.000000	20.776968
466.000000	20.740605
465.000000	20.692764
464.000000	20.639232
463.000000	20.584928
462.000000	20.509115
461.000000	20.414976
460.000000	20.301546
459.000000	20.170176
458.000000	20.051248
457.000000	19.914862
456.000000	19.758606
455.000000	19.615276
454.000000	19.446674
453.000000	19.261000
452.000000	19.076677
451.000000	18.866407
450.000000	18.659224
449.000000	18.436511
448.000000	18.195858
447.000000	17.957713
446.000000	17.715421
445.000000	17.448726
444.000000	17.163993
443.000000	16.890450
442.000000	16.589417
441.000000	16.274205
440.000000	15.961019
439.000000	15.636837
438.000000	15.304360
437.000000	14.958283
436.000000	14.604104
435.000000	14.236131
434.000000	13.863915
433.000000	13.491699
432.000000	13.134144
431.000000	12.773503
430.000000	12.389326
429.000000	12.026948
428.000000	11.674891
427.000000	11.316468
426.000000	10.950907
425.000000	10.602901
424.000000	10.264058
423.000000	9.929459
422.000000	9.603445
421.000000	9.298071
420.000000	9.010928
419.000000	8.716936
418.000000	8.446961
417.000000	8.197531
416.000000	7.961604
415.000000	7.736095
414.000000	7.514540
413.000000	7.308804
412.000000	7.133643
411.000000	6.978545
410.000000	6.812451
409.000000	6.662754
408.000000	6.541705
407.000000	6.418919
406.000000	6.306646
405.000000	6.203055
404.000000	6.112098
403.000000	6.022782
402.000000	5.954396
401.000000	5.885914
400.000000	5.813284
399.000000	5.761777
398.000000	5.710175
397.000000	5.649216
396.000000	5.601857
395.000000	5.553630
394.000000	5.516398
393.000000	5.472608
392.000000	5.444733
391.000000	5.405766
390.000000	5.366798
389.000000	5.333232
388.000000	5.302560
387.000000	5.271019
386.000000	5.251922
385.000000	5.225011
384.000000	5.179002
383.000000	5.153731
382.000000	5.126435
381.000000	5.112256
380.000000	5.103382
379.000000	5.068080
378.000000	5.052455
377.000000	5.028341
376.000000	5.063643
375.000000	5.057181
374.000000	5.051297
373.000000	5.057277
372.000000	4.998344
371.000000	4.952528
370.000000	4.958219
369.000000	4.935070
368.000000	4.929765
367.000000	4.899382
366.000000	4.891666
365.000000	4.894752
364.000000	4.910378
363.000000	4.865237
362.000000	4.847683
361.000000	4.804857
360.000000	4.776789
359.000000	4.777657
358.000000	4.743898
357.000000	4.780551
356.000000	4.786434
355.000000	4.716505
354.000000	4.715348
353.000000	4.678599
352.000000	4.718241
351.000000	4.726247
350.000000	4.679370
349.000000	4.693163
348.000000	4.648505
347.000000	4.657475
346.000000	4.676284
345.000000	4.601436
344.000000	4.633362
343.000000	4.694707
342.000000	4.683711
341.000000	4.709078
340.000000	4.666253
339.000000	4.626707
338.000000	4.644936
337.000000	4.671075
336.000000	4.669146
335.000000	4.719206
334.000000	4.694128
333.000000	4.651302
332.000000	4.697793
331.000000	4.749493
330.000000	4.745345
329.000000	4.644647
328.000000	4.606451
327.000000	4.692102
326.000000	4.690752
325.000000	4.685351
324.000000	4.668857
323.000000	4.737436
322.000000	4.758077
321.000000	4.725090
320.000000	4.658633
319.000000	4.776789
318.000000	4.785952
317.000000	4.604715
316.000000	4.661141
315.000000	4.622752
314.000000	4.662105
313.000000	4.661623
312.000000	4.715348
311.000000	4.652074
310.000000	4.659019
309.000000	4.685736
308.000000	4.653231
307.000000	4.669629
306.000000	4.674741
305.000000	4.678792
304.000000	4.696539
303.000000	4.716505
302.000000	4.691427
301.000000	4.732710
300.000000	4.688437
299.000000	4.710429
298.000000	4.706667
297.000000	4.704256
296.000000	4.727983
295.000000	4.710525
294.000000	4.713515
293.000000	4.750264
292.000000	4.740136
291.000000	4.751325
290.000000	4.717566
289.000000	4.742162
288.000000	4.745924
287.000000	4.769844
286.000000	4.745056
285.000000	4.790582
284.000000	4.810548
283.000000	4.811320
282.000000	4.803989
281.000000	4.804471
280.000000	4.818168
279.000000	4.835144
278.000000	4.820000
277.000000	4.829356
276.000000	4.877391
275.000000	4.850480
274.000000	4.885975
273.000000	4.849322
272.000000	4.911921
271.000000	4.875944
270.000000	4.921181
269.000000	4.934395
268.000000	4.967093
267.000000	4.948574
266.000000	4.958315
265.000000	4.994293
264.000000	4.982911
263.000000	5.015127
262.000000	5.033743
261.000000	5.041845
260.000000	5.088432
259.000000	5.071456
258.000000	5.086985
257.000000	5.103575
256.000000	5.084092
255.000000	5.100199
254.000000	5.119780
253.000000	5.129039
252.000000	5.150741
251.000000	5.140903
250.000000	5.146304
