PE UV       SUBTECH     SPECTRUM    ASCII       PEDS        4.00        
   -1
CICIMAUCR0021-1.Sample.ASC
24/03/08
13:20:54.00
24/03/08
13:20:54.00
Vinicio Soto Monge
C. resplendens. 
250,000000
1
Lambda 1050
1050L1511233
PerkinElmer UV WinLab 6.3.2.0749 / 2.02.05 Lambda 900 UV/VIS/NIR, Aug  7 2015 09:38:08

0
0
3350/servo 860,8/2
0
0
UV/VIS
1
1
1
DoubleDePol,CommonBeamDepol,RBeamAtt,SBeamAtt,60mm sphere, WB InGaAs Detector
0
0
0
0
Program
Program
3350/servo 860,8/2
3350/0,2 860,8/0,2
3350/0,2 860,8/0,2
0
15.00
 
 
 
0
 
860,8
319,2
860,8
Front
100
on
S:100 R:100
0
0
0
0
 
0
 
 
 
0
 
 
0
0
0
0
0
 
 
 
 
0
0


0
0
#HDR
-1
-1
#GR
nm
%R
1.0
0.0
2500,000000
-1,000000
2251
8
31,927300
2,181000
#DATA
2500.000000	2.356500
2499.000000	2.275700
2498.000000	2.202900
2497.000000	2.386900
2496.000000	2.352000
2495.000000	2.370200
2494.000000	2.358900
2493.000000	2.285100
2492.000000	2.192400
2491.000000	2.230200
2490.000000	2.194700
2489.000000	2.240300
2488.000000	2.254500
2487.000000	2.248100
2486.000000	2.261100
2485.000000	2.193600
2484.000000	2.200400
2483.000000	2.198000
2482.000000	2.193000
2481.000000	2.223500
2480.000000	2.181000
2479.000000	2.225100
2478.000000	2.194400
2477.000000	2.238500
2476.000000	2.181500
2475.000000	2.194300
2474.000000	2.189400
2473.000000	2.256800
2472.000000	2.190800
2471.000000	2.196800
2470.000000	2.229400
2469.000000	2.213700
2468.000000	2.236500
2467.000000	2.257000
2466.000000	2.188200
2465.000000	2.215800
2464.000000	2.233300
2463.000000	2.261000
2462.000000	2.289200
2461.000000	2.269900
2460.000000	2.288100
2459.000000	2.300100
2458.000000	2.310300
2457.000000	2.327500
2456.000000	2.328900
2455.000000	2.341300
2454.000000	2.359100
2453.000000	2.358200
2452.000000	2.392400
2451.000000	2.407600
2450.000000	2.460600
2449.000000	2.480800
2448.000000	2.483900
2447.000000	2.509000
2446.000000	2.518100
2445.000000	2.534600
2444.000000	2.570900
2443.000000	2.587200
2442.000000	2.608900
2441.000000	2.602200
2440.000000	2.632900
2439.000000	2.654900
2438.000000	2.680900
2437.000000	2.706300
2436.000000	2.708500
2435.000000	2.739300
2434.000000	2.747500
2433.000000	2.764500
2432.000000	2.797400
2431.000000	2.807500
2430.000000	2.816000
2429.000000	2.822900
2428.000000	2.844100
2427.000000	2.855900
2426.000000	2.872600
2425.000000	2.889800
2424.000000	2.920700
2423.000000	2.959100
2422.000000	3.002800
2421.000000	3.006700
2420.000000	3.044800
2419.000000	3.055200
2418.000000	3.066700
2417.000000	3.072300
2416.000000	3.084300
2415.000000	3.101400
2414.000000	3.118100
2413.000000	3.151100
2412.000000	3.163200
2411.000000	3.188800
2410.000000	3.181700
2409.000000	3.178000
2408.000000	3.217600
2407.000000	3.241500
2406.000000	3.232600
2405.000000	3.246800
2404.000000	3.265700
2403.000000	3.268500
2402.000000	3.290500
2401.000000	3.320900
2400.000000	3.313200
2399.000000	3.330300
2398.000000	3.345100
2397.000000	3.354800
2396.000000	3.364100
2395.000000	3.398700
2394.000000	3.426400
2393.000000	3.433400
2392.000000	3.443000
2391.000000	3.439200
2390.000000	3.453300
2389.000000	3.465800
2388.000000	3.479600
2387.000000	3.495200
2386.000000	3.501500
2385.000000	3.492500
2384.000000	3.506800
2383.000000	3.510700
2382.000000	3.506000
2381.000000	3.505500
2380.000000	3.517100
2379.000000	3.535400
2378.000000	3.527900
2377.000000	3.499900
2376.000000	3.494800
2375.000000	3.509000
2374.000000	3.494900
2373.000000	3.486500
2372.000000	3.501700
2371.000000	3.502900
2370.000000	3.485500
2369.000000	3.467600
2368.000000	3.459500
2367.000000	3.446900
2366.000000	3.440700
2365.000000	3.439000
2364.000000	3.410100
2363.000000	3.380200
2362.000000	3.355900
2361.000000	3.350600
2360.000000	3.334400
2359.000000	3.302200
2358.000000	3.288700
2357.000000	3.279600
2356.000000	3.263600
2355.000000	3.249400
2354.000000	3.228100
2353.000000	3.232700
2352.000000	3.233600
2351.000000	3.226300
2350.000000	3.239400
2349.000000	3.254700
2348.000000	3.274700
2347.000000	3.274200
2346.000000	3.282800
2345.000000	3.308400
2344.000000	3.332200
2343.000000	3.354600
2342.000000	3.351900
2341.000000	3.373000
2340.000000	3.401800
2339.000000	3.418100
2338.000000	3.430800
2337.000000	3.420100
2336.000000	3.416000
2335.000000	3.411600
2334.000000	3.405000
2333.000000	3.395700
2332.000000	3.394200
2331.000000	3.382200
2330.000000	3.367000
2329.000000	3.337900
2328.000000	3.336700
2327.000000	3.326800
2326.000000	3.280500
2325.000000	3.254400
2324.000000	3.246900
2323.000000	3.206600
2322.000000	3.172900
2321.000000	3.141100
2320.000000	3.115800
2319.000000	3.075200
2318.000000	3.035600
2317.000000	3.028200
2316.000000	2.993800
2315.000000	2.944100
2314.000000	2.903300
2313.000000	2.877700
2312.000000	2.837900
2311.000000	2.809900
2310.000000	2.794300
2309.000000	2.787500
2308.000000	2.778300
2307.000000	2.753400
2306.000000	2.751300
2305.000000	2.740900
2304.000000	2.753800
2303.000000	2.773600
2302.000000	2.790600
2301.000000	2.803500
2300.000000	2.821600
2299.000000	2.844200
2298.000000	2.863700
2297.000000	2.899200
2296.000000	2.906000
2295.000000	2.923800
2294.000000	2.934600
2293.000000	2.964600
2292.000000	2.980000
2291.000000	2.982700
2290.000000	2.983200
2289.000000	2.971900
2288.000000	2.967000
2287.000000	2.959600
2286.000000	2.938600
2285.000000	2.913600
2284.000000	2.917600
2283.000000	2.890300
2282.000000	2.875400
2281.000000	2.848800
2280.000000	2.835000
2279.000000	2.810600
2278.000000	2.778000
2277.000000	2.768300
2276.000000	2.769600
2275.000000	2.728600
2274.000000	2.706800
2273.000000	2.710400
2272.000000	2.702400
2271.000000	2.702100
2270.000000	2.698300
2269.000000	2.703700
2268.000000	2.712800
2267.000000	2.699700
2266.000000	2.724600
2265.000000	2.750200
2264.000000	2.774500
2263.000000	2.811600
2262.000000	2.844800
2261.000000	2.900100
2260.000000	2.953500
2259.000000	3.022900
2258.000000	3.077600
2257.000000	3.134900
2256.000000	3.178900
2255.000000	3.255600
2254.000000	3.316500
2253.000000	3.377000
2252.000000	3.426300
2251.000000	3.498000
2250.000000	3.552600
2249.000000	3.602900
2248.000000	3.666400
2247.000000	3.682700
2246.000000	3.746200
2245.000000	3.793000
2244.000000	3.808600
2243.000000	3.830500
2242.000000	3.882000
2241.000000	3.939100
2240.000000	3.951400
2239.000000	3.991100
2238.000000	3.999500
2237.000000	4.025800
2236.000000	4.045400
2235.000000	4.079800
2234.000000	4.084500
2233.000000	4.094700
2232.000000	4.117800
2231.000000	4.114700
2230.000000	4.130900
2229.000000	4.123800
2228.000000	4.123400
2227.000000	4.118200
2226.000000	4.097300
2225.000000	4.103600
2224.000000	4.063700
2223.000000	4.036500
2222.000000	4.013400
2221.000000	3.987800
2220.000000	3.978200
2219.000000	3.974800
2218.000000	3.935400
2217.000000	3.922000
2216.000000	3.864800
2215.000000	3.868800
2214.000000	3.839500
2213.000000	3.833900
2212.000000	3.829400
2211.000000	3.824300
2210.000000	3.832100
2209.000000	3.837300
2208.000000	3.856300
2207.000000	3.870200
2206.000000	3.896300
2205.000000	3.930200
2204.000000	3.974300
2203.000000	4.018800
2202.000000	4.084300
2201.000000	4.118800
2200.000000	4.177800
2199.000000	4.233000
2198.000000	4.293400
2197.000000	4.377600
2196.000000	4.412300
2195.000000	4.468600
2194.000000	4.547200
2193.000000	4.608900
2192.000000	4.653900
2191.000000	4.698700
2190.000000	4.738400
2189.000000	4.787500
2188.000000	4.823400
2187.000000	4.840300
2186.000000	4.869700
2185.000000	4.889900
2184.000000	4.931100
2183.000000	4.953800
2182.000000	4.949100
2181.000000	4.971000
2180.000000	4.967800
2179.000000	4.970300
2178.000000	4.986900
2177.000000	5.007000
2176.000000	5.031000
2175.000000	5.024700
2174.000000	5.029300
2173.000000	5.039500
2172.000000	5.065300
2171.000000	5.067100
2170.000000	5.075600
2169.000000	5.080500
2168.000000	5.078600
2167.000000	5.110700
2166.000000	5.122500
2165.000000	5.125000
2164.000000	5.141800
2163.000000	5.154100
2162.000000	5.178000
2161.000000	5.169100
2160.000000	5.192000
2159.000000	5.205400
2158.000000	5.227900
2157.000000	5.227000
2156.000000	5.236900
2155.000000	5.256700
2154.000000	5.278400
2153.000000	5.294300
2152.000000	5.309500
2151.000000	5.346300
2150.000000	5.350300
2149.000000	5.364300
2148.000000	5.378400
2147.000000	5.404400
2146.000000	5.425400
2145.000000	5.439200
2144.000000	5.445600
2143.000000	5.465700
2142.000000	5.472200
2141.000000	5.497600
2140.000000	5.510500
2139.000000	5.519800
2138.000000	5.525100
2137.000000	5.541000
2136.000000	5.553000
2135.000000	5.561100
2134.000000	5.553300
2133.000000	5.559800
2132.000000	5.576800
2131.000000	5.581500
2130.000000	5.585800
2129.000000	5.593500
2128.000000	5.597800
2127.000000	5.595700
2126.000000	5.594700
2125.000000	5.597900
2124.000000	5.598100
2123.000000	5.600900
2122.000000	5.593400
2121.000000	5.583400
2120.000000	5.585500
2119.000000	5.591600
2118.000000	5.598300
2117.000000	5.584100
2116.000000	5.556800
2115.000000	5.552000
2114.000000	5.554900
2113.000000	5.552700
2112.000000	5.545500
2111.000000	5.536800
2110.000000	5.526300
2109.000000	5.519000
2108.000000	5.520600
2107.000000	5.507000
2106.000000	5.487100
2105.000000	5.491700
2104.000000	5.489100
2103.000000	5.481400
2102.000000	5.473600
2101.000000	5.457900
2100.000000	5.454600
2099.000000	5.449500
2098.000000	5.440300
2097.000000	5.440400
2096.000000	5.443900
2095.000000	5.441200
2094.000000	5.422600
2093.000000	5.398500
2092.000000	5.393900
2091.000000	5.406000
2090.000000	5.400700
2089.000000	5.395600
2088.000000	5.394500
2087.000000	5.386800
2086.000000	5.376600
2085.000000	5.378300
2084.000000	5.386200
2083.000000	5.375900
2082.000000	5.374000
2081.000000	5.379700
2080.000000	5.372600
2079.000000	5.357600
2078.000000	5.360500
2077.000000	5.346500
2076.000000	5.329400
2075.000000	5.331800
2074.000000	5.331400
2073.000000	5.333900
2072.000000	5.323600
2071.000000	5.314300
2070.000000	5.302300
2069.000000	5.306300
2068.000000	5.304800
2067.000000	5.296200
2066.000000	5.283500
2065.000000	5.291900
2064.000000	5.289900
2063.000000	5.287100
2062.000000	5.294000
2061.000000	5.282800
2060.000000	5.278700
2059.000000	5.292200
2058.000000	5.307400
2057.000000	5.320400
2056.000000	5.330400
2055.000000	5.348000
2054.000000	5.369200
2053.000000	5.394700
2052.000000	5.422500
2051.000000	5.466700
2050.000000	5.482400
2049.000000	5.520600
2048.000000	5.580600
2047.000000	5.616200
2046.000000	5.673700
2045.000000	5.737800
2044.000000	5.798300
2043.000000	5.842200
2042.000000	5.906200
2041.000000	5.967100
2040.000000	6.022900
2039.000000	6.083600
2038.000000	6.138900
2037.000000	6.189500
2036.000000	6.238700
2035.000000	6.299600
2034.000000	6.344800
2033.000000	6.392500
2032.000000	6.447200
2031.000000	6.499900
2030.000000	6.539200
2029.000000	6.586800
2028.000000	6.633000
2027.000000	6.670800
2026.000000	6.695900
2025.000000	6.731800
2024.000000	6.783800
2023.000000	6.809700
2022.000000	6.851400
2021.000000	6.892200
2020.000000	6.915600
2019.000000	6.948700
2018.000000	6.971100
2017.000000	7.009300
2016.000000	7.029300
2015.000000	7.054500
2014.000000	7.076400
2013.000000	7.121800
2012.000000	7.120700
2011.000000	7.150700
2010.000000	7.148800
2009.000000	7.153900
2008.000000	7.191800
2007.000000	7.190800
2006.000000	7.197100
2005.000000	7.211600
2004.000000	7.224800
2003.000000	7.196700
2002.000000	7.204300
2001.000000	7.188500
2000.000000	7.193200
1999.000000	7.176600
1998.000000	7.183800
1997.000000	7.175700
1996.000000	7.158600
1995.000000	7.127600
1994.000000	7.127300
1993.000000	7.112900
1992.000000	7.084700
1991.000000	7.061300
1990.000000	7.066400
1989.000000	7.024800
1988.000000	7.003100
1987.000000	6.984400
1986.000000	6.954800
1985.000000	6.926500
1984.000000	6.899000
1983.000000	6.856600
1982.000000	6.856900
1981.000000	6.835200
1980.000000	6.804800
1979.000000	6.797000
1978.000000	6.738500
1977.000000	6.694300
1976.000000	6.674800
1975.000000	6.647000
1974.000000	6.639600
1973.000000	6.605500
1972.000000	6.581800
1971.000000	6.562100
1970.000000	6.529200
1969.000000	6.514800
1968.000000	6.457800
1967.000000	6.464100
1966.000000	6.435100
1965.000000	6.393000
1964.000000	6.380300
1963.000000	6.361300
1962.000000	6.324000
1961.000000	6.299000
1960.000000	6.280100
1959.000000	6.240600
1958.000000	6.198600
1957.000000	6.216300
1956.000000	6.159400
1955.000000	6.154300
1954.000000	6.127800
1953.000000	6.089300
1952.000000	6.083400
1951.000000	6.071900
1950.000000	6.018900
1949.000000	6.001300
1948.000000	6.004500
1947.000000	5.981900
1946.000000	5.977100
1945.000000	5.957400
1944.000000	5.933900
1943.000000	5.934500
1942.000000	5.923100
1941.000000	5.948900
1940.000000	5.930600
1939.000000	5.904800
1938.000000	5.915200
1937.000000	5.924500
1936.000000	5.936300
1935.000000	5.931200
1934.000000	5.949600
1933.000000	5.988700
1932.000000	6.027700
1931.000000	6.042100
1930.000000	6.083100
1929.000000	6.096500
1928.000000	6.140100
1927.000000	6.174000
1926.000000	6.209300
1925.000000	6.252200
1924.000000	6.308800
1923.000000	6.386000
1922.000000	6.450800
1921.000000	6.519500
1920.000000	6.570200
1919.000000	6.618700
1918.000000	6.688200
1917.000000	6.775500
1916.000000	6.881900
1915.000000	6.970100
1914.000000	7.071900
1913.000000	7.123700
1912.000000	7.224100
1911.000000	7.287200
1910.000000	7.416100
1909.000000	7.512900
1908.000000	7.624700
1907.000000	7.742200
1906.000000	7.839200
1905.000000	7.917200
1904.000000	8.026000
1903.000000	8.158500
1902.000000	8.286500
1901.000000	8.384200
1900.000000	8.510000
1899.000000	8.638300
1898.000000	8.752500
1897.000000	8.885200
1896.000000	9.021400
1895.000000	9.152400
1894.000000	9.272200
1893.000000	9.409000
1892.000000	9.528100
1891.000000	9.632900
1890.000000	9.737900
1889.000000	9.862300
1888.000000	10.003900
1887.000000	10.164000
1886.000000	10.324500
1885.000000	10.470200
1884.000000	10.650600
1883.000000	10.837200
1882.000000	11.017800
1881.000000	11.224200
1880.000000	11.419700
1879.000000	11.616100
1878.000000	11.811100
1877.000000	11.964200
1876.000000	12.107100
1875.000000	12.246700
1874.000000	12.374000
1873.000000	12.461700
1872.000000	12.552400
1871.000000	12.617500
1870.000000	12.637600
1869.000000	12.672800
1868.000000	12.750900
1867.000000	12.790700
1866.000000	12.835800
1865.000000	12.894800
1864.000000	12.957100
1863.000000	13.006000
1862.000000	13.025900
1861.000000	13.030700
1860.000000	13.022400
1859.000000	12.996400
1858.000000	12.950100
1857.000000	12.949000
1856.000000	12.953200
1855.000000	12.927900
1854.000000	12.893400
1853.000000	12.848700
1852.000000	12.829400
1851.000000	12.833400
1850.000000	12.836000
1849.000000	12.830400
1848.000000	12.747300
1847.000000	12.643000
1846.000000	12.577200
1845.000000	12.580600
1844.000000	12.619600
1843.000000	12.631100
1842.000000	12.621000
1841.000000	12.573800
1840.000000	12.522000
1839.000000	12.495800
1838.000000	12.477500
1837.000000	12.432800
1836.000000	12.378400
1835.000000	12.334000
1834.000000	12.304800
1833.000000	12.298300
1832.000000	12.294500
1831.000000	12.256100
1830.000000	12.202800
1829.000000	12.172800
1828.000000	12.121100
1827.000000	12.070600
1826.000000	12.034600
1825.000000	11.997200
1824.000000	11.998300
1823.000000	12.015900
1822.000000	12.017700
1821.000000	11.991400
1820.000000	11.941200
1819.000000	11.900300
1818.000000	11.909400
1817.000000	11.934700
1816.000000	11.952400
1815.000000	11.935700
1814.000000	11.919300
1813.000000	11.936200
1812.000000	11.931500
1811.000000	11.905100
1810.000000	11.864700
1809.000000	11.855600
1808.000000	11.859400
1807.000000	11.846900
1806.000000	11.805100
1805.000000	11.762800
1804.000000	11.746000
1803.000000	11.742100
1802.000000	11.729300
1801.000000	11.693200
1800.000000	11.650600
1799.000000	11.642200
1798.000000	11.625800
1797.000000	11.602300
1796.000000	11.580900
1795.000000	11.569500
1794.000000	11.552900
1793.000000	11.527700
1792.000000	11.488500
1791.000000	11.457500
1790.000000	11.437900
1789.000000	11.418000
1788.000000	11.382000
1787.000000	11.356700
1786.000000	11.328800
1785.000000	11.291300
1784.000000	11.242600
1783.000000	11.194600
1782.000000	11.156400
1781.000000	11.102700
1780.000000	11.059300
1779.000000	11.041800
1778.000000	10.988200
1777.000000	10.923700
1776.000000	10.883300
1775.000000	10.817400
1774.000000	10.744600
1773.000000	10.699400
1772.000000	10.617700
1771.000000	10.556300
1770.000000	10.486300
1769.000000	10.409800
1768.000000	10.357200
1767.000000	10.309700
1766.000000	10.248900
1765.000000	10.206400
1764.000000	10.202500
1763.000000	10.192400
1762.000000	10.180800
1761.000000	10.205600
1760.000000	10.237100
1759.000000	10.298400
1758.000000	10.321600
1757.000000	10.340000
1756.000000	10.363100
1755.000000	10.358700
1754.000000	10.365600
1753.000000	10.362300
1752.000000	10.367700
1751.000000	10.359300
1750.000000	10.312600
1749.000000	10.280300
1748.000000	10.226400
1747.000000	10.173100
1746.000000	10.125400
1745.000000	10.047800
1744.000000	9.962600
1743.000000	9.863500
1742.000000	9.784300
1741.000000	9.644900
1740.000000	9.534500
1739.000000	9.413600
1738.000000	9.304700
1737.000000	9.201300
1736.000000	9.146100
1735.000000	9.074800
1734.000000	9.065500
1733.000000	9.071600
1732.000000	9.102900
1731.000000	9.138500
1730.000000	9.175500
1729.000000	9.258000
1728.000000	9.306300
1727.000000	9.346800
1726.000000	9.393000
1725.000000	9.433100
1724.000000	9.451300
1723.000000	9.457500
1722.000000	9.448700
1721.000000	9.468600
1720.000000	9.482300
1719.000000	9.508500
1718.000000	9.503900
1717.000000	9.514700
1716.000000	9.547000
1715.000000	9.574300
1714.000000	9.594500
1713.000000	9.622800
1712.000000	9.640000
1711.000000	9.654900
1710.000000	9.647900
1709.000000	9.666000
1708.000000	9.651800
1707.000000	9.628100
1706.000000	9.605900
1705.000000	9.606100
1704.000000	9.591900
1703.000000	9.527500
1702.000000	9.503100
1701.000000	9.427300
1700.000000	9.346500
1699.000000	9.273800
1698.000000	9.208200
1697.000000	9.154200
1696.000000	9.109300
1695.000000	9.109500
1694.000000	9.143900
1693.000000	9.206500
1692.000000	9.267300
1691.000000	9.334500
1690.000000	9.417600
1689.000000	9.459000
1688.000000	9.496400
1687.000000	9.502600
1686.000000	9.491600
1685.000000	9.500500
1684.000000	9.541700
1683.000000	9.654200
1682.000000	9.801000
1681.000000	10.001600
1680.000000	10.280800
1679.000000	10.547100
1678.000000	10.821700
1677.000000	11.058500
1676.000000	11.296000
1675.000000	11.497500
1674.000000	11.636100
1673.000000	11.766100
1672.000000	11.880200
1671.000000	12.008000
1670.000000	12.098500
1669.000000	12.188900
1668.000000	12.265700
1667.000000	12.337400
1666.000000	12.381500
1665.000000	12.455200
1664.000000	12.482100
1663.000000	12.495600
1662.000000	12.540200
1661.000000	12.554300
1660.000000	12.561900
1659.000000	12.586000
1658.000000	12.601900
1657.000000	12.606200
1656.000000	12.616600
1655.000000	12.604900
1654.000000	12.605400
1653.000000	12.589600
1652.000000	12.585100
1651.000000	12.602700
1650.000000	12.561200
1649.000000	12.556600
1648.000000	12.530700
1647.000000	12.511400
1646.000000	12.474700
1645.000000	12.453700
1644.000000	12.438000
1643.000000	12.409300
1642.000000	12.375300
1641.000000	12.357300
1640.000000	12.311100
1639.000000	12.288000
1638.000000	12.272400
1637.000000	12.242400
1636.000000	12.199200
1635.000000	12.159500
1634.000000	12.111000
1633.000000	12.082800
1632.000000	12.056600
1631.000000	12.022700
1630.000000	11.980500
1629.000000	11.943200
1628.000000	11.903400
1627.000000	11.849400
1626.000000	11.813700
1625.000000	11.764500
1624.000000	11.724300
1623.000000	11.695800
1622.000000	11.650100
1621.000000	11.619000
1620.000000	11.571600
1619.000000	11.549700
1618.000000	11.515100
1617.000000	11.487500
1616.000000	11.433500
1615.000000	11.394600
1614.000000	11.365100
1613.000000	11.318100
1612.000000	11.290400
1611.000000	11.249500
1610.000000	11.235500
1609.000000	11.205100
1608.000000	11.155800
1607.000000	11.110000
1606.000000	11.088800
1605.000000	11.062100
1604.000000	11.024500
1603.000000	10.991900
1602.000000	10.964700
1601.000000	10.930400
1600.000000	10.898000
1599.000000	10.863200
1598.000000	10.839100
1597.000000	10.815000
1596.000000	10.788600
1595.000000	10.757300
1594.000000	10.729400
1593.000000	10.708500
1592.000000	10.675000
1591.000000	10.660400
1590.000000	10.656400
1589.000000	10.621800
1588.000000	10.596600
1587.000000	10.570500
1586.000000	10.560900
1585.000000	10.569600
1584.000000	10.560600
1583.000000	10.540100
1582.000000	10.532200
1581.000000	10.521000
1580.000000	10.505100
1579.000000	10.500700
1578.000000	10.508100
1577.000000	10.506600
1576.000000	10.505200
1575.000000	10.512800
1574.000000	10.515800
1573.000000	10.512400
1572.000000	10.529100
1571.000000	10.539700
1570.000000	10.560400
1569.000000	10.579000
1568.000000	10.580600
1567.000000	10.585000
1566.000000	10.602900
1565.000000	10.618500
1564.000000	10.641100
1563.000000	10.658100
1562.000000	10.655200
1561.000000	10.663700
1560.000000	10.679500
1559.000000	10.702500
1558.000000	10.709700
1557.000000	10.719400
1556.000000	10.743300
1555.000000	10.739100
1554.000000	10.737100
1553.000000	10.743600
1552.000000	10.746800
1551.000000	10.742000
1550.000000	10.729600
1549.000000	10.726200
1548.000000	10.732300
1547.000000	10.740600
1546.000000	10.742800
1545.000000	10.744000
1544.000000	10.734700
1543.000000	10.743600
1542.000000	10.755900
1541.000000	10.748700
1540.000000	10.753600
1539.000000	10.757600
1538.000000	10.751400
1537.000000	10.752000
1536.000000	10.751400
1535.000000	10.746000
1534.000000	10.752400
1533.000000	10.754200
1532.000000	10.750600
1531.000000	10.739900
1530.000000	10.743400
1529.000000	10.737600
1528.000000	10.725900
1527.000000	10.729800
1526.000000	10.719200
1525.000000	10.693200
1524.000000	10.682900
1523.000000	10.681200
1522.000000	10.684100
1521.000000	10.665800
1520.000000	10.643100
1519.000000	10.635300
1518.000000	10.629300
1517.000000	10.624000
1516.000000	10.624700
1515.000000	10.609300
1514.000000	10.573400
1513.000000	10.578900
1512.000000	10.566600
1511.000000	10.551700
1510.000000	10.522700
1509.000000	10.536800
1508.000000	10.522400
1507.000000	10.516000
1506.000000	10.489000
1505.000000	10.471300
1504.000000	10.457200
1503.000000	10.471600
1502.000000	10.465800
1501.000000	10.441100
1500.000000	10.427800
1499.000000	10.418200
1498.000000	10.427700
1497.000000	10.451500
1496.000000	10.425600
1495.000000	10.444100
1494.000000	10.441300
1493.000000	10.432100
1492.000000	10.460800
1491.000000	10.468500
1490.000000	10.481000
1489.000000	10.481700
1488.000000	10.488500
1487.000000	10.489800
1486.000000	10.504500
1485.000000	10.499600
1484.000000	10.529500
1483.000000	10.520800
1482.000000	10.573900
1481.000000	10.577000
1480.000000	10.584600
1479.000000	10.623600
1478.000000	10.634300
1477.000000	10.657100
1476.000000	10.660700
1475.000000	10.709300
1474.000000	10.741300
1473.000000	10.753300
1472.000000	10.769100
1471.000000	10.784600
1470.000000	10.805500
1469.000000	10.800700
1468.000000	10.838300
1467.000000	10.869600
1466.000000	10.894600
1465.000000	10.916700
1464.000000	10.947400
1463.000000	10.989900
1462.000000	11.005400
1461.000000	11.040700
1460.000000	11.068700
1459.000000	11.133200
1458.000000	11.175400
1457.000000	11.211300
1456.000000	11.243600
1455.000000	11.294300
1454.000000	11.352900
1453.000000	11.395300
1452.000000	11.459800
1451.000000	11.489400
1450.000000	11.539500
1449.000000	11.603700
1448.000000	11.650200
1447.000000	11.723300
1446.000000	11.774200
1445.000000	11.829400
1444.000000	11.887500
1443.000000	11.943400
1442.000000	12.033500
1441.000000	12.056600
1440.000000	12.131700
1439.000000	12.207900
1438.000000	12.259200
1437.000000	12.303100
1436.000000	12.370400
1435.000000	12.440800
1434.000000	12.500200
1433.000000	12.564600
1432.000000	12.629300
1431.000000	12.673600
1430.000000	12.760300
1429.000000	12.849700
1428.000000	12.908400
1427.000000	12.998500
1426.000000	13.087200
1425.000000	13.189400
1424.000000	13.282400
1423.000000	13.371000
1422.000000	13.460600
1421.000000	13.551200
1420.000000	13.661700
1419.000000	13.764400
1418.000000	13.833100
1417.000000	13.914600
1416.000000	13.977600
1415.000000	14.100700
1414.000000	14.169800
1413.000000	14.226700
1412.000000	14.291800
1411.000000	14.410000
1410.000000	14.505800
1409.000000	14.617400
1408.000000	14.709800
1407.000000	14.847500
1406.000000	14.976500
1405.000000	15.117300
1404.000000	15.219300
1403.000000	15.326400
1402.000000	15.500800
1401.000000	15.638100
1400.000000	15.645700
1399.000000	15.682600
1398.000000	15.743300
1397.000000	15.821900
1396.000000	15.853800
1395.000000	15.801700
1394.000000	15.767000
1393.000000	15.755500
1392.000000	15.754500
1391.000000	15.726900
1390.000000	15.746800
1389.000000	15.777500
1388.000000	15.801400
1387.000000	15.847200
1386.000000	15.912400
1385.000000	16.028800
1384.000000	16.182900
1383.000000	16.320500
1382.000000	16.424900
1381.000000	16.523600
1380.000000	16.616000
1379.000000	16.775600
1378.000000	16.927800
1377.000000	17.106000
1376.000000	17.308500
1375.000000	17.540800
1374.000000	17.827800
1373.000000	18.109600
1372.000000	18.402400
1371.000000	18.640200
1370.000000	18.840000
1369.000000	19.032200
1368.000000	19.217800
1367.000000	19.352900
1366.000000	19.484500
1365.000000	19.623900
1364.000000	19.704600
1363.000000	19.824300
1362.000000	19.894800
1361.000000	19.908900
1360.000000	19.917400
1359.000000	19.982000
1358.000000	20.033200
1357.000000	20.128100
1356.000000	20.260500
1355.000000	20.437500
1354.000000	20.679000
1353.000000	20.957900
1352.000000	21.237700
1351.000000	21.492500
1350.000000	21.731200
1349.000000	21.951000
1348.000000	22.162600
1347.000000	22.344400
1346.000000	22.513800
1345.000000	22.703800
1344.000000	22.859300
1343.000000	22.988600
1342.000000	23.127300
1341.000000	23.254200
1340.000000	23.377600
1339.000000	23.503600
1338.000000	23.628400
1337.000000	23.750800
1336.000000	23.875300
1335.000000	23.973300
1334.000000	24.051200
1333.000000	24.132600
1332.000000	24.242600
1331.000000	24.330600
1330.000000	24.407100
1329.000000	24.481500
1328.000000	24.559700
1327.000000	24.632800
1326.000000	24.682600
1325.000000	24.731900
1324.000000	24.787300
1323.000000	24.854000
1322.000000	24.914900
1321.000000	24.960800
1320.000000	25.017200
1319.000000	25.052600
1318.000000	25.080600
1317.000000	25.123500
1316.000000	25.162000
1315.000000	25.203400
1314.000000	25.240400
1313.000000	25.253000
1312.000000	25.267400
1311.000000	25.294500
1310.000000	25.318900
1309.000000	25.333700
1308.000000	25.340000
1307.000000	25.361900
1306.000000	25.379100
1305.000000	25.371800
1304.000000	25.360900
1303.000000	25.344300
1302.000000	25.344500
1301.000000	25.353100
1300.000000	25.340000
1299.000000	25.327200
1298.000000	25.322700
1297.000000	25.317000
1296.000000	25.301100
1295.000000	25.269900
1294.000000	25.256300
1293.000000	25.236600
1292.000000	25.220400
1291.000000	25.208700
1290.000000	25.199000
1289.000000	25.183800
1288.000000	25.133500
1287.000000	25.096400
1286.000000	25.069800
1285.000000	25.035800
1284.000000	24.999900
1283.000000	24.957200
1282.000000	24.912300
1281.000000	24.889000
1280.000000	24.870700
1279.000000	24.840900
1278.000000	24.799000
1277.000000	24.773100
1276.000000	24.747500
1275.000000	24.717500
1274.000000	24.692000
1273.000000	24.676900
1272.000000	24.662900
1271.000000	24.636800
1270.000000	24.609700
1269.000000	24.589100
1268.000000	24.563200
1267.000000	24.538100
1266.000000	24.495200
1265.000000	24.467000
1264.000000	24.458600
1263.000000	24.439700
1262.000000	24.414600
1261.000000	24.370300
1260.000000	24.339700
1259.000000	24.289700
1258.000000	24.258600
1257.000000	24.218100
1256.000000	24.201700
1255.000000	24.157900
1254.000000	24.130000
1253.000000	24.092200
1252.000000	24.045500
1251.000000	24.006500
1250.000000	23.966100
1249.000000	23.926000
1248.000000	23.874100
1247.000000	23.832200
1246.000000	23.768600
1245.000000	23.708300
1244.000000	23.662400
1243.000000	23.621200
1242.000000	23.556500
1241.000000	23.482500
1240.000000	23.433600
1239.000000	23.359000
1238.000000	23.287900
1237.000000	23.226100
1236.000000	23.151700
1235.000000	23.093700
1234.000000	23.020400
1233.000000	22.941200
1232.000000	22.875000
1231.000000	22.808200
1230.000000	22.713800
1229.000000	22.631900
1228.000000	22.556600
1227.000000	22.484500
1226.000000	22.404800
1225.000000	22.318200
1224.000000	22.237300
1223.000000	22.170700
1222.000000	22.086900
1221.000000	21.990400
1220.000000	21.919300
1219.000000	21.837200
1218.000000	21.760800
1217.000000	21.716000
1216.000000	21.649000
1215.000000	21.590500
1214.000000	21.510000
1213.000000	21.462200
1212.000000	21.424300
1211.000000	21.360300
1210.000000	21.309000
1209.000000	21.272600
1208.000000	21.228000
1207.000000	21.203600
1206.000000	21.187200
1205.000000	21.145000
1204.000000	21.159300
1203.000000	21.147000
1202.000000	21.137400
1201.000000	21.129100
1200.000000	21.115200
1199.000000	21.068400
1198.000000	21.026300
1197.000000	20.952200
1196.000000	20.869600
1195.000000	20.744000
1194.000000	20.610600
1193.000000	20.418700
1192.000000	20.205800
1191.000000	19.989100
1190.000000	19.788500
1189.000000	19.599100
1188.000000	19.464500
1187.000000	19.403000
1186.000000	19.359500
1185.000000	19.426700
1184.000000	19.557000
1183.000000	19.736500
1182.000000	19.956900
1181.000000	20.193600
1180.000000	20.429100
1179.000000	20.669300
1178.000000	20.867900
1177.000000	21.050500
1176.000000	21.200300
1175.000000	21.352000
1174.000000	21.519400
1173.000000	21.665000
1172.000000	21.826200
1171.000000	21.977500
1170.000000	22.163800
1169.000000	22.377800
1168.000000	22.517900
1167.000000	22.692500
1166.000000	22.879600
1165.000000	23.076000
1164.000000	23.287300
1163.000000	23.451900
1162.000000	23.650000
1161.000000	23.821500
1160.000000	23.988200
1159.000000	24.172700
1158.000000	24.337300
1157.000000	24.472100
1156.000000	24.598500
1155.000000	24.681000
1154.000000	24.725500
1153.000000	24.753100
1152.000000	24.766800
1151.000000	24.772000
1150.000000	24.737800
1149.000000	24.753300
1148.000000	24.746700
1147.000000	24.768200
1146.000000	24.816400
1145.000000	24.938000
1144.000000	25.025900
1143.000000	25.182000
1142.000000	25.335500
1141.000000	25.518100
1140.000000	25.669000
1139.000000	25.832800
1138.000000	26.024500
1137.000000	26.206100
1136.000000	26.402400
1135.000000	26.593000
1134.000000	26.700500
1133.000000	26.856000
1132.000000	27.004000
1131.000000	27.119200
1130.000000	27.261100
1129.000000	27.361800
1128.000000	27.428400
1127.000000	27.479200
1126.000000	27.547000
1125.000000	27.597000
1124.000000	27.637400
1123.000000	27.673200
1122.000000	27.697100
1121.000000	27.708900
1120.000000	27.731900
1119.000000	27.749900
1118.000000	27.762600
1117.000000	27.770000
1116.000000	27.775000
1115.000000	27.779900
1114.000000	27.784900
1113.000000	27.769400
1112.000000	27.761400
1111.000000	27.766100
1110.000000	27.780900
1109.000000	27.770800
1108.000000	27.763800
1107.000000	27.771700
1106.000000	27.766300
1105.000000	27.761000
1104.000000	27.775900
1103.000000	27.766600
1102.000000	27.746100
1101.000000	27.726200
1100.000000	27.736000
1099.000000	27.712700
1098.000000	27.707800
1097.000000	27.707500
1096.000000	27.681800
1095.000000	27.667300
1094.000000	27.642300
1093.000000	27.611000
1092.000000	27.604000
1091.000000	27.586900
1090.000000	27.547600
1089.000000	27.518900
1088.000000	27.511000
1087.000000	27.497200
1086.000000	27.456300
1085.000000	27.417700
1084.000000	27.403200
1083.000000	27.379200
1082.000000	27.338400
1081.000000	27.313400
1080.000000	27.295500
1079.000000	27.271400
1078.000000	27.245600
1077.000000	27.220100
1076.000000	27.222200
1075.000000	27.203800
1074.000000	27.181200
1073.000000	27.150300
1072.000000	27.123100
1071.000000	27.103900
1070.000000	27.079300
1069.000000	27.061400
1068.000000	27.049400
1067.000000	27.030400
1066.000000	27.020200
1065.000000	27.007900
1064.000000	26.986200
1063.000000	26.975700
1062.000000	26.959500
1061.000000	26.934400
1060.000000	26.913900
1059.000000	26.897200
1058.000000	26.888900
1057.000000	26.880900
1056.000000	26.879500
1055.000000	26.872800
1054.000000	26.856500
1053.000000	26.830900
1052.000000	26.810400
1051.000000	26.809800
1050.000000	26.807600
1049.000000	26.810500
1048.000000	26.795800
1047.000000	26.784700
1046.000000	26.776900
1045.000000	26.775700
1044.000000	26.765300
1043.000000	26.740900
1042.000000	26.730700
1041.000000	26.727800
1040.000000	26.713400
1039.000000	26.699700
1038.000000	26.687200
1037.000000	26.670800
1036.000000	26.665400
1035.000000	26.653000
1034.000000	26.641700
1033.000000	26.624200
1032.000000	26.593000
1031.000000	26.562600
1030.000000	26.542700
1029.000000	26.521700
1028.000000	26.491300
1027.000000	26.459000
1026.000000	26.438300
1025.000000	26.414900
1024.000000	26.379500
1023.000000	26.359500
1022.000000	26.334200
1021.000000	26.301100
1020.000000	26.280000
1019.000000	26.273800
1018.000000	26.263900
1017.000000	26.242700
1016.000000	26.219500
1015.000000	26.218900
1014.000000	26.219700
1013.000000	26.217500
1012.000000	26.240000
1011.000000	26.267300
1010.000000	26.277700
1009.000000	26.286300
1008.000000	26.295200
1007.000000	26.327000
1006.000000	26.361900
1005.000000	26.382900
1004.000000	26.400700
1003.000000	26.411500
1002.000000	26.422100
1001.000000	26.445200
1000.000000	26.469900
999.000000	26.493200
998.000000	26.519300
997.000000	26.537900
996.000000	26.546600
995.000000	26.561300
994.000000	26.605000
993.000000	26.633100
992.000000	26.652100
991.000000	26.671400
990.000000	26.699100
989.000000	26.712300
988.000000	26.738100
987.000000	26.769700
986.000000	26.785500
985.000000	26.804300
984.000000	26.832000
983.000000	26.862700
982.000000	26.872800
981.000000	26.886200
980.000000	26.917800
979.000000	26.930100
978.000000	26.948200
977.000000	26.964800
976.000000	26.980700
975.000000	27.007800
974.000000	27.040400
973.000000	27.072600
972.000000	27.089600
971.000000	27.093600
970.000000	27.133000
969.000000	27.150100
968.000000	27.162100
967.000000	27.178500
966.000000	27.195600
965.000000	27.225200
964.000000	27.256700
963.000000	27.264900
962.000000	27.306100
961.000000	27.332500
960.000000	27.358100
959.000000	27.373800
958.000000	27.399300
957.000000	27.403400
956.000000	27.415400
955.000000	27.441700
954.000000	27.450400
953.000000	27.454300
952.000000	27.441000
951.000000	27.458800
950.000000	27.450300
949.000000	27.458300
948.000000	27.482000
947.000000	27.472500
946.000000	27.487700
945.000000	27.523900
944.000000	27.565700
943.000000	27.583100
942.000000	27.632300
941.000000	27.644600
940.000000	27.690200
939.000000	27.733400
938.000000	27.790300
937.000000	27.845100
936.000000	27.875600
935.000000	27.933600
934.000000	28.010900
933.000000	28.065300
932.000000	28.133500
931.000000	28.220300
930.000000	28.285500
929.000000	28.350000
928.000000	28.422900
927.000000	28.507600
926.000000	28.588400
925.000000	28.664200
924.000000	28.714400
923.000000	28.821800
922.000000	28.903200
921.000000	28.974400
920.000000	29.046600
919.000000	29.130500
918.000000	29.189000
917.000000	29.269200
916.000000	29.324400
915.000000	29.393200
914.000000	29.495500
913.000000	29.531300
912.000000	29.601000
911.000000	29.631300
910.000000	29.684000
909.000000	29.774800
908.000000	29.810100
907.000000	29.907700
906.000000	29.949600
905.000000	30.003700
904.000000	30.089500
903.000000	30.175300
902.000000	30.203600
901.000000	30.247800
900.000000	30.333600
899.000000	30.404300
898.000000	30.443500
897.000000	30.500400
896.000000	30.510000
895.000000	30.576500
894.000000	30.606700
893.000000	30.654700
892.000000	30.670400
891.000000	30.706200
890.000000	30.724400
889.000000	30.730700
888.000000	30.695900
887.000000	30.714300
886.000000	30.713700
885.000000	30.714100
884.000000	30.676100
883.000000	30.575400
882.000000	30.528500
881.000000	30.509200
880.000000	30.441700
879.000000	30.308500
878.000000	30.230800
877.000000	30.083800
876.000000	30.023300
875.000000	29.964500
874.000000	29.867800
873.000000	29.702000
872.000000	29.590100
871.000000	29.431300
870.000000	29.283900
869.000000	29.136300
868.000000	29.058700
867.000000	28.883500
866.000000	28.783400
865.000000	28.624700
864.000000	28.521400
863.000000	28.319400
862.000000	28.130700
861.000000	27.928600
860.000000	27.764400
859.000000	27.675700
858.000000	25.217446
857.000000	27.239747
856.000000	27.014667
855.000000	27.040686
854.000000	27.358949
853.000000	27.433136
852.000000	27.597534
851.000000	27.499489
850.000000	27.545766
849.000000	27.697560
848.000000	27.735283
847.000000	27.863219
846.000000	27.838550
845.000000	28.034370
844.000000	27.993946
843.000000	27.918049
842.000000	28.123772
841.000000	28.123592
840.000000	28.292582
839.000000	28.359656
838.000000	28.359656
837.000000	28.481649
836.000000	28.464183
835.000000	28.386666
834.000000	28.486691
833.000000	28.552685
832.000000	28.553225
831.000000	28.489032
830.000000	28.578434
829.000000	28.711051
828.000000	28.551424
827.000000	28.632003
826.000000	28.568080
825.000000	28.510730
824.000000	28.488942
823.000000	28.497315
822.000000	28.439154
821.000000	28.383875
820.000000	28.409534
819.000000	28.392698
818.000000	28.330395
817.000000	28.302215
816.000000	28.282318
815.000000	28.212363
814.000000	28.213534
813.000000	28.076145
812.000000	28.038061
811.000000	27.941277
810.000000	27.871682
809.000000	27.848634
808.000000	27.774087
807.000000	27.682074
806.000000	27.617431
805.000000	27.545766
804.000000	27.454833
803.000000	27.380287
802.000000	27.265226
801.000000	27.187078
800.000000	27.097046
799.000000	26.987657
798.000000	26.893123
797.000000	26.763387
796.000000	26.620866
795.000000	26.521201
794.000000	26.442693
793.000000	26.296751
792.000000	26.182860
791.000000	26.047632
790.000000	25.908712
789.000000	25.755568
788.000000	25.657703
787.000000	25.442166
786.000000	25.317472
785.000000	25.218617
784.000000	25.073575
783.000000	24.926102
782.000000	24.811852
781.000000	24.665189
780.000000	24.542836
779.000000	24.404637
778.000000	24.196842
777.000000	24.087183
776.000000	24.007415
775.000000	23.852200
774.000000	23.690772
773.000000	23.598219
772.000000	23.532766
771.000000	23.441023
770.000000	23.343608
769.000000	23.234309
768.000000	23.108715
767.000000	23.087917
766.000000	23.038310
765.000000	22.935673
764.000000	22.868779
763.000000	22.810889
762.000000	22.832766
761.000000	22.811969
760.000000	22.725268
759.000000	22.672509
758.000000	22.629834
757.000000	22.602284
756.000000	22.573474
755.000000	22.569513
754.000000	22.551056
753.000000	22.522426
752.000000	22.506130
751.000000	22.503609
750.000000	22.503339
749.000000	22.487313
748.000000	22.505590
747.000000	22.518104
746.000000	22.545204
745.000000	22.578336
744.000000	22.599583
743.000000	22.608767
742.000000	22.580226
741.000000	22.612728
740.000000	22.638927
739.000000	22.612998
738.000000	22.626593
737.000000	22.639287
736.000000	22.629834
735.000000	22.624162
734.000000	22.616329
733.000000	22.622722
732.000000	22.610657
731.000000	22.597783
730.000000	22.617770
729.000000	22.584638
728.000000	22.558079
727.000000	22.544484
726.000000	22.528728
725.000000	22.516484
724.000000	22.491185
723.000000	22.448780
722.000000	22.416278
721.000000	22.399982
720.000000	22.339030
719.000000	22.283931
718.000000	22.249989
717.000000	22.180574
716.000000	22.104227
715.000000	22.061912
714.000000	22.042825
713.000000	21.969449
712.000000	21.884368
711.000000	21.809372
710.000000	21.707185
709.000000	21.628047
708.000000	21.528111
707.000000	21.447803
706.000000	21.359661
705.000000	21.255134
704.000000	21.152498
703.000000	21.031765
702.000000	20.895186
701.000000	20.782016
700.000000	20.668215
699.000000	20.531816
698.000000	20.371739
697.000000	20.244434
696.000000	20.103084
695.000000	19.945257
694.000000	19.806788
693.000000	19.665168
692.000000	19.493747
691.000000	19.349245
690.000000	19.186287
689.000000	19.022158
688.000000	18.896834
687.000000	18.764667
686.000000	18.626017
685.000000	18.493940
684.000000	18.363034
683.000000	18.231587
682.000000	18.114275
681.000000	17.994532
680.000000	17.895587
679.000000	17.800063
678.000000	17.730468
677.000000	17.674468
676.000000	17.635574
675.000000	17.611716
674.000000	17.598571
673.000000	17.591819
672.000000	17.613517
671.000000	17.642237
670.000000	17.701028
669.000000	17.794841
668.000000	17.871729
667.000000	17.979587
666.000000	18.085915
665.000000	18.219432
664.000000	18.349349
663.000000	18.511857
662.000000	18.682648
661.000000	18.842184
660.000000	19.009554
659.000000	19.177554
658.000000	19.336551
657.000000	19.521747
656.000000	19.700010
655.000000	19.860807
654.000000	20.048344
653.000000	20.265952
652.000000	20.445116
651.000000	20.640575
650.000000	20.880511
649.000000	21.071739
648.000000	21.274041
647.000000	21.477423
646.000000	21.680896
645.000000	21.887700
644.000000	22.102336
643.000000	22.316702
642.000000	22.519815
641.000000	22.718336
640.000000	22.913075
639.000000	23.100702
638.000000	23.294811
637.000000	23.454978
636.000000	23.604431
635.000000	23.775042
634.000000	23.953396
633.000000	24.111312
632.000000	24.291466
631.000000	24.457215
630.000000	24.631607
629.000000	24.794836
628.000000	24.960224
627.000000	25.134527
626.000000	25.291993
625.000000	25.492764
624.000000	25.656983
623.000000	25.825523
622.000000	25.998294
621.000000	26.168455
620.000000	26.326461
619.000000	26.485548
618.000000	26.636442
617.000000	26.766718
616.000000	26.902757
615.000000	27.045548
614.000000	27.199322
613.000000	27.281432
612.000000	27.405406
611.000000	27.529020
610.000000	27.651373
609.000000	27.757611
608.000000	27.855296
607.000000	27.964685
606.000000	28.058409
605.000000	28.122331
604.000000	28.213894
603.000000	28.291952
602.000000	28.368209
601.000000	28.418627
600.000000	28.484710
599.000000	28.535489
598.000000	28.587887
597.000000	28.619128
596.000000	28.665225
595.000000	28.653971
594.000000	28.707180
593.000000	28.701058
592.000000	28.728067
591.000000	28.744813
590.000000	28.714202
589.000000	28.733199
588.000000	28.696466
587.000000	28.681701
586.000000	28.678730
585.000000	28.680080
584.000000	28.620299
583.000000	28.595000
582.000000	28.563128
581.000000	28.526215
580.000000	28.478588
579.000000	28.423038
578.000000	28.354974
577.000000	28.296003
576.000000	28.239193
575.000000	28.137187
574.000000	28.073984
573.000000	27.984762
572.000000	27.882396
571.000000	27.798846
570.000000	27.690537
569.000000	27.559991
568.000000	27.412608
567.000000	27.316994
566.000000	27.159078
565.000000	27.030962
564.000000	26.882049
563.000000	26.725033
562.000000	26.535786
561.000000	26.383632
560.000000	26.270191
559.000000	26.733046
558.000000	26.550551
557.000000	26.303143
556.000000	26.062307
555.000000	25.827233
554.000000	25.567491
553.000000	25.274256
552.000000	24.978681
551.000000	24.672212
550.000000	24.356559
549.000000	24.023081
548.000000	23.675197
547.000000	23.315158
546.000000	22.949718
545.000000	22.554927
544.000000	22.175352
543.000000	21.757243
542.000000	21.358671
541.000000	20.934170
540.000000	20.519302
539.000000	20.094621
538.000000	19.688036
537.000000	19.273708
536.000000	18.863882
535.000000	18.459098
534.000000	18.057015
533.000000	17.658262
532.000000	17.288681
531.000000	16.918829
530.000000	16.580218
529.000000	16.251691
528.000000	15.942071
527.000000	15.635152
526.000000	15.348759
525.000000	15.083165
524.000000	14.819821
523.000000	14.577275
522.000000	14.349854
521.000000	14.136117
520.000000	13.914999
519.000000	13.701172
518.000000	13.496439
517.000000	13.300890
516.000000	13.107771
515.000000	12.917803
514.000000	12.715771
513.000000	12.516440
512.000000	12.309006
511.000000	12.097611
510.000000	11.877663
509.000000	11.650692
508.000000	11.416878
507.000000	11.195039
506.000000	10.965097
505.000000	10.741638
504.000000	10.509805
503.000000	10.302371
502.000000	10.096918
501.000000	9.892905
500.000000	9.708340
499.000000	9.550603
498.000000	9.399529
497.000000	9.263851
496.000000	9.159144
495.000000	9.069292
494.000000	8.997806
493.000000	8.948109
492.000000	8.903813
491.000000	8.885086
490.000000	8.893639
489.000000	8.896160
488.000000	8.923080
487.000000	8.965215
486.000000	8.999787
485.000000	9.045163
484.000000	9.100893
483.000000	9.161845
482.000000	9.232340
481.000000	9.304906
480.000000	9.380803
479.000000	9.454449
478.000000	9.515941
477.000000	9.574192
476.000000	9.618848
475.000000	9.664764
474.000000	9.711761
473.000000	9.749304
472.000000	9.775143
471.000000	9.794320
470.000000	9.807105
469.000000	9.812687
468.000000	9.807825
467.000000	9.803954
466.000000	9.800262
465.000000	9.777214
464.000000	9.754526
463.000000	9.730667
462.000000	9.702668
461.000000	9.663504
460.000000	9.625600
459.000000	9.593189
458.000000	9.555105
457.000000	9.500455
456.000000	9.442745
455.000000	9.385484
454.000000	9.338488
453.000000	9.275645
452.000000	9.193266
451.000000	9.127272
450.000000	9.056147
449.000000	8.972327
448.000000	8.892289
447.000000	8.807388
446.000000	8.707003
445.000000	8.605897
444.000000	8.510103
443.000000	8.408726
442.000000	8.295016
441.000000	8.178604
440.000000	8.050309
439.000000	7.918682
438.000000	7.792547
437.000000	7.653987
436.000000	7.511827
435.000000	7.377409
434.000000	7.231197
433.000000	7.077512
432.000000	6.919146
431.000000	6.759789
430.000000	6.601602
429.000000	6.443326
428.000000	6.287300
427.000000	6.121281
426.000000	5.957063
425.000000	5.795725
424.000000	5.634928
423.000000	5.478812
422.000000	5.321256
421.000000	5.162170
420.000000	5.006864
419.000000	4.857861
418.000000	4.714710
417.000000	4.574980
416.000000	4.434350
415.000000	4.296241
414.000000	4.168035
413.000000	4.050813
412.000000	3.930621
411.000000	3.822582
410.000000	3.715534
409.000000	3.616319
408.000000	3.526917
407.000000	3.429412
406.000000	3.349464
405.000000	3.280589
404.000000	3.209734
403.000000	3.138969
402.000000	3.072255
401.000000	3.019856
400.000000	2.967998
399.000000	2.919740
398.000000	2.874004
397.000000	2.833490
396.000000	2.793155
395.000000	2.751020
394.000000	2.722390
393.000000	2.687998
392.000000	2.658287
391.000000	2.626056
390.000000	2.605799
389.000000	2.588242
388.000000	2.556821
387.000000	2.537914
386.000000	2.522609
385.000000	2.510635
384.000000	2.490287
383.000000	2.473631
382.000000	2.445722
381.000000	2.436988
380.000000	2.420062
379.000000	2.400525
378.000000	2.391792
377.000000	2.376307
376.000000	2.593464
375.000000	2.657027
374.000000	2.595355
373.000000	2.473631
372.000000	2.603278
371.000000	2.563123
370.000000	2.577258
369.000000	2.632898
368.000000	2.628397
367.000000	2.600127
366.000000	2.613991
365.000000	2.635509
364.000000	2.623985
363.000000	2.592834
362.000000	2.568525
361.000000	2.613991
360.000000	2.589863
359.000000	2.554030
358.000000	2.579599
357.000000	2.559342
356.000000	2.578429
355.000000	2.535934
354.000000	2.524320
353.000000	2.514596
352.000000	2.506313
351.000000	2.474352
350.000000	2.444371
349.000000	2.509554
348.000000	2.555831
347.000000	2.578159
346.000000	2.556371
345.000000	2.514236
344.000000	2.456255
343.000000	2.541336
342.000000	2.525940
341.000000	2.531162
340.000000	2.542326
339.000000	2.399445
338.000000	2.572307
337.000000	2.515857
336.000000	2.474172
335.000000	2.431496
334.000000	2.549619
333.000000	2.574828
332.000000	2.476512
331.000000	2.603188
330.000000	2.572307
329.000000	2.516757
328.000000	2.645773
327.000000	2.519458
326.000000	2.528911
325.000000	2.468140
324.000000	2.677194
323.000000	2.760924
322.000000	2.839702
321.000000	2.733554
320.000000	2.347587
319.000000	2.594004
318.000000	2.821696
317.000000	3.088371
316.000000	2.483895
315.000000	2.383239
314.000000	2.358030
313.000000	2.328500
312.000000	2.369284
311.000000	2.387291
310.000000	2.352268
309.000000	2.423214
308.000000	2.353529
307.000000	2.391612
306.000000	2.369824
305.000000	2.370095
304.000000	2.391252
303.000000	2.378197
302.000000	2.391342
301.000000	2.370815
300.000000	2.348127
299.000000	2.345336
298.000000	2.375857
297.000000	2.415741
296.000000	2.419522
295.000000	2.384230
294.000000	2.394853
293.000000	2.403226
292.000000	2.428255
291.000000	2.441940
290.000000	2.443201
289.000000	2.469220
288.000000	2.394763
287.000000	2.430686
286.000000	2.420242
285.000000	2.422403
284.000000	2.444191
283.000000	2.463908
282.000000	2.480114
281.000000	2.449863
280.000000	2.462197
279.000000	2.455625
278.000000	2.470660
277.000000	2.496950
276.000000	2.479664
275.000000	2.487857
274.000000	2.469130
273.000000	2.493168
272.000000	2.481464
271.000000	2.522879
270.000000	2.520178
269.000000	2.529992
268.000000	2.525850
267.000000	2.502802
266.000000	2.560692
265.000000	2.542686
264.000000	2.567175
263.000000	2.564024
262.000000	2.596885
261.000000	2.570146
260.000000	2.585901
259.000000	2.633348
258.000000	2.604538
257.000000	2.613181
256.000000	2.617233
255.000000	2.626326
254.000000	2.618403
253.000000	2.655046
252.000000	2.654956
251.000000	2.620114
250.000000	2.643702
