PE UV       SUBTECH     SPECTRUM    ASCII       PEDS        4.00        
   -1
CICIMAUCR0001-2.Sample.ASC
24/04/04
14:58:11.00
24/04/04
14:58:11.00
Vinicio Soto Monge
C. kalinini
250,000000
1
Lambda 1050
1050L1511233
PerkinElmer UV WinLab 6.3.2.0749 / 2.02.05 Lambda 900 UV/VIS/NIR, Aug  7 2015 09:38:08

0
0
3350/servo 860,8/2
0
0
UV/VIS
1
1
1
DoubleDePol,CommonBeamDepol,RBeamAtt,SBeamAtt,60mm sphere, WB InGaAs Detector
0
0
0
0
Program
Program
3350/servo 860,8/2
3350/0,2 860,8/0,2
3350/0,2 860,8/0,2
0
15.00
 
 
 
0
 
860,8
319,2
860,8
Front
100
on
S:100 R:100
0
0
0
0
 
0
 
 
 
0
 
 
0
0
0
0
0
 
 
 
 
0
0


0
0
#HDR
-1
-1
#GR
nm
%R
1.0
0.0
2500,000000
-1,000000
2251
8
78,942500
5,296700
#DATA
2500.000000	9.186700
2499.000000	9.122300
2498.000000	9.092700
2497.000000	9.165500
2496.000000	9.198200
2495.000000	9.158300
2494.000000	9.161500
2493.000000	9.138200
2492.000000	9.158800
2491.000000	9.191700
2490.000000	9.202700
2489.000000	9.253300
2488.000000	9.280200
2487.000000	9.222800
2486.000000	9.274500
2485.000000	9.292400
2484.000000	9.310400
2483.000000	9.315200
2482.000000	9.338800
2481.000000	9.351100
2480.000000	9.388300
2479.000000	9.430400
2478.000000	9.429600
2477.000000	9.514300
2476.000000	9.566600
2475.000000	9.546100
2474.000000	9.529900
2473.000000	9.590000
2472.000000	9.651300
2471.000000	9.696900
2470.000000	9.748400
2469.000000	9.734700
2468.000000	9.781300
2467.000000	9.815800
2466.000000	9.895700
2465.000000	9.928200
2464.000000	9.994500
2463.000000	10.007100
2462.000000	10.050000
2461.000000	10.115300
2460.000000	10.185600
2459.000000	10.207100
2458.000000	10.287500
2457.000000	10.313000
2456.000000	10.401600
2455.000000	10.462800
2454.000000	10.514300
2453.000000	10.586000
2452.000000	10.672000
2451.000000	10.739800
2450.000000	10.818900
2449.000000	10.907100
2448.000000	10.961800
2447.000000	11.043400
2446.000000	11.166500
2445.000000	11.219900
2444.000000	11.294900
2443.000000	11.389800
2442.000000	11.475000
2441.000000	11.558500
2440.000000	11.638700
2439.000000	11.744100
2438.000000	11.820100
2437.000000	11.904900
2436.000000	11.979900
2435.000000	12.060100
2434.000000	12.136100
2433.000000	12.229000
2432.000000	12.314900
2431.000000	12.396700
2430.000000	12.470500
2429.000000	12.562400
2428.000000	12.632400
2427.000000	12.708200
2426.000000	12.793100
2425.000000	12.862900
2424.000000	12.913000
2423.000000	13.012500
2422.000000	13.072500
2421.000000	13.135500
2420.000000	13.213400
2419.000000	13.292200
2418.000000	13.366000
2417.000000	13.430100
2416.000000	13.491300
2415.000000	13.529600
2414.000000	13.567100
2413.000000	13.653200
2412.000000	13.721900
2411.000000	13.763600
2410.000000	13.812300
2409.000000	13.855200
2408.000000	13.904700
2407.000000	13.952000
2406.000000	13.985100
2405.000000	14.022100
2404.000000	14.051100
2403.000000	14.096600
2402.000000	14.143500
2401.000000	14.170800
2400.000000	14.196100
2399.000000	14.233500
2398.000000	14.273400
2397.000000	14.294900
2396.000000	14.323400
2395.000000	14.355500
2394.000000	14.370700
2393.000000	14.390700
2392.000000	14.419400
2391.000000	14.426000
2390.000000	14.441000
2389.000000	14.459500
2388.000000	14.472600
2387.000000	14.483700
2386.000000	14.493200
2385.000000	14.500700
2384.000000	14.507100
2383.000000	14.522500
2382.000000	14.531300
2381.000000	14.534900
2380.000000	14.517900
2379.000000	14.505200
2378.000000	14.512400
2377.000000	14.517900
2376.000000	14.508300
2375.000000	14.491900
2374.000000	14.479500
2373.000000	14.486200
2372.000000	14.490800
2371.000000	14.467100
2370.000000	14.462100
2369.000000	14.457300
2368.000000	14.458900
2367.000000	14.451900
2366.000000	14.458200
2365.000000	14.479600
2364.000000	14.475100
2363.000000	14.462200
2362.000000	14.456500
2361.000000	14.448400
2360.000000	14.449300
2359.000000	14.431100
2358.000000	14.422600
2357.000000	14.419000
2356.000000	14.407400
2355.000000	14.408100
2354.000000	14.398400
2353.000000	14.384100
2352.000000	14.367700
2351.000000	14.355700
2350.000000	14.345800
2349.000000	14.331400
2348.000000	14.326300
2347.000000	14.305700
2346.000000	14.278400
2345.000000	14.268600
2344.000000	14.265700
2343.000000	14.254100
2342.000000	14.235900
2341.000000	14.228900
2340.000000	14.235800
2339.000000	14.236800
2338.000000	14.219800
2337.000000	14.199600
2336.000000	14.189300
2335.000000	14.197900
2334.000000	14.204100
2333.000000	14.207800
2332.000000	14.194700
2331.000000	14.196600
2330.000000	14.196600
2329.000000	14.212300
2328.000000	14.219700
2327.000000	14.230200
2326.000000	14.238400
2325.000000	14.237300
2324.000000	14.233500
2323.000000	14.243900
2322.000000	14.250600
2321.000000	14.256200
2320.000000	14.248000
2319.000000	14.228400
2318.000000	14.226300
2317.000000	14.196100
2316.000000	14.177600
2315.000000	14.166900
2314.000000	14.135900
2313.000000	14.098700
2312.000000	14.053600
2311.000000	14.026600
2310.000000	13.974600
2309.000000	13.942600
2308.000000	13.905400
2307.000000	13.857900
2306.000000	13.818900
2305.000000	13.770400
2304.000000	13.733700
2303.000000	13.710800
2302.000000	13.679600
2301.000000	13.640200
2300.000000	13.619000
2299.000000	13.581000
2298.000000	13.554000
2297.000000	13.511000
2296.000000	13.493000
2295.000000	13.473200
2294.000000	13.457100
2293.000000	13.433700
2292.000000	13.415400
2291.000000	13.412900
2290.000000	13.388300
2289.000000	13.363400
2288.000000	13.353000
2287.000000	13.340800
2286.000000	13.334000
2285.000000	13.323200
2284.000000	13.310000
2283.000000	13.297700
2282.000000	13.296800
2281.000000	13.272400
2280.000000	13.255000
2279.000000	13.218700
2278.000000	13.217700
2277.000000	13.195300
2276.000000	13.175700
2275.000000	13.168300
2274.000000	13.138800
2273.000000	13.106400
2272.000000	13.075400
2271.000000	13.044300
2270.000000	13.013800
2269.000000	12.995300
2268.000000	12.959200
2267.000000	12.940400
2266.000000	12.942500
2265.000000	12.933400
2264.000000	12.917400
2263.000000	12.924700
2262.000000	12.933600
2261.000000	12.958500
2260.000000	12.963600
2259.000000	12.978900
2258.000000	13.046000
2257.000000	13.078200
2256.000000	13.116500
2255.000000	13.171800
2254.000000	13.226400
2253.000000	13.278900
2252.000000	13.342100
2251.000000	13.399200
2250.000000	13.456100
2249.000000	13.549600
2248.000000	13.584300
2247.000000	13.644500
2246.000000	13.713000
2245.000000	13.767600
2244.000000	13.794000
2243.000000	13.863700
2242.000000	13.903700
2241.000000	13.929100
2240.000000	13.964100
2239.000000	13.994000
2238.000000	13.981500
2237.000000	14.016200
2236.000000	14.009200
2235.000000	13.996700
2234.000000	14.001700
2233.000000	13.964500
2232.000000	13.930800
2231.000000	13.896600
2230.000000	13.855100
2229.000000	13.794200
2228.000000	13.719800
2227.000000	13.639600
2226.000000	13.577100
2225.000000	13.452000
2224.000000	13.362600
2223.000000	13.263400
2222.000000	13.158100
2221.000000	13.058200
2220.000000	12.926400
2219.000000	12.818500
2218.000000	12.703000
2217.000000	12.624600
2216.000000	12.500800
2215.000000	12.407600
2214.000000	12.344000
2213.000000	12.262100
2212.000000	12.198200
2211.000000	12.161300
2210.000000	12.141200
2209.000000	12.144100
2208.000000	12.195000
2207.000000	12.209400
2206.000000	12.289100
2205.000000	12.375100
2204.000000	12.523700
2203.000000	12.619800
2202.000000	12.789900
2201.000000	12.924900
2200.000000	13.083400
2199.000000	13.267400
2198.000000	13.471500
2197.000000	13.651500
2196.000000	13.821200
2195.000000	13.995200
2194.000000	14.183000
2193.000000	14.341100
2192.000000	14.474900
2191.000000	14.635100
2190.000000	14.769900
2189.000000	14.881700
2188.000000	14.986400
2187.000000	15.079300
2186.000000	15.180100
2185.000000	15.245400
2184.000000	15.320400
2183.000000	15.361300
2182.000000	15.429700
2181.000000	15.453700
2180.000000	15.480800
2179.000000	15.552100
2178.000000	15.575000
2177.000000	15.597000
2176.000000	15.624700
2175.000000	15.664500
2174.000000	15.688600
2173.000000	15.720400
2172.000000	15.750000
2171.000000	15.786900
2170.000000	15.798700
2169.000000	15.847100
2168.000000	15.883600
2167.000000	15.928400
2166.000000	15.955800
2165.000000	16.000300
2164.000000	16.057000
2163.000000	16.111400
2162.000000	16.138400
2161.000000	16.196700
2160.000000	16.268400
2159.000000	16.325900
2158.000000	16.400200
2157.000000	16.474900
2156.000000	16.535100
2155.000000	16.620600
2154.000000	16.698400
2153.000000	16.778000
2152.000000	16.874500
2151.000000	16.972400
2150.000000	17.071200
2149.000000	17.154500
2148.000000	17.240400
2147.000000	17.352400
2146.000000	17.451900
2145.000000	17.542000
2144.000000	17.628100
2143.000000	17.719800
2142.000000	17.808100
2141.000000	17.886600
2140.000000	17.971100
2139.000000	18.073200
2138.000000	18.148600
2137.000000	18.234300
2136.000000	18.316600
2135.000000	18.395800
2134.000000	18.466100
2133.000000	18.535000
2132.000000	18.604100
2131.000000	18.667700
2130.000000	18.730500
2129.000000	18.773100
2128.000000	18.831500
2127.000000	18.882800
2126.000000	18.939200
2125.000000	18.985200
2124.000000	19.015200
2123.000000	19.064600
2122.000000	19.103800
2121.000000	19.134300
2120.000000	19.169700
2119.000000	19.197700
2118.000000	19.212000
2117.000000	19.243300
2116.000000	19.270700
2115.000000	19.286100
2114.000000	19.300100
2113.000000	19.306200
2112.000000	19.325500
2111.000000	19.342300
2110.000000	19.351800
2109.000000	19.356500
2108.000000	19.366400
2107.000000	19.386000
2106.000000	19.372200
2105.000000	19.360700
2104.000000	19.371100
2103.000000	19.377200
2102.000000	19.379900
2101.000000	19.387600
2100.000000	19.388600
2099.000000	19.388600
2098.000000	19.398800
2097.000000	19.408400
2096.000000	19.399900
2095.000000	19.395500
2094.000000	19.410100
2093.000000	19.435400
2092.000000	19.450600
2091.000000	19.455000
2090.000000	19.457900
2089.000000	19.473800
2088.000000	19.479200
2087.000000	19.482800
2086.000000	19.481500
2085.000000	19.474000
2084.000000	19.468700
2083.000000	19.458500
2082.000000	19.424700
2081.000000	19.396600
2080.000000	19.388900
2079.000000	19.365500
2078.000000	19.305700
2077.000000	19.255900
2076.000000	19.204000
2075.000000	19.147400
2074.000000	19.095000
2073.000000	19.027200
2072.000000	18.951600
2071.000000	18.891700
2070.000000	18.796100
2069.000000	18.712400
2068.000000	18.629500
2067.000000	18.550200
2066.000000	18.467900
2065.000000	18.381500
2064.000000	18.288700
2063.000000	18.207900
2062.000000	18.127000
2061.000000	18.057400
2060.000000	17.965800
2059.000000	17.900900
2058.000000	17.858000
2057.000000	17.820200
2056.000000	17.770300
2055.000000	17.751700
2054.000000	17.749600
2053.000000	17.750500
2052.000000	17.769700
2051.000000	17.795000
2050.000000	17.843400
2049.000000	17.905300
2048.000000	17.989200
2047.000000	18.071900
2046.000000	18.142300
2045.000000	18.245300
2044.000000	18.347700
2043.000000	18.417800
2042.000000	18.525900
2041.000000	18.618900
2040.000000	18.728200
2039.000000	18.811000
2038.000000	18.903700
2037.000000	19.003000
2036.000000	19.085000
2035.000000	19.143200
2034.000000	19.211600
2033.000000	19.288600
2032.000000	19.351200
2031.000000	19.401400
2030.000000	19.453600
2029.000000	19.504200
2028.000000	19.558800
2027.000000	19.586300
2026.000000	19.627600
2025.000000	19.656700
2024.000000	19.674300
2023.000000	19.692300
2022.000000	19.729200
2021.000000	19.739500
2020.000000	19.752700
2019.000000	19.752500
2018.000000	19.749400
2017.000000	19.756800
2016.000000	19.739000
2015.000000	19.731200
2014.000000	19.717900
2013.000000	19.699000
2012.000000	19.678200
2011.000000	19.644600
2010.000000	19.599600
2009.000000	19.558800
2008.000000	19.511900
2007.000000	19.473500
2006.000000	19.418700
2005.000000	19.367500
2004.000000	19.304700
2003.000000	19.234800
2002.000000	19.156900
2001.000000	19.100900
2000.000000	19.013900
1999.000000	18.951900
1998.000000	18.870400
1997.000000	18.780800
1996.000000	18.703400
1995.000000	18.611700
1994.000000	18.510900
1993.000000	18.425300
1992.000000	18.326800
1991.000000	18.253100
1990.000000	18.150200
1989.000000	18.049200
1988.000000	17.956500
1987.000000	17.864700
1986.000000	17.766300
1985.000000	17.669700
1984.000000	17.543000
1983.000000	17.457200
1982.000000	17.345700
1981.000000	17.261700
1980.000000	17.163200
1979.000000	17.067700
1978.000000	16.947200
1977.000000	16.862700
1976.000000	16.774200
1975.000000	16.687700
1974.000000	16.577100
1973.000000	16.487700
1972.000000	16.401500
1971.000000	16.306700
1970.000000	16.216900
1969.000000	16.165100
1968.000000	16.057900
1967.000000	15.970200
1966.000000	15.909500
1965.000000	15.817900
1964.000000	15.730100
1963.000000	15.673500
1962.000000	15.572500
1961.000000	15.481200
1960.000000	15.424700
1959.000000	15.339200
1958.000000	15.245300
1957.000000	15.171900
1956.000000	15.124600
1955.000000	15.033000
1954.000000	14.932300
1953.000000	14.885000
1952.000000	14.810000
1951.000000	14.736900
1950.000000	14.677400
1949.000000	14.615200
1948.000000	14.563800
1947.000000	14.498200
1946.000000	14.440900
1945.000000	14.394800
1944.000000	14.353900
1943.000000	14.315600
1942.000000	14.301800
1941.000000	14.277800
1940.000000	14.253700
1939.000000	14.235200
1938.000000	14.208000
1937.000000	14.219900
1936.000000	14.196800
1935.000000	14.211600
1934.000000	14.234200
1933.000000	14.245800
1932.000000	14.292700
1931.000000	14.311500
1930.000000	14.365200
1929.000000	14.435900
1928.000000	14.517200
1927.000000	14.576000
1926.000000	14.643800
1925.000000	14.747400
1924.000000	14.845500
1923.000000	14.936200
1922.000000	15.071400
1921.000000	15.217000
1920.000000	15.344300
1919.000000	15.494100
1918.000000	15.659000
1917.000000	15.834600
1916.000000	16.006200
1915.000000	16.183900
1914.000000	16.413100
1913.000000	16.671000
1912.000000	16.921400
1911.000000	17.153100
1910.000000	17.411200
1909.000000	17.666700
1908.000000	17.931300
1907.000000	18.249200
1906.000000	18.616000
1905.000000	19.017700
1904.000000	19.419600
1903.000000	19.800500
1902.000000	20.221100
1901.000000	20.632500
1900.000000	21.101000
1899.000000	21.592400
1898.000000	22.100200
1897.000000	22.637800
1896.000000	23.126900
1895.000000	23.592100
1894.000000	24.102000
1893.000000	24.644100
1892.000000	25.233000
1891.000000	25.821200
1890.000000	26.390200
1889.000000	26.913400
1888.000000	27.478800
1887.000000	27.995300
1886.000000	28.507000
1885.000000	29.013500
1884.000000	29.549800
1883.000000	30.037900
1882.000000	30.497200
1881.000000	30.925600
1880.000000	31.330200
1879.000000	31.734200
1878.000000	32.111500
1877.000000	32.495000
1876.000000	32.864900
1875.000000	33.193100
1874.000000	33.516000
1873.000000	33.832200
1872.000000	34.119300
1871.000000	34.382300
1870.000000	34.586700
1869.000000	34.783400
1868.000000	34.981800
1867.000000	35.121000
1866.000000	35.241900
1865.000000	35.378700
1864.000000	35.520400
1863.000000	35.645300
1862.000000	35.784000
1861.000000	35.915200
1860.000000	36.038400
1859.000000	36.137800
1858.000000	36.212300
1857.000000	36.283300
1856.000000	36.349900
1855.000000	36.408600
1854.000000	36.446100
1853.000000	36.464300
1852.000000	36.487400
1851.000000	36.538000
1850.000000	36.621500
1849.000000	36.699300
1848.000000	36.700300
1847.000000	36.657500
1846.000000	36.582400
1845.000000	36.549600
1844.000000	36.582000
1843.000000	36.607000
1842.000000	36.650900
1841.000000	36.644500
1840.000000	36.584400
1839.000000	36.538500
1838.000000	36.513100
1837.000000	36.472700
1836.000000	36.409800
1835.000000	36.335000
1834.000000	36.262200
1833.000000	36.237300
1832.000000	36.222400
1831.000000	36.199400
1830.000000	36.183600
1829.000000	36.143800
1828.000000	36.078600
1827.000000	36.047300
1826.000000	36.024800
1825.000000	35.977100
1824.000000	35.947200
1823.000000	35.973900
1822.000000	36.024000
1821.000000	36.035900
1820.000000	36.003700
1819.000000	35.944100
1818.000000	35.910700
1817.000000	35.919900
1816.000000	35.915400
1815.000000	35.897100
1814.000000	35.879600
1813.000000	35.872800
1812.000000	35.849800
1811.000000	35.813100
1810.000000	35.778500
1809.000000	35.756100
1808.000000	35.740600
1807.000000	35.719900
1806.000000	35.685500
1805.000000	35.647000
1804.000000	35.622800
1803.000000	35.627900
1802.000000	35.628300
1801.000000	35.593000
1800.000000	35.545200
1799.000000	35.520000
1798.000000	35.502000
1797.000000	35.486600
1796.000000	35.472100
1795.000000	35.461100
1794.000000	35.444400
1793.000000	35.424600
1792.000000	35.407000
1791.000000	35.389500
1790.000000	35.381600
1789.000000	35.386100
1788.000000	35.394000
1787.000000	35.415500
1786.000000	35.414000
1785.000000	35.419100
1784.000000	35.412900
1783.000000	35.419600
1782.000000	35.419300
1781.000000	35.420900
1780.000000	35.420100
1779.000000	35.400200
1778.000000	35.372900
1777.000000	35.369600
1776.000000	35.342400
1775.000000	35.319100
1774.000000	35.297800
1773.000000	35.261300
1772.000000	35.240100
1771.000000	35.211600
1770.000000	35.191600
1769.000000	35.157600
1768.000000	35.141700
1767.000000	35.114100
1766.000000	35.095100
1765.000000	35.063200
1764.000000	35.045000
1763.000000	35.034100
1762.000000	35.031600
1761.000000	35.015500
1760.000000	35.010100
1759.000000	35.008900
1758.000000	35.023800
1757.000000	35.031600
1756.000000	35.029400
1755.000000	35.030700
1754.000000	35.044100
1753.000000	35.029200
1752.000000	35.023400
1751.000000	35.013000
1750.000000	34.989700
1749.000000	34.969900
1748.000000	34.923400
1747.000000	34.891100
1746.000000	34.847500
1745.000000	34.807700
1744.000000	34.719900
1743.000000	34.655800
1742.000000	34.604600
1741.000000	34.533800
1740.000000	34.488300
1739.000000	34.407200
1738.000000	34.345700
1737.000000	34.266800
1736.000000	34.211400
1735.000000	34.179300
1734.000000	34.131400
1733.000000	34.079300
1732.000000	34.028000
1731.000000	33.986900
1730.000000	33.948300
1729.000000	33.894300
1728.000000	33.860800
1727.000000	33.820300
1726.000000	33.793300
1725.000000	33.755600
1724.000000	33.766500
1723.000000	33.780200
1722.000000	33.846800
1721.000000	33.923600
1720.000000	34.054200
1719.000000	34.213000
1718.000000	34.379200
1717.000000	34.563100
1716.000000	34.757000
1715.000000	34.938900
1714.000000	35.110600
1713.000000	35.279600
1712.000000	35.442700
1711.000000	35.543300
1710.000000	35.667000
1709.000000	35.757800
1708.000000	35.853900
1707.000000	35.928000
1706.000000	35.992200
1705.000000	36.037200
1704.000000	36.069900
1703.000000	36.100100
1702.000000	36.094200
1701.000000	36.125400
1700.000000	36.115600
1699.000000	36.114500
1698.000000	36.109400
1697.000000	36.084000
1696.000000	36.065600
1695.000000	36.036000
1694.000000	35.997700
1693.000000	35.923300
1692.000000	35.855200
1691.000000	35.788900
1690.000000	35.733500
1689.000000	35.693900
1688.000000	35.689600
1687.000000	35.757400
1686.000000	35.830600
1685.000000	35.949400
1684.000000	36.095400
1683.000000	36.284300
1682.000000	36.475000
1681.000000	36.682800
1680.000000	36.878100
1679.000000	37.073300
1678.000000	37.274600
1677.000000	37.450700
1676.000000	37.596400
1675.000000	37.758500
1674.000000	37.910900
1673.000000	38.094700
1672.000000	38.253100
1671.000000	38.408400
1670.000000	38.583200
1669.000000	38.739400
1668.000000	38.889600
1667.000000	39.035000
1666.000000	39.161900
1665.000000	39.320500
1664.000000	39.451800
1663.000000	39.591500
1662.000000	39.702400
1661.000000	39.812100
1660.000000	39.931000
1659.000000	39.996800
1658.000000	40.093100
1657.000000	40.163400
1656.000000	40.231500
1655.000000	40.287400
1654.000000	40.326200
1653.000000	40.370900
1652.000000	40.400600
1651.000000	40.416000
1650.000000	40.420300
1649.000000	40.422100
1648.000000	40.435500
1647.000000	40.431700
1646.000000	40.421600
1645.000000	40.421100
1644.000000	40.409600
1643.000000	40.396800
1642.000000	40.385700
1641.000000	40.376400
1640.000000	40.366300
1639.000000	40.354600
1638.000000	40.342500
1637.000000	40.300700
1636.000000	40.277600
1635.000000	40.256400
1634.000000	40.225000
1633.000000	40.196000
1632.000000	40.155800
1631.000000	40.113600
1630.000000	40.073900
1629.000000	40.023200
1628.000000	39.988200
1627.000000	39.941300
1626.000000	39.892800
1625.000000	39.834000
1624.000000	39.798600
1623.000000	39.741000
1622.000000	39.687700
1621.000000	39.632000
1620.000000	39.588200
1619.000000	39.539800
1618.000000	39.509400
1617.000000	39.464300
1616.000000	39.410100
1615.000000	39.358400
1614.000000	39.299000
1613.000000	39.258400
1612.000000	39.197400
1611.000000	39.146300
1610.000000	39.100300
1609.000000	39.028300
1608.000000	38.936700
1607.000000	38.881900
1606.000000	38.810900
1605.000000	38.722700
1604.000000	38.646600
1603.000000	38.560400
1602.000000	38.490800
1601.000000	38.402300
1600.000000	38.309300
1599.000000	38.224600
1598.000000	38.158700
1597.000000	38.094300
1596.000000	38.025600
1595.000000	37.951300
1594.000000	37.881700
1593.000000	37.824900
1592.000000	37.759700
1591.000000	37.688700
1590.000000	37.627600
1589.000000	37.579300
1588.000000	37.524000
1587.000000	37.472500
1586.000000	37.417500
1585.000000	37.363100
1584.000000	37.312500
1583.000000	37.268400
1582.000000	37.213600
1581.000000	37.156000
1580.000000	37.120500
1579.000000	37.105000
1578.000000	37.072500
1577.000000	37.039600
1576.000000	37.018200
1575.000000	36.993300
1574.000000	36.970700
1573.000000	36.958900
1572.000000	36.951900
1571.000000	36.951500
1570.000000	36.949600
1569.000000	36.953600
1568.000000	36.958500
1567.000000	36.956600
1566.000000	36.962000
1565.000000	36.966900
1564.000000	36.974100
1563.000000	36.978500
1562.000000	36.971300
1561.000000	36.963800
1560.000000	36.940900
1559.000000	36.914400
1558.000000	36.893800
1557.000000	36.853300
1556.000000	36.804100
1555.000000	36.752600
1554.000000	36.700700
1553.000000	36.651500
1552.000000	36.582100
1551.000000	36.512800
1550.000000	36.434200
1549.000000	36.366400
1548.000000	36.302100
1547.000000	36.228400
1546.000000	36.160300
1545.000000	36.089600
1544.000000	36.024400
1543.000000	35.971100
1542.000000	35.935300
1541.000000	35.891200
1540.000000	35.841700
1539.000000	35.810500
1538.000000	35.773300
1537.000000	35.734300
1536.000000	35.688700
1535.000000	35.632200
1534.000000	35.577400
1533.000000	35.525200
1532.000000	35.479000
1531.000000	35.423900
1530.000000	35.366100
1529.000000	35.303100
1528.000000	35.242900
1527.000000	35.172500
1526.000000	35.113100
1525.000000	35.034800
1524.000000	34.964200
1523.000000	34.914600
1522.000000	34.845100
1521.000000	34.767400
1520.000000	34.697400
1519.000000	34.616100
1518.000000	34.531100
1517.000000	34.465100
1516.000000	34.388600
1515.000000	34.301000
1514.000000	34.225300
1513.000000	34.152300
1512.000000	34.060500
1511.000000	33.981000
1510.000000	33.902100
1509.000000	33.804300
1508.000000	33.718700
1507.000000	33.645700
1506.000000	33.572100
1505.000000	33.494200
1504.000000	33.418200
1503.000000	33.346900
1502.000000	33.273900
1501.000000	33.209600
1500.000000	33.147000
1499.000000	33.078800
1498.000000	33.025300
1497.000000	32.977300
1496.000000	32.934000
1495.000000	32.889800
1494.000000	32.877800
1493.000000	32.840700
1492.000000	32.825500
1491.000000	32.807400
1490.000000	32.801900
1489.000000	32.794900
1488.000000	32.766600
1487.000000	32.764400
1486.000000	32.753100
1485.000000	32.758800
1484.000000	32.754600
1483.000000	32.749200
1482.000000	32.757500
1481.000000	32.767600
1480.000000	32.753900
1479.000000	32.751400
1478.000000	32.759400
1477.000000	32.778300
1476.000000	32.793800
1475.000000	32.794600
1474.000000	32.843300
1473.000000	32.884500
1472.000000	32.924500
1471.000000	32.961200
1470.000000	33.001600
1469.000000	33.007000
1468.000000	33.055900
1467.000000	33.116500
1466.000000	33.173300
1465.000000	33.216300
1464.000000	33.262200
1463.000000	33.314100
1462.000000	33.376100
1461.000000	33.437200
1460.000000	33.516300
1459.000000	33.553100
1458.000000	33.622300
1457.000000	33.726100
1456.000000	33.779300
1455.000000	33.853900
1454.000000	33.915400
1453.000000	33.958100
1452.000000	34.070500
1451.000000	34.157800
1450.000000	34.210000
1449.000000	34.247300
1448.000000	34.293500
1447.000000	34.386200
1446.000000	34.503900
1445.000000	34.526700
1444.000000	34.579300
1443.000000	34.648700
1442.000000	34.734300
1441.000000	34.811700
1440.000000	34.888400
1439.000000	34.977500
1438.000000	35.060800
1437.000000	35.114500
1436.000000	35.218600
1435.000000	35.305200
1434.000000	35.435900
1433.000000	35.543900
1432.000000	35.671900
1431.000000	35.746100
1430.000000	35.827400
1429.000000	35.982800
1428.000000	36.136700
1427.000000	36.271300
1426.000000	36.417600
1425.000000	36.591700
1424.000000	36.798900
1423.000000	36.947200
1422.000000	37.104000
1421.000000	37.321900
1420.000000	37.570900
1419.000000	37.831300
1418.000000	37.998400
1417.000000	38.214600
1416.000000	38.457400
1415.000000	38.771600
1414.000000	39.079000
1413.000000	39.300600
1412.000000	39.565600
1411.000000	39.871700
1410.000000	40.214800
1409.000000	40.571000
1408.000000	40.877500
1407.000000	41.198800
1406.000000	41.533700
1405.000000	41.871800
1404.000000	42.133600
1403.000000	42.450100
1402.000000	42.807800
1401.000000	43.242300
1400.000000	43.470000
1399.000000	43.676000
1398.000000	43.859300
1397.000000	44.171500
1396.000000	44.460000
1395.000000	44.676400
1394.000000	44.807300
1393.000000	44.960100
1392.000000	45.132100
1391.000000	45.263600
1390.000000	45.392300
1389.000000	45.569900
1388.000000	45.790400
1387.000000	45.900600
1386.000000	46.079100
1385.000000	46.299900
1384.000000	46.579200
1383.000000	46.820100
1382.000000	47.139300
1381.000000	47.460700
1380.000000	47.773300
1379.000000	48.255000
1378.000000	48.739800
1377.000000	49.307800
1376.000000	49.897500
1375.000000	50.484500
1374.000000	51.042900
1373.000000	51.623600
1372.000000	52.130100
1371.000000	52.540800
1370.000000	52.897800
1369.000000	53.184600
1368.000000	53.455800
1367.000000	53.643200
1366.000000	53.837400
1365.000000	54.035800
1364.000000	54.192200
1363.000000	54.317800
1362.000000	54.469600
1361.000000	54.561500
1360.000000	54.610900
1359.000000	54.670900
1358.000000	54.737100
1357.000000	54.834900
1356.000000	54.942400
1355.000000	55.079500
1354.000000	55.208000
1353.000000	55.304100
1352.000000	55.466300
1351.000000	55.637500
1350.000000	55.813000
1349.000000	55.994100
1348.000000	56.188600
1347.000000	56.353800
1346.000000	56.492300
1345.000000	56.676700
1344.000000	56.874900
1343.000000	57.042100
1342.000000	57.211800
1341.000000	57.370000
1340.000000	57.524400
1339.000000	57.690300
1338.000000	57.837400
1337.000000	57.980500
1336.000000	58.123100
1335.000000	58.249500
1334.000000	58.365200
1333.000000	58.496800
1332.000000	58.628400
1331.000000	58.741100
1330.000000	58.846300
1329.000000	58.945400
1328.000000	59.046700
1327.000000	59.142500
1326.000000	59.238100
1325.000000	59.327500
1324.000000	59.395500
1323.000000	59.478300
1322.000000	59.560700
1321.000000	59.639700
1320.000000	59.707800
1319.000000	59.776700
1318.000000	59.846200
1317.000000	59.911300
1316.000000	59.973000
1315.000000	60.032200
1314.000000	60.089300
1313.000000	60.159300
1312.000000	60.222000
1311.000000	60.279000
1310.000000	60.327500
1309.000000	60.377300
1308.000000	60.406400
1307.000000	60.431300
1306.000000	60.478300
1305.000000	60.523100
1304.000000	60.549900
1303.000000	60.576400
1302.000000	60.599300
1301.000000	60.611300
1300.000000	60.628500
1299.000000	60.647900
1298.000000	60.661100
1297.000000	60.666800
1296.000000	60.675600
1295.000000	60.674900
1294.000000	60.676000
1293.000000	60.683600
1292.000000	60.675900
1291.000000	60.662000
1290.000000	60.653800
1289.000000	60.641000
1288.000000	60.621300
1287.000000	60.613800
1286.000000	60.598400
1285.000000	60.576400
1284.000000	60.553900
1283.000000	60.519000
1282.000000	60.486000
1281.000000	60.461000
1280.000000	60.432200
1279.000000	60.412200
1278.000000	60.392100
1277.000000	60.379500
1276.000000	60.363700
1275.000000	60.343700
1274.000000	60.334400
1273.000000	60.318900
1272.000000	60.299900
1271.000000	60.284800
1270.000000	60.276900
1269.000000	60.266800
1268.000000	60.268100
1267.000000	60.274100
1266.000000	60.270800
1265.000000	60.257500
1264.000000	60.244300
1263.000000	60.233800
1262.000000	60.208300
1261.000000	60.191800
1260.000000	60.171800
1259.000000	60.152100
1258.000000	60.123200
1257.000000	60.113000
1256.000000	60.087500
1255.000000	60.052900
1254.000000	60.020500
1253.000000	59.992200
1252.000000	59.949700
1251.000000	59.909300
1250.000000	59.855400
1249.000000	59.824600
1248.000000	59.782400
1247.000000	59.730500
1246.000000	59.686400
1245.000000	59.655000
1244.000000	59.593200
1243.000000	59.558400
1242.000000	59.534900
1241.000000	59.509300
1240.000000	59.492600
1239.000000	59.478100
1238.000000	59.442100
1237.000000	59.422900
1236.000000	59.412800
1235.000000	59.410400
1234.000000	59.395800
1233.000000	59.393900
1232.000000	59.373000
1231.000000	59.348500
1230.000000	59.332000
1229.000000	59.292900
1228.000000	59.276000
1227.000000	59.250300
1226.000000	59.229700
1225.000000	59.196300
1224.000000	59.159900
1223.000000	59.127500
1222.000000	59.075500
1221.000000	59.037800
1220.000000	59.014600
1219.000000	58.979600
1218.000000	58.938500
1217.000000	58.899200
1216.000000	58.872600
1215.000000	58.843300
1214.000000	58.785100
1213.000000	58.722500
1212.000000	58.680500
1211.000000	58.609100
1210.000000	58.559200
1209.000000	58.509200
1208.000000	58.439500
1207.000000	58.356800
1206.000000	58.292000
1205.000000	58.213600
1204.000000	58.164300
1203.000000	58.089400
1202.000000	58.031600
1201.000000	57.945800
1200.000000	57.887500
1199.000000	57.824800
1198.000000	57.759800
1197.000000	57.687800
1196.000000	57.601800
1195.000000	57.532700
1194.000000	57.461800
1193.000000	57.395500
1192.000000	57.331900
1191.000000	57.258500
1190.000000	57.207800
1189.000000	57.159500
1188.000000	57.103800
1187.000000	57.112700
1186.000000	57.091100
1185.000000	57.100900
1184.000000	57.103300
1183.000000	57.104200
1182.000000	57.149800
1181.000000	57.191100
1180.000000	57.243900
1179.000000	57.282500
1178.000000	57.369100
1177.000000	57.420500
1176.000000	57.472900
1175.000000	57.540200
1174.000000	57.602300
1173.000000	57.680900
1172.000000	57.729100
1171.000000	57.816900
1170.000000	57.908500
1169.000000	57.996600
1168.000000	58.112000
1167.000000	58.220400
1166.000000	58.327800
1165.000000	58.432200
1164.000000	58.526800
1163.000000	58.656600
1162.000000	58.794200
1161.000000	58.887200
1160.000000	59.014100
1159.000000	59.123000
1158.000000	59.239300
1157.000000	59.352700
1156.000000	59.443900
1155.000000	59.511800
1154.000000	59.623500
1153.000000	59.725800
1152.000000	59.783500
1151.000000	59.854800
1150.000000	59.912200
1149.000000	60.007700
1148.000000	60.061100
1147.000000	60.131200
1146.000000	60.195900
1145.000000	60.247800
1144.000000	60.321100
1143.000000	60.382400
1142.000000	60.467500
1141.000000	60.550400
1140.000000	60.632100
1139.000000	60.749500
1138.000000	60.825400
1137.000000	60.926500
1136.000000	61.075000
1135.000000	61.193800
1134.000000	61.279800
1133.000000	61.335300
1132.000000	61.393500
1131.000000	61.461900
1130.000000	61.526000
1129.000000	61.596700
1128.000000	61.640500
1127.000000	61.688500
1126.000000	61.708100
1125.000000	61.767800
1124.000000	61.794400
1123.000000	61.798600
1122.000000	61.818600
1121.000000	61.793200
1120.000000	61.789600
1119.000000	61.781100
1118.000000	61.802100
1117.000000	61.775600
1116.000000	61.743900
1115.000000	61.734500
1114.000000	61.718300
1113.000000	61.707100
1112.000000	61.693300
1111.000000	61.673900
1110.000000	61.647600
1109.000000	61.626500
1108.000000	61.612200
1107.000000	61.589700
1106.000000	61.563000
1105.000000	61.544700
1104.000000	61.516400
1103.000000	61.491700
1102.000000	61.471600
1101.000000	61.440500
1100.000000	61.421000
1099.000000	61.393200
1098.000000	61.357200
1097.000000	61.328800
1096.000000	61.293600
1095.000000	61.249900
1094.000000	61.228500
1093.000000	61.213600
1092.000000	61.185800
1091.000000	61.151300
1090.000000	61.117000
1089.000000	61.092400
1088.000000	61.055900
1087.000000	61.026400
1086.000000	60.991300
1085.000000	60.958800
1084.000000	60.930600
1083.000000	60.901700
1082.000000	60.873100
1081.000000	60.854500
1080.000000	60.812200
1079.000000	60.785500
1078.000000	60.758300
1077.000000	60.731400
1076.000000	60.703800
1075.000000	60.678500
1074.000000	60.659900
1073.000000	60.627300
1072.000000	60.590600
1071.000000	60.565000
1070.000000	60.532800
1069.000000	60.484200
1068.000000	60.457100
1067.000000	60.425400
1066.000000	60.387400
1065.000000	60.348400
1064.000000	60.308100
1063.000000	60.268800
1062.000000	60.237400
1061.000000	60.193200
1060.000000	60.163700
1059.000000	60.135600
1058.000000	60.093800
1057.000000	60.059300
1056.000000	60.031100
1055.000000	59.991600
1054.000000	59.953200
1053.000000	59.916400
1052.000000	59.883100
1051.000000	59.855100
1050.000000	59.831500
1049.000000	59.792200
1048.000000	59.757600
1047.000000	59.738300
1046.000000	59.697800
1045.000000	59.671700
1044.000000	59.648500
1043.000000	59.621600
1042.000000	59.597200
1041.000000	59.560100
1040.000000	59.531000
1039.000000	59.504700
1038.000000	59.473600
1037.000000	59.442200
1036.000000	59.414200
1035.000000	59.388300
1034.000000	59.348100
1033.000000	59.314800
1032.000000	59.293200
1031.000000	59.272300
1030.000000	59.245400
1029.000000	59.213500
1028.000000	59.184100
1027.000000	59.158300
1026.000000	59.131400
1025.000000	59.098900
1024.000000	59.073300
1023.000000	59.060700
1022.000000	59.051600
1021.000000	59.028100
1020.000000	58.998700
1019.000000	58.990000
1018.000000	58.977000
1017.000000	58.963000
1016.000000	58.950500
1015.000000	58.921200
1014.000000	58.905400
1013.000000	58.901600
1012.000000	58.895400
1011.000000	58.881100
1010.000000	58.866900
1009.000000	58.856700
1008.000000	58.846300
1007.000000	58.842600
1006.000000	58.839500
1005.000000	58.836500
1004.000000	58.827400
1003.000000	58.806900
1002.000000	58.789900
1001.000000	58.786600
1000.000000	58.770300
999.000000	58.747600
998.000000	58.726300
997.000000	58.712500
996.000000	58.707700
995.000000	58.700900
994.000000	58.676600
993.000000	58.650600
992.000000	58.632600
991.000000	58.621400
990.000000	58.616900
989.000000	58.602400
988.000000	58.579100
987.000000	58.557800
986.000000	58.553000
985.000000	58.537600
984.000000	58.516300
983.000000	58.509500
982.000000	58.515700
981.000000	58.508900
980.000000	58.493900
979.000000	58.486100
978.000000	58.472600
977.000000	58.473900
976.000000	58.461500
975.000000	58.467100
974.000000	58.478100
973.000000	58.477200
972.000000	58.481100
971.000000	58.466300
970.000000	58.472400
969.000000	58.453700
968.000000	58.436200
967.000000	58.451600
966.000000	58.462200
965.000000	58.443300
964.000000	58.427600
963.000000	58.441900
962.000000	58.467500
961.000000	58.461100
960.000000	58.450700
959.000000	58.451700
958.000000	58.463700
957.000000	58.472300
956.000000	58.451100
955.000000	58.459800
954.000000	58.447000
953.000000	58.441800
952.000000	58.427100
951.000000	58.421100
950.000000	58.422800
949.000000	58.378000
948.000000	58.358700
947.000000	58.328600
946.000000	58.319300
945.000000	58.285300
944.000000	58.267900
943.000000	58.265500
942.000000	58.246000
941.000000	58.238200
940.000000	58.231500
939.000000	58.214700
938.000000	58.201600
937.000000	58.215100
936.000000	58.237400
935.000000	58.220100
934.000000	58.220300
933.000000	58.225300
932.000000	58.227000
931.000000	58.249200
930.000000	58.269800
929.000000	58.267800
928.000000	58.261100
927.000000	58.264800
926.000000	58.304700
925.000000	58.350100
924.000000	58.344100
923.000000	58.364200
922.000000	58.392500
921.000000	58.406300
920.000000	58.435000
919.000000	58.462800
918.000000	58.527700
917.000000	58.499900
916.000000	58.523100
915.000000	58.541000
914.000000	58.556300
913.000000	58.595700
912.000000	58.586700
911.000000	58.587900
910.000000	58.608300
909.000000	58.618000
908.000000	58.621100
907.000000	58.650800
906.000000	58.666800
905.000000	58.673400
904.000000	58.696900
903.000000	58.715400
902.000000	58.747200
901.000000	58.761600
900.000000	58.794900
899.000000	58.821100
898.000000	58.890200
897.000000	58.907700
896.000000	58.960200
895.000000	59.026200
894.000000	59.055500
893.000000	59.114700
892.000000	59.131000
891.000000	59.165400
890.000000	59.239500
889.000000	59.276900
888.000000	59.337400
887.000000	59.373400
886.000000	59.423900
885.000000	59.431400
884.000000	59.469900
883.000000	59.505700
882.000000	59.536100
881.000000	59.542600
880.000000	59.586500
879.000000	59.598900
878.000000	59.577000
877.000000	59.612300
876.000000	59.661400
875.000000	59.677400
874.000000	59.678400
873.000000	59.696100
872.000000	59.708000
871.000000	59.716600
870.000000	59.735100
869.000000	59.775300
868.000000	59.792100
867.000000	59.828300
866.000000	59.826000
865.000000	59.862600
864.000000	59.862300
863.000000	59.880900
862.000000	59.851400
861.000000	59.807000
860.000000	59.771500
859.000000	59.764000
858.000000	56.919145
857.000000	58.628853
856.000000	58.315291
855.000000	58.125050
854.000000	58.415009
853.000000	58.886963
852.000000	58.704589
851.000000	58.627905
850.000000	59.127537
849.000000	58.923646
848.000000	59.350197
847.000000	59.581008
846.000000	59.816274
845.000000	59.909736
844.000000	60.297517
843.000000	60.712029
842.000000	60.896868
841.000000	61.220382
840.000000	61.482379
839.000000	61.798216
838.000000	62.341072
837.000000	62.647051
836.000000	62.847624
835.000000	63.149432
834.000000	63.468112
833.000000	63.878169
832.000000	64.257420
831.000000	64.755251
830.000000	64.892411
829.000000	65.392233
828.000000	65.682761
827.000000	66.032437
826.000000	66.304197
825.000000	66.631693
824.000000	66.927340
823.000000	67.364791
822.000000	67.871817
821.000000	68.072201
820.000000	68.505291
819.000000	68.858664
818.000000	69.117154
817.000000	69.481428
816.000000	69.732618
815.000000	70.093101
814.000000	70.460597
813.000000	70.664204
812.000000	70.913025
811.000000	71.227345
810.000000	71.470384
809.000000	71.753992
808.000000	71.976178
807.000000	72.329835
806.000000	72.577329
805.000000	72.723873
804.000000	72.837146
803.000000	73.026629
802.000000	73.334029
801.000000	73.515645
800.000000	73.571760
799.000000	73.779822
798.000000	74.014235
797.000000	74.025988
796.000000	74.222960
795.000000	74.381542
794.000000	74.500407
793.000000	74.546190
792.000000	74.589888
791.000000	74.681170
790.000000	74.710838
789.000000	74.771503
788.000000	74.785817
787.000000	74.699938
786.000000	74.828756
785.000000	74.781741
784.000000	74.785437
783.000000	74.775390
782.000000	74.707047
781.000000	74.667141
780.000000	74.714535
779.000000	74.714440
778.000000	74.663160
777.000000	74.651501
776.000000	74.557660
775.000000	74.640221
774.000000	74.670838
773.000000	74.558797
772.000000	74.558892
771.000000	74.530076
770.000000	74.438699
769.000000	74.417088
768.000000	74.390831
767.000000	74.435287
766.000000	74.407419
765.000000	74.314147
764.000000	74.365428
763.000000	74.374433
762.000000	74.207888
761.000000	74.161726
760.000000	74.135280
759.000000	73.985040
758.000000	73.865511
757.000000	73.751954
756.000000	73.581144
755.000000	73.508915
754.000000	73.407396
753.000000	73.213173
752.000000	73.050895
751.000000	72.908711
750.000000	72.782737
749.000000	72.601879
748.000000	72.408320
747.000000	72.264431
746.000000	72.192865
745.000000	72.074569
744.000000	71.803472
743.000000	71.579676
742.000000	71.478157
741.000000	71.297489
740.000000	71.067815
739.000000	70.863261
738.000000	70.685721
737.000000	70.513205
736.000000	70.325049
735.000000	70.135945
734.000000	69.900679
733.000000	69.653090
732.000000	69.358486
731.000000	69.174217
730.000000	69.025588
729.000000	68.748899
728.000000	68.417611
727.000000	68.130591
726.000000	67.808498
725.000000	67.462329
724.000000	67.159857
723.000000	66.824683
722.000000	66.445717
721.000000	66.029309
720.000000	65.655651
719.000000	65.229291
718.000000	64.758095
717.000000	64.397613
716.000000	63.968882
715.000000	63.544607
714.000000	63.099668
713.000000	62.660226
712.000000	62.253392
711.000000	61.867032
710.000000	61.425506
709.000000	61.035639
708.000000	60.714304
707.000000	60.396666
706.000000	60.007747
705.000000	59.633900
704.000000	59.349059
703.000000	59.076825
702.000000	58.746202
701.000000	58.438896
700.000000	58.154529
699.000000	57.880020
698.000000	57.608166
697.000000	57.334794
696.000000	57.018768
695.000000	56.691462
694.000000	56.366810
693.000000	56.047371
692.000000	55.659969
691.000000	55.266121
690.000000	54.910283
689.000000	54.507525
688.000000	54.113297
687.000000	53.713288
686.000000	53.304369
685.000000	52.935166
684.000000	52.581413
683.000000	52.223396
682.000000	51.846704
681.000000	51.539209
680.000000	51.251335
679.000000	50.900332
678.000000	50.581556
677.000000	50.272829
676.000000	49.956044
675.000000	49.649023
674.000000	49.320674
673.000000	48.963509
672.000000	48.602932
671.000000	48.253635
670.000000	47.898366
669.000000	47.575989
668.000000	47.196928
667.000000	46.804976
666.000000	46.407431
665.000000	46.076238
664.000000	45.740306
663.000000	45.447503
662.000000	45.141904
661.000000	44.910619
660.000000	44.704074
659.000000	44.539899
658.000000	44.412408
657.000000	44.335913
656.000000	44.332691
655.000000	44.336482
654.000000	44.438286
653.000000	44.533264
652.000000	44.659333
651.000000	44.815166
650.000000	44.952042
649.000000	45.097163
648.000000	45.228257
647.000000	45.343236
646.000000	45.411578
645.000000	45.376317
644.000000	45.372430
643.000000	45.240105
642.000000	45.099533
641.000000	44.855452
640.000000	44.602839
639.000000	44.237428
638.000000	43.900264
637.000000	43.493619
636.000000	43.040244
635.000000	42.614641
634.000000	42.225059
633.000000	41.843912
632.000000	41.468264
631.000000	41.143327
630.000000	40.838960
629.000000	40.634121
628.000000	40.467577
627.000000	40.367669
626.000000	40.353262
625.000000	40.373546
624.000000	40.472885
623.000000	40.619429
622.000000	40.826258
621.000000	41.094795
620.000000	41.416888
619.000000	41.726943
618.000000	42.068941
617.000000	42.503643
616.000000	42.953417
615.000000	43.372763
614.000000	43.852395
613.000000	44.345108
612.000000	44.889007
611.000000	45.412052
610.000000	46.011782
609.000000	46.620232
608.000000	47.211905
607.000000	47.831635
606.000000	48.410795
605.000000	48.983699
604.000000	49.609212
603.000000	50.170457
602.000000	50.700801
601.000000	51.294938
600.000000	51.816372
599.000000	52.351456
598.000000	52.854216
597.000000	53.310151
596.000000	53.770446
595.000000	54.190740
594.000000	54.617101
593.000000	54.978626
592.000000	55.331525
591.000000	55.603948
590.000000	55.874760
589.000000	56.111922
588.000000	56.306713
587.000000	56.529562
586.000000	56.726154
585.000000	56.874025
584.000000	57.087869
583.000000	57.196782
582.000000	57.315931
581.000000	57.407118
580.000000	57.446740
579.000000	57.469868
578.000000	57.481717
577.000000	57.456408
576.000000	57.448541
575.000000	57.397450
574.000000	57.368444
573.000000	57.346074
572.000000	57.296784
571.000000	57.244460
570.000000	57.221427
569.000000	57.120097
568.000000	57.007678
567.000000	56.882935
566.000000	56.767862
565.000000	56.625489
564.000000	56.475817
563.000000	56.361596
562.000000	56.190597
561.000000	56.046233
560.000000	55.864713
559.000000	55.668784
558.000000	55.459869
557.000000	55.218536
556.000000	54.961090
555.000000	54.639092
554.000000	54.317378
553.000000	54.041163
552.000000	53.694804
551.000000	53.366171
550.000000	53.018485
549.000000	52.629851
548.000000	52.210410
547.000000	51.785850
546.000000	51.331053
545.000000	50.852084
544.000000	50.367807
543.000000	49.845426
542.000000	49.313944
541.000000	48.774690
540.000000	48.134106
539.000000	47.480821
538.000000	46.842417
537.000000	46.148941
536.000000	45.409493
535.000000	44.676869
534.000000	43.882348
533.000000	43.080529
532.000000	42.265154
531.000000	41.456131
530.000000	40.601135
529.000000	39.757418
528.000000	38.931238
527.000000	38.133968
526.000000	37.336414
525.000000	36.589572
524.000000	35.852114
523.000000	35.134562
522.000000	34.450375
521.000000	33.814247
520.000000	33.190062
519.000000	32.582938
518.000000	32.005390
517.000000	31.464429
516.000000	30.980437
515.000000	30.478814
514.000000	30.007049
513.000000	29.564385
512.000000	29.154517
511.000000	28.769959
510.000000	28.426254
509.000000	28.101792
508.000000	27.790884
507.000000	27.506043
506.000000	27.251535
505.000000	27.008022
504.000000	26.774936
503.000000	26.554931
502.000000	26.357959
501.000000	26.161178
500.000000	26.005060
499.000000	25.833966
498.000000	25.677280
497.000000	25.533675
496.000000	25.389217
495.000000	25.233857
494.000000	25.095940
493.000000	24.974989
492.000000	24.847403
491.000000	24.702471
490.000000	24.581141
489.000000	24.471280
488.000000	24.350709
487.000000	24.225398
486.000000	24.100371
485.000000	23.992596
484.000000	23.879134
483.000000	23.757046
482.000000	23.606142
481.000000	23.438365
480.000000	23.257793
479.000000	23.049162
478.000000	22.866504
477.000000	22.673229
476.000000	22.477206
475.000000	22.263457
474.000000	22.056627
473.000000	21.848091
472.000000	21.630172
471.000000	21.404005
470.000000	21.183621
469.000000	20.969493
468.000000	20.725222
467.000000	20.483794
466.000000	20.229950
465.000000	19.983024
464.000000	19.729559
463.000000	19.463297
462.000000	19.187366
461.000000	18.902051
460.000000	18.604319
459.000000	18.295971
458.000000	17.982314
457.000000	17.667615
456.000000	17.336328
455.000000	16.997078
454.000000	16.652710
453.000000	16.305403
452.000000	15.956390
451.000000	15.590126
450.000000	15.210496
449.000000	14.843758
448.000000	14.473417
447.000000	14.082224
446.000000	13.697760
445.000000	13.326945
444.000000	12.964567
443.000000	12.590530
442.000000	12.203412
441.000000	11.830228
440.000000	11.475717
439.000000	11.115614
438.000000	10.783189
437.000000	10.475599
436.000000	10.165355
435.000000	9.867054
434.000000	9.570839
433.000000	9.295761
432.000000	9.044381
431.000000	8.800300
430.000000	8.576598
429.000000	8.364460
428.000000	8.147773
427.000000	7.955541
426.000000	7.796580
425.000000	7.644159
424.000000	7.508326
423.000000	7.382826
422.000000	7.259695
421.000000	7.138176
420.000000	7.034666
419.000000	6.945280
418.000000	6.860823
417.000000	6.780727
416.000000	6.711910
415.000000	6.640818
414.000000	6.573708
413.000000	6.524512
412.000000	6.477876
411.000000	6.424225
410.000000	6.387068
409.000000	6.342138
408.000000	6.303369
407.000000	6.275975
406.000000	6.247823
405.000000	6.219386
404.000000	6.209149
403.000000	6.190002
402.000000	6.173888
401.000000	6.136825
400.000000	6.115403
399.000000	6.099668
398.000000	6.081469
397.000000	6.069336
396.000000	6.061089
395.000000	6.055212
394.000000	6.029998
393.000000	6.013410
392.000000	5.994737
391.000000	5.969902
390.000000	5.944025
389.000000	5.929617
388.000000	5.912176
387.000000	5.886203
386.000000	5.855492
385.000000	5.824780
384.000000	5.802315
383.000000	5.778049
382.000000	5.756627
381.000000	5.738807
380.000000	5.716910
379.000000	5.703924
378.000000	5.696625
377.000000	5.654065
376.000000	5.642122
375.000000	5.580888
374.000000	5.530366
373.000000	5.443255
372.000000	5.500602
371.000000	5.524394
370.000000	5.535484
369.000000	5.498043
368.000000	5.452260
367.000000	5.522214
366.000000	5.463066
365.000000	5.475104
364.000000	5.448658
363.000000	5.453018
362.000000	5.390742
361.000000	5.373964
360.000000	5.364201
359.000000	5.401737
358.000000	5.432449
357.000000	5.362305
356.000000	5.326096
355.000000	5.265905
354.000000	5.285147
353.000000	5.312730
352.000000	5.278038
351.000000	5.273962
350.000000	5.325811
349.000000	5.263250
348.000000	5.258227
347.000000	5.179362
346.000000	5.254719
345.000000	5.284483
344.000000	5.219553
343.000000	5.258321
342.000000	5.252634
341.000000	5.230548
340.000000	5.187609
339.000000	5.178794
338.000000	5.199363
337.000000	5.283061
336.000000	5.237847
335.000000	5.165333
334.000000	5.139551
333.000000	5.313489
332.000000	5.213960
331.000000	5.117749
330.000000	5.204955
329.000000	5.248748
328.000000	5.301071
327.000000	5.110830
326.000000	5.180026
325.000000	5.229600
324.000000	5.286284
323.000000	5.360409
322.000000	5.354248
321.000000	5.369414
320.000000	5.193486
319.000000	5.346760
318.000000	5.271213
317.000000	5.394723
316.000000	5.106944
315.000000	5.072535
314.000000	5.067132
313.000000	5.103057
312.000000	5.129788
311.000000	5.115948
310.000000	5.063909
309.000000	5.105332
308.000000	5.155191
307.000000	5.102299
306.000000	5.080023
305.000000	5.020686
304.000000	5.098886
303.000000	5.112820
302.000000	5.159457
301.000000	5.127513
300.000000	5.106849
299.000000	5.113768
298.000000	5.103721
297.000000	5.110072
296.000000	5.094905
295.000000	5.145238
294.000000	5.138319
293.000000	5.172348
292.000000	5.170263
291.000000	5.091493
290.000000	5.094052
289.000000	5.131683
288.000000	5.140499
287.000000	5.101825
286.000000	5.134717
285.000000	5.120214
284.000000	5.145807
283.000000	5.138887
282.000000	5.120972
281.000000	5.141068
280.000000	5.146186
279.000000	5.160310
278.000000	5.155855
277.000000	5.199078
276.000000	5.267042
275.000000	5.208273
274.000000	5.238037
273.000000	5.232728
272.000000	5.210548
271.000000	5.275573
270.000000	5.272824
269.000000	5.340788
268.000000	5.323821
267.000000	5.309223
266.000000	5.366476
265.000000	5.400600
264.000000	5.345527
263.000000	5.473871
262.000000	5.445624
261.000000	5.477284
260.000000	5.492545
259.000000	5.469701
258.000000	5.487237
257.000000	5.517190
256.000000	5.559276
255.000000	5.561551
254.000000	5.588756
253.000000	5.557570
252.000000	5.587523
251.000000	5.606860
250.000000	5.616529
