PE UV       SUBTECH     SPECTRUM    ASCII       PEDS        4.00        
   -1
CICIMAUCR0141-2.Sample.ASC
24/04/04
11:05:18.00
24/04/04
11:05:18.00
Vinicio Soto Monge
C. kalinini
250,000000
1
Lambda 1050
1050L1511233
PerkinElmer UV WinLab 6.3.2.0749 / 2.02.05 Lambda 900 UV/VIS/NIR, Aug  7 2015 09:38:08

0
0
3350/servo 860,8/2
0
0
UV/VIS
1
1
1
DoubleDePol,CommonBeamDepol,RBeamAtt,SBeamAtt,60mm sphere, WB InGaAs Detector
0
0
0
0
Program
Program
3350/servo 860,8/2
3350/0,2 860,8/0,2
3350/0,2 860,8/0,2
0
15.00
 
 
 
0
 
860,8
319,2
860,8
Front
100
on
S:100 R:100
0
0
0
0
 
0
 
 
 
0
 
 
0
0
0
0
0
 
 
 
 
0
0


0
0
#HDR
-1
-1
#GR
nm
%R
1.0
0.0
2500,000000
-1,000000
2251
8
74,769100
5,495500
#DATA
2500.000000	6.843600
2499.000000	6.975900
2498.000000	6.871500
2497.000000	6.853200
2496.000000	6.919300
2495.000000	6.822700
2494.000000	6.869400
2493.000000	6.886400
2492.000000	6.905100
2491.000000	6.905100
2490.000000	6.875500
2489.000000	6.921100
2488.000000	6.844900
2487.000000	6.825200
2486.000000	6.932800
2485.000000	6.954400
2484.000000	6.914400
2483.000000	6.875400
2482.000000	6.873500
2481.000000	6.906700
2480.000000	6.965400
2479.000000	6.920600
2478.000000	6.994800
2477.000000	7.047100
2476.000000	7.020800
2475.000000	6.981800
2474.000000	6.978400
2473.000000	7.052700
2472.000000	7.097200
2471.000000	7.099100
2470.000000	7.116500
2469.000000	7.125000
2468.000000	7.176700
2467.000000	7.161300
2466.000000	7.208300
2465.000000	7.207600
2464.000000	7.272000
2463.000000	7.320500
2462.000000	7.363500
2461.000000	7.385500
2460.000000	7.403100
2459.000000	7.429700
2458.000000	7.500100
2457.000000	7.569400
2456.000000	7.583500
2455.000000	7.632900
2454.000000	7.718300
2453.000000	7.752000
2452.000000	7.806900
2451.000000	7.843900
2450.000000	7.921600
2449.000000	7.991900
2448.000000	8.048300
2447.000000	8.115700
2446.000000	8.163700
2445.000000	8.235900
2444.000000	8.318500
2443.000000	8.391100
2442.000000	8.447500
2441.000000	8.515700
2440.000000	8.584000
2439.000000	8.631700
2438.000000	8.702800
2437.000000	8.795300
2436.000000	8.856900
2435.000000	8.916100
2434.000000	8.994000
2433.000000	9.049200
2432.000000	9.110900
2431.000000	9.178100
2430.000000	9.259800
2429.000000	9.315300
2428.000000	9.364800
2427.000000	9.435800
2426.000000	9.497300
2425.000000	9.540200
2424.000000	9.606200
2423.000000	9.661000
2422.000000	9.710500
2421.000000	9.760600
2420.000000	9.802200
2419.000000	9.844100
2418.000000	9.896500
2417.000000	9.931800
2416.000000	9.981700
2415.000000	10.017800
2414.000000	10.058000
2413.000000	10.101700
2412.000000	10.131800
2411.000000	10.162500
2410.000000	10.197800
2409.000000	10.222100
2408.000000	10.253000
2407.000000	10.282000
2406.000000	10.300900
2405.000000	10.323100
2404.000000	10.344900
2403.000000	10.376200
2402.000000	10.400500
2401.000000	10.425700
2400.000000	10.422700
2399.000000	10.432200
2398.000000	10.456200
2397.000000	10.483300
2396.000000	10.513100
2395.000000	10.518500
2394.000000	10.521300
2393.000000	10.550300
2392.000000	10.550300
2391.000000	10.562400
2390.000000	10.588500
2389.000000	10.577300
2388.000000	10.567200
2387.000000	10.583400
2386.000000	10.594100
2385.000000	10.589500
2384.000000	10.589600
2383.000000	10.592000
2382.000000	10.583500
2381.000000	10.583900
2380.000000	10.575500
2379.000000	10.559500
2378.000000	10.552300
2377.000000	10.539400
2376.000000	10.534900
2375.000000	10.531700
2374.000000	10.512600
2373.000000	10.496200
2372.000000	10.490800
2371.000000	10.488200
2370.000000	10.477000
2369.000000	10.460000
2368.000000	10.451000
2367.000000	10.458300
2366.000000	10.455100
2365.000000	10.443800
2364.000000	10.435900
2363.000000	10.430200
2362.000000	10.411400
2361.000000	10.392800
2360.000000	10.391700
2359.000000	10.397000
2358.000000	10.398900
2357.000000	10.384200
2356.000000	10.357700
2355.000000	10.334700
2354.000000	10.320900
2353.000000	10.308900
2352.000000	10.284300
2351.000000	10.267700
2350.000000	10.264000
2349.000000	10.242700
2348.000000	10.203300
2347.000000	10.188700
2346.000000	10.169200
2345.000000	10.148600
2344.000000	10.141100
2343.000000	10.115000
2342.000000	10.100700
2341.000000	10.093700
2340.000000	10.079300
2339.000000	10.058800
2338.000000	10.033800
2337.000000	10.018100
2336.000000	10.011600
2335.000000	9.996500
2334.000000	9.985000
2333.000000	9.987900
2332.000000	9.977000
2331.000000	9.968700
2330.000000	9.944700
2329.000000	9.948900
2328.000000	9.962200
2327.000000	9.964200
2326.000000	9.955900
2325.000000	9.952400
2324.000000	9.952400
2323.000000	9.939500
2322.000000	9.925400
2321.000000	9.931100
2320.000000	9.912200
2319.000000	9.882900
2318.000000	9.864300
2317.000000	9.842500
2316.000000	9.801600
2315.000000	9.775000
2314.000000	9.746900
2313.000000	9.708200
2312.000000	9.666900
2311.000000	9.614600
2310.000000	9.582300
2309.000000	9.555200
2308.000000	9.511400
2307.000000	9.442800
2306.000000	9.424700
2305.000000	9.383800
2304.000000	9.341400
2303.000000	9.317200
2302.000000	9.276200
2301.000000	9.256200
2300.000000	9.232800
2299.000000	9.205400
2298.000000	9.170200
2297.000000	9.141700
2296.000000	9.139600
2295.000000	9.118300
2294.000000	9.096700
2293.000000	9.079300
2292.000000	9.068800
2291.000000	9.052100
2290.000000	9.041700
2289.000000	9.015600
2288.000000	9.004500
2287.000000	9.000800
2286.000000	8.986400
2285.000000	8.986800
2284.000000	8.965900
2283.000000	8.946300
2282.000000	8.938400
2281.000000	8.935700
2280.000000	8.914800
2279.000000	8.899700
2278.000000	8.888600
2277.000000	8.869900
2276.000000	8.852800
2275.000000	8.825700
2274.000000	8.773300
2273.000000	8.761500
2272.000000	8.742000
2271.000000	8.726000
2270.000000	8.696900
2269.000000	8.662900
2268.000000	8.655700
2267.000000	8.647200
2266.000000	8.621200
2265.000000	8.622000
2264.000000	8.637100
2263.000000	8.647200
2262.000000	8.643200
2261.000000	8.651200
2260.000000	8.677800
2259.000000	8.713000
2258.000000	8.735600
2257.000000	8.756800
2256.000000	8.808300
2255.000000	8.862300
2254.000000	8.897900
2253.000000	8.929600
2252.000000	8.984000
2251.000000	9.028000
2250.000000	9.076100
2249.000000	9.133300
2248.000000	9.188000
2247.000000	9.234100
2246.000000	9.267500
2245.000000	9.305200
2244.000000	9.339200
2243.000000	9.369800
2242.000000	9.415900
2241.000000	9.407300
2240.000000	9.443700
2239.000000	9.457600
2238.000000	9.486700
2237.000000	9.460200
2236.000000	9.479900
2235.000000	9.467100
2234.000000	9.446900
2233.000000	9.416400
2232.000000	9.401300
2231.000000	9.365900
2230.000000	9.319800
2229.000000	9.284400
2228.000000	9.226100
2227.000000	9.176300
2226.000000	9.085300
2225.000000	9.059300
2224.000000	8.951900
2223.000000	8.902100
2222.000000	8.836100
2221.000000	8.724100
2220.000000	8.647700
2219.000000	8.576300
2218.000000	8.481000
2217.000000	8.423000
2216.000000	8.348400
2215.000000	8.300300
2214.000000	8.219000
2213.000000	8.180600
2212.000000	8.155000
2211.000000	8.113300
2210.000000	8.120000
2209.000000	8.118600
2208.000000	8.136500
2207.000000	8.187900
2206.000000	8.227400
2205.000000	8.285000
2204.000000	8.363800
2203.000000	8.451100
2202.000000	8.551300
2201.000000	8.655000
2200.000000	8.746300
2199.000000	8.883500
2198.000000	8.989500
2197.000000	9.112700
2196.000000	9.239600
2195.000000	9.339100
2194.000000	9.439000
2193.000000	9.559700
2192.000000	9.669100
2191.000000	9.761800
2190.000000	9.865300
2189.000000	9.925200
2188.000000	9.979500
2187.000000	10.048900
2186.000000	10.112400
2185.000000	10.136000
2184.000000	10.200700
2183.000000	10.250700
2182.000000	10.277500
2181.000000	10.299100
2180.000000	10.336100
2179.000000	10.367600
2178.000000	10.385300
2177.000000	10.414600
2176.000000	10.439200
2175.000000	10.455500
2174.000000	10.475200
2173.000000	10.528400
2172.000000	10.553400
2171.000000	10.588500
2170.000000	10.609300
2169.000000	10.632800
2168.000000	10.674200
2167.000000	10.699300
2166.000000	10.745600
2165.000000	10.785500
2164.000000	10.836600
2163.000000	10.884000
2162.000000	10.910900
2161.000000	10.956000
2160.000000	11.019900
2159.000000	11.063900
2158.000000	11.140700
2157.000000	11.216000
2156.000000	11.251800
2155.000000	11.327000
2154.000000	11.385200
2153.000000	11.465700
2152.000000	11.557000
2151.000000	11.636300
2150.000000	11.696600
2149.000000	11.769300
2148.000000	11.861500
2147.000000	11.942600
2146.000000	12.013200
2145.000000	12.081600
2144.000000	12.162300
2143.000000	12.229000
2142.000000	12.302800
2141.000000	12.373500
2140.000000	12.440800
2139.000000	12.508900
2138.000000	12.585200
2137.000000	12.644300
2136.000000	12.704100
2135.000000	12.755600
2134.000000	12.816500
2133.000000	12.865900
2132.000000	12.916000
2131.000000	12.967300
2130.000000	13.019600
2129.000000	13.059600
2128.000000	13.091200
2127.000000	13.130600
2126.000000	13.175900
2125.000000	13.200700
2124.000000	13.216800
2123.000000	13.254400
2122.000000	13.285600
2121.000000	13.309600
2120.000000	13.331500
2119.000000	13.342000
2118.000000	13.349300
2117.000000	13.364400
2116.000000	13.387100
2115.000000	13.390400
2114.000000	13.392100
2113.000000	13.396100
2112.000000	13.411700
2111.000000	13.430400
2110.000000	13.426200
2109.000000	13.420100
2108.000000	13.413600
2107.000000	13.421400
2106.000000	13.431500
2105.000000	13.417500
2104.000000	13.403200
2103.000000	13.416500
2102.000000	13.418000
2101.000000	13.400100
2100.000000	13.408300
2099.000000	13.416300
2098.000000	13.401500
2097.000000	13.405400
2096.000000	13.417400
2095.000000	13.424300
2094.000000	13.439100
2093.000000	13.439700
2092.000000	13.442300
2091.000000	13.454100
2090.000000	13.460300
2089.000000	13.458300
2088.000000	13.463500
2087.000000	13.478100
2086.000000	13.472100
2085.000000	13.449800
2084.000000	13.437800
2083.000000	13.439500
2082.000000	13.412600
2081.000000	13.387000
2080.000000	13.360900
2079.000000	13.318500
2078.000000	13.276000
2077.000000	13.238300
2076.000000	13.199600
2075.000000	13.139400
2074.000000	13.089000
2073.000000	13.027300
2072.000000	12.961000
2071.000000	12.899300
2070.000000	12.822000
2069.000000	12.750300
2068.000000	12.676700
2067.000000	12.599800
2066.000000	12.526000
2065.000000	12.442400
2064.000000	12.378900
2063.000000	12.308700
2062.000000	12.233000
2061.000000	12.168700
2060.000000	12.101300
2059.000000	12.040200
2058.000000	12.001700
2057.000000	11.958300
2056.000000	11.938600
2055.000000	11.915900
2054.000000	11.895000
2053.000000	11.910000
2052.000000	11.930200
2051.000000	11.963300
2050.000000	12.021100
2049.000000	12.067300
2048.000000	12.117900
2047.000000	12.199700
2046.000000	12.279900
2045.000000	12.367200
2044.000000	12.444400
2043.000000	12.525500
2042.000000	12.644000
2041.000000	12.734700
2040.000000	12.814700
2039.000000	12.915400
2038.000000	13.008300
2037.000000	13.095400
2036.000000	13.172200
2035.000000	13.250400
2034.000000	13.318500
2033.000000	13.414900
2032.000000	13.481500
2031.000000	13.537100
2030.000000	13.599900
2029.000000	13.668000
2028.000000	13.733600
2027.000000	13.789600
2026.000000	13.839100
2025.000000	13.895700
2024.000000	13.938800
2023.000000	13.974800
2022.000000	14.026800
2021.000000	14.080500
2020.000000	14.128900
2019.000000	14.150600
2018.000000	14.197600
2017.000000	14.217400
2016.000000	14.251600
2015.000000	14.282600
2014.000000	14.281300
2013.000000	14.318400
2012.000000	14.316700
2011.000000	14.327800
2010.000000	14.331300
2009.000000	14.328700
2008.000000	14.325600
2007.000000	14.308700
2006.000000	14.299100
2005.000000	14.284700
2004.000000	14.279300
2003.000000	14.240500
2002.000000	14.213700
2001.000000	14.192700
2000.000000	14.154900
1999.000000	14.137000
1998.000000	14.079100
1997.000000	14.031200
1996.000000	14.012600
1995.000000	13.949400
1994.000000	13.927800
1993.000000	13.878200
1992.000000	13.813000
1991.000000	13.773700
1990.000000	13.735800
1989.000000	13.656900
1988.000000	13.609800
1987.000000	13.554800
1986.000000	13.495900
1985.000000	13.439600
1984.000000	13.381600
1983.000000	13.329600
1982.000000	13.258400
1981.000000	13.194300
1980.000000	13.122800
1979.000000	13.069600
1978.000000	12.994000
1977.000000	12.945100
1976.000000	12.901900
1975.000000	12.834200
1974.000000	12.780000
1973.000000	12.723400
1972.000000	12.661800
1971.000000	12.612200
1970.000000	12.552000
1969.000000	12.472800
1968.000000	12.436800
1967.000000	12.381300
1966.000000	12.321200
1965.000000	12.283700
1964.000000	12.228700
1963.000000	12.172100
1962.000000	12.114300
1961.000000	12.040900
1960.000000	11.985300
1959.000000	11.938600
1958.000000	11.866900
1957.000000	11.813700
1956.000000	11.760400
1955.000000	11.714900
1954.000000	11.630900
1953.000000	11.582200
1952.000000	11.531400
1951.000000	11.463000
1950.000000	11.411600
1949.000000	11.370500
1948.000000	11.323600
1947.000000	11.274500
1946.000000	11.217600
1945.000000	11.192500
1944.000000	11.143400
1943.000000	11.121800
1942.000000	11.105600
1941.000000	11.065000
1940.000000	11.058000
1939.000000	11.044300
1938.000000	11.044300
1937.000000	11.026200
1936.000000	11.002400
1935.000000	11.025100
1934.000000	11.000400
1933.000000	11.030800
1932.000000	11.055600
1931.000000	11.083200
1930.000000	11.129700
1929.000000	11.154800
1928.000000	11.201000
1927.000000	11.252100
1926.000000	11.318800
1925.000000	11.380200
1924.000000	11.455900
1923.000000	11.546500
1922.000000	11.635900
1921.000000	11.748600
1920.000000	11.856800
1919.000000	11.966400
1918.000000	12.076900
1917.000000	12.196200
1916.000000	12.319900
1915.000000	12.491300
1914.000000	12.654400
1913.000000	12.873900
1912.000000	13.066600
1911.000000	13.243300
1910.000000	13.446800
1909.000000	13.630900
1908.000000	13.875200
1907.000000	14.154600
1906.000000	14.464000
1905.000000	14.821700
1904.000000	15.153100
1903.000000	15.452500
1902.000000	15.800100
1901.000000	16.176000
1900.000000	16.580500
1899.000000	17.010800
1898.000000	17.434700
1897.000000	17.859000
1896.000000	18.219200
1895.000000	18.600100
1894.000000	19.031700
1893.000000	19.496600
1892.000000	20.011700
1891.000000	20.513400
1890.000000	20.984800
1889.000000	21.420200
1888.000000	21.866400
1887.000000	22.264600
1886.000000	22.673600
1885.000000	23.092600
1884.000000	23.517700
1883.000000	23.903500
1882.000000	24.247300
1881.000000	24.592100
1880.000000	24.872400
1879.000000	25.164800
1878.000000	25.470300
1877.000000	25.747800
1876.000000	26.023800
1875.000000	26.310500
1874.000000	26.560100
1873.000000	26.806500
1872.000000	27.041700
1871.000000	27.238800
1870.000000	27.404200
1869.000000	27.571500
1868.000000	27.682900
1867.000000	27.771900
1866.000000	27.843000
1865.000000	27.907100
1864.000000	27.983500
1863.000000	28.063400
1862.000000	28.158000
1861.000000	28.270700
1860.000000	28.381400
1859.000000	28.469500
1858.000000	28.545500
1857.000000	28.587800
1856.000000	28.634400
1855.000000	28.678300
1854.000000	28.722300
1853.000000	28.737000
1852.000000	28.734700
1851.000000	28.762200
1850.000000	28.815100
1849.000000	28.879500
1848.000000	28.904200
1847.000000	28.904900
1846.000000	28.869400
1845.000000	28.831100
1844.000000	28.801600
1843.000000	28.803200
1842.000000	28.826000
1841.000000	28.839100
1840.000000	28.814200
1839.000000	28.776500
1838.000000	28.769700
1837.000000	28.747400
1836.000000	28.683100
1835.000000	28.630000
1834.000000	28.581000
1833.000000	28.539400
1832.000000	28.516200
1831.000000	28.491100
1830.000000	28.472100
1829.000000	28.452300
1828.000000	28.415500
1827.000000	28.393000
1826.000000	28.376200
1825.000000	28.351700
1824.000000	28.332600
1823.000000	28.353000
1822.000000	28.399900
1821.000000	28.427500
1820.000000	28.423400
1819.000000	28.397000
1818.000000	28.365700
1817.000000	28.340300
1816.000000	28.341200
1815.000000	28.325000
1814.000000	28.302900
1813.000000	28.304900
1812.000000	28.294000
1811.000000	28.256800
1810.000000	28.210500
1809.000000	28.175600
1808.000000	28.151600
1807.000000	28.138500
1806.000000	28.110900
1805.000000	28.079400
1804.000000	28.058400
1803.000000	28.039700
1802.000000	28.034200
1801.000000	28.007500
1800.000000	27.967400
1799.000000	27.939000
1798.000000	27.907000
1797.000000	27.887800
1796.000000	27.852300
1795.000000	27.816900
1794.000000	27.792900
1793.000000	27.778000
1792.000000	27.757000
1791.000000	27.736900
1790.000000	27.713100
1789.000000	27.708300
1788.000000	27.703800
1787.000000	27.702000
1786.000000	27.698700
1785.000000	27.698100
1784.000000	27.675100
1783.000000	27.641500
1782.000000	27.624500
1781.000000	27.607200
1780.000000	27.580400
1779.000000	27.546100
1778.000000	27.503900
1777.000000	27.470600
1776.000000	27.426100
1775.000000	27.365100
1774.000000	27.310000
1773.000000	27.272900
1772.000000	27.206000
1771.000000	27.159400
1770.000000	27.112300
1769.000000	27.056900
1768.000000	26.997400
1767.000000	26.954200
1766.000000	26.913500
1765.000000	26.856700
1764.000000	26.832700
1763.000000	26.802600
1762.000000	26.785300
1761.000000	26.781900
1760.000000	26.787500
1759.000000	26.761900
1758.000000	26.747900
1757.000000	26.728800
1756.000000	26.726900
1755.000000	26.717600
1754.000000	26.714600
1753.000000	26.696400
1752.000000	26.664900
1751.000000	26.653000
1750.000000	26.638100
1749.000000	26.585200
1748.000000	26.553800
1747.000000	26.496800
1746.000000	26.432900
1745.000000	26.354100
1744.000000	26.292100
1743.000000	26.233400
1742.000000	26.159300
1741.000000	26.090400
1740.000000	26.001000
1739.000000	25.931400
1738.000000	25.855400
1737.000000	25.793800
1736.000000	25.753700
1735.000000	25.714800
1734.000000	25.659600
1733.000000	25.602100
1732.000000	25.575900
1731.000000	25.534600
1730.000000	25.496400
1729.000000	25.439300
1728.000000	25.411600
1727.000000	25.378600
1726.000000	25.372300
1725.000000	25.355700
1724.000000	25.357800
1723.000000	25.427800
1722.000000	25.508200
1721.000000	25.617700
1720.000000	25.778100
1719.000000	25.965500
1718.000000	26.160600
1717.000000	26.391800
1716.000000	26.593100
1715.000000	26.787000
1714.000000	26.981400
1713.000000	27.157400
1712.000000	27.308500
1711.000000	27.465100
1710.000000	27.576500
1709.000000	27.718100
1708.000000	27.788800
1707.000000	27.883000
1706.000000	27.934700
1705.000000	28.007800
1704.000000	28.043900
1703.000000	28.088700
1702.000000	28.089300
1701.000000	28.120900
1700.000000	28.159000
1699.000000	28.149000
1698.000000	28.150000
1697.000000	28.150000
1696.000000	28.118400
1695.000000	28.066100
1694.000000	28.036100
1693.000000	27.932400
1692.000000	27.877500
1691.000000	27.788900
1690.000000	27.772300
1689.000000	27.734700
1688.000000	27.766600
1687.000000	27.831400
1686.000000	27.927900
1685.000000	28.085300
1684.000000	28.260800
1683.000000	28.449900
1682.000000	28.664000
1681.000000	28.860100
1680.000000	29.064500
1679.000000	29.256600
1678.000000	29.437100
1677.000000	29.589400
1676.000000	29.760300
1675.000000	29.893000
1674.000000	30.034200
1673.000000	30.189300
1672.000000	30.356900
1671.000000	30.497400
1670.000000	30.648900
1669.000000	30.810300
1668.000000	30.979200
1667.000000	31.107200
1666.000000	31.239800
1665.000000	31.393000
1664.000000	31.515400
1663.000000	31.643300
1662.000000	31.763900
1661.000000	31.872300
1660.000000	31.977000
1659.000000	32.043800
1658.000000	32.122100
1657.000000	32.188900
1656.000000	32.256500
1655.000000	32.295300
1654.000000	32.328600
1653.000000	32.361400
1652.000000	32.374500
1651.000000	32.374900
1650.000000	32.370300
1649.000000	32.372100
1648.000000	32.380500
1647.000000	32.381700
1646.000000	32.349900
1645.000000	32.340400
1644.000000	32.328800
1643.000000	32.317600
1642.000000	32.307600
1641.000000	32.299000
1640.000000	32.295300
1639.000000	32.266800
1638.000000	32.244300
1637.000000	32.221900
1636.000000	32.206200
1635.000000	32.191100
1634.000000	32.151100
1633.000000	32.113400
1632.000000	32.084600
1631.000000	32.062800
1630.000000	32.019800
1629.000000	31.985100
1628.000000	31.957600
1627.000000	31.914300
1626.000000	31.876400
1625.000000	31.827800
1624.000000	31.800000
1623.000000	31.773300
1622.000000	31.746400
1621.000000	31.718900
1620.000000	31.696900
1619.000000	31.673900
1618.000000	31.629300
1617.000000	31.602400
1616.000000	31.581100
1615.000000	31.561600
1614.000000	31.522800
1613.000000	31.483100
1612.000000	31.452000
1611.000000	31.401700
1610.000000	31.355600
1609.000000	31.316400
1608.000000	31.260600
1607.000000	31.206500
1606.000000	31.143400
1605.000000	31.084500
1604.000000	31.022700
1603.000000	30.955400
1602.000000	30.897100
1601.000000	30.848000
1600.000000	30.789000
1599.000000	30.719700
1598.000000	30.656400
1597.000000	30.616000
1596.000000	30.556600
1595.000000	30.513000
1594.000000	30.464200
1593.000000	30.413000
1592.000000	30.377200
1591.000000	30.333200
1590.000000	30.295200
1589.000000	30.261600
1588.000000	30.219500
1587.000000	30.168700
1586.000000	30.136900
1585.000000	30.108800
1584.000000	30.064300
1583.000000	30.030200
1582.000000	30.003800
1581.000000	29.970600
1580.000000	29.929300
1579.000000	29.917000
1578.000000	29.903700
1577.000000	29.891000
1576.000000	29.880600
1575.000000	29.865600
1574.000000	29.861400
1573.000000	29.869500
1572.000000	29.874100
1571.000000	29.866200
1570.000000	29.877200
1569.000000	29.901400
1568.000000	29.911300
1567.000000	29.921100
1566.000000	29.935600
1565.000000	29.940000
1564.000000	29.946600
1563.000000	29.959800
1562.000000	29.967500
1561.000000	29.960800
1560.000000	29.935700
1559.000000	29.899400
1558.000000	29.867800
1557.000000	29.838400
1556.000000	29.800000
1555.000000	29.742200
1554.000000	29.676200
1553.000000	29.619700
1552.000000	29.561400
1551.000000	29.480200
1550.000000	29.388800
1549.000000	29.315500
1548.000000	29.236900
1547.000000	29.155000
1546.000000	29.074200
1545.000000	29.006400
1544.000000	28.958400
1543.000000	28.903300
1542.000000	28.841500
1541.000000	28.791400
1540.000000	28.754100
1539.000000	28.720900
1538.000000	28.679800
1537.000000	28.636500
1536.000000	28.602700
1535.000000	28.546500
1534.000000	28.491400
1533.000000	28.434900
1532.000000	28.376200
1531.000000	28.331400
1530.000000	28.267400
1529.000000	28.188400
1528.000000	28.139000
1527.000000	28.081300
1526.000000	28.011300
1525.000000	27.965700
1524.000000	27.925900
1523.000000	27.863600
1522.000000	27.803200
1521.000000	27.742700
1520.000000	27.681200
1519.000000	27.627600
1518.000000	27.568700
1517.000000	27.509700
1516.000000	27.458000
1515.000000	27.397100
1514.000000	27.342400
1513.000000	27.285000
1512.000000	27.216600
1511.000000	27.162000
1510.000000	27.112700
1509.000000	27.060800
1508.000000	27.008400
1507.000000	26.959000
1506.000000	26.918100
1505.000000	26.854800
1504.000000	26.810700
1503.000000	26.773800
1502.000000	26.736500
1501.000000	26.702700
1500.000000	26.685100
1499.000000	26.673600
1498.000000	26.662400
1497.000000	26.643900
1496.000000	26.653100
1495.000000	26.654900
1494.000000	26.668500
1493.000000	26.681900
1492.000000	26.705800
1491.000000	26.729100
1490.000000	26.747800
1489.000000	26.782900
1488.000000	26.818900
1487.000000	26.845300
1486.000000	26.873400
1485.000000	26.913900
1484.000000	26.955300
1483.000000	26.985700
1482.000000	26.998000
1481.000000	27.057500
1480.000000	27.093200
1479.000000	27.114600
1478.000000	27.163800
1477.000000	27.201400
1476.000000	27.239800
1475.000000	27.287500
1474.000000	27.363400
1473.000000	27.418000
1472.000000	27.492100
1471.000000	27.550500
1470.000000	27.610800
1469.000000	27.644100
1468.000000	27.729400
1467.000000	27.796600
1466.000000	27.856000
1465.000000	27.944000
1464.000000	28.020100
1463.000000	28.078200
1462.000000	28.161700
1461.000000	28.221700
1460.000000	28.291700
1459.000000	28.398000
1458.000000	28.465800
1457.000000	28.532800
1456.000000	28.624300
1455.000000	28.701200
1454.000000	28.764100
1453.000000	28.866000
1452.000000	28.954500
1451.000000	29.013900
1450.000000	29.103300
1449.000000	29.136900
1448.000000	29.218700
1447.000000	29.308700
1446.000000	29.418900
1445.000000	29.492500
1444.000000	29.523400
1443.000000	29.616700
1442.000000	29.681800
1441.000000	29.796900
1440.000000	29.863000
1439.000000	29.962600
1438.000000	30.061200
1437.000000	30.131000
1436.000000	30.247300
1435.000000	30.343700
1434.000000	30.466900
1433.000000	30.602800
1432.000000	30.710300
1431.000000	30.848200
1430.000000	30.976700
1429.000000	31.114200
1428.000000	31.252900
1427.000000	31.431100
1426.000000	31.598600
1425.000000	31.779100
1424.000000	31.995500
1423.000000	32.184500
1422.000000	32.360900
1421.000000	32.576800
1420.000000	32.853600
1419.000000	33.082600
1418.000000	33.318700
1417.000000	33.493500
1416.000000	33.779800
1415.000000	34.090400
1414.000000	34.406400
1413.000000	34.661100
1412.000000	34.908300
1411.000000	35.263700
1410.000000	35.605900
1409.000000	35.957100
1408.000000	36.278800
1407.000000	36.579600
1406.000000	36.911800
1405.000000	37.231900
1404.000000	37.493600
1403.000000	37.778000
1402.000000	38.075400
1401.000000	38.475600
1400.000000	38.693900
1399.000000	38.855200
1398.000000	38.988600
1397.000000	39.211500
1396.000000	39.485700
1395.000000	39.655100
1394.000000	39.730500
1393.000000	39.857300
1392.000000	40.007400
1391.000000	40.100600
1390.000000	40.200000
1389.000000	40.371300
1388.000000	40.556900
1387.000000	40.666100
1386.000000	40.851800
1385.000000	41.054600
1384.000000	41.254400
1383.000000	41.539000
1382.000000	41.840100
1381.000000	42.159400
1380.000000	42.470100
1379.000000	42.847700
1378.000000	43.246900
1377.000000	43.747300
1376.000000	44.247600
1375.000000	44.738300
1374.000000	45.246900
1373.000000	45.718000
1372.000000	46.143900
1371.000000	46.529900
1370.000000	46.823200
1369.000000	47.087700
1368.000000	47.287900
1367.000000	47.449700
1366.000000	47.592200
1365.000000	47.759400
1364.000000	47.882100
1363.000000	48.021800
1362.000000	48.161200
1361.000000	48.241300
1360.000000	48.268800
1359.000000	48.306000
1358.000000	48.383600
1357.000000	48.470100
1356.000000	48.594400
1355.000000	48.725800
1354.000000	48.856000
1353.000000	48.964100
1352.000000	49.167900
1351.000000	49.360300
1350.000000	49.571500
1349.000000	49.789900
1348.000000	50.009200
1347.000000	50.222500
1346.000000	50.411600
1345.000000	50.617000
1344.000000	50.806500
1343.000000	50.977400
1342.000000	51.159000
1341.000000	51.339500
1340.000000	51.500000
1339.000000	51.649000
1338.000000	51.794300
1337.000000	51.939000
1336.000000	52.078200
1335.000000	52.208200
1334.000000	52.339900
1333.000000	52.450900
1332.000000	52.575400
1331.000000	52.686500
1330.000000	52.786600
1329.000000	52.880700
1328.000000	52.969100
1327.000000	53.045000
1326.000000	53.128600
1325.000000	53.209300
1324.000000	53.274100
1323.000000	53.340800
1322.000000	53.401100
1321.000000	53.464400
1320.000000	53.521700
1319.000000	53.565300
1318.000000	53.615900
1317.000000	53.679400
1316.000000	53.733500
1315.000000	53.777900
1314.000000	53.818200
1313.000000	53.858700
1312.000000	53.893600
1311.000000	53.932400
1310.000000	53.975300
1309.000000	54.012100
1308.000000	54.021800
1307.000000	54.043900
1306.000000	54.070400
1305.000000	54.078100
1304.000000	54.082100
1303.000000	54.084900
1302.000000	54.099900
1301.000000	54.098200
1300.000000	54.087900
1299.000000	54.085400
1298.000000	54.076500
1297.000000	54.064000
1296.000000	54.049600
1295.000000	54.026100
1294.000000	54.003100
1293.000000	53.980700
1292.000000	53.956600
1291.000000	53.926800
1290.000000	53.889200
1289.000000	53.844600
1288.000000	53.813700
1287.000000	53.781300
1286.000000	53.731300
1285.000000	53.685700
1284.000000	53.641600
1283.000000	53.603200
1282.000000	53.575200
1281.000000	53.537100
1280.000000	53.498000
1279.000000	53.479200
1278.000000	53.458000
1277.000000	53.418200
1276.000000	53.392900
1275.000000	53.384200
1274.000000	53.375700
1273.000000	53.372200
1272.000000	53.359000
1271.000000	53.359500
1270.000000	53.352100
1269.000000	53.342300
1268.000000	53.340300
1267.000000	53.351900
1266.000000	53.351200
1265.000000	53.348800
1264.000000	53.342400
1263.000000	53.330500
1262.000000	53.333900
1261.000000	53.329400
1260.000000	53.308200
1259.000000	53.299100
1258.000000	53.303000
1257.000000	53.286700
1256.000000	53.266400
1255.000000	53.254900
1254.000000	53.249200
1253.000000	53.228000
1252.000000	53.189400
1251.000000	53.159700
1250.000000	53.122600
1249.000000	53.072600
1248.000000	53.039000
1247.000000	52.978200
1246.000000	52.936900
1245.000000	52.891100
1244.000000	52.841100
1243.000000	52.788200
1242.000000	52.745600
1241.000000	52.712000
1240.000000	52.676900
1239.000000	52.637900
1238.000000	52.604300
1237.000000	52.581200
1236.000000	52.547700
1235.000000	52.525400
1234.000000	52.489100
1233.000000	52.452800
1232.000000	52.405600
1231.000000	52.361700
1230.000000	52.326500
1229.000000	52.275800
1228.000000	52.227800
1227.000000	52.176500
1226.000000	52.128100
1225.000000	52.066800
1224.000000	52.028800
1223.000000	51.967800
1222.000000	51.915400
1221.000000	51.856900
1220.000000	51.800600
1219.000000	51.743800
1218.000000	51.683600
1217.000000	51.636600
1216.000000	51.569000
1215.000000	51.513800
1214.000000	51.461200
1213.000000	51.411700
1212.000000	51.336700
1211.000000	51.270200
1210.000000	51.197800
1209.000000	51.141300
1208.000000	51.069900
1207.000000	51.019500
1206.000000	50.963800
1205.000000	50.883800
1204.000000	50.827800
1203.000000	50.772800
1202.000000	50.687800
1201.000000	50.621400
1200.000000	50.563100
1199.000000	50.484700
1198.000000	50.425500
1197.000000	50.341500
1196.000000	50.253800
1195.000000	50.190900
1194.000000	50.104600
1193.000000	50.017600
1192.000000	49.943300
1191.000000	49.874300
1190.000000	49.821600
1189.000000	49.764500
1188.000000	49.725000
1187.000000	49.720500
1186.000000	49.730300
1185.000000	49.725600
1184.000000	49.739300
1183.000000	49.782200
1182.000000	49.829700
1181.000000	49.888700
1180.000000	49.940000
1179.000000	49.994900
1178.000000	50.051600
1177.000000	50.110500
1176.000000	50.163700
1175.000000	50.200800
1174.000000	50.263700
1173.000000	50.310600
1172.000000	50.387700
1171.000000	50.441900
1170.000000	50.544400
1169.000000	50.616700
1168.000000	50.717800
1167.000000	50.812600
1166.000000	50.935200
1165.000000	51.037400
1164.000000	51.167600
1163.000000	51.272500
1162.000000	51.379600
1161.000000	51.484400
1160.000000	51.583500
1159.000000	51.705100
1158.000000	51.806900
1157.000000	51.888900
1156.000000	51.973400
1155.000000	52.044900
1154.000000	52.090500
1153.000000	52.156500
1152.000000	52.202900
1151.000000	52.231400
1150.000000	52.261300
1149.000000	52.290600
1148.000000	52.338900
1147.000000	52.376200
1146.000000	52.417900
1145.000000	52.443600
1144.000000	52.480200
1143.000000	52.527900
1142.000000	52.572500
1141.000000	52.625000
1140.000000	52.672600
1139.000000	52.758500
1138.000000	52.832500
1137.000000	52.926500
1136.000000	53.035600
1135.000000	53.135600
1134.000000	53.205900
1133.000000	53.230700
1132.000000	53.284100
1131.000000	53.339300
1130.000000	53.398200
1129.000000	53.466400
1128.000000	53.481700
1127.000000	53.505700
1126.000000	53.539000
1125.000000	53.532000
1124.000000	53.561700
1123.000000	53.536900
1122.000000	53.519900
1121.000000	53.502800
1120.000000	53.461100
1119.000000	53.430000
1118.000000	53.398500
1117.000000	53.365100
1116.000000	53.328400
1115.000000	53.264800
1114.000000	53.208400
1113.000000	53.166500
1112.000000	53.108900
1111.000000	53.061700
1110.000000	53.012600
1109.000000	52.963600
1108.000000	52.913600
1107.000000	52.858300
1106.000000	52.812100
1105.000000	52.745800
1104.000000	52.691700
1103.000000	52.660300
1102.000000	52.604600
1101.000000	52.541900
1100.000000	52.490100
1099.000000	52.439800
1098.000000	52.374200
1097.000000	52.315800
1096.000000	52.265100
1095.000000	52.221100
1094.000000	52.153700
1093.000000	52.095500
1092.000000	52.042600
1091.000000	51.989700
1090.000000	51.941600
1089.000000	51.891900
1088.000000	51.843300
1087.000000	51.777600
1086.000000	51.747300
1085.000000	51.685300
1084.000000	51.617600
1083.000000	51.577900
1082.000000	51.524300
1081.000000	51.495300
1080.000000	51.435600
1079.000000	51.366900
1078.000000	51.307700
1077.000000	51.254400
1076.000000	51.204600
1075.000000	51.144800
1074.000000	51.081800
1073.000000	51.003800
1072.000000	50.946900
1071.000000	50.901500
1070.000000	50.839700
1069.000000	50.777000
1068.000000	50.707700
1067.000000	50.651900
1066.000000	50.598300
1065.000000	50.527900
1064.000000	50.457900
1063.000000	50.387000
1062.000000	50.312400
1061.000000	50.243500
1060.000000	50.189600
1059.000000	50.121000
1058.000000	50.044800
1057.000000	49.983800
1056.000000	49.920900
1055.000000	49.845300
1054.000000	49.785500
1053.000000	49.736400
1052.000000	49.669100
1051.000000	49.601100
1050.000000	49.546600
1049.000000	49.494800
1048.000000	49.431900
1047.000000	49.380600
1046.000000	49.331300
1045.000000	49.279500
1044.000000	49.220400
1043.000000	49.174100
1042.000000	49.119100
1041.000000	49.066300
1040.000000	49.018300
1039.000000	48.974400
1038.000000	48.931200
1037.000000	48.890500
1036.000000	48.855700
1035.000000	48.817000
1034.000000	48.781700
1033.000000	48.739800
1032.000000	48.691400
1031.000000	48.645200
1030.000000	48.604700
1029.000000	48.563900
1028.000000	48.532900
1027.000000	48.496700
1026.000000	48.454200
1025.000000	48.421900
1024.000000	48.393500
1023.000000	48.367400
1022.000000	48.327500
1021.000000	48.294200
1020.000000	48.287500
1019.000000	48.272100
1018.000000	48.242400
1017.000000	48.224900
1016.000000	48.221300
1015.000000	48.203500
1014.000000	48.192500
1013.000000	48.180700
1012.000000	48.159800
1011.000000	48.154600
1010.000000	48.149000
1009.000000	48.147100
1008.000000	48.151100
1007.000000	48.168100
1006.000000	48.179600
1005.000000	48.182200
1004.000000	48.195200
1003.000000	48.207400
1002.000000	48.225100
1001.000000	48.239900
1000.000000	48.263800
999.000000	48.272700
998.000000	48.286900
997.000000	48.303500
996.000000	48.322700
995.000000	48.351400
994.000000	48.377100
993.000000	48.406100
992.000000	48.437400
991.000000	48.480500
990.000000	48.508600
989.000000	48.531200
988.000000	48.571300
987.000000	48.620600
986.000000	48.654700
985.000000	48.719600
984.000000	48.769300
983.000000	48.824700
982.000000	48.891300
981.000000	48.957000
980.000000	48.997700
979.000000	49.076000
978.000000	49.142600
977.000000	49.213000
976.000000	49.266100
975.000000	49.347800
974.000000	49.423800
973.000000	49.495400
972.000000	49.581900
971.000000	49.657500
970.000000	49.739000
969.000000	49.825700
968.000000	49.930500
967.000000	50.033900
966.000000	50.125800
965.000000	50.217800
964.000000	50.303300
963.000000	50.406000
962.000000	50.515300
961.000000	50.605500
960.000000	50.712500
959.000000	50.808900
958.000000	50.909700
957.000000	51.000900
956.000000	51.104200
955.000000	51.229000
954.000000	51.335500
953.000000	51.431800
952.000000	51.540600
951.000000	51.655500
950.000000	51.771900
949.000000	51.887000
948.000000	51.990300
947.000000	52.095000
946.000000	52.205100
945.000000	52.321900
944.000000	52.440600
943.000000	52.565600
942.000000	52.655200
941.000000	52.748900
940.000000	52.845200
939.000000	52.951900
938.000000	53.073400
937.000000	53.173000
936.000000	53.299600
935.000000	53.392100
934.000000	53.504800
933.000000	53.624900
932.000000	53.729900
931.000000	53.816300
930.000000	53.910500
929.000000	54.012600
928.000000	54.151000
927.000000	54.237900
926.000000	54.347400
925.000000	54.479300
924.000000	54.564200
923.000000	54.668600
922.000000	54.782600
921.000000	54.913600
920.000000	55.041400
919.000000	55.154600
918.000000	55.273800
917.000000	55.371800
916.000000	55.522000
915.000000	55.627900
914.000000	55.760700
913.000000	55.892000
912.000000	56.006700
911.000000	56.168700
910.000000	56.304000
909.000000	56.429800
908.000000	56.583400
907.000000	56.718700
906.000000	56.834600
905.000000	56.966500
904.000000	57.093600
903.000000	57.226600
902.000000	57.353400
901.000000	57.452200
900.000000	57.593400
899.000000	57.702900
898.000000	57.840000
897.000000	57.939100
896.000000	58.055400
895.000000	58.163200
894.000000	58.275500
893.000000	58.393700
892.000000	58.515200
891.000000	58.634300
890.000000	58.762600
889.000000	58.879000
888.000000	59.008100
887.000000	59.130100
886.000000	59.237600
885.000000	59.360100
884.000000	59.491400
883.000000	59.640000
882.000000	59.760200
881.000000	59.890900
880.000000	60.021600
879.000000	60.166000
878.000000	60.324700
877.000000	60.488800
876.000000	60.650000
875.000000	60.831900
874.000000	61.008000
873.000000	61.228700
872.000000	61.432400
871.000000	61.666500
870.000000	61.892900
869.000000	62.126000
868.000000	62.377200
867.000000	62.641900
866.000000	62.893400
865.000000	63.163600
864.000000	63.402600
863.000000	63.674000
862.000000	63.923500
861.000000	64.181600
860.000000	64.443000
859.000000	64.722700
858.000000	63.727149
857.000000	63.292438
856.000000	63.833641
855.000000	64.398717
854.000000	64.377203
853.000000	64.830678
852.000000	64.532225
851.000000	65.314117
850.000000	65.499888
849.000000	65.807576
848.000000	66.282664
847.000000	66.467355
846.000000	66.630630
845.000000	67.011702
844.000000	67.436786
843.000000	67.520487
842.000000	67.647609
841.000000	68.333324
840.000000	68.409853
839.000000	68.746914
838.000000	68.834544
837.000000	69.241454
836.000000	69.448740
835.000000	69.579497
834.000000	69.957917
833.000000	70.134847
832.000000	70.209804
831.000000	70.416698
830.000000	70.433202
829.000000	70.708077
828.000000	70.857402
827.000000	70.876952
826.000000	70.936485
825.000000	71.086006
824.000000	71.290050
823.000000	71.135028
822.000000	71.233563
821.000000	71.369035
820.000000	71.447529
819.000000	71.547734
818.000000	71.552449
817.000000	71.516297
816.000000	71.633988
815.000000	71.640472
814.000000	71.770542
813.000000	71.870747
812.000000	71.932539
811.000000	71.921831
810.000000	71.887349
809.000000	71.904639
808.000000	72.042470
807.000000	72.182462
806.000000	72.152400
805.000000	72.135012
804.000000	72.260955
803.000000	72.263313
802.000000	72.251230
801.000000	72.393383
800.000000	72.515888
799.000000	72.517263
798.000000	72.509601
797.000000	72.603813
796.000000	72.695962
795.000000	72.712761
794.000000	72.761291
793.000000	72.856289
792.000000	72.945982
791.000000	72.998148
790.000000	73.118099
789.000000	73.236380
788.000000	73.287366
787.000000	73.332949
786.000000	73.366154
785.000000	73.436985
784.000000	73.375684
783.000000	73.314873
782.000000	73.409478
781.000000	73.453097
780.000000	73.398082
779.000000	73.287661
778.000000	73.254554
777.000000	73.205729
776.000000	73.079687
775.000000	73.004042
774.000000	72.923485
773.000000	72.847153
772.000000	72.802356
771.000000	72.690362
770.000000	72.529052
769.000000	72.386211
768.000000	72.180202
767.000000	72.024885
766.000000	71.884598
765.000000	71.747063
764.000000	71.573374
763.000000	71.338384
762.000000	71.125892
761.000000	70.911041
760.000000	70.687349
759.000000	70.434676
758.000000	70.142903
757.000000	69.852997
756.000000	69.634806
755.000000	69.441274
754.000000	69.160307
753.000000	68.807037
752.000000	68.463688
751.000000	68.119456
750.000000	67.805677
749.000000	67.456140
748.000000	67.116721
747.000000	66.836639
746.000000	66.442992
745.000000	66.026749
744.000000	65.642926
743.000000	65.276491
742.000000	64.936286
741.000000	64.472201
740.000000	64.092700
739.000000	63.727542
738.000000	63.297448
737.000000	62.918242
736.000000	62.570276
735.000000	62.211406
734.000000	61.863145
733.000000	61.541213
732.000000	61.157979
731.000000	60.752739
730.000000	60.385519
729.000000	60.107893
728.000000	59.850308
727.000000	59.590758
726.000000	59.305666
725.000000	58.955833
724.000000	58.773303
723.000000	58.602563
722.000000	58.421605
721.000000	58.234261
720.000000	58.082579
719.000000	57.947401
718.000000	57.805640
717.000000	57.667024
716.000000	57.512787
715.000000	57.346664
714.000000	57.176807
713.000000	57.018640
712.000000	56.854187
711.000000	56.715570
710.000000	56.435980
709.000000	56.194997
708.000000	55.875521
707.000000	55.549463
706.000000	55.283429
705.000000	54.924460
704.000000	54.517551
703.000000	54.150526
702.000000	53.725147
701.000000	53.255561
700.000000	52.836469
699.000000	52.437222
698.000000	52.032474
697.000000	51.576444
696.000000	51.167177
695.000000	50.792097
694.000000	50.387741
693.000000	49.994978
692.000000	49.631490
691.000000	49.239120
690.000000	48.870721
689.000000	48.534544
688.000000	48.200331
687.000000	47.862091
686.000000	47.561084
685.000000	47.224809
684.000000	46.951506
683.000000	46.665333
682.000000	46.404211
681.000000	46.184252
680.000000	45.938456
679.000000	45.746790
678.000000	45.582140
677.000000	45.443523
676.000000	45.307362
675.000000	45.264039
674.000000	45.280445
673.000000	45.239970
672.000000	45.289188
671.000000	45.336638
670.000000	45.403441
669.000000	45.483998
668.000000	45.586757
667.000000	45.660142
666.000000	45.749540
665.000000	45.853282
664.000000	45.888353
663.000000	45.884424
662.000000	45.873126
661.000000	45.838447
660.000000	45.722623
659.000000	45.573298
658.000000	45.413855
657.000000	45.238005
656.000000	45.019127
655.000000	44.795041
654.000000	44.572921
653.000000	44.357284
652.000000	44.160215
651.000000	43.926895
650.000000	43.749670
649.000000	43.647403
648.000000	43.585708
647.000000	43.540419
646.000000	43.530006
645.000000	43.535213
644.000000	43.551128
643.000000	43.641607
642.000000	43.750358
641.000000	43.849679
640.000000	43.942319
639.000000	44.125536
638.000000	44.260322
637.000000	44.419568
636.000000	44.663302
635.000000	44.935033
634.000000	45.167567
633.000000	45.452168
632.000000	45.793945
631.000000	46.108116
630.000000	46.522983
629.000000	46.952193
628.000000	47.418342
627.000000	47.880659
626.000000	48.400151
625.000000	48.900978
624.000000	49.425383
623.000000	49.923361
622.000000	50.481462
621.000000	51.031213
620.000000	51.546579
619.000000	52.079629
618.000000	52.545974
617.000000	53.054857
616.000000	53.474930
615.000000	53.925360
614.000000	54.380113
613.000000	54.788791
612.000000	55.164853
611.000000	55.516159
610.000000	55.881121
609.000000	56.272312
608.000000	56.609373
607.000000	56.945648
606.000000	57.247834
605.000000	57.556700
604.000000	57.824306
603.000000	58.093287
602.000000	58.317176
601.000000	58.564052
600.000000	58.754245
599.000000	58.956226
598.000000	59.146713
597.000000	59.268629
596.000000	59.399976
595.000000	59.505191
594.000000	59.678191
593.000000	59.777315
592.000000	59.832624
591.000000	59.867893
590.000000	59.869857
589.000000	59.869268
588.000000	59.870250
587.000000	59.858363
586.000000	59.811208
585.000000	59.774466
584.000000	59.643414
583.000000	59.566689
582.000000	59.474343
581.000000	59.331503
580.000000	59.163709
579.000000	58.999550
578.000000	58.829693
577.000000	58.633017
576.000000	58.449505
575.000000	58.254891
574.000000	58.013712
573.000000	57.765853
572.000000	57.498444
571.000000	57.239386
570.000000	56.910184
569.000000	56.601809
568.000000	56.253745
567.000000	55.891337
566.000000	55.507612
565.000000	55.078795
564.000000	54.638091
563.000000	54.210551
562.000000	53.694398
561.000000	53.189936
560.000000	52.660620
559.000000	52.068528
558.000000	51.454823
557.000000	50.857426
556.000000	50.206194
555.000000	49.584433
554.000000	48.919644
553.000000	48.244245
552.000000	47.588591
551.000000	46.877924
550.000000	46.166372
549.000000	45.478202
548.000000	44.790719
547.000000	44.120428
546.000000	43.464185
545.000000	42.811185
544.000000	42.106706
543.000000	41.422760
542.000000	40.701188
541.000000	40.010365
540.000000	39.303430
539.000000	38.591584
538.000000	37.876397
537.000000	37.203061
536.000000	36.539450
535.000000	35.830748
534.000000	35.120179
533.000000	34.419040
532.000000	33.712204
531.000000	33.051246
530.000000	32.414750
529.000000	31.773636
528.000000	31.152269
527.000000	30.565285
526.000000	29.984982
525.000000	29.439357
524.000000	28.907781
523.000000	28.396246
522.000000	27.902198
521.000000	27.442435
520.000000	27.007821
519.000000	26.581853
518.000000	26.178677
517.000000	25.779921
516.000000	25.387747
515.000000	25.008148
514.000000	24.616957
513.000000	24.251603
512.000000	23.900395
511.000000	23.559502
510.000000	23.244152
509.000000	22.904144
508.000000	22.586829
507.000000	22.304782
506.000000	22.038945
505.000000	21.794229
504.000000	21.563169
503.000000	21.380443
502.000000	21.198699
501.000000	21.023537
500.000000	20.897201
499.000000	20.801024
498.000000	20.714867
497.000000	20.673705
496.000000	20.642563
495.000000	20.633918
494.000000	20.664176
493.000000	20.697086
492.000000	20.768212
491.000000	20.865666
490.000000	20.978543
489.000000	21.103308
488.000000	21.239370
487.000000	21.377397
486.000000	21.523873
485.000000	21.662490
484.000000	21.807688
483.000000	21.934418
482.000000	22.043268
481.000000	22.147009
480.000000	22.252617
479.000000	22.342310
478.000000	22.419723
477.000000	22.491242
476.000000	22.525036
475.000000	22.561581
474.000000	22.586534
473.000000	22.587222
472.000000	22.579265
471.000000	22.533485
470.000000	22.490357
469.000000	22.443202
468.000000	22.365887
467.000000	22.285036
466.000000	22.191512
465.000000	22.070775
464.000000	21.937365
463.000000	21.798454
462.000000	21.629972
461.000000	21.464242
460.000000	21.308237
459.000000	21.131896
458.000000	20.951036
457.000000	20.758093
456.000000	20.525166
455.000000	20.301769
454.000000	20.075719
453.000000	19.808997
452.000000	19.555538
451.000000	19.300115
450.000000	19.016299
449.000000	18.737495
448.000000	18.442873
447.000000	18.147859
446.000000	17.868563
445.000000	17.572075
444.000000	17.221849
443.000000	16.876929
442.000000	16.549004
441.000000	16.196814
440.000000	15.831951
439.000000	15.483298
438.000000	15.124427
437.000000	14.755143
436.000000	14.383600
435.000000	14.011860
434.000000	13.641299
433.000000	13.271033
432.000000	12.898409
431.000000	12.512916
430.000000	12.141372
429.000000	11.788298
428.000000	11.432375
427.000000	11.092465
426.000000	10.761200
425.000000	10.439268
424.000000	10.132268
423.000000	9.818883
422.000000	9.517286
421.000000	9.239758
420.000000	8.990917
419.000000	8.750032
418.000000	8.498636
417.000000	8.260699
416.000000	8.063532
415.000000	7.875795
414.000000	7.696508
413.000000	7.513978
412.000000	7.341960
411.000000	7.195877
410.000000	7.072193
409.000000	6.956466
408.000000	6.836908
407.000000	6.735426
406.000000	6.637187
405.000000	6.541796
404.000000	6.462123
403.000000	6.382745
402.000000	6.313191
401.000000	6.254051
400.000000	6.192553
399.000000	6.137833
398.000000	6.092937
397.000000	6.051578
396.000000	6.005799
395.000000	5.971415
394.000000	5.939290
393.000000	5.900780
392.000000	5.877301
391.000000	5.861975
390.000000	5.824644
389.000000	5.792127
388.000000	5.770907
387.000000	5.763932
386.000000	5.738979
385.000000	5.713731
384.000000	5.705086
383.000000	5.674435
382.000000	5.660977
381.000000	5.657636
380.000000	5.633862
379.000000	5.614116
378.000000	5.608418
377.000000	5.590047
376.000000	5.734165
375.000000	5.514796
374.000000	5.398774
373.000000	5.406437
372.000000	5.467640
371.000000	5.481296
370.000000	5.523146
369.000000	5.552323
368.000000	5.589360
367.000000	5.594272
366.000000	5.535328
365.000000	5.585332
364.000000	5.561067
363.000000	5.564898
362.000000	5.533658
361.000000	5.567845
360.000000	5.550260
359.000000	5.500256
358.000000	5.527665
357.000000	5.536605
356.000000	5.551243
355.000000	5.542205
354.000000	5.551243
353.000000	5.575803
352.000000	5.601640
351.000000	5.490334
350.000000	5.467739
349.000000	5.480608
348.000000	5.555663
347.000000	5.645455
346.000000	5.600952
345.000000	5.559298
344.000000	5.565880
343.000000	5.502221
342.000000	5.601345
341.000000	5.556253
340.000000	5.675025
339.000000	5.517841
338.000000	5.452315
337.000000	5.492397
336.000000	5.620993
335.000000	5.708034
334.000000	5.595942
333.000000	5.576785
332.000000	5.442688
331.000000	5.503596
330.000000	5.547706
329.000000	5.724047
328.000000	5.413608
327.000000	5.776114
326.000000	5.893609
325.000000	5.914141
324.000000	5.726404
323.000000	5.594763
322.000000	5.721099
321.000000	5.904612
320.000000	5.763932
319.000000	5.780142
318.000000	5.852741
317.000000	5.958152
316.000000	5.616867
315.000000	5.492593
314.000000	5.616081
313.000000	5.537194
312.000000	5.538471
311.000000	5.569024
310.000000	5.556744
309.000000	5.573248
308.000000	5.537882
307.000000	5.557235
306.000000	5.620011
305.000000	5.546625
304.000000	5.618144
303.000000	5.604783
302.000000	5.582188
301.000000	5.578357
300.000000	5.568336
299.000000	5.582778
298.000000	5.572757
297.000000	5.593780
296.000000	5.629933
295.000000	5.670899
294.000000	5.629343
293.000000	5.642900
292.000000	5.636024
291.000000	5.686519
290.000000	5.612839
289.000000	5.613920
288.000000	5.692217
287.000000	5.700174
286.000000	5.645455
285.000000	5.652626
284.000000	5.739470
283.000000	5.708426
282.000000	5.664219
281.000000	5.668639
280.000000	5.719724
279.000000	5.725618
278.000000	5.731808
277.000000	5.715402
276.000000	5.738193
275.000000	5.741140
274.000000	5.778570
273.000000	5.778864
272.000000	5.757939
271.000000	5.750670
270.000000	5.796646
269.000000	5.792913
268.000000	5.850874
267.000000	5.867084
266.000000	5.864923
265.000000	5.888598
264.000000	5.918562
263.000000	5.866789
262.000000	5.917285
261.000000	5.982418
260.000000	5.947149
259.000000	5.977604
258.000000	6.004325
257.000000	6.036450
256.000000	6.038709
255.000000	6.045488
254.000000	6.063171
253.000000	6.072602
252.000000	6.101976
251.000000	6.095197
250.000000	6.138128
