PE UV       SUBTECH     SPECTRUM    ASCII       PEDS        4.00        
   -1
CICIMAUCR0015-1.Sample.ASC
24/03/08
11:15:04.00
24/03/08
11:15:04.00
Vinicio Soto Monge
C. resplendens
250,000000
1
Lambda 1050
1050L1511233
PerkinElmer UV WinLab 6.3.2.0749 / 2.02.05 Lambda 900 UV/VIS/NIR, Aug  7 2015 09:38:08

0
0
3350/servo 860,8/2
0
0
UV/VIS
1
1
1
DoubleDePol,CommonBeamDepol,RBeamAtt,SBeamAtt,60mm sphere, WB InGaAs Detector
0
0
0
0
Program
Program
3350/servo 860,8/2
3350/0,2 860,8/0,2
3350/0,2 860,8/0,2
0
15.00
 
 
 
0
 
860,8
319,2
860,8
Front
100
on
S:100 R:100
0
0
0
0
 
0
 
 
 
0
 
 
0
0
0
0
0
 
 
 
 
0
0


0
0
#HDR
-1
-1
#GR
nm
%R
1.0
0.0
2500,000000
-1,000000
2251
8
23,608200
1,584400
#DATA
2500.000000	2.253300
2499.000000	2.133300
2498.000000	2.114200
2497.000000	2.099800
2496.000000	2.160600
2495.000000	2.068200
2494.000000	2.044400
2493.000000	2.034000
2492.000000	2.029900
2491.000000	2.080100
2490.000000	1.923400
2489.000000	1.987400
2488.000000	2.026500
2487.000000	2.056700
2486.000000	2.029500
2485.000000	1.983800
2484.000000	2.014400
2483.000000	1.972900
2482.000000	1.968200
2481.000000	1.981400
2480.000000	2.009400
2479.000000	1.953300
2478.000000	1.974000
2477.000000	1.959900
2476.000000	1.982400
2475.000000	1.935500
2474.000000	1.988000
2473.000000	1.979300
2472.000000	1.956500
2471.000000	1.964900
2470.000000	1.959000
2469.000000	1.978700
2468.000000	2.010400
2467.000000	1.933600
2466.000000	1.964100
2465.000000	1.964100
2464.000000	1.976600
2463.000000	1.990800
2462.000000	1.988800
2461.000000	1.985400
2460.000000	1.976600
2459.000000	1.995700
2458.000000	1.969600
2457.000000	2.010300
2456.000000	2.001600
2455.000000	2.015500
2454.000000	2.019300
2453.000000	2.044200
2452.000000	2.044500
2451.000000	2.053200
2450.000000	2.035600
2449.000000	2.059300
2448.000000	2.077100
2447.000000	2.096500
2446.000000	2.123700
2445.000000	2.122000
2444.000000	2.146700
2443.000000	2.150200
2442.000000	2.155700
2441.000000	2.155400
2440.000000	2.179600
2439.000000	2.201000
2438.000000	2.214100
2437.000000	2.203600
2436.000000	2.212900
2435.000000	2.227200
2434.000000	2.233500
2433.000000	2.246300
2432.000000	2.271000
2431.000000	2.271800
2430.000000	2.280500
2429.000000	2.302900
2428.000000	2.307100
2427.000000	2.337300
2426.000000	2.334200
2425.000000	2.348600
2424.000000	2.373400
2423.000000	2.405200
2422.000000	2.402700
2421.000000	2.403700
2420.000000	2.425900
2419.000000	2.442200
2418.000000	2.446000
2417.000000	2.451800
2416.000000	2.450800
2415.000000	2.458400
2414.000000	2.472100
2413.000000	2.473100
2412.000000	2.489200
2411.000000	2.506700
2410.000000	2.513600
2409.000000	2.511800
2408.000000	2.514000
2407.000000	2.528600
2406.000000	2.532700
2405.000000	2.538100
2404.000000	2.548200
2403.000000	2.551500
2402.000000	2.572500
2401.000000	2.571900
2400.000000	2.565200
2399.000000	2.569700
2398.000000	2.578700
2397.000000	2.606400
2396.000000	2.620700
2395.000000	2.615900
2394.000000	2.614000
2393.000000	2.616100
2392.000000	2.626800
2391.000000	2.626100
2390.000000	2.635100
2389.000000	2.640500
2388.000000	2.641900
2387.000000	2.655200
2386.000000	2.670400
2385.000000	2.668400
2384.000000	2.657900
2383.000000	2.663800
2382.000000	2.666800
2381.000000	2.657200
2380.000000	2.669600
2379.000000	2.687500
2378.000000	2.673900
2377.000000	2.666200
2376.000000	2.670800
2375.000000	2.671600
2374.000000	2.678300
2373.000000	2.670800
2372.000000	2.663800
2371.000000	2.656700
2370.000000	2.646100
2369.000000	2.647200
2368.000000	2.652100
2367.000000	2.647600
2366.000000	2.644100
2365.000000	2.646900
2364.000000	2.651300
2363.000000	2.632500
2362.000000	2.614300
2361.000000	2.614500
2360.000000	2.602800
2359.000000	2.593800
2358.000000	2.588500
2357.000000	2.577100
2356.000000	2.560800
2355.000000	2.551200
2354.000000	2.541800
2353.000000	2.547400
2352.000000	2.545500
2351.000000	2.533500
2350.000000	2.537200
2349.000000	2.540300
2348.000000	2.546200
2347.000000	2.560000
2346.000000	2.570000
2345.000000	2.571800
2344.000000	2.583400
2343.000000	2.590500
2342.000000	2.608200
2341.000000	2.613400
2340.000000	2.623000
2339.000000	2.625900
2338.000000	2.634900
2337.000000	2.651100
2336.000000	2.642200
2335.000000	2.643100
2334.000000	2.641700
2333.000000	2.646400
2332.000000	2.657300
2331.000000	2.638900
2330.000000	2.641400
2329.000000	2.631800
2328.000000	2.613300
2327.000000	2.618000
2326.000000	2.596600
2325.000000	2.579500
2324.000000	2.569100
2323.000000	2.535000
2322.000000	2.530800
2321.000000	2.533700
2320.000000	2.515500
2319.000000	2.506600
2318.000000	2.485400
2317.000000	2.451800
2316.000000	2.425500
2315.000000	2.432600
2314.000000	2.420500
2313.000000	2.401900
2312.000000	2.383800
2311.000000	2.356300
2310.000000	2.342300
2309.000000	2.336500
2308.000000	2.333900
2307.000000	2.331000
2306.000000	2.324200
2305.000000	2.326800
2304.000000	2.331200
2303.000000	2.334000
2302.000000	2.328700
2301.000000	2.332100
2300.000000	2.340100
2299.000000	2.338900
2298.000000	2.364600
2297.000000	2.350300
2296.000000	2.357400
2295.000000	2.378200
2294.000000	2.379300
2293.000000	2.391600
2292.000000	2.412000
2291.000000	2.409300
2290.000000	2.417300
2289.000000	2.398900
2288.000000	2.396000
2287.000000	2.396000
2286.000000	2.411100
2285.000000	2.397400
2284.000000	2.380800
2283.000000	2.392700
2282.000000	2.377400
2281.000000	2.367600
2280.000000	2.381500
2279.000000	2.362500
2278.000000	2.350900
2277.000000	2.347800
2276.000000	2.318400
2275.000000	2.329100
2274.000000	2.339300
2273.000000	2.327900
2272.000000	2.324800
2271.000000	2.311700
2270.000000	2.302000
2269.000000	2.306200
2268.000000	2.311300
2267.000000	2.320100
2266.000000	2.300200
2265.000000	2.311900
2264.000000	2.331100
2263.000000	2.346000
2262.000000	2.328600
2261.000000	2.351300
2260.000000	2.359200
2259.000000	2.393600
2258.000000	2.418900
2257.000000	2.440300
2256.000000	2.433400
2255.000000	2.478000
2254.000000	2.482900
2253.000000	2.528900
2252.000000	2.544000
2251.000000	2.566600
2250.000000	2.590100
2249.000000	2.611000
2248.000000	2.643500
2247.000000	2.658900
2246.000000	2.676900
2245.000000	2.696600
2244.000000	2.719500
2243.000000	2.738000
2242.000000	2.752000
2241.000000	2.737300
2240.000000	2.788900
2239.000000	2.794700
2238.000000	2.803800
2237.000000	2.814800
2236.000000	2.823100
2235.000000	2.816000
2234.000000	2.853800
2233.000000	2.843700
2232.000000	2.839500
2231.000000	2.857400
2230.000000	2.849500
2229.000000	2.837600
2228.000000	2.840800
2227.000000	2.815600
2226.000000	2.814300
2225.000000	2.792900
2224.000000	2.772600
2223.000000	2.753700
2222.000000	2.736600
2221.000000	2.734400
2220.000000	2.723000
2219.000000	2.682000
2218.000000	2.680600
2217.000000	2.670100
2216.000000	2.629300
2215.000000	2.646100
2214.000000	2.625500
2213.000000	2.609200
2212.000000	2.603000
2211.000000	2.612700
2210.000000	2.622300
2209.000000	2.622100
2208.000000	2.630100
2207.000000	2.651400
2206.000000	2.681400
2205.000000	2.680100
2204.000000	2.709700
2203.000000	2.762500
2202.000000	2.787500
2201.000000	2.800800
2200.000000	2.846000
2199.000000	2.914000
2198.000000	2.939600
2197.000000	2.982400
2196.000000	3.024100
2195.000000	3.056900
2194.000000	3.097700
2193.000000	3.132200
2192.000000	3.173500
2191.000000	3.197000
2190.000000	3.221500
2189.000000	3.233200
2188.000000	3.259000
2187.000000	3.291100
2186.000000	3.291200
2185.000000	3.318000
2184.000000	3.318700
2183.000000	3.338800
2182.000000	3.366600
2181.000000	3.376900
2180.000000	3.384100
2179.000000	3.396600
2178.000000	3.408900
2177.000000	3.400200
2176.000000	3.402700
2175.000000	3.415000
2174.000000	3.428900
2173.000000	3.438400
2172.000000	3.463900
2171.000000	3.461900
2170.000000	3.468700
2169.000000	3.482300
2168.000000	3.487200
2167.000000	3.488600
2166.000000	3.512700
2165.000000	3.527300
2164.000000	3.538900
2163.000000	3.552200
2162.000000	3.558200
2161.000000	3.575000
2160.000000	3.579800
2159.000000	3.592000
2158.000000	3.606900
2157.000000	3.616500
2156.000000	3.643300
2155.000000	3.651900
2154.000000	3.655100
2153.000000	3.674800
2152.000000	3.680800
2151.000000	3.712100
2150.000000	3.721100
2149.000000	3.745800
2148.000000	3.736000
2147.000000	3.759300
2146.000000	3.766400
2145.000000	3.794400
2144.000000	3.814000
2143.000000	3.820500
2142.000000	3.827700
2141.000000	3.850400
2140.000000	3.850400
2139.000000	3.853900
2138.000000	3.876400
2137.000000	3.893300
2136.000000	3.905900
2135.000000	3.919600
2134.000000	3.916000
2133.000000	3.913500
2132.000000	3.945800
2131.000000	3.947300
2130.000000	3.945800
2129.000000	3.950700
2128.000000	3.961200
2127.000000	3.958600
2126.000000	3.950300
2125.000000	3.953400
2124.000000	3.956200
2123.000000	3.957700
2122.000000	3.964600
2121.000000	3.956200
2120.000000	3.951400
2119.000000	3.961500
2118.000000	3.979800
2117.000000	3.977800
2116.000000	3.959400
2115.000000	3.958200
2114.000000	3.951100
2113.000000	3.957700
2112.000000	3.949900
2111.000000	3.941100
2110.000000	3.941000
2109.000000	3.948000
2108.000000	3.929500
2107.000000	3.916400
2106.000000	3.911400
2105.000000	3.921300
2104.000000	3.935800
2103.000000	3.921600
2102.000000	3.913800
2101.000000	3.909200
2100.000000	3.911200
2099.000000	3.912600
2098.000000	3.900800
2097.000000	3.887800
2096.000000	3.881200
2095.000000	3.893400
2094.000000	3.907800
2093.000000	3.901500
2092.000000	3.879500
2091.000000	3.875500
2090.000000	3.882600
2089.000000	3.885400
2088.000000	3.890400
2087.000000	3.882300
2086.000000	3.875300
2085.000000	3.869300
2084.000000	3.870400
2083.000000	3.863600
2082.000000	3.863300
2081.000000	3.875400
2080.000000	3.857500
2079.000000	3.850100
2078.000000	3.859700
2077.000000	3.851000
2076.000000	3.845900
2075.000000	3.832100
2074.000000	3.820800
2073.000000	3.814700
2072.000000	3.813300
2071.000000	3.799500
2070.000000	3.789900
2069.000000	3.783200
2068.000000	3.768200
2067.000000	3.750700
2066.000000	3.752700
2065.000000	3.749900
2064.000000	3.727200
2063.000000	3.711900
2062.000000	3.705200
2061.000000	3.677800
2060.000000	3.667300
2059.000000	3.660100
2058.000000	3.655500
2057.000000	3.652100
2056.000000	3.647200
2055.000000	3.638300
2054.000000	3.629300
2053.000000	3.650100
2052.000000	3.670900
2051.000000	3.650500
2050.000000	3.657100
2049.000000	3.678800
2048.000000	3.693200
2047.000000	3.725800
2046.000000	3.754600
2045.000000	3.784500
2044.000000	3.810300
2043.000000	3.843100
2042.000000	3.876300
2041.000000	3.911900
2040.000000	3.951600
2039.000000	3.979600
2038.000000	4.014400
2037.000000	4.057400
2036.000000	4.084700
2035.000000	4.106000
2034.000000	4.140000
2033.000000	4.154000
2032.000000	4.191000
2031.000000	4.201400
2030.000000	4.223300
2029.000000	4.253000
2028.000000	4.291400
2027.000000	4.287900
2026.000000	4.319200
2025.000000	4.328500
2024.000000	4.364100
2023.000000	4.375200
2022.000000	4.391700
2021.000000	4.400300
2020.000000	4.416800
2019.000000	4.430300
2018.000000	4.451200
2017.000000	4.467700
2016.000000	4.487800
2015.000000	4.507900
2014.000000	4.499400
2013.000000	4.527800
2012.000000	4.526900
2011.000000	4.527300
2010.000000	4.551400
2009.000000	4.558400
2008.000000	4.559600
2007.000000	4.576200
2006.000000	4.590400
2005.000000	4.591000
2004.000000	4.582200
2003.000000	4.577300
2002.000000	4.582700
2001.000000	4.581600
2000.000000	4.579300
1999.000000	4.577200
1998.000000	4.568000
1997.000000	4.554400
1996.000000	4.546000
1995.000000	4.544500
1994.000000	4.551100
1993.000000	4.523400
1992.000000	4.514900
1991.000000	4.495800
1990.000000	4.467800
1989.000000	4.458500
1988.000000	4.464400
1987.000000	4.439800
1986.000000	4.427300
1985.000000	4.403600
1984.000000	4.392900
1983.000000	4.379600
1982.000000	4.364500
1981.000000	4.350300
1980.000000	4.316500
1979.000000	4.303200
1978.000000	4.274500
1977.000000	4.286900
1976.000000	4.273300
1975.000000	4.239700
1974.000000	4.235500
1973.000000	4.218200
1972.000000	4.209600
1971.000000	4.174700
1970.000000	4.184000
1969.000000	4.169500
1968.000000	4.141000
1967.000000	4.156400
1966.000000	4.132000
1965.000000	4.105100
1964.000000	4.078300
1963.000000	4.082800
1962.000000	4.082500
1961.000000	4.076300
1960.000000	4.056000
1959.000000	4.031700
1958.000000	4.016600
1957.000000	4.011300
1956.000000	4.005000
1955.000000	3.964400
1954.000000	3.968700
1953.000000	3.944300
1952.000000	3.942700
1951.000000	3.943000
1950.000000	3.934700
1949.000000	3.899900
1948.000000	3.904400
1947.000000	3.895600
1946.000000	3.883000
1945.000000	3.891700
1944.000000	3.901900
1943.000000	3.879900
1942.000000	3.877900
1941.000000	3.878400
1940.000000	3.895400
1939.000000	3.880200
1938.000000	3.881100
1937.000000	3.883000
1936.000000	3.875800
1935.000000	3.902100
1934.000000	3.904900
1933.000000	3.901300
1932.000000	3.916500
1931.000000	3.941900
1930.000000	3.960100
1929.000000	3.977000
1928.000000	4.003200
1927.000000	4.014400
1926.000000	4.042100
1925.000000	4.056900
1924.000000	4.108000
1923.000000	4.151400
1922.000000	4.173500
1921.000000	4.186300
1920.000000	4.208400
1919.000000	4.236700
1918.000000	4.278300
1917.000000	4.313700
1916.000000	4.375900
1915.000000	4.426000
1914.000000	4.467200
1913.000000	4.501900
1912.000000	4.542900
1911.000000	4.574000
1910.000000	4.611500
1909.000000	4.700100
1908.000000	4.774300
1907.000000	4.830700
1906.000000	4.889500
1905.000000	4.921900
1904.000000	4.981800
1903.000000	5.050700
1902.000000	5.127900
1901.000000	5.191100
1900.000000	5.249100
1899.000000	5.288400
1898.000000	5.353400
1897.000000	5.412200
1896.000000	5.505200
1895.000000	5.591600
1894.000000	5.672500
1893.000000	5.757100
1892.000000	5.825200
1891.000000	5.869000
1890.000000	5.946500
1889.000000	6.028500
1888.000000	6.113300
1887.000000	6.214200
1886.000000	6.347000
1885.000000	6.453000
1884.000000	6.582900
1883.000000	6.722500
1882.000000	6.862700
1881.000000	7.025200
1880.000000	7.217100
1879.000000	7.367100
1878.000000	7.517200
1877.000000	7.677500
1876.000000	7.802600
1875.000000	7.931500
1874.000000	8.037000
1873.000000	8.127900
1872.000000	8.196800
1871.000000	8.239300
1870.000000	8.274400
1869.000000	8.297000
1868.000000	8.324700
1867.000000	8.341000
1866.000000	8.375600
1865.000000	8.416900
1864.000000	8.469600
1863.000000	8.514800
1862.000000	8.546200
1861.000000	8.552100
1860.000000	8.537800
1859.000000	8.511100
1858.000000	8.476200
1857.000000	8.468600
1856.000000	8.466500
1855.000000	8.433400
1854.000000	8.404700
1853.000000	8.356400
1852.000000	8.342800
1851.000000	8.372200
1850.000000	8.382300
1849.000000	8.329500
1848.000000	8.226300
1847.000000	8.136400
1846.000000	8.100900
1845.000000	8.122000
1844.000000	8.164500
1843.000000	8.173500
1842.000000	8.126700
1841.000000	8.067500
1840.000000	8.038800
1839.000000	8.039900
1838.000000	8.025200
1837.000000	7.960500
1836.000000	7.894000
1835.000000	7.857000
1834.000000	7.849200
1833.000000	7.849600
1832.000000	7.840000
1831.000000	7.799300
1830.000000	7.749100
1829.000000	7.709800
1828.000000	7.663900
1827.000000	7.617300
1826.000000	7.583500
1825.000000	7.571400
1824.000000	7.602700
1823.000000	7.638600
1822.000000	7.608100
1821.000000	7.541100
1820.000000	7.499600
1819.000000	7.483200
1818.000000	7.491100
1817.000000	7.507200
1816.000000	7.505300
1815.000000	7.498000
1814.000000	7.506100
1813.000000	7.510600
1812.000000	7.490100
1811.000000	7.461900
1810.000000	7.431800
1809.000000	7.440600
1808.000000	7.440500
1807.000000	7.415700
1806.000000	7.391000
1805.000000	7.370800
1804.000000	7.354100
1803.000000	7.346200
1802.000000	7.314800
1801.000000	7.280700
1800.000000	7.266400
1799.000000	7.253900
1798.000000	7.226000
1797.000000	7.221700
1796.000000	7.212300
1795.000000	7.197800
1794.000000	7.173900
1793.000000	7.164100
1792.000000	7.148800
1791.000000	7.108200
1790.000000	7.077400
1789.000000	7.047800
1788.000000	7.035600
1787.000000	7.003800
1786.000000	6.969200
1785.000000	6.948700
1784.000000	6.911500
1783.000000	6.883200
1782.000000	6.857700
1781.000000	6.820100
1780.000000	6.782000
1779.000000	6.756500
1778.000000	6.704000
1777.000000	6.673800
1776.000000	6.615200
1775.000000	6.576500
1774.000000	6.523300
1773.000000	6.459400
1772.000000	6.413200
1771.000000	6.364500
1770.000000	6.305000
1769.000000	6.263800
1768.000000	6.211700
1767.000000	6.162800
1766.000000	6.128900
1765.000000	6.088600
1764.000000	6.080900
1763.000000	6.086200
1762.000000	6.076000
1761.000000	6.113100
1760.000000	6.115700
1759.000000	6.151100
1758.000000	6.189400
1757.000000	6.200000
1756.000000	6.200700
1755.000000	6.220100
1754.000000	6.245000
1753.000000	6.222200
1752.000000	6.203100
1751.000000	6.211900
1750.000000	6.192300
1749.000000	6.159400
1748.000000	6.116800
1747.000000	6.082900
1746.000000	6.033800
1745.000000	5.972200
1744.000000	5.913300
1743.000000	5.837000
1742.000000	5.773300
1741.000000	5.686400
1740.000000	5.630500
1739.000000	5.542400
1738.000000	5.456400
1737.000000	5.410300
1736.000000	5.343300
1735.000000	5.309600
1734.000000	5.313000
1733.000000	5.284000
1732.000000	5.302100
1731.000000	5.315200
1730.000000	5.357600
1729.000000	5.407800
1728.000000	5.420600
1727.000000	5.457100
1726.000000	5.467800
1725.000000	5.509800
1724.000000	5.514800
1723.000000	5.530300
1722.000000	5.546200
1721.000000	5.533000
1720.000000	5.570100
1719.000000	5.559300
1718.000000	5.575500
1717.000000	5.602900
1716.000000	5.625700
1715.000000	5.653100
1714.000000	5.658000
1713.000000	5.703300
1712.000000	5.706000
1711.000000	5.740300
1710.000000	5.724300
1709.000000	5.756600
1708.000000	5.738900
1707.000000	5.742600
1706.000000	5.727100
1705.000000	5.724500
1704.000000	5.715600
1703.000000	5.674300
1702.000000	5.678000
1701.000000	5.609600
1700.000000	5.602700
1699.000000	5.545800
1698.000000	5.518300
1697.000000	5.485300
1696.000000	5.476900
1695.000000	5.487100
1694.000000	5.515900
1693.000000	5.571200
1692.000000	5.632300
1691.000000	5.638200
1690.000000	5.697400
1689.000000	5.737900
1688.000000	5.736100
1687.000000	5.755100
1686.000000	5.737200
1685.000000	5.761800
1684.000000	5.787900
1683.000000	5.885400
1682.000000	5.983300
1681.000000	6.151000
1680.000000	6.348100
1679.000000	6.518900
1678.000000	6.714100
1677.000000	6.871100
1676.000000	7.051800
1675.000000	7.169500
1674.000000	7.301600
1673.000000	7.415800
1672.000000	7.514800
1671.000000	7.601600
1670.000000	7.651700
1669.000000	7.717900
1668.000000	7.783100
1667.000000	7.845000
1666.000000	7.874300
1665.000000	7.916200
1664.000000	7.929000
1663.000000	7.967100
1662.000000	7.986400
1661.000000	8.007300
1660.000000	8.024100
1659.000000	8.051400
1658.000000	8.045700
1657.000000	8.052700
1656.000000	8.038200
1655.000000	8.053400
1654.000000	8.053800
1653.000000	8.041500
1652.000000	8.035500
1651.000000	8.023500
1650.000000	8.007000
1649.000000	8.014100
1648.000000	7.995000
1647.000000	7.965200
1646.000000	7.953000
1645.000000	7.935000
1644.000000	7.906300
1643.000000	7.874700
1642.000000	7.850300
1641.000000	7.840200
1640.000000	7.789300
1639.000000	7.772000
1638.000000	7.745900
1637.000000	7.724100
1636.000000	7.700400
1635.000000	7.678600
1634.000000	7.652200
1633.000000	7.624600
1632.000000	7.588700
1631.000000	7.574600
1630.000000	7.527100
1629.000000	7.485700
1628.000000	7.461500
1627.000000	7.435500
1626.000000	7.393600
1625.000000	7.373900
1624.000000	7.342200
1623.000000	7.300900
1622.000000	7.280100
1621.000000	7.243200
1620.000000	7.226400
1619.000000	7.188500
1618.000000	7.168400
1617.000000	7.111100
1616.000000	7.076800
1615.000000	7.056000
1614.000000	7.039100
1613.000000	7.020400
1612.000000	7.004200
1611.000000	6.972000
1610.000000	6.934100
1609.000000	6.904200
1608.000000	6.884500
1607.000000	6.876900
1606.000000	6.831600
1605.000000	6.793800
1604.000000	6.777500
1603.000000	6.755800
1602.000000	6.739500
1601.000000	6.716600
1600.000000	6.685000
1599.000000	6.667200
1598.000000	6.644700
1597.000000	6.622100
1596.000000	6.599700
1595.000000	6.572400
1594.000000	6.550600
1593.000000	6.550500
1592.000000	6.529100
1591.000000	6.513200
1590.000000	6.509900
1589.000000	6.492100
1588.000000	6.475500
1587.000000	6.459000
1586.000000	6.446000
1585.000000	6.447900
1584.000000	6.443500
1583.000000	6.426900
1582.000000	6.418000
1581.000000	6.411700
1580.000000	6.391500
1579.000000	6.383600
1578.000000	6.387800
1577.000000	6.386500
1576.000000	6.388600
1575.000000	6.399400
1574.000000	6.407800
1573.000000	6.406800
1572.000000	6.410400
1571.000000	6.428700
1570.000000	6.444300
1569.000000	6.432800
1568.000000	6.435700
1567.000000	6.452200
1566.000000	6.452500
1565.000000	6.463800
1564.000000	6.488000
1563.000000	6.503200
1562.000000	6.507900
1561.000000	6.516200
1560.000000	6.531400
1559.000000	6.534100
1558.000000	6.529000
1557.000000	6.529100
1556.000000	6.547100
1555.000000	6.562900
1554.000000	6.560100
1553.000000	6.556000
1552.000000	6.548300
1551.000000	6.536100
1550.000000	6.543800
1549.000000	6.552700
1548.000000	6.541500
1547.000000	6.536000
1546.000000	6.541000
1545.000000	6.539000
1544.000000	6.533600
1543.000000	6.525000
1542.000000	6.527900
1541.000000	6.525200
1540.000000	6.516600
1539.000000	6.518800
1538.000000	6.519500
1537.000000	6.519100
1536.000000	6.510300
1535.000000	6.509100
1534.000000	6.506200
1533.000000	6.506700
1532.000000	6.504900
1531.000000	6.490200
1530.000000	6.484200
1529.000000	6.488900
1528.000000	6.487200
1527.000000	6.474800
1526.000000	6.464200
1525.000000	6.450800
1524.000000	6.448000
1523.000000	6.453800
1522.000000	6.449800
1521.000000	6.435300
1520.000000	6.426300
1519.000000	6.416900
1518.000000	6.422400
1517.000000	6.410400
1516.000000	6.397800
1515.000000	6.400500
1514.000000	6.395300
1513.000000	6.390200
1512.000000	6.373900
1511.000000	6.365500
1510.000000	6.365300
1509.000000	6.344900
1508.000000	6.321100
1507.000000	6.324600
1506.000000	6.339600
1505.000000	6.322600
1504.000000	6.320000
1503.000000	6.312700
1502.000000	6.281900
1501.000000	6.281600
1500.000000	6.295700
1499.000000	6.282400
1498.000000	6.287100
1497.000000	6.278800
1496.000000	6.274900
1495.000000	6.282700
1494.000000	6.281300
1493.000000	6.298500
1492.000000	6.289600
1491.000000	6.299500
1490.000000	6.288800
1489.000000	6.289100
1488.000000	6.303800
1487.000000	6.302400
1486.000000	6.295200
1485.000000	6.299700
1484.000000	6.322100
1483.000000	6.325800
1482.000000	6.336600
1481.000000	6.353400
1480.000000	6.355900
1479.000000	6.360800
1478.000000	6.383800
1477.000000	6.392100
1476.000000	6.399000
1475.000000	6.417800
1474.000000	6.433300
1473.000000	6.435000
1472.000000	6.473900
1471.000000	6.467500
1470.000000	6.490600
1469.000000	6.499300
1468.000000	6.510000
1467.000000	6.528500
1466.000000	6.540200
1465.000000	6.539700
1464.000000	6.575300
1463.000000	6.589200
1462.000000	6.612500
1461.000000	6.637600
1460.000000	6.658100
1459.000000	6.686000
1458.000000	6.714100
1457.000000	6.738700
1456.000000	6.775000
1455.000000	6.812600
1454.000000	6.824400
1453.000000	6.868100
1452.000000	6.912100
1451.000000	6.936900
1450.000000	6.955300
1449.000000	7.001400
1448.000000	7.077500
1447.000000	7.106400
1446.000000	7.132100
1445.000000	7.173800
1444.000000	7.218700
1443.000000	7.246900
1442.000000	7.299800
1441.000000	7.328100
1440.000000	7.366700
1439.000000	7.434500
1438.000000	7.472000
1437.000000	7.478600
1436.000000	7.529900
1435.000000	7.589600
1434.000000	7.635200
1433.000000	7.689100
1432.000000	7.688600
1431.000000	7.743000
1430.000000	7.794600
1429.000000	7.864300
1428.000000	7.917300
1427.000000	7.975500
1426.000000	8.060400
1425.000000	8.156100
1424.000000	8.200200
1423.000000	8.274900
1422.000000	8.315700
1421.000000	8.417900
1420.000000	8.506500
1419.000000	8.566900
1418.000000	8.598800
1417.000000	8.682200
1416.000000	8.785700
1415.000000	8.837500
1414.000000	8.877500
1413.000000	8.910700
1412.000000	9.010800
1411.000000	9.091800
1410.000000	9.189600
1409.000000	9.270500
1408.000000	9.396800
1407.000000	9.496100
1406.000000	9.625500
1405.000000	9.730700
1404.000000	9.825300
1403.000000	9.981100
1402.000000	10.144400
1401.000000	10.217800
1400.000000	10.229800
1399.000000	10.299300
1398.000000	10.397800
1397.000000	10.462500
1396.000000	10.381700
1395.000000	10.290100
1394.000000	10.351000
1393.000000	10.415100
1392.000000	10.435300
1391.000000	10.464900
1390.000000	10.548300
1389.000000	10.600000
1388.000000	10.651900
1387.000000	10.718200
1386.000000	10.848200
1385.000000	11.003900
1384.000000	11.158500
1383.000000	11.300900
1382.000000	11.375400
1381.000000	11.472100
1380.000000	11.598000
1379.000000	11.702900
1378.000000	11.835700
1377.000000	11.986600
1376.000000	12.161900
1375.000000	12.359600
1374.000000	12.619200
1373.000000	12.885000
1372.000000	13.134300
1371.000000	13.343600
1370.000000	13.554800
1369.000000	13.743300
1368.000000	13.869200
1367.000000	14.016400
1366.000000	14.160000
1365.000000	14.257500
1364.000000	14.351000
1363.000000	14.467500
1362.000000	14.505900
1361.000000	14.482800
1360.000000	14.517500
1359.000000	14.579100
1358.000000	14.670500
1357.000000	14.793700
1356.000000	14.941400
1355.000000	15.159600
1354.000000	15.427400
1353.000000	15.729200
1352.000000	16.035000
1351.000000	16.313300
1350.000000	16.567300
1349.000000	16.805200
1348.000000	17.026200
1347.000000	17.224100
1346.000000	17.433500
1345.000000	17.652800
1344.000000	17.822200
1343.000000	17.964400
1342.000000	18.128600
1341.000000	18.276000
1340.000000	18.408100
1339.000000	18.560200
1338.000000	18.698000
1337.000000	18.826000
1336.000000	18.949600
1335.000000	19.057400
1334.000000	19.172600
1333.000000	19.287800
1332.000000	19.405600
1331.000000	19.499300
1330.000000	19.589400
1329.000000	19.675200
1328.000000	19.756600
1327.000000	19.838100
1326.000000	19.915500
1325.000000	19.988800
1324.000000	20.054400
1323.000000	20.122600
1322.000000	20.179300
1321.000000	20.230200
1320.000000	20.292400
1319.000000	20.362300
1318.000000	20.409000
1317.000000	20.446200
1316.000000	20.491400
1315.000000	20.525600
1314.000000	20.555500
1313.000000	20.606100
1312.000000	20.662000
1311.000000	20.681800
1310.000000	20.700400
1309.000000	20.717600
1308.000000	20.729600
1307.000000	20.752400
1306.000000	20.770100
1305.000000	20.785100
1304.000000	20.792200
1303.000000	20.780700
1302.000000	20.785700
1301.000000	20.776100
1300.000000	20.755800
1299.000000	20.745400
1298.000000	20.741300
1297.000000	20.741100
1296.000000	20.727600
1295.000000	20.717500
1294.000000	20.706300
1293.000000	20.683700
1292.000000	20.677600
1291.000000	20.655400
1290.000000	20.623100
1289.000000	20.593000
1288.000000	20.553500
1287.000000	20.529600
1286.000000	20.483800
1285.000000	20.435000
1284.000000	20.398000
1283.000000	20.357300
1282.000000	20.321800
1281.000000	20.278900
1280.000000	20.230700
1279.000000	20.198700
1278.000000	20.167300
1277.000000	20.125900
1276.000000	20.091500
1275.000000	20.057600
1274.000000	20.028600
1273.000000	20.004800
1272.000000	19.987900
1271.000000	19.951300
1270.000000	19.914200
1269.000000	19.886700
1268.000000	19.864500
1267.000000	19.837600
1266.000000	19.798500
1265.000000	19.771900
1264.000000	19.733400
1263.000000	19.694300
1262.000000	19.661900
1261.000000	19.621500
1260.000000	19.575800
1259.000000	19.536700
1258.000000	19.508300
1257.000000	19.466400
1256.000000	19.407300
1255.000000	19.362800
1254.000000	19.331800
1253.000000	19.289900
1252.000000	19.250000
1251.000000	19.195600
1250.000000	19.147600
1249.000000	19.093100
1248.000000	19.027100
1247.000000	18.970000
1246.000000	18.892600
1245.000000	18.833800
1244.000000	18.746400
1243.000000	18.674200
1242.000000	18.602800
1241.000000	18.524800
1240.000000	18.442000
1239.000000	18.355100
1238.000000	18.268800
1237.000000	18.178500
1236.000000	18.097900
1235.000000	17.999100
1234.000000	17.910800
1233.000000	17.847900
1232.000000	17.737800
1231.000000	17.622500
1230.000000	17.553500
1229.000000	17.448100
1228.000000	17.341900
1227.000000	17.249400
1226.000000	17.126800
1225.000000	17.044100
1224.000000	16.947500
1223.000000	16.827700
1222.000000	16.748400
1221.000000	16.648600
1220.000000	16.563900
1219.000000	16.481600
1218.000000	16.393800
1217.000000	16.311000
1216.000000	16.242100
1215.000000	16.178900
1214.000000	16.090900
1213.000000	16.026000
1212.000000	15.973600
1211.000000	15.921900
1210.000000	15.887800
1209.000000	15.837100
1208.000000	15.808300
1207.000000	15.772800
1206.000000	15.750000
1205.000000	15.742600
1204.000000	15.755400
1203.000000	15.737400
1202.000000	15.740200
1201.000000	15.713800
1200.000000	15.703200
1199.000000	15.673900
1198.000000	15.621700
1197.000000	15.520200
1196.000000	15.413500
1195.000000	15.280600
1194.000000	15.111600
1193.000000	14.907900
1192.000000	14.657200
1191.000000	14.409400
1190.000000	14.197400
1189.000000	14.015000
1188.000000	13.893000
1187.000000	13.859400
1186.000000	13.850100
1185.000000	13.929100
1184.000000	14.079700
1183.000000	14.269800
1182.000000	14.531000
1181.000000	14.812000
1180.000000	15.092700
1179.000000	15.329900
1178.000000	15.540000
1177.000000	15.746700
1176.000000	15.909400
1175.000000	16.077100
1174.000000	16.237100
1173.000000	16.439400
1172.000000	16.610500
1171.000000	16.788500
1170.000000	17.009500
1169.000000	17.195800
1168.000000	17.424200
1167.000000	17.620000
1166.000000	17.823000
1165.000000	18.035100
1164.000000	18.271200
1163.000000	18.501900
1162.000000	18.694800
1161.000000	18.935600
1160.000000	19.146600
1159.000000	19.325400
1158.000000	19.472200
1157.000000	19.611200
1156.000000	19.733300
1155.000000	19.808700
1154.000000	19.858600
1153.000000	19.879400
1152.000000	19.870100
1151.000000	19.853800
1150.000000	19.805600
1149.000000	19.801300
1148.000000	19.810700
1147.000000	19.843900
1146.000000	19.901300
1145.000000	20.019900
1144.000000	20.167000
1143.000000	20.356900
1142.000000	20.561200
1141.000000	20.785900
1140.000000	20.976200
1139.000000	21.192000
1138.000000	21.425200
1137.000000	21.676300
1136.000000	21.920400
1135.000000	22.138700
1134.000000	22.287900
1133.000000	22.487800
1132.000000	22.687400
1131.000000	22.847100
1130.000000	22.987600
1129.000000	23.108000
1128.000000	23.202400
1127.000000	23.282400
1126.000000	23.331100
1125.000000	23.397800
1124.000000	23.443900
1123.000000	23.500600
1122.000000	23.514900
1121.000000	23.560800
1120.000000	23.592600
1119.000000	23.608200
1118.000000	23.589500
1117.000000	23.606600
1116.000000	23.595400
1115.000000	23.602200
1114.000000	23.597500
1113.000000	23.605400
1112.000000	23.598800
1111.000000	23.590400
1110.000000	23.593600
1109.000000	23.598900
1108.000000	23.594100
1107.000000	23.595600
1106.000000	23.591400
1105.000000	23.580200
1104.000000	23.560400
1103.000000	23.545200
1102.000000	23.555800
1101.000000	23.531400
1100.000000	23.513200
1099.000000	23.499100
1098.000000	23.493900
1097.000000	23.463500
1096.000000	23.449600
1095.000000	23.423000
1094.000000	23.411100
1093.000000	23.372200
1092.000000	23.359000
1091.000000	23.342100
1090.000000	23.315900
1089.000000	23.284900
1088.000000	23.264400
1087.000000	23.228400
1086.000000	23.190900
1085.000000	23.146200
1084.000000	23.123900
1083.000000	23.104600
1082.000000	23.074600
1081.000000	23.044500
1080.000000	23.000100
1079.000000	22.970000
1078.000000	22.944300
1077.000000	22.914400
1076.000000	22.894900
1075.000000	22.865100
1074.000000	22.832100
1073.000000	22.822500
1072.000000	22.779500
1071.000000	22.734500
1070.000000	22.706100
1069.000000	22.679400
1068.000000	22.657000
1067.000000	22.637800
1066.000000	22.603000
1065.000000	22.573000
1064.000000	22.555800
1063.000000	22.510600
1062.000000	22.470100
1061.000000	22.432500
1060.000000	22.407700
1059.000000	22.375700
1058.000000	22.345300
1057.000000	22.309600
1056.000000	22.262400
1055.000000	22.222400
1054.000000	22.188000
1053.000000	22.167800
1052.000000	22.148100
1051.000000	22.116100
1050.000000	22.092500
1049.000000	22.069800
1048.000000	22.035300
1047.000000	22.013100
1046.000000	21.986600
1045.000000	21.967300
1044.000000	21.953900
1043.000000	21.946100
1042.000000	21.927900
1041.000000	21.897200
1040.000000	21.893500
1039.000000	21.871200
1038.000000	21.830800
1037.000000	21.805500
1036.000000	21.786300
1035.000000	21.758300
1034.000000	21.729500
1033.000000	21.703200
1032.000000	21.666100
1031.000000	21.632500
1030.000000	21.591200
1029.000000	21.558500
1028.000000	21.519300
1027.000000	21.473100
1026.000000	21.429100
1025.000000	21.379000
1024.000000	21.336600
1023.000000	21.296700
1022.000000	21.256400
1021.000000	21.218000
1020.000000	21.172200
1019.000000	21.141400
1018.000000	21.108700
1017.000000	21.077000
1016.000000	21.054700
1015.000000	21.014400
1014.000000	21.006100
1013.000000	20.992500
1012.000000	20.982900
1011.000000	20.979400
1010.000000	20.978700
1009.000000	20.975100
1008.000000	20.977000
1007.000000	20.982100
1006.000000	21.003000
1005.000000	21.017500
1004.000000	21.019000
1003.000000	21.013800
1002.000000	21.013700
1001.000000	21.015200
1000.000000	21.003700
999.000000	21.031000
998.000000	21.027600
997.000000	21.013700
996.000000	21.028100
995.000000	21.033500
994.000000	21.023300
993.000000	21.027800
992.000000	21.027400
991.000000	21.021000
990.000000	21.013300
989.000000	21.023800
988.000000	21.035200
987.000000	21.041800
986.000000	21.030300
985.000000	21.037400
984.000000	21.047400
983.000000	21.037900
982.000000	21.044800
981.000000	21.044100
980.000000	21.044600
979.000000	21.032600
978.000000	21.050800
977.000000	21.042600
976.000000	21.033200
975.000000	21.035700
974.000000	21.032200
973.000000	21.034200
972.000000	21.031900
971.000000	21.021600
970.000000	21.012900
969.000000	20.999000
968.000000	20.992000
967.000000	20.982400
966.000000	20.979200
965.000000	20.975200
964.000000	20.956500
963.000000	20.947700
962.000000	20.948100
961.000000	20.948200
960.000000	20.955200
959.000000	20.948900
958.000000	20.937800
957.000000	20.940400
956.000000	20.951100
955.000000	20.912600
954.000000	20.904200
953.000000	20.886600
952.000000	20.851300
951.000000	20.809900
950.000000	20.789100
949.000000	20.766500
948.000000	20.722800
947.000000	20.695100
946.000000	20.678100
945.000000	20.644200
944.000000	20.610900
943.000000	20.577300
942.000000	20.542200
941.000000	20.547700
940.000000	20.534300
939.000000	20.511500
938.000000	20.494700
937.000000	20.470100
936.000000	20.482200
935.000000	20.436500
934.000000	20.405700
933.000000	20.410100
932.000000	20.404500
931.000000	20.359300
930.000000	20.327600
929.000000	20.321400
928.000000	20.323200
927.000000	20.317300
926.000000	20.308900
925.000000	20.297800
924.000000	20.304800
923.000000	20.313200
922.000000	20.308000
921.000000	20.295200
920.000000	20.289500
919.000000	20.276900
918.000000	20.290200
917.000000	20.272200
916.000000	20.253800
915.000000	20.238000
914.000000	20.222100
913.000000	20.223000
912.000000	20.215800
911.000000	20.206700
910.000000	20.180400
909.000000	20.185600
908.000000	20.205000
907.000000	20.212300
906.000000	20.248400
905.000000	20.253800
904.000000	20.288000
903.000000	20.313700
902.000000	20.339500
901.000000	20.359100
900.000000	20.441600
899.000000	20.468500
898.000000	20.504200
897.000000	20.549200
896.000000	20.612300
895.000000	20.645100
894.000000	20.691300
893.000000	20.738900
892.000000	20.774900
891.000000	20.822700
890.000000	20.832200
889.000000	20.892200
888.000000	20.931500
887.000000	20.947200
886.000000	20.984600
885.000000	21.023200
884.000000	21.065800
883.000000	21.077500
882.000000	21.094900
881.000000	21.116900
880.000000	21.172500
879.000000	21.189700
878.000000	21.219200
877.000000	21.241000
876.000000	21.268900
875.000000	21.308600
874.000000	21.366300
873.000000	21.412200
872.000000	21.449900
871.000000	21.507300
870.000000	21.572600
869.000000	21.616100
868.000000	21.654900
867.000000	21.717100
866.000000	21.787100
865.000000	21.848400
864.000000	21.888400
863.000000	21.924100
862.000000	21.959100
861.000000	21.965900
860.000000	22.007800
859.000000	22.027400
858.000000	26.181199
857.000000	21.445124
856.000000	21.429560
855.000000	21.320365
854.000000	21.444757
853.000000	21.172075
852.000000	21.121338
851.000000	21.315585
850.000000	21.352474
849.000000	21.333968
848.000000	21.414241
847.000000	21.213744
846.000000	21.179429
845.000000	21.213131
844.000000	21.174036
843.000000	21.081631
842.000000	21.160923
841.000000	21.150138
840.000000	21.156756
839.000000	21.222077
838.000000	21.254064
837.000000	21.141927
836.000000	21.159085
835.000000	21.163252
834.000000	21.222200
833.000000	21.246710
832.000000	21.292178
831.000000	21.156511
830.000000	21.222200
829.000000	21.343405
828.000000	21.364484
827.000000	21.307620
826.000000	21.271834
825.000000	21.200998
824.000000	21.250387
823.000000	21.167664
822.000000	21.207126
821.000000	21.218891
820.000000	21.224283
819.000000	21.193645
818.000000	21.194625
817.000000	21.147320
816.000000	21.089107
815.000000	21.080406
814.000000	21.073910
813.000000	21.015697
812.000000	20.989471
811.000000	21.019497
810.000000	21.002094
809.000000	20.941798
808.000000	20.913243
807.000000	20.882237
806.000000	20.817896
805.000000	20.774757
804.000000	20.778066
803.000000	20.745590
802.000000	20.781498
801.000000	20.804538
800.000000	20.830397
799.000000	20.824882
798.000000	20.808827
797.000000	20.729168
796.000000	20.716299
795.000000	20.664459
794.000000	20.582226
793.000000	20.547176
792.000000	20.477198
791.000000	20.456364
790.000000	20.441290
789.000000	20.383935
788.000000	20.265793
787.000000	20.151941
786.000000	20.114685
785.000000	20.073262
784.000000	19.982205
783.000000	19.853891
782.000000	19.743961
781.000000	19.674228
780.000000	19.616628
779.000000	19.575450
778.000000	19.520301
777.000000	19.452529
776.000000	19.415150
775.000000	19.338187
774.000000	19.307426
773.000000	19.289901
772.000000	19.282548
771.000000	19.220903
770.000000	19.142714
769.000000	19.155950
768.000000	19.160975
767.000000	19.150680
766.000000	19.131317
765.000000	19.118204
764.000000	19.085849
763.000000	19.034009
762.000000	19.010847
761.000000	18.986336
760.000000	18.942339
759.000000	18.892093
758.000000	18.855939
757.000000	18.835473
756.000000	18.788535
755.000000	18.740862
754.000000	18.686938
753.000000	18.621985
752.000000	18.555071
751.000000	18.486809
750.000000	18.417443
749.000000	18.347098
748.000000	18.286434
747.000000	18.226138
746.000000	18.167680
745.000000	18.123438
744.000000	18.058852
743.000000	18.010444
742.000000	18.002110
741.000000	17.939853
740.000000	17.854801
739.000000	17.815461
738.000000	17.764602
737.000000	17.677834
736.000000	17.629057
735.000000	17.568516
734.000000	17.526113
733.000000	17.463243
732.000000	17.357479
731.000000	17.279290
730.000000	17.212253
729.000000	17.144972
728.000000	17.064822
727.000000	16.988594
726.000000	16.900110
725.000000	16.819960
724.000000	16.742384
723.000000	16.644341
722.000000	16.552426
721.000000	16.443354
720.000000	16.348375
719.000000	16.240773
718.000000	16.109151
717.000000	15.991132
716.000000	15.890025
715.000000	15.815758
714.000000	15.710730
713.000000	15.623349
712.000000	15.560602
711.000000	15.479104
710.000000	15.419175
709.000000	15.382164
708.000000	15.319784
707.000000	15.287798
706.000000	15.246252
705.000000	15.172475
704.000000	15.149190
703.000000	15.143062
702.000000	15.136690
701.000000	15.128969
700.000000	15.097595
699.000000	15.078844
698.000000	15.066712
697.000000	15.038157
696.000000	15.013523
695.000000	15.030926
694.000000	15.038892
693.000000	15.052128
692.000000	15.059849
691.000000	15.063403
690.000000	15.038034
689.000000	15.007151
688.000000	15.001146
687.000000	14.957149
686.000000	14.913765
685.000000	14.900162
684.000000	14.858248
683.000000	14.841091
682.000000	14.807634
681.000000	14.746235
680.000000	14.694272
679.000000	14.608607
678.000000	14.556890
677.000000	14.499535
676.000000	14.449533
675.000000	14.364603
674.000000	14.283841
673.000000	14.224157
672.000000	14.146581
671.000000	14.072068
670.000000	14.011772
669.000000	13.935789
668.000000	13.854291
667.000000	13.783210
666.000000	13.702325
665.000000	13.604650
664.000000	13.519598
663.000000	13.398025
662.000000	13.264809
661.000000	13.155859
660.000000	13.035267
659.000000	12.906341
658.000000	12.784400
657.000000	12.627899
656.000000	12.469928
655.000000	12.338674
654.000000	12.207174
653.000000	12.070037
652.000000	11.897481
651.000000	11.757893
650.000000	11.639752
649.000000	11.539993
648.000000	11.449794
647.000000	11.381899
646.000000	11.322829
645.000000	11.280670
644.000000	11.259591
643.000000	11.268905
642.000000	11.302607
641.000000	11.339496
640.000000	11.405430
639.000000	11.485334
638.000000	11.569161
637.000000	11.695759
636.000000	11.820886
635.000000	11.963170
634.000000	12.119426
633.000000	12.272617
632.000000	12.449094
631.000000	12.642851
630.000000	12.834279
629.000000	13.008428
628.000000	13.196915
627.000000	13.385647
626.000000	13.554035
625.000000	13.693133
624.000000	13.867159
623.000000	14.018880
622.000000	14.185063
621.000000	14.331391
620.000000	14.458234
619.000000	14.542673
618.000000	14.658364
617.000000	14.764372
616.000000	14.844645
615.000000	14.901877
614.000000	14.988768
613.000000	15.085952
612.000000	15.158872
611.000000	15.219781
610.000000	15.264145
609.000000	15.308877
608.000000	15.398831
607.000000	15.454348
606.000000	15.496751
605.000000	15.555209
604.000000	15.599819
603.000000	15.596755
602.000000	15.655458
601.000000	15.666733
600.000000	15.668571
599.000000	15.703131
598.000000	15.713426
597.000000	15.736833
596.000000	15.721147
595.000000	15.747863
594.000000	15.753010
593.000000	15.745290
592.000000	15.741736
591.000000	15.703621
590.000000	15.683768
589.000000	15.708891
588.000000	15.728010
587.000000	15.703621
586.000000	15.671145
585.000000	15.670532
584.000000	15.661218
583.000000	15.652639
582.000000	15.583642
581.000000	15.560602
580.000000	15.555822
579.000000	15.540380
578.000000	15.509129
577.000000	15.487070
576.000000	15.446137
575.000000	15.421381
574.000000	15.384125
573.000000	15.327628
572.000000	15.263777
571.000000	15.204339
570.000000	15.181544
569.000000	15.156421
568.000000	15.139876
567.000000	15.066221
566.000000	15.044039
565.000000	14.996611
564.000000	14.953717
563.000000	14.918545
562.000000	14.870504
561.000000	14.824791
560.000000	14.801384
559.000000	14.828223
558.000000	14.760328
557.000000	14.678830
556.000000	14.584709
555.000000	14.491324
554.000000	14.373059
553.000000	14.231265
552.000000	14.120354
551.000000	13.980398
550.000000	13.854046
549.000000	13.702570
548.000000	13.550604
547.000000	13.390672
546.000000	13.241157
545.000000	13.057817
544.000000	12.867982
543.000000	12.682313
542.000000	12.493213
541.000000	12.268205
540.000000	12.038663
539.000000	11.816106
538.000000	11.582152
537.000000	11.330304
536.000000	11.084462
535.000000	10.826855
534.000000	10.578562
533.000000	10.332597
532.000000	10.107467
531.000000	9.872900
530.000000	9.642132
529.000000	9.429869
528.000000	9.216136
527.000000	8.984388
526.000000	8.769184
525.000000	8.548710
524.000000	8.348948
523.000000	8.161442
522.000000	7.987784
521.000000	7.806650
520.000000	7.638261
519.000000	7.470486
518.000000	7.324770
517.000000	7.193515
516.000000	7.079173
515.000000	6.964095
514.000000	6.861886
513.000000	6.764701
512.000000	6.673766
511.000000	6.596190
510.000000	6.524374
509.000000	6.466161
508.000000	6.399615
507.000000	6.337725
506.000000	6.276694
505.000000	6.217745
504.000000	6.177180
503.000000	6.147032
502.000000	6.105609
501.000000	6.073377
500.000000	6.037592
499.000000	6.003277
498.000000	5.976070
497.000000	5.957565
496.000000	5.930848
495.000000	5.899719
494.000000	5.877660
493.000000	5.864424
492.000000	5.838810
491.000000	5.814177
490.000000	5.787583
489.000000	5.765156
488.000000	5.737581
487.000000	5.704859
486.000000	5.673608
485.000000	5.625445
484.000000	5.577772
483.000000	5.536103
482.000000	5.516617
481.000000	5.525809
480.000000	5.541006
479.000000	5.531569
478.000000	5.487817
477.000000	5.443576
476.000000	5.396760
475.000000	5.352028
474.000000	5.300311
473.000000	5.248103
472.000000	5.205454
471.000000	5.154350
470.000000	5.091602
469.000000	5.022115
468.000000	4.974196
467.000000	4.924685
466.000000	4.872845
465.000000	4.834853
464.000000	4.793307
463.000000	4.754090
462.000000	4.713525
461.000000	4.673695
460.000000	4.654087
459.000000	4.641219
458.000000	4.615728
457.000000	4.603472
456.000000	4.602124
455.000000	4.601879
454.000000	4.610213
453.000000	4.622591
452.000000	4.628963
451.000000	4.635091
450.000000	4.645263
449.000000	4.665117
448.000000	4.680068
447.000000	4.685338
446.000000	4.694039
445.000000	4.692078
444.000000	4.683745
443.000000	4.692324
442.000000	4.705804
441.000000	4.702005
440.000000	4.700657
439.000000	4.701025
438.000000	4.694529
437.000000	4.681049
436.000000	4.659724
435.000000	4.650410
434.000000	4.631414
433.000000	4.606904
432.000000	4.581168
431.000000	4.544034
430.000000	4.516092
429.000000	4.487537
428.000000	4.457879
427.000000	4.420500
426.000000	4.382141
425.000000	4.347826
424.000000	4.301378
423.000000	4.256401
422.000000	4.203703
421.000000	4.156030
420.000000	4.113504
419.000000	4.054188
418.000000	3.984333
417.000000	3.929674
416.000000	3.886780
415.000000	3.840945
414.000000	3.791801
413.000000	3.733711
412.000000	3.669983
411.000000	3.612996
410.000000	3.552209
409.000000	3.478923
408.000000	3.431862
407.000000	3.380635
406.000000	3.311637
405.000000	3.250361
404.000000	3.185162
403.000000	3.126704
402.000000	3.071800
401.000000	3.019470
400.000000	2.973880
399.000000	2.916035
398.000000	2.852185
397.000000	2.797526
396.000000	2.743602
395.000000	2.693478
394.000000	2.642128
393.000000	2.593229
392.000000	2.534894
391.000000	2.504256
390.000000	2.472269
389.000000	2.424106
388.000000	2.377658
387.000000	2.348490
386.000000	2.315769
385.000000	2.282924
384.000000	2.259762
383.000000	2.221157
382.000000	2.194686
381.000000	2.179122
380.000000	2.145419
379.000000	2.103874
378.000000	2.086226
377.000000	2.063309
376.000000	2.256943
375.000000	2.225324
374.000000	2.196647
373.000000	2.147258
372.000000	2.198362
371.000000	2.235251
370.000000	2.209515
369.000000	2.244933
368.000000	2.242849
367.000000	2.267360
366.000000	2.277287
365.000000	2.236722
364.000000	2.270914
363.000000	2.184269
362.000000	2.242604
361.000000	2.213804
360.000000	2.209392
359.000000	2.180470
358.000000	2.208779
357.000000	2.220667
356.000000	2.243339
355.000000	2.224589
354.000000	2.162454
353.000000	2.221648
352.000000	2.182921
351.000000	2.165273
350.000000	2.149831
349.000000	2.247261
348.000000	2.221402
347.000000	2.181205
346.000000	2.154488
345.000000	2.198117
344.000000	2.229001
343.000000	2.294689
342.000000	2.300694
341.000000	2.207676
340.000000	2.257556
339.000000	2.219564
338.000000	2.193460
337.000000	2.122012
336.000000	2.065637
335.000000	2.158533
334.000000	2.156327
333.000000	2.290032
332.000000	2.195176
331.000000	2.376555
330.000000	2.338441
329.000000	2.241011
328.000000	2.104364
327.000000	2.272017
326.000000	2.308293
325.000000	2.380354
324.000000	2.381212
323.000000	2.471289
322.000000	2.421287
321.000000	2.361236
320.000000	2.294567
319.000000	2.429130
318.000000	2.429743
317.000000	2.519085
316.000000	2.087206
315.000000	2.002645
314.000000	1.955584
313.000000	1.950314
312.000000	1.992473
311.000000	1.986958
310.000000	2.012449
309.000000	2.033896
308.000000	1.996640
307.000000	1.991983
306.000000	1.998600
305.000000	1.983526
304.000000	1.961712
303.000000	1.953378
302.000000	1.968330
301.000000	2.003380
300.000000	2.015880
299.000000	1.980217
298.000000	1.955339
297.000000	2.012081
296.000000	2.004851
295.000000	1.948844
294.000000	1.970658
293.000000	1.981565
292.000000	1.963182
291.000000	1.957055
290.000000	1.941736
289.000000	2.041372
288.000000	1.959874
287.000000	1.954971
286.000000	1.975438
285.000000	1.986958
284.000000	1.967227
283.000000	1.957545
282.000000	2.021028
281.000000	2.016003
280.000000	1.971148
279.000000	2.037695
278.000000	1.964163
277.000000	1.982178
276.000000	1.985610
275.000000	1.970045
274.000000	2.047132
273.000000	1.997865
272.000000	2.119315
271.000000	2.034386
270.000000	2.016493
269.000000	1.998846
268.000000	2.050686
267.000000	2.037450
266.000000	2.034018
265.000000	2.055220
264.000000	2.036102
263.000000	2.055710
262.000000	2.106692
261.000000	2.066618
260.000000	2.091128
259.000000	2.069559
258.000000	2.087084
257.000000	2.057426
256.000000	2.085001
255.000000	2.067843
254.000000	2.079363
253.000000	2.082304
252.000000	2.074461
251.000000	2.100932
250.000000	2.110614
