PE UV       SUBTECH     SPECTRUM    ASCII       PEDS        4.00        
   -1
CICIMAUCR0158-1.ASC
24/04/03
16:46:49.00
24/04/03
16:46:49.00
Vinicio Soto Monge
C. cupreomarginata
250,000000
1
Lambda 1050
1050L1511233
PerkinElmer UV WinLab 6.3.2.0749 / 2.02.05 Lambda 900 UV/VIS/NIR, Aug  7 2015 09:38:08

0
0
3350/servo 860,8/2
0
0
UV/VIS
1
1
1
DoubleDePol,CommonBeamDepol,RBeamAtt,SBeamAtt,60mm sphere, WB InGaAs Detector
0
0
0
0
Program
Program
3350/servo 860,8/2
3350/0,2 860,8/0,2
3350/0,2 860,8/0,2
0
15.00
 
 
 
0
 
860,8
319,2
860,8
Front
100
on
S:100 R:100
0
0
0
0
 
0
 
 
 
0
 
 
0
0
0
0
0
 
 
 
 
0
0


0
0
#HDR
-1
-1
#GR
nm
%R
1.0
0.0
2500,000000
-1,000000
2251
8
61,268000
5,280400
#DATA
2500.000000	11.382200
2499.000000	11.405800
2498.000000	11.323800
2497.000000	11.410300
2496.000000	11.253200
2495.000000	11.436400
2494.000000	11.329300
2493.000000	11.360400
2492.000000	11.379500
2491.000000	11.446200
2490.000000	11.472900
2489.000000	11.470200
2488.000000	11.406500
2487.000000	11.470800
2486.000000	11.540400
2485.000000	11.501000
2484.000000	11.556100
2483.000000	11.634700
2482.000000	11.641300
2481.000000	11.593600
2480.000000	11.646700
2479.000000	11.711000
2478.000000	11.727400
2477.000000	11.781500
2476.000000	11.838400
2475.000000	11.877800
2474.000000	11.947500
2473.000000	11.931600
2472.000000	12.015100
2471.000000	12.005100
2470.000000	12.058000
2469.000000	12.142000
2468.000000	12.168000
2467.000000	12.218100
2466.000000	12.263500
2465.000000	12.310400
2464.000000	12.362600
2463.000000	12.454700
2462.000000	12.522500
2461.000000	12.605500
2460.000000	12.667200
2459.000000	12.727700
2458.000000	12.807000
2457.000000	12.869800
2456.000000	12.945500
2455.000000	13.015400
2454.000000	13.115500
2453.000000	13.203700
2452.000000	13.299700
2451.000000	13.410400
2450.000000	13.472200
2449.000000	13.579500
2448.000000	13.673900
2447.000000	13.779000
2446.000000	13.867900
2445.000000	13.970200
2444.000000	14.066200
2443.000000	14.177100
2442.000000	14.304000
2441.000000	14.401300
2440.000000	14.503400
2439.000000	14.600600
2438.000000	14.713700
2437.000000	14.802600
2436.000000	14.900200
2435.000000	15.005900
2434.000000	15.107300
2433.000000	15.216700
2432.000000	15.314900
2431.000000	15.410700
2430.000000	15.515300
2429.000000	15.607000
2428.000000	15.703500
2427.000000	15.779800
2426.000000	15.877900
2425.000000	15.974700
2424.000000	16.060300
2423.000000	16.149900
2422.000000	16.241800
2421.000000	16.346400
2420.000000	16.441600
2419.000000	16.516700
2418.000000	16.598600
2417.000000	16.683300
2416.000000	16.752500
2415.000000	16.812300
2414.000000	16.891900
2413.000000	16.959700
2412.000000	17.017200
2411.000000	17.063000
2410.000000	17.133200
2409.000000	17.190200
2408.000000	17.236100
2407.000000	17.290700
2406.000000	17.342400
2405.000000	17.386700
2404.000000	17.435300
2403.000000	17.470600
2402.000000	17.517100
2401.000000	17.552500
2400.000000	17.592300
2399.000000	17.640700
2398.000000	17.670200
2397.000000	17.706900
2396.000000	17.725100
2395.000000	17.754100
2394.000000	17.788900
2393.000000	17.805000
2392.000000	17.848900
2391.000000	17.882800
2390.000000	17.888000
2389.000000	17.895100
2388.000000	17.921800
2387.000000	17.930300
2386.000000	17.941200
2385.000000	17.955500
2384.000000	17.953700
2383.000000	17.962200
2382.000000	17.970900
2381.000000	17.970300
2380.000000	17.973600
2379.000000	17.980300
2378.000000	17.978500
2377.000000	17.970200
2376.000000	17.947100
2375.000000	17.948000
2374.000000	17.961400
2373.000000	17.944400
2372.000000	17.927700
2371.000000	17.926100
2370.000000	17.921900
2369.000000	17.904500
2368.000000	17.900400
2367.000000	17.899900
2366.000000	17.892500
2365.000000	17.894300
2364.000000	17.885200
2363.000000	17.883500
2362.000000	17.889200
2361.000000	17.888500
2360.000000	17.892600
2359.000000	17.878100
2358.000000	17.864500
2357.000000	17.860200
2356.000000	17.848800
2355.000000	17.838300
2354.000000	17.820300
2353.000000	17.807900
2352.000000	17.796600
2351.000000	17.772100
2350.000000	17.748600
2349.000000	17.734400
2348.000000	17.730500
2347.000000	17.712400
2346.000000	17.691000
2345.000000	17.672800
2344.000000	17.667100
2343.000000	17.655400
2342.000000	17.635000
2341.000000	17.611600
2340.000000	17.605700
2339.000000	17.594000
2338.000000	17.580100
2337.000000	17.563800
2336.000000	17.567500
2335.000000	17.563700
2334.000000	17.556000
2333.000000	17.543600
2332.000000	17.545600
2331.000000	17.548700
2330.000000	17.539300
2329.000000	17.546900
2328.000000	17.547200
2327.000000	17.541100
2326.000000	17.556500
2325.000000	17.559500
2324.000000	17.566300
2323.000000	17.569400
2322.000000	17.560600
2321.000000	17.551700
2320.000000	17.532900
2319.000000	17.514500
2318.000000	17.483500
2317.000000	17.445600
2316.000000	17.422800
2315.000000	17.378900
2314.000000	17.343700
2313.000000	17.287200
2312.000000	17.254300
2311.000000	17.190700
2310.000000	17.127700
2309.000000	17.076500
2308.000000	17.017200
2307.000000	16.952000
2306.000000	16.894400
2305.000000	16.857400
2304.000000	16.801300
2303.000000	16.741400
2302.000000	16.698800
2301.000000	16.631700
2300.000000	16.588900
2299.000000	16.542600
2298.000000	16.497300
2297.000000	16.472800
2296.000000	16.421600
2295.000000	16.392200
2294.000000	16.364500
2293.000000	16.319100
2292.000000	16.318000
2291.000000	16.284300
2290.000000	16.253700
2289.000000	16.209500
2288.000000	16.199500
2287.000000	16.170700
2286.000000	16.141800
2285.000000	16.133800
2284.000000	16.100000
2283.000000	16.069100
2282.000000	16.075500
2281.000000	16.038200
2280.000000	16.024600
2279.000000	15.986800
2278.000000	15.956400
2277.000000	15.929700
2276.000000	15.878700
2275.000000	15.845700
2274.000000	15.819900
2273.000000	15.762800
2272.000000	15.715200
2271.000000	15.677900
2270.000000	15.631100
2269.000000	15.607600
2268.000000	15.557800
2267.000000	15.526200
2266.000000	15.505800
2265.000000	15.488200
2264.000000	15.475600
2263.000000	15.459200
2262.000000	15.468800
2261.000000	15.476200
2260.000000	15.484600
2259.000000	15.498300
2258.000000	15.525800
2257.000000	15.577200
2256.000000	15.603100
2255.000000	15.649000
2254.000000	15.699200
2253.000000	15.766100
2252.000000	15.814200
2251.000000	15.881800
2250.000000	15.913800
2249.000000	15.969400
2248.000000	16.042200
2247.000000	16.101400
2246.000000	16.126200
2245.000000	16.186100
2244.000000	16.228100
2243.000000	16.274100
2242.000000	16.301700
2241.000000	16.327600
2240.000000	16.367100
2239.000000	16.372000
2238.000000	16.385900
2237.000000	16.387000
2236.000000	16.382700
2235.000000	16.381900
2234.000000	16.353700
2233.000000	16.305800
2232.000000	16.263800
2231.000000	16.227700
2230.000000	16.146900
2229.000000	16.071300
2228.000000	16.013100
2227.000000	15.915400
2226.000000	15.817600
2225.000000	15.710300
2224.000000	15.593700
2223.000000	15.477200
2222.000000	15.367100
2221.000000	15.221200
2220.000000	15.102900
2219.000000	14.981900
2218.000000	14.831000
2217.000000	14.723900
2216.000000	14.589600
2215.000000	14.513300
2214.000000	14.421500
2213.000000	14.332300
2212.000000	14.291600
2211.000000	14.249800
2210.000000	14.249000
2209.000000	14.253900
2208.000000	14.287700
2207.000000	14.340000
2206.000000	14.452800
2205.000000	14.569600
2204.000000	14.707200
2203.000000	14.837000
2202.000000	15.028900
2201.000000	15.221500
2200.000000	15.420900
2199.000000	15.636500
2198.000000	15.837600
2197.000000	16.082400
2196.000000	16.280100
2195.000000	16.482000
2194.000000	16.683800
2193.000000	16.891600
2192.000000	17.066900
2191.000000	17.224900
2190.000000	17.376600
2189.000000	17.537200
2188.000000	17.678600
2187.000000	17.772100
2186.000000	17.880600
2185.000000	17.983000
2184.000000	18.082900
2183.000000	18.132200
2182.000000	18.203800
2181.000000	18.273300
2180.000000	18.316500
2179.000000	18.359400
2178.000000	18.425800
2177.000000	18.471500
2176.000000	18.514500
2175.000000	18.550300
2174.000000	18.582100
2173.000000	18.618100
2172.000000	18.676200
2171.000000	18.710900
2170.000000	18.751500
2169.000000	18.804400
2168.000000	18.884500
2167.000000	18.936600
2166.000000	18.975800
2165.000000	19.044600
2164.000000	19.108000
2163.000000	19.153800
2162.000000	19.224400
2161.000000	19.301200
2160.000000	19.381300
2159.000000	19.458000
2158.000000	19.560600
2157.000000	19.642100
2156.000000	19.724600
2155.000000	19.824400
2154.000000	19.922900
2153.000000	20.032900
2152.000000	20.135700
2151.000000	20.250800
2150.000000	20.351000
2149.000000	20.445300
2148.000000	20.577600
2147.000000	20.688100
2146.000000	20.777800
2145.000000	20.898200
2144.000000	21.005400
2143.000000	21.112900
2142.000000	21.228400
2141.000000	21.340700
2140.000000	21.428900
2139.000000	21.512800
2138.000000	21.615300
2137.000000	21.715200
2136.000000	21.799000
2135.000000	21.890000
2134.000000	21.976100
2133.000000	22.036800
2132.000000	22.106400
2131.000000	22.170200
2130.000000	22.239900
2129.000000	22.303700
2128.000000	22.362000
2127.000000	22.417100
2126.000000	22.480100
2125.000000	22.516900
2124.000000	22.546300
2123.000000	22.581000
2122.000000	22.629900
2121.000000	22.678600
2120.000000	22.708700
2119.000000	22.723100
2118.000000	22.746600
2117.000000	22.772300
2116.000000	22.778800
2115.000000	22.795500
2114.000000	22.826100
2113.000000	22.830700
2112.000000	22.834600
2111.000000	22.848100
2110.000000	22.855000
2109.000000	22.844000
2108.000000	22.843600
2107.000000	22.843000
2106.000000	22.847900
2105.000000	22.848100
2104.000000	22.836700
2103.000000	22.843900
2102.000000	22.832500
2101.000000	22.823900
2100.000000	22.833100
2099.000000	22.831800
2098.000000	22.831200
2097.000000	22.819100
2096.000000	22.814000
2095.000000	22.821800
2094.000000	22.823500
2093.000000	22.815800
2092.000000	22.814400
2091.000000	22.823900
2090.000000	22.814700
2089.000000	22.807400
2088.000000	22.822700
2087.000000	22.831500
2086.000000	22.811700
2085.000000	22.792800
2084.000000	22.767500
2083.000000	22.744200
2082.000000	22.714800
2081.000000	22.681700
2080.000000	22.642100
2079.000000	22.577600
2078.000000	22.524100
2077.000000	22.467300
2076.000000	22.406400
2075.000000	22.343100
2074.000000	22.274400
2073.000000	22.194000
2072.000000	22.092400
2071.000000	21.996000
2070.000000	21.908500
2069.000000	21.820500
2068.000000	21.715200
2067.000000	21.627500
2066.000000	21.518500
2065.000000	21.428300
2064.000000	21.323900
2063.000000	21.219600
2062.000000	21.123900
2061.000000	21.047400
2060.000000	20.976900
2059.000000	20.891500
2058.000000	20.836400
2057.000000	20.783100
2056.000000	20.740400
2055.000000	20.710700
2054.000000	20.689000
2053.000000	20.695000
2052.000000	20.702200
2051.000000	20.731100
2050.000000	20.769400
2049.000000	20.828000
2048.000000	20.896500
2047.000000	20.972100
2046.000000	21.065100
2045.000000	21.161700
2044.000000	21.251000
2043.000000	21.358800
2042.000000	21.468700
2041.000000	21.564800
2040.000000	21.656400
2039.000000	21.759800
2038.000000	21.840900
2037.000000	21.932600
2036.000000	22.022600
2035.000000	22.104500
2034.000000	22.180100
2033.000000	22.229500
2032.000000	22.304400
2031.000000	22.378000
2030.000000	22.426100
2029.000000	22.495200
2028.000000	22.533700
2027.000000	22.581600
2026.000000	22.610300
2025.000000	22.665300
2024.000000	22.689100
2023.000000	22.721800
2022.000000	22.750500
2021.000000	22.775800
2020.000000	22.797500
2019.000000	22.805900
2018.000000	22.819500
2017.000000	22.826400
2016.000000	22.840200
2015.000000	22.848500
2014.000000	22.829200
2013.000000	22.821300
2012.000000	22.803900
2011.000000	22.774100
2010.000000	22.750400
2009.000000	22.716500
2008.000000	22.709400
2007.000000	22.655800
2006.000000	22.635300
2005.000000	22.598200
2004.000000	22.553800
2003.000000	22.477300
2002.000000	22.432100
2001.000000	22.360800
2000.000000	22.312100
1999.000000	22.233300
1998.000000	22.168400
1997.000000	22.084400
1996.000000	22.019500
1995.000000	21.934700
1994.000000	21.855900
1993.000000	21.768400
1992.000000	21.688100
1991.000000	21.601000
1990.000000	21.517600
1989.000000	21.436800
1988.000000	21.341700
1987.000000	21.265400
1986.000000	21.129900
1985.000000	21.053400
1984.000000	20.977000
1983.000000	20.870200
1982.000000	20.773400
1981.000000	20.682300
1980.000000	20.591500
1979.000000	20.510500
1978.000000	20.400100
1977.000000	20.320900
1976.000000	20.218800
1975.000000	20.134800
1974.000000	20.047000
1973.000000	19.983000
1972.000000	19.860800
1971.000000	19.782800
1970.000000	19.702500
1969.000000	19.619400
1968.000000	19.543000
1967.000000	19.446900
1966.000000	19.387500
1965.000000	19.296700
1964.000000	19.231900
1963.000000	19.120000
1962.000000	19.029400
1961.000000	18.982400
1960.000000	18.882600
1959.000000	18.805200
1958.000000	18.708400
1957.000000	18.626200
1956.000000	18.564100
1955.000000	18.464600
1954.000000	18.369100
1953.000000	18.291200
1952.000000	18.204300
1951.000000	18.147500
1950.000000	18.100600
1949.000000	18.020000
1948.000000	17.945200
1947.000000	17.861900
1946.000000	17.817000
1945.000000	17.760900
1944.000000	17.701400
1943.000000	17.644900
1942.000000	17.608000
1941.000000	17.575700
1940.000000	17.552700
1939.000000	17.521400
1938.000000	17.485200
1937.000000	17.485600
1936.000000	17.469400
1935.000000	17.449100
1934.000000	17.481500
1933.000000	17.476800
1932.000000	17.530800
1931.000000	17.570300
1930.000000	17.586100
1929.000000	17.649400
1928.000000	17.718600
1927.000000	17.769000
1926.000000	17.839000
1925.000000	17.926300
1924.000000	18.049400
1923.000000	18.126500
1922.000000	18.252300
1921.000000	18.405200
1920.000000	18.556000
1919.000000	18.675900
1918.000000	18.842000
1917.000000	18.988400
1916.000000	19.157200
1915.000000	19.340200
1914.000000	19.565600
1913.000000	19.820200
1912.000000	20.060700
1911.000000	20.286300
1910.000000	20.536800
1909.000000	20.764600
1908.000000	21.032900
1907.000000	21.349100
1906.000000	21.707300
1905.000000	22.099300
1904.000000	22.487100
1903.000000	22.837400
1902.000000	23.210800
1901.000000	23.617600
1900.000000	24.068200
1899.000000	24.540100
1898.000000	24.977000
1897.000000	25.460300
1896.000000	25.886300
1895.000000	26.296800
1894.000000	26.783200
1893.000000	27.282600
1892.000000	27.815700
1891.000000	28.359000
1890.000000	28.871400
1889.000000	29.332100
1888.000000	29.832600
1887.000000	30.292500
1886.000000	30.756300
1885.000000	31.240100
1884.000000	31.704600
1883.000000	32.125000
1882.000000	32.516600
1881.000000	32.909300
1880.000000	33.267300
1879.000000	33.622700
1878.000000	33.968600
1877.000000	34.312400
1876.000000	34.645100
1875.000000	34.974800
1874.000000	35.281900
1873.000000	35.571300
1872.000000	35.837200
1871.000000	36.068300
1870.000000	36.254600
1869.000000	36.431500
1868.000000	36.591200
1867.000000	36.695300
1866.000000	36.793800
1865.000000	36.888800
1864.000000	36.985400
1863.000000	37.099000
1862.000000	37.242300
1861.000000	37.370900
1860.000000	37.491000
1859.000000	37.586500
1858.000000	37.661400
1857.000000	37.726400
1856.000000	37.783500
1855.000000	37.836700
1854.000000	37.881500
1853.000000	37.902200
1852.000000	37.929700
1851.000000	37.978300
1850.000000	38.040800
1849.000000	38.122800
1848.000000	38.155400
1847.000000	38.134300
1846.000000	38.085200
1845.000000	38.047400
1844.000000	38.046800
1843.000000	38.079400
1842.000000	38.114100
1841.000000	38.119800
1840.000000	38.107300
1839.000000	38.079400
1838.000000	38.050100
1837.000000	38.032900
1836.000000	37.985900
1835.000000	37.915200
1834.000000	37.857800
1833.000000	37.818600
1832.000000	37.800500
1831.000000	37.791800
1830.000000	37.760600
1829.000000	37.727300
1828.000000	37.678200
1827.000000	37.632600
1826.000000	37.607100
1825.000000	37.576400
1824.000000	37.559900
1823.000000	37.600600
1822.000000	37.643800
1821.000000	37.656000
1820.000000	37.637100
1819.000000	37.576800
1818.000000	37.541000
1817.000000	37.542000
1816.000000	37.554000
1815.000000	37.537700
1814.000000	37.504300
1813.000000	37.501300
1812.000000	37.489300
1811.000000	37.472900
1810.000000	37.418500
1809.000000	37.391500
1808.000000	37.387700
1807.000000	37.372000
1806.000000	37.348200
1805.000000	37.321100
1804.000000	37.293800
1803.000000	37.280900
1802.000000	37.287800
1801.000000	37.269100
1800.000000	37.228700
1799.000000	37.189600
1798.000000	37.165000
1797.000000	37.148100
1796.000000	37.126300
1795.000000	37.115800
1794.000000	37.098500
1793.000000	37.081800
1792.000000	37.063300
1791.000000	37.057100
1790.000000	37.052000
1789.000000	37.045700
1788.000000	37.039300
1787.000000	37.049600
1786.000000	37.066800
1785.000000	37.063900
1784.000000	37.041100
1783.000000	37.031300
1782.000000	37.018700
1781.000000	37.012700
1780.000000	37.011200
1779.000000	36.996400
1778.000000	36.967700
1777.000000	36.936800
1776.000000	36.912400
1775.000000	36.893800
1774.000000	36.868100
1773.000000	36.833200
1772.000000	36.803800
1771.000000	36.763800
1770.000000	36.727200
1769.000000	36.695800
1768.000000	36.661400
1767.000000	36.631600
1766.000000	36.607700
1765.000000	36.574200
1764.000000	36.534800
1763.000000	36.523600
1762.000000	36.513100
1761.000000	36.492500
1760.000000	36.477000
1759.000000	36.453500
1758.000000	36.470400
1757.000000	36.470800
1756.000000	36.444300
1755.000000	36.424600
1754.000000	36.413100
1753.000000	36.403100
1752.000000	36.407300
1751.000000	36.389900
1750.000000	36.368900
1749.000000	36.346100
1748.000000	36.299100
1747.000000	36.272600
1746.000000	36.227500
1745.000000	36.186000
1744.000000	36.133800
1743.000000	36.073600
1742.000000	36.031300
1741.000000	35.967300
1740.000000	35.918600
1739.000000	35.861400
1738.000000	35.821600
1737.000000	35.772800
1736.000000	35.741500
1735.000000	35.717800
1734.000000	35.683600
1733.000000	35.638100
1732.000000	35.632500
1731.000000	35.590800
1730.000000	35.566600
1729.000000	35.542700
1728.000000	35.507100
1727.000000	35.486900
1726.000000	35.478800
1725.000000	35.467500
1724.000000	35.465700
1723.000000	35.511800
1722.000000	35.571600
1721.000000	35.641400
1720.000000	35.764100
1719.000000	35.917000
1718.000000	36.071300
1717.000000	36.241200
1716.000000	36.388500
1715.000000	36.553300
1714.000000	36.720300
1713.000000	36.831400
1712.000000	36.956500
1711.000000	37.068800
1710.000000	37.144200
1709.000000	37.244100
1708.000000	37.323000
1707.000000	37.368400
1706.000000	37.420500
1705.000000	37.448000
1704.000000	37.485300
1703.000000	37.499900
1702.000000	37.513500
1701.000000	37.518200
1700.000000	37.529300
1699.000000	37.523800
1698.000000	37.516900
1697.000000	37.503900
1696.000000	37.487600
1695.000000	37.460000
1694.000000	37.436600
1693.000000	37.380500
1692.000000	37.331900
1691.000000	37.273300
1690.000000	37.249600
1689.000000	37.238600
1688.000000	37.276300
1687.000000	37.304700
1686.000000	37.403000
1685.000000	37.511700
1684.000000	37.677800
1683.000000	37.838900
1682.000000	38.005100
1681.000000	38.185500
1680.000000	38.357200
1679.000000	38.522000
1678.000000	38.685200
1677.000000	38.825700
1676.000000	38.973000
1675.000000	39.105900
1674.000000	39.257600
1673.000000	39.394100
1672.000000	39.526700
1671.000000	39.652800
1670.000000	39.795400
1669.000000	39.935800
1668.000000	40.081400
1667.000000	40.192600
1666.000000	40.309200
1665.000000	40.415900
1664.000000	40.522900
1663.000000	40.638500
1662.000000	40.743300
1661.000000	40.823700
1660.000000	40.900000
1659.000000	40.970100
1658.000000	41.056400
1657.000000	41.084600
1656.000000	41.156400
1655.000000	41.183300
1654.000000	41.200200
1653.000000	41.220000
1652.000000	41.229600
1651.000000	41.255500
1650.000000	41.249200
1649.000000	41.242700
1648.000000	41.221900
1647.000000	41.223400
1646.000000	41.203900
1645.000000	41.194100
1644.000000	41.176100
1643.000000	41.157400
1642.000000	41.148500
1641.000000	41.136900
1640.000000	41.126200
1639.000000	41.104800
1638.000000	41.087300
1637.000000	41.048100
1636.000000	41.029900
1635.000000	40.996100
1634.000000	40.990700
1633.000000	40.962600
1632.000000	40.918700
1631.000000	40.874600
1630.000000	40.842900
1629.000000	40.794300
1628.000000	40.758100
1627.000000	40.734500
1626.000000	40.682200
1625.000000	40.631100
1624.000000	40.605100
1623.000000	40.549900
1622.000000	40.505200
1621.000000	40.468300
1620.000000	40.451200
1619.000000	40.433700
1618.000000	40.394200
1617.000000	40.354500
1616.000000	40.329600
1615.000000	40.296500
1614.000000	40.246600
1613.000000	40.214500
1612.000000	40.166800
1611.000000	40.127200
1610.000000	40.081600
1609.000000	40.032300
1608.000000	39.976000
1607.000000	39.918300
1606.000000	39.854900
1605.000000	39.784000
1604.000000	39.724100
1603.000000	39.664000
1602.000000	39.590200
1601.000000	39.524100
1600.000000	39.463500
1599.000000	39.415000
1598.000000	39.342200
1597.000000	39.268700
1596.000000	39.216700
1595.000000	39.163700
1594.000000	39.114700
1593.000000	39.051100
1592.000000	39.004200
1591.000000	38.959000
1590.000000	38.920300
1589.000000	38.877900
1588.000000	38.814600
1587.000000	38.759500
1586.000000	38.721100
1585.000000	38.680400
1584.000000	38.637200
1583.000000	38.596400
1582.000000	38.561000
1581.000000	38.521400
1580.000000	38.484400
1579.000000	38.446200
1578.000000	38.413100
1577.000000	38.390900
1576.000000	38.372900
1575.000000	38.357800
1574.000000	38.340900
1573.000000	38.329400
1572.000000	38.324800
1571.000000	38.306300
1570.000000	38.300600
1569.000000	38.308700
1568.000000	38.310100
1567.000000	38.309700
1566.000000	38.303600
1565.000000	38.306100
1564.000000	38.301400
1563.000000	38.282800
1562.000000	38.272600
1561.000000	38.265200
1560.000000	38.241100
1559.000000	38.206500
1558.000000	38.168700
1557.000000	38.138900
1556.000000	38.094400
1555.000000	38.032200
1554.000000	37.972100
1553.000000	37.894400
1552.000000	37.827200
1551.000000	37.763400
1550.000000	37.688800
1549.000000	37.616200
1548.000000	37.544500
1547.000000	37.467800
1546.000000	37.390100
1545.000000	37.321500
1544.000000	37.258100
1543.000000	37.206200
1542.000000	37.160100
1541.000000	37.115500
1540.000000	37.074500
1539.000000	37.024200
1538.000000	36.970100
1537.000000	36.932400
1536.000000	36.893300
1535.000000	36.844300
1534.000000	36.785400
1533.000000	36.734600
1532.000000	36.685700
1531.000000	36.619200
1530.000000	36.562200
1529.000000	36.507600
1528.000000	36.466200
1527.000000	36.417800
1526.000000	36.344100
1525.000000	36.279700
1524.000000	36.216700
1523.000000	36.151300
1522.000000	36.089400
1521.000000	36.029500
1520.000000	35.964500
1519.000000	35.913100
1518.000000	35.859700
1517.000000	35.782900
1516.000000	35.701700
1515.000000	35.647900
1514.000000	35.586900
1513.000000	35.516700
1512.000000	35.448900
1511.000000	35.396100
1510.000000	35.329700
1509.000000	35.261600
1508.000000	35.177400
1507.000000	35.118400
1506.000000	35.063600
1505.000000	35.000000
1504.000000	34.942600
1503.000000	34.888300
1502.000000	34.825100
1501.000000	34.774600
1500.000000	34.733200
1499.000000	34.699400
1498.000000	34.653200
1497.000000	34.622800
1496.000000	34.570200
1495.000000	34.546700
1494.000000	34.525600
1493.000000	34.520900
1492.000000	34.523900
1491.000000	34.500800
1490.000000	34.495300
1489.000000	34.494200
1488.000000	34.497800
1487.000000	34.501900
1486.000000	34.490600
1485.000000	34.491600
1484.000000	34.486300
1483.000000	34.502600
1482.000000	34.498900
1481.000000	34.500200
1480.000000	34.489800
1479.000000	34.503000
1478.000000	34.519000
1477.000000	34.527700
1476.000000	34.531400
1475.000000	34.531300
1474.000000	34.584300
1473.000000	34.613300
1472.000000	34.635400
1471.000000	34.687200
1470.000000	34.695100
1469.000000	34.705900
1468.000000	34.734300
1467.000000	34.805400
1466.000000	34.823700
1465.000000	34.865900
1464.000000	34.933700
1463.000000	34.968900
1462.000000	35.013000
1461.000000	35.054400
1460.000000	35.124700
1459.000000	35.170900
1458.000000	35.241400
1457.000000	35.296600
1456.000000	35.358800
1455.000000	35.412300
1454.000000	35.463800
1453.000000	35.546300
1452.000000	35.628100
1451.000000	35.711100
1450.000000	35.748200
1449.000000	35.766300
1448.000000	35.834100
1447.000000	35.917900
1446.000000	36.017300
1445.000000	36.066400
1444.000000	36.093200
1443.000000	36.154900
1442.000000	36.225400
1441.000000	36.333600
1440.000000	36.380200
1439.000000	36.457000
1438.000000	36.545300
1437.000000	36.606600
1436.000000	36.692200
1435.000000	36.790700
1434.000000	36.898300
1433.000000	36.996100
1432.000000	37.111500
1431.000000	37.211700
1430.000000	37.289600
1429.000000	37.407500
1428.000000	37.547800
1427.000000	37.663200
1426.000000	37.795800
1425.000000	37.977000
1424.000000	38.153100
1423.000000	38.294100
1422.000000	38.438100
1421.000000	38.612400
1420.000000	38.856300
1419.000000	39.034000
1418.000000	39.212700
1417.000000	39.356300
1416.000000	39.615900
1415.000000	39.894000
1414.000000	40.136100
1413.000000	40.339400
1412.000000	40.554400
1411.000000	40.830800
1410.000000	41.106500
1409.000000	41.419300
1408.000000	41.648200
1407.000000	41.927100
1406.000000	42.178100
1405.000000	42.457400
1404.000000	42.636500
1403.000000	42.885200
1402.000000	43.183700
1401.000000	43.502800
1400.000000	43.711100
1399.000000	43.818100
1398.000000	43.939000
1397.000000	44.192000
1396.000000	44.433400
1395.000000	44.565600
1394.000000	44.648700
1393.000000	44.741700
1392.000000	44.875000
1391.000000	44.952800
1390.000000	45.045100
1389.000000	45.196700
1388.000000	45.400200
1387.000000	45.471100
1386.000000	45.597500
1385.000000	45.795700
1384.000000	46.066300
1383.000000	46.289000
1382.000000	46.564400
1381.000000	46.847800
1380.000000	47.132500
1379.000000	47.592400
1378.000000	48.055700
1377.000000	48.599500
1376.000000	49.153600
1375.000000	49.700900
1374.000000	50.269500
1373.000000	50.826000
1372.000000	51.304000
1371.000000	51.706100
1370.000000	52.010100
1369.000000	52.287500
1368.000000	52.542200
1367.000000	52.702200
1366.000000	52.885900
1365.000000	53.059000
1364.000000	53.194300
1363.000000	53.296900
1362.000000	53.458900
1361.000000	53.545900
1360.000000	53.569600
1359.000000	53.618700
1358.000000	53.682800
1357.000000	53.796200
1356.000000	53.913300
1355.000000	54.011900
1354.000000	54.129700
1353.000000	54.213200
1352.000000	54.353600
1351.000000	54.507200
1350.000000	54.669200
1349.000000	54.831500
1348.000000	55.002800
1347.000000	55.146300
1346.000000	55.293800
1345.000000	55.452300
1344.000000	55.615800
1343.000000	55.752800
1342.000000	55.884800
1341.000000	56.048600
1340.000000	56.193300
1339.000000	56.315700
1338.000000	56.448300
1337.000000	56.582400
1336.000000	56.696000
1335.000000	56.805200
1334.000000	56.929600
1333.000000	57.032800
1332.000000	57.121900
1331.000000	57.215700
1330.000000	57.312000
1329.000000	57.403200
1328.000000	57.491900
1327.000000	57.564600
1326.000000	57.644800
1325.000000	57.723500
1324.000000	57.798300
1323.000000	57.867900
1322.000000	57.932300
1321.000000	58.001100
1320.000000	58.051400
1319.000000	58.115200
1318.000000	58.171400
1317.000000	58.220000
1316.000000	58.269800
1315.000000	58.323300
1314.000000	58.371700
1313.000000	58.413900
1312.000000	58.459400
1311.000000	58.499500
1310.000000	58.536600
1309.000000	58.572300
1308.000000	58.601400
1307.000000	58.636200
1306.000000	58.671100
1305.000000	58.695400
1304.000000	58.704000
1303.000000	58.726100
1302.000000	58.750100
1301.000000	58.761500
1300.000000	58.775800
1299.000000	58.781500
1298.000000	58.786400
1297.000000	58.803600
1296.000000	58.811100
1295.000000	58.810900
1294.000000	58.814800
1293.000000	58.807200
1292.000000	58.806400
1291.000000	58.810800
1290.000000	58.807700
1289.000000	58.790500
1288.000000	58.765400
1287.000000	58.757200
1286.000000	58.749400
1285.000000	58.733300
1284.000000	58.724900
1283.000000	58.716400
1282.000000	58.704800
1281.000000	58.687000
1280.000000	58.664300
1279.000000	58.643400
1278.000000	58.635300
1277.000000	58.641100
1276.000000	58.637000
1275.000000	58.638700
1274.000000	58.643300
1273.000000	58.648400
1272.000000	58.645100
1271.000000	58.661700
1270.000000	58.680800
1269.000000	58.688900
1268.000000	58.698500
1267.000000	58.703800
1266.000000	58.707700
1265.000000	58.720000
1264.000000	58.718300
1263.000000	58.719700
1262.000000	58.719100
1261.000000	58.707200
1260.000000	58.711400
1259.000000	58.695100
1258.000000	58.695500
1257.000000	58.695100
1256.000000	58.681000
1255.000000	58.640500
1254.000000	58.617700
1253.000000	58.598400
1252.000000	58.572100
1251.000000	58.548500
1250.000000	58.515700
1249.000000	58.482500
1248.000000	58.422200
1247.000000	58.391000
1246.000000	58.373100
1245.000000	58.345000
1244.000000	58.308200
1243.000000	58.277700
1242.000000	58.267900
1241.000000	58.228700
1240.000000	58.203800
1239.000000	58.192100
1238.000000	58.177500
1237.000000	58.168800
1236.000000	58.172200
1235.000000	58.176600
1234.000000	58.167200
1233.000000	58.160500
1232.000000	58.138100
1231.000000	58.112100
1230.000000	58.117000
1229.000000	58.094100
1228.000000	58.087900
1227.000000	58.074600
1226.000000	58.037600
1225.000000	58.008400
1224.000000	57.998400
1223.000000	57.965000
1222.000000	57.940500
1221.000000	57.913300
1220.000000	57.873500
1219.000000	57.838700
1218.000000	57.807300
1217.000000	57.763800
1216.000000	57.745000
1215.000000	57.699600
1214.000000	57.651300
1213.000000	57.606600
1212.000000	57.563900
1211.000000	57.500500
1210.000000	57.433800
1209.000000	57.407500
1208.000000	57.352900
1207.000000	57.295400
1206.000000	57.236000
1205.000000	57.162800
1204.000000	57.132600
1203.000000	57.062400
1202.000000	57.007500
1201.000000	56.961500
1200.000000	56.893800
1199.000000	56.841400
1198.000000	56.778500
1197.000000	56.713400
1196.000000	56.651800
1195.000000	56.599800
1194.000000	56.536700
1193.000000	56.455700
1192.000000	56.388100
1191.000000	56.327500
1190.000000	56.275500
1189.000000	56.235900
1188.000000	56.204400
1187.000000	56.206900
1186.000000	56.188800
1185.000000	56.212700
1184.000000	56.226800
1183.000000	56.262000
1182.000000	56.306300
1181.000000	56.364100
1180.000000	56.420500
1179.000000	56.487200
1178.000000	56.574100
1177.000000	56.619600
1176.000000	56.693000
1175.000000	56.767500
1174.000000	56.814400
1173.000000	56.904800
1172.000000	56.964400
1171.000000	57.061100
1170.000000	57.157000
1169.000000	57.248100
1168.000000	57.362700
1167.000000	57.463700
1166.000000	57.588900
1165.000000	57.716200
1164.000000	57.810000
1163.000000	57.928900
1162.000000	58.085800
1161.000000	58.200100
1160.000000	58.313900
1159.000000	58.429200
1158.000000	58.563500
1157.000000	58.643800
1156.000000	58.744200
1155.000000	58.846900
1154.000000	58.936200
1153.000000	59.009700
1152.000000	59.078400
1151.000000	59.139300
1150.000000	59.218400
1149.000000	59.279000
1148.000000	59.360500
1147.000000	59.427900
1146.000000	59.517700
1145.000000	59.580200
1144.000000	59.656800
1143.000000	59.722000
1142.000000	59.784600
1141.000000	59.888600
1140.000000	59.978200
1139.000000	60.074400
1138.000000	60.195200
1137.000000	60.302500
1136.000000	60.452300
1135.000000	60.565000
1134.000000	60.644000
1133.000000	60.672000
1132.000000	60.748300
1131.000000	60.835500
1130.000000	60.931200
1129.000000	61.001700
1128.000000	61.048400
1127.000000	61.111900
1126.000000	61.170400
1125.000000	61.192300
1124.000000	61.216500
1123.000000	61.233600
1122.000000	61.254700
1121.000000	61.249300
1120.000000	61.253400
1119.000000	61.268000
1118.000000	61.264700
1117.000000	61.259300
1116.000000	61.249200
1115.000000	61.231700
1114.000000	61.225700
1113.000000	61.213800
1112.000000	61.208700
1111.000000	61.205300
1110.000000	61.189100
1109.000000	61.184800
1108.000000	61.164800
1107.000000	61.157100
1106.000000	61.154300
1105.000000	61.152300
1104.000000	61.134500
1103.000000	61.128100
1102.000000	61.108800
1101.000000	61.103500
1100.000000	61.092600
1099.000000	61.071700
1098.000000	61.057600
1097.000000	61.034300
1096.000000	61.007400
1095.000000	61.008800
1094.000000	60.993200
1093.000000	60.966800
1092.000000	60.928100
1091.000000	60.901600
1090.000000	60.891900
1089.000000	60.874500
1088.000000	60.849100
1087.000000	60.813600
1086.000000	60.802100
1085.000000	60.771900
1084.000000	60.740600
1083.000000	60.692500
1082.000000	60.668400
1081.000000	60.649000
1080.000000	60.618500
1079.000000	60.588200
1078.000000	60.550100
1077.000000	60.533100
1076.000000	60.497200
1075.000000	60.458900
1074.000000	60.418700
1073.000000	60.398700
1072.000000	60.372300
1071.000000	60.344700
1070.000000	60.311000
1069.000000	60.259200
1068.000000	60.220900
1067.000000	60.188900
1066.000000	60.160300
1065.000000	60.123200
1064.000000	60.081900
1063.000000	60.047000
1062.000000	60.008100
1061.000000	59.977500
1060.000000	59.936400
1059.000000	59.888900
1058.000000	59.863500
1057.000000	59.837300
1056.000000	59.800300
1055.000000	59.760500
1054.000000	59.731900
1053.000000	59.708700
1052.000000	59.659200
1051.000000	59.608400
1050.000000	59.583600
1049.000000	59.565700
1048.000000	59.532600
1047.000000	59.490000
1046.000000	59.455500
1045.000000	59.434700
1044.000000	59.402800
1043.000000	59.375400
1042.000000	59.336200
1041.000000	59.303300
1040.000000	59.273600
1039.000000	59.232100
1038.000000	59.195300
1037.000000	59.169500
1036.000000	59.142000
1035.000000	59.098900
1034.000000	59.054800
1033.000000	59.016300
1032.000000	58.984000
1031.000000	58.939600
1030.000000	58.900000
1029.000000	58.874000
1028.000000	58.825600
1027.000000	58.779300
1026.000000	58.760200
1025.000000	58.723800
1024.000000	58.680800
1023.000000	58.643300
1022.000000	58.589300
1021.000000	58.542600
1020.000000	58.509400
1019.000000	58.462500
1018.000000	58.431500
1017.000000	58.414700
1016.000000	58.372400
1015.000000	58.339200
1014.000000	58.312600
1013.000000	58.275300
1012.000000	58.254800
1011.000000	58.224700
1010.000000	58.201000
1009.000000	58.168900
1008.000000	58.133000
1007.000000	58.101700
1006.000000	58.069900
1005.000000	58.039300
1004.000000	58.024700
1003.000000	57.999200
1002.000000	57.967900
1001.000000	57.933400
1000.000000	57.897400
999.000000	57.880500
998.000000	57.849600
997.000000	57.820400
996.000000	57.788900
995.000000	57.754100
994.000000	57.735200
993.000000	57.709900
992.000000	57.678200
991.000000	57.645100
990.000000	57.613600
989.000000	57.590700
988.000000	57.576100
987.000000	57.546300
986.000000	57.517200
985.000000	57.511700
984.000000	57.507400
983.000000	57.482800
982.000000	57.468800
981.000000	57.443600
980.000000	57.440900
979.000000	57.408500
978.000000	57.406400
977.000000	57.382600
976.000000	57.381500
975.000000	57.361200
974.000000	57.349700
973.000000	57.329200
972.000000	57.326000
971.000000	57.328300
970.000000	57.313800
969.000000	57.288300
968.000000	57.280700
967.000000	57.278500
966.000000	57.261000
965.000000	57.258500
964.000000	57.264300
963.000000	57.259100
962.000000	57.256800
961.000000	57.242200
960.000000	57.241900
959.000000	57.263700
958.000000	57.269700
957.000000	57.251000
956.000000	57.244400
955.000000	57.255800
954.000000	57.242700
953.000000	57.243600
952.000000	57.256700
951.000000	57.244100
950.000000	57.222300
949.000000	57.208500
948.000000	57.230900
947.000000	57.199300
946.000000	57.212300
945.000000	57.202200
944.000000	57.207600
943.000000	57.223700
942.000000	57.221600
941.000000	57.232300
940.000000	57.230700
939.000000	57.269900
938.000000	57.289400
937.000000	57.288900
936.000000	57.332600
935.000000	57.327400
934.000000	57.375000
933.000000	57.375700
932.000000	57.370900
931.000000	57.402400
930.000000	57.410800
929.000000	57.413600
928.000000	57.415900
927.000000	57.456700
926.000000	57.437300
925.000000	57.441800
924.000000	57.470900
923.000000	57.522100
922.000000	57.519600
921.000000	57.544800
920.000000	57.553000
919.000000	57.599800
918.000000	57.620600
917.000000	57.636200
916.000000	57.675900
915.000000	57.727500
914.000000	57.754800
913.000000	57.746700
912.000000	57.802800
911.000000	57.833800
910.000000	57.841700
909.000000	57.887300
908.000000	57.916800
907.000000	57.963300
906.000000	57.985800
905.000000	58.016500
904.000000	58.035100
903.000000	58.087400
902.000000	58.089300
901.000000	58.122600
900.000000	58.151000
899.000000	58.162300
898.000000	58.202000
897.000000	58.231000
896.000000	58.238000
895.000000	58.273400
894.000000	58.300300
893.000000	58.323300
892.000000	58.330200
891.000000	58.344100
890.000000	58.367800
889.000000	58.392100
888.000000	58.402600
887.000000	58.406900
886.000000	58.398500
885.000000	58.427900
884.000000	58.425000
883.000000	58.450100
882.000000	58.444900
881.000000	58.486300
880.000000	58.486400
879.000000	58.500000
878.000000	58.514300
877.000000	58.520500
876.000000	58.538500
875.000000	58.576600
874.000000	58.588000
873.000000	58.616600
872.000000	58.652100
871.000000	58.674000
870.000000	58.682200
869.000000	58.712100
868.000000	58.748500
867.000000	58.773700
866.000000	58.838200
865.000000	58.861500
864.000000	58.893700
863.000000	58.909000
862.000000	58.924500
861.000000	58.920400
860.000000	58.915800
859.000000	58.866800
858.000000	57.957939
857.000000	57.703498
856.000000	57.545766
855.000000	58.035030
854.000000	58.374055
853.000000	58.018567
852.000000	58.413981
851.000000	58.002794
850.000000	58.148498
849.000000	58.335805
848.000000	58.175313
847.000000	58.379674
846.000000	58.613610
845.000000	58.248461
844.000000	58.414671
843.000000	58.521238
842.000000	58.397813
841.000000	58.503296
840.000000	58.361633
839.000000	58.520548
838.000000	58.755273
837.000000	58.718699
836.000000	58.679759
835.000000	58.588570
834.000000	58.683800
833.000000	58.559488
832.000000	58.668619
831.000000	58.456667
830.000000	58.531392
829.000000	58.475299
828.000000	58.354338
827.000000	58.524097
826.000000	58.513450
825.000000	58.355225
824.000000	58.264530
823.000000	58.277740
822.000000	58.073871
821.000000	58.044001
820.000000	58.028622
819.000000	58.093588
818.000000	57.959023
817.000000	57.870693
816.000000	57.912886
815.000000	57.961882
814.000000	57.841020
813.000000	57.727749
812.000000	57.775364
811.000000	57.681809
810.000000	57.592297
809.000000	57.557990
808.000000	57.544484
807.000000	57.455859
806.000000	57.419482
805.000000	57.214233
804.000000	57.151042
803.000000	57.099681
802.000000	57.108553
801.000000	57.051474
800.000000	56.962750
799.000000	56.943822
798.000000	56.797033
797.000000	56.665524
796.000000	56.650145
795.000000	56.501286
794.000000	56.417885
793.000000	56.315655
792.000000	56.141756
791.000000	56.107449
790.000000	56.037653
789.000000	55.846206
788.000000	55.785085
787.000000	55.710557
786.000000	55.588118
785.000000	55.414218
784.000000	55.309820
783.000000	55.263486
782.000000	55.172199
781.000000	55.039606
780.000000	54.871720
779.000000	54.769983
778.000000	54.621222
777.000000	54.498684
776.000000	54.447520
775.000000	54.345882
774.000000	54.152759
773.000000	54.093117
772.000000	53.983789
771.000000	53.884418
770.000000	53.756063
769.000000	53.554265
768.000000	53.433502
767.000000	53.390323
766.000000	53.276953
765.000000	53.185272
764.000000	53.058002
763.000000	52.858964
762.000000	52.829389
761.000000	52.706556
760.000000	52.546754
759.000000	52.448172
758.000000	52.308480
757.000000	52.211081
756.000000	52.127878
755.000000	52.046941
754.000000	51.941655
753.000000	51.827004
752.000000	51.733647
751.000000	51.614362
750.000000	51.550875
749.000000	51.490346
748.000000	51.355386
747.000000	51.280562
746.000000	51.190951
745.000000	51.064174
744.000000	51.010052
743.000000	50.938679
742.000000	50.892444
741.000000	50.873516
740.000000	50.804804
739.000000	50.744570
738.000000	50.663240
737.000000	50.577374
736.000000	50.532520
735.000000	50.517338
734.000000	50.464892
733.000000	50.448034
732.000000	50.399828
731.000000	50.344622
730.000000	50.356649
729.000000	50.305287
728.000000	50.162047
727.000000	50.092547
726.000000	50.046213
725.000000	49.986866
724.000000	49.901198
723.000000	49.811685
722.000000	49.732524
721.000000	49.667657
720.000000	49.606338
719.000000	49.514361
718.000000	49.459944
717.000000	49.359883
716.000000	49.212601
715.000000	49.115891
714.000000	49.028153
713.000000	48.864309
712.000000	48.681735
711.000000	48.589856
710.000000	48.464065
709.000000	48.327923
708.000000	48.200357
707.000000	48.064511
706.000000	47.947789
705.000000	47.809872
704.000000	47.714740
703.000000	47.563318
702.000000	47.418205
701.000000	47.318144
700.000000	47.227842
699.000000	47.150159
698.000000	47.056605
697.000000	46.975964
696.000000	46.873143
695.000000	46.744000
694.000000	46.714623
693.000000	46.642165
692.000000	46.592282
691.000000	46.567636
690.000000	46.516866
689.000000	46.487982
688.000000	46.473293
687.000000	46.420256
686.000000	46.416805
685.000000	46.421143
684.000000	46.418185
683.000000	46.405468
682.000000	46.337151
681.000000	46.332616
680.000000	46.337742
679.000000	46.306886
678.000000	46.298802
677.000000	46.299591
676.000000	46.283029
675.000000	46.250497
674.000000	46.226049
673.000000	46.190263
672.000000	46.136043
671.000000	46.109228
670.000000	46.049685
669.000000	45.945187
668.000000	45.857843
667.000000	45.786076
666.000000	45.667382
665.000000	45.506496
664.000000	45.380311
663.000000	45.205426
662.000000	45.052426
661.000000	44.855853
660.000000	44.645084
659.000000	44.413612
658.000000	44.196140
657.000000	43.933319
656.000000	43.723733
655.000000	43.496895
654.000000	43.242257
653.000000	42.930342
652.000000	42.673732
651.000000	42.367733
650.000000	42.091604
649.000000	41.767564
648.000000	41.476647
647.000000	41.143932
646.000000	40.844340
645.000000	40.531637
644.000000	40.193696
643.000000	39.900020
642.000000	39.612455
641.000000	39.302512
640.000000	39.018299
639.000000	38.803981
638.000000	38.585424
637.000000	38.417933
636.000000	38.301507
635.000000	38.258722
634.000000	38.291156
633.000000	38.360952
632.000000	38.513755
631.000000	38.716144
630.000000	38.996020
629.000000	39.319468
628.000000	39.644396
627.000000	40.004418
626.000000	40.412155
625.000000	40.814272
624.000000	41.253161
623.000000	41.726356
622.000000	42.135473
621.000000	42.596050
620.000000	43.046374
619.000000	43.442576
618.000000	43.907885
617.000000	44.303989
616.000000	44.754806
615.000000	45.196849
614.000000	45.672016
613.000000	46.140972
612.000000	46.612787
611.000000	47.050986
610.000000	47.537391
609.000000	47.956563
608.000000	48.333147
607.000000	48.710915
606.000000	49.079021
605.000000	49.458366
604.000000	49.788026
603.000000	50.102010
602.000000	50.385928
601.000000	50.649734
600.000000	50.837040
599.000000	51.008278
598.000000	51.184740
597.000000	51.344247
596.000000	51.460574
595.000000	51.579563
594.000000	51.722803
593.000000	51.836172
592.000000	51.950528
591.000000	52.102838
590.000000	52.197970
589.000000	52.353237
588.000000	52.540149
587.000000	52.676094
586.000000	52.824756
585.000000	52.966518
584.000000	53.105420
583.000000	53.206763
582.000000	53.325850
581.000000	53.445233
580.000000	53.515621
579.000000	53.552097
578.000000	53.534450
577.000000	53.580981
576.000000	53.637962
575.000000	53.661424
574.000000	53.684887
573.000000	53.705491
572.000000	53.706674
571.000000	53.731221
570.000000	53.788793
569.000000	53.818269
568.000000	53.820832
567.000000	53.834831
566.000000	53.816593
565.000000	53.779920
564.000000	53.752909
563.000000	53.678578
562.000000	53.640624
561.000000	53.599515
560.000000	53.548153
559.000000	53.354538
558.000000	53.295092
557.000000	53.227465
556.000000	53.170879
555.000000	53.044102
554.000000	52.903030
553.000000	52.730117
552.000000	52.528812
551.000000	52.289355
550.000000	52.018747
549.000000	51.693327
548.000000	51.355879
547.000000	50.948143
546.000000	50.516155
545.000000	50.065535
544.000000	49.531120
543.000000	48.941696
542.000000	48.331964
541.000000	47.680927
540.000000	46.968866
539.000000	46.241132
538.000000	45.478006
537.000000	44.659674
536.000000	43.853862
535.000000	42.971648
534.000000	42.107081
533.000000	41.236106
532.000000	40.370750
531.000000	39.545518
530.000000	38.749268
529.000000	37.952920
528.000000	37.168204
527.000000	36.435738
526.000000	35.720917
525.000000	35.041586
524.000000	34.376352
523.000000	33.729652
522.000000	33.134905
521.000000	32.530990
520.000000	31.954874
519.000000	31.410996
518.000000	30.857949
517.000000	30.364938
516.000000	29.905249
515.000000	29.463403
514.000000	29.042062
513.000000	28.644479
512.000000	28.288104
511.000000	27.953516
510.000000	27.610844
509.000000	27.289662
508.000000	27.006534
507.000000	26.726560
506.000000	26.464824
505.000000	26.199243
504.000000	25.960575
503.000000	25.719640
502.000000	25.471804
501.000000	25.216476
500.000000	24.945177
499.000000	24.692018
498.000000	24.440633
497.000000	24.191022
496.000000	23.926427
495.000000	23.668437
494.000000	23.421291
493.000000	23.153837
492.000000	22.874061
491.000000	22.582651
490.000000	22.309480
489.000000	22.025168
488.000000	21.740462
487.000000	21.478332
486.000000	21.211371
485.000000	20.950029
484.000000	20.675970
483.000000	20.403883
482.000000	20.132584
481.000000	19.874003
480.000000	19.614731
479.000000	19.365417
478.000000	19.121425
477.000000	18.882363
476.000000	18.672087
475.000000	18.475514
474.000000	18.272237
473.000000	18.070045
472.000000	17.902060
471.000000	17.737132
470.000000	17.583639
469.000000	17.441681
468.000000	17.313228
467.000000	17.192366
466.000000	17.071997
465.000000	16.941080
464.000000	16.799614
463.000000	16.656867
462.000000	16.504458
461.000000	16.350374
460.000000	16.174898
459.000000	15.978916
458.000000	15.774456
457.000000	15.558955
456.000000	15.328470
455.000000	15.092956
454.000000	14.842656
453.000000	14.578652
452.000000	14.321944
451.000000	14.056856
450.000000	13.772939
449.000000	13.494937
448.000000	13.236158
447.000000	12.988815
446.000000	12.739993
445.000000	12.499255
444.000000	12.271431
443.000000	12.072098
442.000000	11.890411
441.000000	11.725384
440.000000	11.573567
439.000000	11.452113
438.000000	11.367628
437.000000	11.295269
436.000000	11.243809
435.000000	11.205460
434.000000	11.193433
433.000000	11.211178
432.000000	11.240556
431.000000	11.291523
430.000000	11.355897
429.000000	11.400456
428.000000	11.434862
427.000000	11.486420
426.000000	11.547541
425.000000	11.598212
424.000000	11.637645
423.000000	11.675994
422.000000	11.723905
421.000000	11.756240
420.000000	11.770929
419.000000	11.787096
418.000000	11.779998
417.000000	11.763732
416.000000	11.745692
415.000000	11.717201
414.000000	11.682007
413.000000	11.634984
412.000000	11.576031
411.000000	11.502982
410.000000	11.446593
409.000000	11.377191
408.000000	11.291128
407.000000	11.205460
406.000000	11.092781
405.000000	10.993114
404.000000	10.896306
403.000000	10.764600
402.000000	10.626979
401.000000	10.496160
400.000000	10.362779
399.000000	10.216975
398.000000	10.066539
397.000000	9.895301
396.000000	9.737668
395.000000	9.584964
394.000000	9.405051
393.000000	9.214886
392.000000	9.033001
391.000000	8.837611
390.000000	8.666078
389.000000	8.489517
388.000000	8.303098
387.000000	8.123086
386.000000	7.961116
385.000000	7.782780
384.000000	7.602966
383.000000	7.445727
382.000000	7.297361
381.000000	7.150966
380.000000	6.995206
379.000000	6.839150
378.000000	6.699557
377.000000	6.593187
376.000000	6.548135
375.000000	6.350674
374.000000	6.164255
373.000000	6.041126
372.000000	6.000214
371.000000	6.043492
370.000000	5.930418
369.000000	5.873240
368.000000	5.784516
367.000000	5.798909
366.000000	5.732070
365.000000	5.706242
364.000000	5.734042
363.000000	5.707523
362.000000	5.601843
361.000000	5.589027
360.000000	5.600364
359.000000	5.593956
358.000000	5.555608
357.000000	5.522188
356.000000	5.580845
355.000000	5.435830
354.000000	5.471813
353.000000	5.489459
352.000000	5.464518
351.000000	5.393736
350.000000	5.461560
349.000000	5.386145
348.000000	5.362091
347.000000	5.520315
346.000000	5.443815
345.000000	5.339614
344.000000	5.368893
343.000000	5.384272
342.000000	5.432084
341.000000	5.457716
340.000000	5.485417
339.000000	5.394524
338.000000	5.453378
337.000000	5.444801
336.000000	5.330643
335.000000	5.349078
334.000000	5.205542
333.000000	5.239257
332.000000	5.333009
331.000000	5.500697
330.000000	5.320489
329.000000	5.287858
328.000000	5.398862
327.000000	5.473193
326.000000	5.442435
325.000000	5.536877
324.000000	5.554721
323.000000	5.582422
322.000000	5.459786
321.000000	5.469053
320.000000	5.628362
319.000000	5.610124
318.000000	5.739858
317.000000	5.831343
316.000000	5.370865
315.000000	5.373231
314.000000	5.330150
313.000000	5.325418
312.000000	5.318616
311.000000	5.338135
310.000000	5.265677
309.000000	5.330544
308.000000	5.299491
307.000000	5.280465
306.000000	5.342769
305.000000	5.316841
304.000000	5.243890
303.000000	5.326010
302.000000	5.314475
301.000000	5.315954
300.000000	5.318024
299.000000	5.302153
298.000000	5.336361
297.000000	5.313687
296.000000	5.316250
295.000000	5.346219
294.000000	5.298998
293.000000	5.350754
292.000000	5.297914
291.000000	5.319010
290.000000	5.338431
289.000000	5.326897
288.000000	5.360513
287.000000	5.330643
286.000000	5.297125
285.000000	5.338037
284.000000	5.347205
283.000000	5.372935
282.000000	5.335375
281.000000	5.351542
280.000000	5.343952
279.000000	5.395313
278.000000	5.358345
277.000000	5.381413
276.000000	5.377765
275.000000	5.409016
274.000000	5.417395
273.000000	5.377470
272.000000	5.440858
271.000000	5.504345
270.000000	5.504444
269.000000	5.534314
268.000000	5.508091
267.000000	5.485220
266.000000	5.555115
265.000000	5.581042
264.000000	5.585675
263.000000	5.624221
262.000000	5.697074
261.000000	5.707523
260.000000	5.733943
259.000000	5.755434
258.000000	5.768447
257.000000	5.784023
256.000000	5.860720
255.000000	5.853327
254.000000	5.848397
253.000000	5.800881
252.000000	5.813894
251.000000	5.827695
250.000000	5.812218
