PE UV       SUBTECH     SPECTRUM    ASCII       PEDS        4.00        
   -1
CICIMAUCR0070-1.ASC
24/04/03
14:43:34.00
24/04/03
14:43:34.00
Vinicio Soto Monge
C. resplendens
250,000000
1
Lambda 1050
1050L1511233
PerkinElmer UV WinLab 6.3.2.0749 / 2.02.05 Lambda 900 UV/VIS/NIR, Aug  7 2015 09:38:08

0
0
3350/servo 860,8/2
0
0
UV/VIS
1
1
1
DoubleDePol,CommonBeamDepol,RBeamAtt,SBeamAtt,60mm sphere, WB InGaAs Detector
0
0
0
0
Program
Program
3350/servo 860,8/2
3350/0,2 860,8/0,2
3350/0,2 860,8/0,2
0
15.00
 
 
 
0
 
860,8
319,2
860,8
Front
100
on
S:100 R:100
0
0
0
0
 
0
 
 
 
0
 
 
0
0
0
0
0
 
 
 
 
0
0


0
0
#HDR
-1
-1
#GR
nm
%R
1.0
0.0
2500,000000
-1,000000
2251
8
71,428400
5,238700
#DATA
2500.000000	14.655200
2499.000000	14.586100
2498.000000	14.622700
2497.000000	14.726000
2496.000000	14.755600
2495.000000	14.707500
2494.000000	14.814000
2493.000000	14.854200
2492.000000	14.801500
2491.000000	14.831900
2490.000000	14.834000
2489.000000	14.852200
2488.000000	14.804600
2487.000000	14.901300
2486.000000	14.949100
2485.000000	14.907900
2484.000000	14.983600
2483.000000	15.061000
2482.000000	15.096600
2481.000000	15.136800
2480.000000	15.179700
2479.000000	15.163900
2478.000000	15.253100
2477.000000	15.276000
2476.000000	15.403900
2475.000000	15.424000
2474.000000	15.448000
2473.000000	15.501800
2472.000000	15.619800
2471.000000	15.647200
2470.000000	15.731200
2469.000000	15.788800
2468.000000	15.800600
2467.000000	15.889800
2466.000000	15.949100
2465.000000	16.051200
2464.000000	16.107000
2463.000000	16.212100
2462.000000	16.278500
2461.000000	16.349400
2460.000000	16.453100
2459.000000	16.550900
2458.000000	16.645300
2457.000000	16.713500
2456.000000	16.843300
2455.000000	16.922200
2454.000000	17.032500
2453.000000	17.178500
2452.000000	17.264000
2451.000000	17.387900
2450.000000	17.498300
2449.000000	17.619800
2448.000000	17.760500
2447.000000	17.868500
2446.000000	17.967700
2445.000000	18.119300
2444.000000	18.248900
2443.000000	18.378300
2442.000000	18.500900
2441.000000	18.626200
2440.000000	18.743000
2439.000000	18.879600
2438.000000	19.032600
2437.000000	19.146000
2436.000000	19.271200
2435.000000	19.408100
2434.000000	19.537000
2433.000000	19.653000
2432.000000	19.788200
2431.000000	19.907100
2430.000000	20.028000
2429.000000	20.143200
2428.000000	20.247900
2427.000000	20.366700
2426.000000	20.481500
2425.000000	20.595100
2424.000000	20.708200
2423.000000	20.815800
2422.000000	20.916600
2421.000000	21.033000
2420.000000	21.150200
2419.000000	21.243300
2418.000000	21.342700
2417.000000	21.438200
2416.000000	21.523100
2415.000000	21.599200
2414.000000	21.699900
2413.000000	21.772300
2412.000000	21.840800
2411.000000	21.925100
2410.000000	22.004000
2409.000000	22.070200
2408.000000	22.137900
2407.000000	22.197100
2406.000000	22.260200
2405.000000	22.322700
2404.000000	22.365000
2403.000000	22.415100
2402.000000	22.474200
2401.000000	22.541000
2400.000000	22.595600
2399.000000	22.644900
2398.000000	22.668600
2397.000000	22.705800
2396.000000	22.771100
2395.000000	22.809500
2394.000000	22.840900
2393.000000	22.867700
2392.000000	22.898500
2391.000000	22.934200
2390.000000	22.967300
2389.000000	22.984500
2388.000000	22.999400
2387.000000	23.017700
2386.000000	23.039500
2385.000000	23.054900
2384.000000	23.073800
2383.000000	23.086300
2382.000000	23.080200
2381.000000	23.082600
2380.000000	23.082400
2379.000000	23.084000
2378.000000	23.081500
2377.000000	23.066800
2376.000000	23.068700
2375.000000	23.070300
2374.000000	23.060700
2373.000000	23.055500
2372.000000	23.047500
2371.000000	23.037900
2370.000000	23.036200
2369.000000	23.045200
2368.000000	23.043100
2367.000000	23.047800
2366.000000	23.054000
2365.000000	23.046200
2364.000000	23.046500
2363.000000	23.055600
2362.000000	23.047300
2361.000000	23.048400
2360.000000	23.051700
2359.000000	23.045800
2358.000000	23.044300
2357.000000	23.037500
2356.000000	23.036500
2355.000000	23.018100
2354.000000	22.994000
2353.000000	22.973700
2352.000000	22.962600
2351.000000	22.946600
2350.000000	22.910300
2349.000000	22.896100
2348.000000	22.885700
2347.000000	22.868400
2346.000000	22.838400
2345.000000	22.816000
2344.000000	22.809300
2343.000000	22.787800
2342.000000	22.755500
2341.000000	22.751200
2340.000000	22.749600
2339.000000	22.729000
2338.000000	22.709900
2337.000000	22.706300
2336.000000	22.694100
2335.000000	22.677500
2334.000000	22.674300
2333.000000	22.669200
2332.000000	22.673200
2331.000000	22.672300
2330.000000	22.667300
2329.000000	22.671100
2328.000000	22.682400
2327.000000	22.683700
2326.000000	22.697000
2325.000000	22.678700
2324.000000	22.700100
2323.000000	22.711300
2322.000000	22.704600
2321.000000	22.690300
2320.000000	22.674700
2319.000000	22.654800
2318.000000	22.618500
2317.000000	22.576900
2316.000000	22.532100
2315.000000	22.507600
2314.000000	22.450300
2313.000000	22.398000
2312.000000	22.339400
2311.000000	22.275500
2310.000000	22.209300
2309.000000	22.149200
2308.000000	22.098200
2307.000000	22.027800
2306.000000	21.970600
2305.000000	21.897600
2304.000000	21.832600
2303.000000	21.778800
2302.000000	21.724100
2301.000000	21.672600
2300.000000	21.607200
2299.000000	21.557800
2298.000000	21.517200
2297.000000	21.469600
2296.000000	21.416600
2295.000000	21.378300
2294.000000	21.317500
2293.000000	21.282100
2292.000000	21.252200
2291.000000	21.209800
2290.000000	21.179400
2289.000000	21.146400
2288.000000	21.110300
2287.000000	21.057100
2286.000000	21.042300
2285.000000	20.997600
2284.000000	20.987100
2283.000000	20.929400
2282.000000	20.905100
2281.000000	20.869100
2280.000000	20.854300
2279.000000	20.808800
2278.000000	20.768000
2277.000000	20.734400
2276.000000	20.669000
2275.000000	20.629000
2274.000000	20.592300
2273.000000	20.540400
2272.000000	20.470000
2271.000000	20.417200
2270.000000	20.365300
2269.000000	20.315900
2268.000000	20.287200
2267.000000	20.257600
2266.000000	20.219200
2265.000000	20.168100
2264.000000	20.164700
2263.000000	20.156100
2262.000000	20.139100
2261.000000	20.145000
2260.000000	20.159700
2259.000000	20.180600
2258.000000	20.234700
2257.000000	20.273500
2256.000000	20.290200
2255.000000	20.365400
2254.000000	20.414600
2253.000000	20.461100
2252.000000	20.530500
2251.000000	20.576800
2250.000000	20.635400
2249.000000	20.718800
2248.000000	20.779800
2247.000000	20.849600
2246.000000	20.894300
2245.000000	20.949200
2244.000000	20.995800
2243.000000	21.053500
2242.000000	21.070300
2241.000000	21.111100
2240.000000	21.118100
2239.000000	21.132900
2238.000000	21.160800
2237.000000	21.154800
2236.000000	21.147300
2235.000000	21.119900
2234.000000	21.079400
2233.000000	21.033000
2232.000000	20.975500
2231.000000	20.911800
2230.000000	20.826900
2229.000000	20.721200
2228.000000	20.630600
2227.000000	20.527200
2226.000000	20.386600
2225.000000	20.265300
2224.000000	20.102800
2223.000000	19.970500
2222.000000	19.798300
2221.000000	19.639100
2220.000000	19.479600
2219.000000	19.305400
2218.000000	19.150500
2217.000000	18.996700
2216.000000	18.857600
2215.000000	18.733100
2214.000000	18.617900
2213.000000	18.538800
2212.000000	18.475500
2211.000000	18.438300
2210.000000	18.420500
2209.000000	18.451700
2208.000000	18.483400
2207.000000	18.571000
2206.000000	18.684300
2205.000000	18.853600
2204.000000	19.018300
2203.000000	19.211600
2202.000000	19.444900
2201.000000	19.720700
2200.000000	19.972900
2199.000000	20.243800
2198.000000	20.537500
2197.000000	20.835200
2196.000000	21.087400
2195.000000	21.381300
2194.000000	21.661900
2193.000000	21.897700
2192.000000	22.111800
2191.000000	22.333300
2190.000000	22.543300
2189.000000	22.727500
2188.000000	22.894100
2187.000000	23.054900
2186.000000	23.187700
2185.000000	23.311900
2184.000000	23.412200
2183.000000	23.511400
2182.000000	23.604100
2181.000000	23.685200
2180.000000	23.744300
2179.000000	23.818300
2178.000000	23.862700
2177.000000	23.912800
2176.000000	23.986400
2175.000000	24.035900
2174.000000	24.058700
2173.000000	24.129200
2172.000000	24.192200
2171.000000	24.250200
2170.000000	24.304100
2169.000000	24.355900
2168.000000	24.410300
2167.000000	24.480200
2166.000000	24.546800
2165.000000	24.618100
2164.000000	24.692900
2163.000000	24.765000
2162.000000	24.840400
2161.000000	24.926900
2160.000000	25.019300
2159.000000	25.121700
2158.000000	25.212700
2157.000000	25.320600
2156.000000	25.452300
2155.000000	25.561900
2154.000000	25.675600
2153.000000	25.804400
2152.000000	25.928600
2151.000000	26.050500
2150.000000	26.199800
2149.000000	26.336500
2148.000000	26.454500
2147.000000	26.603000
2146.000000	26.740100
2145.000000	26.867600
2144.000000	26.986000
2143.000000	27.106300
2142.000000	27.224000
2141.000000	27.357100
2140.000000	27.463900
2139.000000	27.564500
2138.000000	27.679100
2137.000000	27.792400
2136.000000	27.900300
2135.000000	27.985100
2134.000000	28.071600
2133.000000	28.166300
2132.000000	28.254600
2131.000000	28.332900
2130.000000	28.414600
2129.000000	28.485700
2128.000000	28.549600
2127.000000	28.608500
2126.000000	28.665500
2125.000000	28.718100
2124.000000	28.776000
2123.000000	28.801800
2122.000000	28.845400
2121.000000	28.881900
2120.000000	28.917600
2119.000000	28.962200
2118.000000	28.983100
2117.000000	29.008000
2116.000000	29.024900
2115.000000	29.026600
2114.000000	29.039500
2113.000000	29.059600
2112.000000	29.065200
2111.000000	29.073400
2110.000000	29.073800
2109.000000	29.070300
2108.000000	29.074900
2107.000000	29.076200
2106.000000	29.066100
2105.000000	29.066900
2104.000000	29.070800
2103.000000	29.071000
2102.000000	29.065100
2101.000000	29.047600
2100.000000	29.044000
2099.000000	29.050500
2098.000000	29.034100
2097.000000	29.028200
2096.000000	29.044800
2095.000000	29.061400
2094.000000	29.073500
2093.000000	29.066100
2092.000000	29.061200
2091.000000	29.078300
2090.000000	29.092800
2089.000000	29.095000
2088.000000	29.101300
2087.000000	29.106300
2086.000000	29.096000
2085.000000	29.078700
2084.000000	29.069400
2083.000000	29.046100
2082.000000	29.017800
2081.000000	28.981100
2080.000000	28.932800
2079.000000	28.881700
2078.000000	28.830900
2077.000000	28.769200
2076.000000	28.692100
2075.000000	28.624600
2074.000000	28.547800
2073.000000	28.459200
2072.000000	28.354400
2071.000000	28.264600
2070.000000	28.148300
2069.000000	28.044900
2068.000000	27.948800
2067.000000	27.829900
2066.000000	27.705600
2065.000000	27.586300
2064.000000	27.464500
2063.000000	27.360200
2062.000000	27.264900
2061.000000	27.166700
2060.000000	27.076800
2059.000000	26.991300
2058.000000	26.908500
2057.000000	26.839600
2056.000000	26.799800
2055.000000	26.770200
2054.000000	26.751600
2053.000000	26.757700
2052.000000	26.784800
2051.000000	26.809200
2050.000000	26.866000
2049.000000	26.946700
2048.000000	27.033800
2047.000000	27.150800
2046.000000	27.263800
2045.000000	27.393000
2044.000000	27.508200
2043.000000	27.625500
2042.000000	27.771800
2041.000000	27.889800
2040.000000	28.013800
2039.000000	28.145700
2038.000000	28.264000
2037.000000	28.369200
2036.000000	28.490400
2035.000000	28.581700
2034.000000	28.686300
2033.000000	28.781500
2032.000000	28.877800
2031.000000	28.937600
2030.000000	29.033500
2029.000000	29.099800
2028.000000	29.175700
2027.000000	29.227300
2026.000000	29.285500
2025.000000	29.338100
2024.000000	29.384700
2023.000000	29.411700
2022.000000	29.464600
2021.000000	29.511500
2020.000000	29.531700
2019.000000	29.538500
2018.000000	29.559100
2017.000000	29.580900
2016.000000	29.586800
2015.000000	29.579800
2014.000000	29.572600
2013.000000	29.566500
2012.000000	29.563900
2011.000000	29.536100
2010.000000	29.515400
2009.000000	29.500700
2008.000000	29.470300
2007.000000	29.425600
2006.000000	29.374900
2005.000000	29.325700
2004.000000	29.287700
2003.000000	29.220500
2002.000000	29.130800
2001.000000	29.060600
2000.000000	29.014400
1999.000000	28.924300
1998.000000	28.842100
1997.000000	28.781000
1996.000000	28.674600
1995.000000	28.574300
1994.000000	28.491000
1993.000000	28.391300
1992.000000	28.305100
1991.000000	28.193700
1990.000000	28.096300
1989.000000	27.979600
1988.000000	27.894400
1987.000000	27.768200
1986.000000	27.654300
1985.000000	27.569200
1984.000000	27.446300
1983.000000	27.309900
1982.000000	27.236000
1981.000000	27.106500
1980.000000	26.996500
1979.000000	26.888600
1978.000000	26.784900
1977.000000	26.660900
1976.000000	26.545800
1975.000000	26.437700
1974.000000	26.340700
1973.000000	26.234300
1972.000000	26.132600
1971.000000	26.044300
1970.000000	25.910300
1969.000000	25.830400
1968.000000	25.718000
1967.000000	25.620900
1966.000000	25.512200
1965.000000	25.431700
1964.000000	25.319500
1963.000000	25.195600
1962.000000	25.105000
1961.000000	25.004800
1960.000000	24.896700
1959.000000	24.802300
1958.000000	24.707200
1957.000000	24.609500
1956.000000	24.510600
1955.000000	24.398800
1954.000000	24.324800
1953.000000	24.220500
1952.000000	24.119100
1951.000000	24.026700
1950.000000	23.935600
1949.000000	23.860200
1948.000000	23.787300
1947.000000	23.694300
1946.000000	23.652900
1945.000000	23.572800
1944.000000	23.512600
1943.000000	23.446500
1942.000000	23.416200
1941.000000	23.404300
1940.000000	23.353000
1939.000000	23.321100
1938.000000	23.293400
1937.000000	23.282200
1936.000000	23.269100
1935.000000	23.278900
1934.000000	23.303100
1933.000000	23.342100
1932.000000	23.367000
1931.000000	23.449400
1930.000000	23.508400
1929.000000	23.582700
1928.000000	23.658300
1927.000000	23.769800
1926.000000	23.858700
1925.000000	23.967800
1924.000000	24.124300
1923.000000	24.259500
1922.000000	24.411800
1921.000000	24.607200
1920.000000	24.798800
1919.000000	24.978300
1918.000000	25.192100
1917.000000	25.395900
1916.000000	25.643000
1915.000000	25.889400
1914.000000	26.190600
1913.000000	26.487100
1912.000000	26.785100
1911.000000	27.086100
1910.000000	27.420400
1909.000000	27.738400
1908.000000	28.103100
1907.000000	28.505700
1906.000000	28.956800
1905.000000	29.428100
1904.000000	29.884200
1903.000000	30.322900
1902.000000	30.817200
1901.000000	31.287700
1900.000000	31.819000
1899.000000	32.371400
1898.000000	32.934400
1897.000000	33.449500
1896.000000	33.957000
1895.000000	34.462400
1894.000000	35.009700
1893.000000	35.574700
1892.000000	36.166600
1891.000000	36.728900
1890.000000	37.254500
1889.000000	37.770300
1888.000000	38.294300
1887.000000	38.761400
1886.000000	39.231800
1885.000000	39.702000
1884.000000	40.165500
1883.000000	40.571800
1882.000000	40.948200
1881.000000	41.336500
1880.000000	41.658500
1879.000000	42.014600
1878.000000	42.358200
1877.000000	42.685500
1876.000000	42.987300
1875.000000	43.295000
1874.000000	43.572000
1873.000000	43.838100
1872.000000	44.083300
1871.000000	44.278200
1870.000000	44.416200
1869.000000	44.579500
1868.000000	44.727300
1867.000000	44.802400
1866.000000	44.884200
1865.000000	44.983400
1864.000000	45.071300
1863.000000	45.176900
1862.000000	45.296900
1861.000000	45.419900
1860.000000	45.535400
1859.000000	45.613800
1858.000000	45.674200
1857.000000	45.738700
1856.000000	45.794300
1855.000000	45.843400
1854.000000	45.879700
1853.000000	45.872600
1852.000000	45.903600
1851.000000	45.979200
1850.000000	46.061100
1849.000000	46.150900
1848.000000	46.160800
1847.000000	46.112000
1846.000000	46.062600
1845.000000	46.044000
1844.000000	46.050500
1843.000000	46.095800
1842.000000	46.141200
1841.000000	46.142900
1840.000000	46.123800
1839.000000	46.100600
1838.000000	46.080300
1837.000000	46.055900
1836.000000	46.010800
1835.000000	45.950900
1834.000000	45.889500
1833.000000	45.847900
1832.000000	45.847000
1831.000000	45.836700
1830.000000	45.799600
1829.000000	45.783700
1828.000000	45.740800
1827.000000	45.706900
1826.000000	45.691300
1825.000000	45.654500
1824.000000	45.656700
1823.000000	45.694100
1822.000000	45.751300
1821.000000	45.771800
1820.000000	45.740500
1819.000000	45.684800
1818.000000	45.657300
1817.000000	45.662300
1816.000000	45.664100
1815.000000	45.647600
1814.000000	45.641000
1813.000000	45.645100
1812.000000	45.629500
1811.000000	45.596300
1810.000000	45.556000
1809.000000	45.546100
1808.000000	45.552100
1807.000000	45.547700
1806.000000	45.508200
1805.000000	45.472700
1804.000000	45.459700
1803.000000	45.462500
1802.000000	45.461000
1801.000000	45.443700
1800.000000	45.386700
1799.000000	45.351700
1798.000000	45.347000
1797.000000	45.332800
1796.000000	45.321300
1795.000000	45.318300
1794.000000	45.307600
1793.000000	45.282500
1792.000000	45.262900
1791.000000	45.246300
1790.000000	45.246400
1789.000000	45.255600
1788.000000	45.263900
1787.000000	45.270300
1786.000000	45.266800
1785.000000	45.286000
1784.000000	45.274000
1783.000000	45.269200
1782.000000	45.267500
1781.000000	45.272800
1780.000000	45.273300
1779.000000	45.254500
1778.000000	45.232700
1777.000000	45.215400
1776.000000	45.195000
1775.000000	45.170500
1774.000000	45.147200
1773.000000	45.118500
1772.000000	45.105800
1771.000000	45.081400
1770.000000	45.054900
1769.000000	45.023900
1768.000000	45.005600
1767.000000	44.981400
1766.000000	44.966400
1765.000000	44.944000
1764.000000	44.935300
1763.000000	44.932200
1762.000000	44.937200
1761.000000	44.927400
1760.000000	44.930700
1759.000000	44.937900
1758.000000	44.945800
1757.000000	44.953300
1756.000000	44.948400
1755.000000	44.948600
1754.000000	44.952700
1753.000000	44.958200
1752.000000	44.958200
1751.000000	44.936800
1750.000000	44.938600
1749.000000	44.932900
1748.000000	44.885500
1747.000000	44.852800
1746.000000	44.825800
1745.000000	44.780800
1744.000000	44.741400
1743.000000	44.688100
1742.000000	44.612200
1741.000000	44.578200
1740.000000	44.513900
1739.000000	44.451200
1738.000000	44.412000
1737.000000	44.366800
1736.000000	44.309600
1735.000000	44.276000
1734.000000	44.234800
1733.000000	44.211900
1732.000000	44.195000
1731.000000	44.148200
1730.000000	44.122200
1729.000000	44.084500
1728.000000	44.043100
1727.000000	44.014500
1726.000000	43.991900
1725.000000	43.980100
1724.000000	43.983100
1723.000000	44.011900
1722.000000	44.075000
1721.000000	44.179000
1720.000000	44.324600
1719.000000	44.487500
1718.000000	44.659200
1717.000000	44.837400
1716.000000	45.010200
1715.000000	45.169200
1714.000000	45.329700
1713.000000	45.492200
1712.000000	45.621600
1711.000000	45.739000
1710.000000	45.831500
1709.000000	45.940700
1708.000000	46.021100
1707.000000	46.096300
1706.000000	46.156800
1705.000000	46.189600
1704.000000	46.233900
1703.000000	46.255400
1702.000000	46.277500
1701.000000	46.282400
1700.000000	46.295000
1699.000000	46.289900
1698.000000	46.284600
1697.000000	46.276200
1696.000000	46.254200
1695.000000	46.239900
1694.000000	46.188200
1693.000000	46.128500
1692.000000	46.077000
1691.000000	46.008100
1690.000000	45.952900
1689.000000	45.943700
1688.000000	45.938600
1687.000000	45.972100
1686.000000	46.068300
1685.000000	46.149900
1684.000000	46.299200
1683.000000	46.454500
1682.000000	46.612000
1681.000000	46.769100
1680.000000	46.921100
1679.000000	47.089600
1678.000000	47.232400
1677.000000	47.375900
1676.000000	47.500200
1675.000000	47.637400
1674.000000	47.762300
1673.000000	47.886900
1672.000000	47.995700
1671.000000	48.133900
1670.000000	48.251400
1669.000000	48.373600
1668.000000	48.510000
1667.000000	48.593400
1666.000000	48.703100
1665.000000	48.807300
1664.000000	48.895400
1663.000000	48.987100
1662.000000	49.069200
1661.000000	49.164600
1660.000000	49.240300
1659.000000	49.296000
1658.000000	49.364300
1657.000000	49.406600
1656.000000	49.459200
1655.000000	49.494000
1654.000000	49.526400
1653.000000	49.555200
1652.000000	49.575700
1651.000000	49.586800
1650.000000	49.590300
1649.000000	49.597100
1648.000000	49.594800
1647.000000	49.588300
1646.000000	49.574800
1645.000000	49.554700
1644.000000	49.551400
1643.000000	49.542400
1642.000000	49.527800
1641.000000	49.538400
1640.000000	49.538000
1639.000000	49.513600
1638.000000	49.498700
1637.000000	49.479800
1636.000000	49.468600
1635.000000	49.443300
1634.000000	49.442300
1633.000000	49.410600
1632.000000	49.388200
1631.000000	49.372600
1630.000000	49.335800
1629.000000	49.315400
1628.000000	49.286700
1627.000000	49.258700
1626.000000	49.224100
1625.000000	49.184100
1624.000000	49.154000
1623.000000	49.124600
1622.000000	49.090400
1621.000000	49.065900
1620.000000	49.041200
1619.000000	49.004300
1618.000000	48.980600
1617.000000	48.961700
1616.000000	48.935200
1615.000000	48.896300
1614.000000	48.876700
1613.000000	48.846100
1612.000000	48.809700
1611.000000	48.785000
1610.000000	48.739700
1609.000000	48.702200
1608.000000	48.664600
1607.000000	48.621900
1606.000000	48.578600
1605.000000	48.528400
1604.000000	48.476500
1603.000000	48.420900
1602.000000	48.364800
1601.000000	48.312900
1600.000000	48.250700
1599.000000	48.199600
1598.000000	48.153100
1597.000000	48.103500
1596.000000	48.070300
1595.000000	48.012900
1594.000000	47.969300
1593.000000	47.931200
1592.000000	47.879700
1591.000000	47.836300
1590.000000	47.803800
1589.000000	47.769200
1588.000000	47.731500
1587.000000	47.704000
1586.000000	47.663600
1585.000000	47.632300
1584.000000	47.581300
1583.000000	47.539500
1582.000000	47.520900
1581.000000	47.480300
1580.000000	47.449000
1579.000000	47.429800
1578.000000	47.408400
1577.000000	47.377300
1576.000000	47.352800
1575.000000	47.331300
1574.000000	47.323200
1573.000000	47.318100
1572.000000	47.318200
1571.000000	47.320500
1570.000000	47.319200
1569.000000	47.319100
1568.000000	47.315700
1567.000000	47.313800
1566.000000	47.316600
1565.000000	47.328800
1564.000000	47.345900
1563.000000	47.340300
1562.000000	47.320600
1561.000000	47.312600
1560.000000	47.300600
1559.000000	47.276300
1558.000000	47.236100
1557.000000	47.209300
1556.000000	47.180400
1555.000000	47.128800
1554.000000	47.079400
1553.000000	47.011900
1552.000000	46.952500
1551.000000	46.905200
1550.000000	46.838400
1549.000000	46.765600
1548.000000	46.706300
1547.000000	46.635100
1546.000000	46.574900
1545.000000	46.528100
1544.000000	46.469600
1543.000000	46.411000
1542.000000	46.360700
1541.000000	46.325000
1540.000000	46.288500
1539.000000	46.249900
1538.000000	46.211600
1537.000000	46.177300
1536.000000	46.129200
1535.000000	46.083700
1534.000000	46.046700
1533.000000	45.989500
1532.000000	45.940600
1531.000000	45.900100
1530.000000	45.843200
1529.000000	45.788000
1528.000000	45.730400
1527.000000	45.686800
1526.000000	45.630500
1525.000000	45.577200
1524.000000	45.517800
1523.000000	45.458900
1522.000000	45.388300
1521.000000	45.336700
1520.000000	45.290700
1519.000000	45.219000
1518.000000	45.133200
1517.000000	45.075800
1516.000000	45.029400
1515.000000	44.953700
1514.000000	44.888400
1513.000000	44.817300
1512.000000	44.759800
1511.000000	44.702200
1510.000000	44.638100
1509.000000	44.553100
1508.000000	44.490100
1507.000000	44.426800
1506.000000	44.361600
1505.000000	44.306200
1504.000000	44.249400
1503.000000	44.187000
1502.000000	44.133400
1501.000000	44.088400
1500.000000	44.036200
1499.000000	43.992900
1498.000000	43.960300
1497.000000	43.920000
1496.000000	43.900700
1495.000000	43.865600
1494.000000	43.856200
1493.000000	43.858800
1492.000000	43.851400
1491.000000	43.844000
1490.000000	43.837800
1489.000000	43.818400
1488.000000	43.837100
1487.000000	43.837800
1486.000000	43.825100
1485.000000	43.821300
1484.000000	43.815700
1483.000000	43.837500
1482.000000	43.842800
1481.000000	43.855100
1480.000000	43.850800
1479.000000	43.849800
1478.000000	43.872700
1477.000000	43.884100
1476.000000	43.893600
1475.000000	43.922100
1474.000000	43.962100
1473.000000	44.006500
1472.000000	44.057200
1471.000000	44.110600
1470.000000	44.137300
1469.000000	44.155900
1468.000000	44.201100
1467.000000	44.260200
1466.000000	44.319300
1465.000000	44.368500
1464.000000	44.412900
1463.000000	44.449700
1462.000000	44.525100
1461.000000	44.581000
1460.000000	44.644400
1459.000000	44.704700
1458.000000	44.765900
1457.000000	44.839000
1456.000000	44.906500
1455.000000	44.969500
1454.000000	45.037800
1453.000000	45.093100
1452.000000	45.205000
1451.000000	45.276200
1450.000000	45.294100
1449.000000	45.330600
1448.000000	45.400500
1447.000000	45.482100
1446.000000	45.606300
1445.000000	45.627500
1444.000000	45.691800
1443.000000	45.751400
1442.000000	45.823900
1441.000000	45.895800
1440.000000	45.989000
1439.000000	46.052900
1438.000000	46.170300
1437.000000	46.240300
1436.000000	46.316700
1435.000000	46.407800
1434.000000	46.522100
1433.000000	46.647600
1432.000000	46.727600
1431.000000	46.832300
1430.000000	46.925300
1429.000000	47.067600
1428.000000	47.214100
1427.000000	47.319300
1426.000000	47.439900
1425.000000	47.621100
1424.000000	47.794400
1423.000000	47.930200
1422.000000	48.063200
1421.000000	48.267600
1420.000000	48.521500
1419.000000	48.680100
1418.000000	48.829300
1417.000000	48.963900
1416.000000	49.201000
1415.000000	49.444300
1414.000000	49.676700
1413.000000	49.825700
1412.000000	49.999500
1411.000000	50.290800
1410.000000	50.540400
1409.000000	50.789400
1408.000000	50.986900
1407.000000	51.206600
1406.000000	51.410600
1405.000000	51.602500
1404.000000	51.706900
1403.000000	51.916500
1402.000000	52.143300
1401.000000	52.446200
1400.000000	52.446900
1399.000000	52.440900
1398.000000	52.466900
1397.000000	52.644200
1396.000000	52.793600
1395.000000	52.834500
1394.000000	52.788200
1393.000000	52.800500
1392.000000	52.818600
1391.000000	52.792900
1390.000000	52.795300
1389.000000	52.857200
1388.000000	52.918100
1387.000000	52.897900
1386.000000	52.954800
1385.000000	53.096500
1384.000000	53.281700
1383.000000	53.421000
1382.000000	53.641700
1381.000000	53.902800
1380.000000	54.133600
1379.000000	54.641000
1378.000000	55.111100
1377.000000	55.688800
1376.000000	56.254800
1375.000000	56.824100
1374.000000	57.414700
1373.000000	57.985200
1372.000000	58.466000
1371.000000	58.862800
1370.000000	59.156700
1369.000000	59.413400
1368.000000	59.623500
1367.000000	59.770500
1366.000000	59.927500
1365.000000	60.077400
1364.000000	60.175100
1363.000000	60.306300
1362.000000	60.435100
1361.000000	60.483900
1360.000000	60.475100
1359.000000	60.513100
1358.000000	60.580300
1357.000000	60.642700
1356.000000	60.730500
1355.000000	60.831200
1354.000000	60.844000
1353.000000	60.874200
1352.000000	61.027400
1351.000000	61.144400
1350.000000	61.257700
1349.000000	61.378700
1348.000000	61.500000
1347.000000	61.573300
1346.000000	61.674500
1345.000000	61.806400
1344.000000	61.927500
1343.000000	62.031800
1342.000000	62.134500
1341.000000	62.252700
1340.000000	62.350200
1339.000000	62.447000
1338.000000	62.542200
1337.000000	62.642900
1336.000000	62.737500
1335.000000	62.825300
1334.000000	62.920000
1333.000000	62.992800
1332.000000	63.079100
1331.000000	63.168600
1330.000000	63.236200
1329.000000	63.304600
1328.000000	63.367600
1327.000000	63.416700
1326.000000	63.470800
1325.000000	63.537300
1324.000000	63.591600
1323.000000	63.637600
1322.000000	63.693600
1321.000000	63.744300
1320.000000	63.780500
1319.000000	63.824200
1318.000000	63.875200
1317.000000	63.915000
1316.000000	63.949100
1315.000000	63.984200
1314.000000	64.028000
1313.000000	64.067800
1312.000000	64.087100
1311.000000	64.114500
1310.000000	64.153000
1309.000000	64.183300
1308.000000	64.214000
1307.000000	64.233200
1306.000000	64.265100
1305.000000	64.285100
1304.000000	64.290100
1303.000000	64.321300
1302.000000	64.343900
1301.000000	64.354100
1300.000000	64.362900
1299.000000	64.371400
1298.000000	64.383900
1297.000000	64.392100
1296.000000	64.399000
1295.000000	64.401200
1294.000000	64.394700
1293.000000	64.389900
1292.000000	64.390000
1291.000000	64.397700
1290.000000	64.393700
1289.000000	64.382800
1288.000000	64.377700
1287.000000	64.371400
1286.000000	64.362300
1285.000000	64.352600
1284.000000	64.344300
1283.000000	64.334600
1282.000000	64.329200
1281.000000	64.325500
1280.000000	64.310800
1279.000000	64.300900
1278.000000	64.292600
1277.000000	64.282800
1276.000000	64.274200
1275.000000	64.264900
1274.000000	64.271800
1273.000000	64.274700
1272.000000	64.274400
1271.000000	64.272400
1270.000000	64.271000
1269.000000	64.273500
1268.000000	64.270900
1267.000000	64.277800
1266.000000	64.281400
1265.000000	64.273700
1264.000000	64.266000
1263.000000	64.259100
1262.000000	64.245500
1261.000000	64.238500
1260.000000	64.227100
1259.000000	64.213700
1258.000000	64.198500
1257.000000	64.181100
1256.000000	64.146700
1255.000000	64.138500
1254.000000	64.133200
1253.000000	64.109300
1252.000000	64.080500
1251.000000	64.057000
1250.000000	64.037700
1249.000000	64.003500
1248.000000	63.982800
1247.000000	63.962900
1246.000000	63.930700
1245.000000	63.895200
1244.000000	63.873800
1243.000000	63.855400
1242.000000	63.844300
1241.000000	63.840500
1240.000000	63.830100
1239.000000	63.831200
1238.000000	63.831900
1237.000000	63.823100
1236.000000	63.821800
1235.000000	63.828800
1234.000000	63.825700
1233.000000	63.821300
1232.000000	63.808900
1231.000000	63.802200
1230.000000	63.787500
1229.000000	63.780900
1228.000000	63.778800
1227.000000	63.772800
1226.000000	63.766500
1225.000000	63.756100
1224.000000	63.733100
1223.000000	63.719700
1222.000000	63.709700
1221.000000	63.698100
1220.000000	63.683300
1219.000000	63.673000
1218.000000	63.670100
1217.000000	63.648300
1216.000000	63.635300
1215.000000	63.618900
1214.000000	63.597600
1213.000000	63.592500
1212.000000	63.568000
1211.000000	63.539700
1210.000000	63.533100
1209.000000	63.512900
1208.000000	63.474500
1207.000000	63.454400
1206.000000	63.420300
1205.000000	63.394800
1204.000000	63.368700
1203.000000	63.345500
1202.000000	63.311000
1201.000000	63.286100
1200.000000	63.267300
1199.000000	63.212300
1198.000000	63.197200
1197.000000	63.179300
1196.000000	63.134000
1195.000000	63.107200
1194.000000	63.052700
1193.000000	63.041500
1192.000000	63.005400
1191.000000	62.992400
1190.000000	62.951400
1189.000000	62.944900
1188.000000	62.924400
1187.000000	62.919200
1186.000000	62.924100
1185.000000	62.940700
1184.000000	62.938500
1183.000000	62.969200
1182.000000	63.006800
1181.000000	63.056300
1180.000000	63.074900
1179.000000	63.120900
1178.000000	63.161000
1177.000000	63.209600
1176.000000	63.224300
1175.000000	63.286800
1174.000000	63.322800
1173.000000	63.352200
1172.000000	63.411300
1171.000000	63.476000
1170.000000	63.541400
1169.000000	63.578200
1168.000000	63.666900
1167.000000	63.726900
1166.000000	63.811100
1165.000000	63.891000
1164.000000	63.968600
1163.000000	64.045700
1162.000000	64.113000
1161.000000	64.219800
1160.000000	64.287000
1159.000000	64.354500
1158.000000	64.449700
1157.000000	64.497800
1156.000000	64.561300
1155.000000	64.617700
1154.000000	64.672600
1153.000000	64.743100
1152.000000	64.772900
1151.000000	64.812600
1150.000000	64.856800
1149.000000	64.904800
1148.000000	64.950500
1147.000000	64.989700
1146.000000	65.040400
1145.000000	65.048100
1144.000000	65.075100
1143.000000	65.108900
1142.000000	65.161900
1141.000000	65.213500
1140.000000	65.269600
1139.000000	65.330300
1138.000000	65.370300
1137.000000	65.468400
1136.000000	65.539500
1135.000000	65.590200
1134.000000	65.627200
1133.000000	65.627400
1132.000000	65.659500
1131.000000	65.713200
1130.000000	65.770400
1129.000000	65.816200
1128.000000	65.840800
1127.000000	65.855600
1126.000000	65.884600
1125.000000	65.897300
1124.000000	65.938100
1123.000000	65.929000
1122.000000	65.934800
1121.000000	65.933200
1120.000000	65.936600
1119.000000	65.917700
1118.000000	65.932600
1117.000000	65.919600
1116.000000	65.908800
1115.000000	65.898400
1114.000000	65.901200
1113.000000	65.893100
1112.000000	65.889000
1111.000000	65.875500
1110.000000	65.879200
1109.000000	65.865900
1108.000000	65.872300
1107.000000	65.853300
1106.000000	65.851200
1105.000000	65.847900
1104.000000	65.839800
1103.000000	65.842400
1102.000000	65.840700
1101.000000	65.848600
1100.000000	65.843000
1099.000000	65.836500
1098.000000	65.825800
1097.000000	65.827100
1096.000000	65.827200
1095.000000	65.810300
1094.000000	65.807500
1093.000000	65.816100
1092.000000	65.808200
1091.000000	65.809700
1090.000000	65.801800
1089.000000	65.810000
1088.000000	65.803500
1087.000000	65.787400
1086.000000	65.785500
1085.000000	65.790200
1084.000000	65.788100
1083.000000	65.790600
1082.000000	65.776800
1081.000000	65.753800
1080.000000	65.745900
1079.000000	65.753100
1078.000000	65.749600
1077.000000	65.733900
1076.000000	65.726200
1075.000000	65.718900
1074.000000	65.715200
1073.000000	65.694800
1072.000000	65.678800
1071.000000	65.665700
1070.000000	65.652800
1069.000000	65.638700
1068.000000	65.629000
1067.000000	65.606500
1066.000000	65.596500
1065.000000	65.592000
1064.000000	65.572000
1063.000000	65.557600
1062.000000	65.540800
1061.000000	65.522600
1060.000000	65.522200
1059.000000	65.505500
1058.000000	65.491700
1057.000000	65.468700
1056.000000	65.457600
1055.000000	65.435200
1054.000000	65.410800
1053.000000	65.386300
1052.000000	65.363300
1051.000000	65.358100
1050.000000	65.328200
1049.000000	65.310000
1048.000000	65.300200
1047.000000	65.276000
1046.000000	65.263800
1045.000000	65.235200
1044.000000	65.195900
1043.000000	65.170300
1042.000000	65.171000
1041.000000	65.156200
1040.000000	65.132100
1039.000000	65.115600
1038.000000	65.099400
1037.000000	65.079200
1036.000000	65.048800
1035.000000	65.019100
1034.000000	65.012700
1033.000000	65.007800
1032.000000	64.984900
1031.000000	64.971400
1030.000000	64.948000
1029.000000	64.927900
1028.000000	64.912000
1027.000000	64.894800
1026.000000	64.889500
1025.000000	64.884300
1024.000000	64.877500
1023.000000	64.869900
1022.000000	64.875000
1021.000000	64.875400
1020.000000	64.880400
1019.000000	64.883500
1018.000000	64.889500
1017.000000	64.901500
1016.000000	64.902300
1015.000000	64.913700
1014.000000	64.936800
1013.000000	64.964900
1012.000000	64.983100
1011.000000	65.002700
1010.000000	65.029600
1009.000000	65.059700
1008.000000	65.096100
1007.000000	65.131200
1006.000000	65.170100
1005.000000	65.198700
1004.000000	65.240500
1003.000000	65.276100
1002.000000	65.319200
1001.000000	65.363300
1000.000000	65.398500
999.000000	65.445000
998.000000	65.469500
997.000000	65.502800
996.000000	65.548500
995.000000	65.576900
994.000000	65.616700
993.000000	65.644500
992.000000	65.685500
991.000000	65.744200
990.000000	65.787600
989.000000	65.827100
988.000000	65.868500
987.000000	65.921400
986.000000	65.960600
985.000000	66.017400
984.000000	66.064800
983.000000	66.109500
982.000000	66.160400
981.000000	66.209000
980.000000	66.230100
979.000000	66.260900
978.000000	66.317700
977.000000	66.366200
976.000000	66.386500
975.000000	66.419000
974.000000	66.446600
973.000000	66.489400
972.000000	66.531900
971.000000	66.561300
970.000000	66.596700
969.000000	66.631300
968.000000	66.693200
967.000000	66.724500
966.000000	66.771600
965.000000	66.809500
964.000000	66.860700
963.000000	66.911800
962.000000	66.973600
961.000000	67.008100
960.000000	67.042600
959.000000	67.085100
958.000000	67.156500
957.000000	67.203500
956.000000	67.243900
955.000000	67.290700
954.000000	67.330000
953.000000	67.396500
952.000000	67.428400
951.000000	67.461400
950.000000	67.531000
949.000000	67.566700
948.000000	67.614500
947.000000	67.691500
946.000000	67.736800
945.000000	67.798000
944.000000	67.866600
943.000000	67.929700
942.000000	67.991900
941.000000	68.087600
940.000000	68.161500
939.000000	68.251000
938.000000	68.346200
937.000000	68.453100
936.000000	68.520400
935.000000	68.600100
934.000000	68.691100
933.000000	68.763700
932.000000	68.856200
931.000000	68.897600
930.000000	68.958300
929.000000	69.040900
928.000000	69.089300
927.000000	69.139700
926.000000	69.236600
925.000000	69.304800
924.000000	69.343200
923.000000	69.433700
922.000000	69.507500
921.000000	69.567800
920.000000	69.624300
919.000000	69.701900
918.000000	69.749600
917.000000	69.793800
916.000000	69.843400
915.000000	69.900900
914.000000	69.949900
913.000000	70.008500
912.000000	70.052600
911.000000	70.113500
910.000000	70.185900
909.000000	70.200300
908.000000	70.235400
907.000000	70.291400
906.000000	70.344500
905.000000	70.393200
904.000000	70.486500
903.000000	70.510000
902.000000	70.559600
901.000000	70.609800
900.000000	70.666900
899.000000	70.718300
898.000000	70.786200
897.000000	70.824000
896.000000	70.863500
895.000000	70.898600
894.000000	70.929400
893.000000	70.977500
892.000000	71.012900
891.000000	71.044200
890.000000	71.075100
889.000000	71.118400
888.000000	71.138900
887.000000	71.168100
886.000000	71.202500
885.000000	71.238800
884.000000	71.250300
883.000000	71.284100
882.000000	71.284700
881.000000	71.324400
880.000000	71.347000
879.000000	71.369000
878.000000	71.384700
877.000000	71.404100
876.000000	71.426400
875.000000	71.417300
874.000000	71.408500
873.000000	71.428400
872.000000	71.408700
871.000000	71.393700
870.000000	71.386300
869.000000	71.349000
868.000000	71.325600
867.000000	71.288700
866.000000	71.237000
865.000000	71.180400
864.000000	71.104400
863.000000	71.018000
862.000000	70.895100
861.000000	70.753600
860.000000	70.578600
859.000000	70.441100
858.000000	69.655973
857.000000	69.086688
856.000000	68.875558
855.000000	68.553465
854.000000	68.610532
853.000000	68.697818
852.000000	68.627177
851.000000	68.692269
850.000000	68.483221
849.000000	68.140916
848.000000	68.588340
847.000000	68.175989
846.000000	67.919582
845.000000	67.899371
844.000000	67.815454
843.000000	67.940883
842.000000	67.825956
841.000000	67.488209
840.000000	67.512086
839.000000	67.428566
838.000000	67.309973
837.000000	67.321168
836.000000	67.278071
835.000000	67.087747
834.000000	67.149669
833.000000	66.968659
832.000000	66.803303
831.000000	66.681341
830.000000	66.409974
829.000000	66.478336
828.000000	66.450100
827.000000	66.273151
826.000000	66.258786
825.000000	65.890127
824.000000	65.771534
823.000000	65.827016
822.000000	65.617670
821.000000	65.474309
820.000000	65.215227
819.000000	65.068100
818.000000	64.906212
817.000000	64.806245
816.000000	64.610076
815.000000	64.505552
814.000000	64.405684
813.000000	64.046140
812.000000	63.886431
811.000000	63.911695
810.000000	63.740890
809.000000	63.777349
808.000000	63.567805
807.000000	63.433162
806.000000	63.300798
805.000000	63.139404
804.000000	63.066584
803.000000	62.934121
802.000000	62.773223
801.000000	62.647595
800.000000	62.565660
799.000000	62.424082
798.000000	62.278342
797.000000	62.097134
796.000000	62.081084
795.000000	61.882834
794.000000	61.746606
793.000000	61.593040
792.000000	61.350702
791.000000	61.333859
790.000000	61.326825
789.000000	61.138384
788.000000	60.930128
787.000000	60.858298
786.000000	60.728312
785.000000	60.613087
784.000000	60.525406
783.000000	60.460908
782.000000	60.329237
781.000000	60.221245
780.000000	60.087890
779.000000	59.925704
778.000000	59.856847
777.000000	59.760248
776.000000	59.639872
775.000000	59.466094
774.000000	59.291920
773.000000	59.187990
772.000000	59.063552
771.000000	58.909886
770.000000	58.819926
769.000000	58.711736
768.000000	58.597106
767.000000	58.457509
766.000000	58.219828
765.000000	58.145224
764.000000	58.049815
763.000000	57.878811
762.000000	57.760813
761.000000	57.637662
760.000000	57.467847
759.000000	57.374221
758.000000	57.292484
757.000000	57.129902
756.000000	56.965239
755.000000	56.878846
754.000000	56.769863
753.000000	56.629077
752.000000	56.503450
751.000000	56.342948
750.000000	56.154012
749.000000	56.027691
748.000000	55.886608
747.000000	55.716595
746.000000	55.597507
745.000000	55.462368
744.000000	55.223894
743.000000	55.061411
742.000000	54.930236
741.000000	54.710982
740.000000	54.492224
739.000000	54.313790
738.000000	54.099590
737.000000	53.894108
736.000000	53.715574
735.000000	53.529115
734.000000	53.309168
733.000000	53.091203
732.000000	52.870860
731.000000	52.691930
730.000000	52.451078
729.000000	52.209533
728.000000	52.031891
727.000000	51.859897
726.000000	51.652532
725.000000	51.433973
724.000000	51.259997
723.000000	51.032817
722.000000	50.831992
721.000000	50.662673
720.000000	50.493254
719.000000	50.276280
718.000000	50.035428
717.000000	49.867297
716.000000	49.677667
715.000000	49.389557
714.000000	49.156235
713.000000	48.943124
712.000000	48.680476
711.000000	48.358383
710.000000	48.064328
709.000000	47.804057
708.000000	47.526746
707.000000	47.291343
706.000000	47.066344
705.000000	46.829455
704.000000	46.654290
703.000000	46.472190
702.000000	46.346563
701.000000	46.278994
700.000000	46.185070
699.000000	46.097884
698.000000	46.082627
697.000000	46.024965
696.000000	46.058551
695.000000	46.073314
694.000000	46.128895
693.000000	46.166345
692.000000	46.220044
691.000000	46.246001
690.000000	46.217270
689.000000	46.170704
688.000000	46.102343
687.000000	46.001484
686.000000	45.887052
685.000000	45.654127
684.000000	45.402079
683.000000	45.166281
682.000000	44.883619
681.000000	44.547160
680.000000	44.235569
679.000000	43.923284
678.000000	43.628733
677.000000	43.375893
676.000000	43.152182
675.000000	42.928173
674.000000	42.758952
673.000000	42.635109
672.000000	42.543563
671.000000	42.451522
670.000000	42.454792
669.000000	42.483821
668.000000	42.528504
667.000000	42.531476
666.000000	42.588840
665.000000	42.637288
664.000000	42.657004
663.000000	42.653140
662.000000	42.595379
661.000000	42.495016
660.000000	42.382368
659.000000	42.191054
658.000000	41.964073
657.000000	41.628604
656.000000	41.281445
655.000000	40.862456
654.000000	40.397199
653.000000	39.866057
652.000000	39.368304
651.000000	38.855689
650.000000	38.402915
649.000000	37.990466
648.000000	37.698491
647.000000	37.459819
646.000000	37.342019
645.000000	37.280592
644.000000	37.360149
643.000000	37.575935
642.000000	37.916159
641.000000	38.306912
640.000000	38.833892
639.000000	39.395351
638.000000	40.061830
637.000000	40.679266
636.000000	41.407567
635.000000	42.108227
634.000000	42.851885
633.000000	43.554130
632.000000	44.244089
631.000000	44.893130
630.000000	45.552475
629.000000	46.150493
628.000000	46.691146
627.000000	47.148675
626.000000	47.610464
625.000000	48.010332
624.000000	48.407029
623.000000	48.726249
622.000000	48.975720
621.000000	49.264326
620.000000	49.455244
619.000000	49.631994
618.000000	49.815580
617.000000	49.986782
616.000000	50.127766
615.000000	50.306200
614.000000	50.473142
613.000000	50.654449
612.000000	50.877269
611.000000	51.117626
610.000000	51.385723
609.000000	51.697612
608.000000	52.023965
607.000000	52.315841
606.000000	52.685589
605.000000	53.023435
604.000000	53.382682
603.000000	53.724986
602.000000	54.060653
601.000000	54.361742
600.000000	54.647574
599.000000	54.878320
598.000000	55.047541
597.000000	55.177230
596.000000	55.306919
595.000000	55.411840
594.000000	55.388755
593.000000	55.414812
592.000000	55.418379
591.000000	55.307415
590.000000	55.275810
589.000000	55.239647
588.000000	55.193577
587.000000	55.116992
586.000000	55.052098
585.000000	55.016134
584.000000	54.974919
583.000000	54.913888
582.000000	54.829575
581.000000	54.698994
580.000000	54.623400
579.000000	54.468149
578.000000	54.356095
577.000000	54.148335
576.000000	53.968513
575.000000	53.805931
574.000000	53.630667
573.000000	53.423600
572.000000	53.247345
571.000000	53.081691
570.000000	52.939519
569.000000	52.821025
568.000000	52.709466
567.000000	52.625649
566.000000	52.565015
565.000000	52.497247
564.000000	52.400054
563.000000	52.330702
562.000000	52.293053
561.000000	52.204084
560.000000	52.123833
559.000000	52.061317
558.000000	51.896555
557.000000	51.714553
556.000000	51.417229
555.000000	51.122282
554.000000	50.795334
553.000000	50.342363
552.000000	49.902667
551.000000	49.400852
550.000000	48.856533
549.000000	48.303594
548.000000	47.740154
547.000000	47.124402
546.000000	46.464264
545.000000	45.737647
544.000000	44.971499
543.000000	44.163937
542.000000	43.288014
541.000000	42.354231
540.000000	41.373486
539.000000	40.323190
538.000000	39.259717
537.000000	38.110743
536.000000	36.921841
535.000000	35.724815
534.000000	34.497571
533.000000	33.269535
532.000000	32.066366
531.000000	30.896685
530.000000	29.820134
529.000000	28.827599
528.000000	27.921458
527.000000	27.112410
526.000000	26.401150
525.000000	25.788469
524.000000	25.275458
523.000000	24.865089
522.000000	24.537843
521.000000	24.288174
520.000000	24.106767
519.000000	23.999073
518.000000	23.931008
517.000000	23.876418
516.000000	23.835103
515.000000	23.809641
514.000000	23.779324
513.000000	23.738406
512.000000	23.722257
511.000000	23.683419
510.000000	23.614265
509.000000	23.540355
508.000000	23.454655
507.000000	23.358057
506.000000	23.246201
505.000000	23.125230
504.000000	22.994946
503.000000	22.848315
502.000000	22.714464
501.000000	22.558916
500.000000	22.385832
499.000000	22.210370
498.000000	22.038078
497.000000	21.845377
496.000000	21.641084
495.000000	21.444717
494.000000	21.241811
493.000000	21.052479
492.000000	20.836594
491.000000	20.619223
490.000000	20.392836
489.000000	20.174475
488.000000	19.951853
487.000000	19.753901
486.000000	19.541087
485.000000	19.341055
484.000000	19.143400
483.000000	18.927812
482.000000	18.725303
481.000000	18.511003
480.000000	18.293533
479.000000	18.084881
478.000000	17.880092
477.000000	17.662226
476.000000	17.455060
475.000000	17.253640
474.000000	17.039440
473.000000	16.833363
472.000000	16.636204
471.000000	16.404368
470.000000	16.175802
469.000000	15.960710
468.000000	15.753742
467.000000	15.528742
466.000000	15.284918
465.000000	15.050011
464.000000	14.830658
463.000000	14.592680
462.000000	14.332508
461.000000	14.081056
460.000000	13.826334
459.000000	13.567351
458.000000	13.307675
457.000000	13.043442
456.000000	12.774354
455.000000	12.485649
454.000000	12.181191
453.000000	11.883866
452.000000	11.592387
451.000000	11.291694
450.000000	10.977428
449.000000	10.668908
448.000000	10.364351
447.000000	10.045923
446.000000	9.746914
445.000000	9.466333
444.000000	9.173269
443.000000	8.877332
442.000000	8.596751
441.000000	8.339849
440.000000	8.092458
439.000000	7.843780
438.000000	7.632551
437.000000	7.425782
436.000000	7.217427
435.000000	7.038596
434.000000	6.877599
433.000000	6.727005
432.000000	6.582157
431.000000	6.447910
430.000000	6.327434
429.000000	6.232520
428.000000	6.132950
427.000000	6.040612
426.000000	5.966999
425.000000	5.903789
424.000000	5.849001
423.000000	5.795698
422.000000	5.747944
421.000000	5.703558
420.000000	5.669278
419.000000	5.628757
418.000000	5.592495
417.000000	5.574959
416.000000	5.562475
415.000000	5.539490
414.000000	5.512740
413.000000	5.495203
412.000000	5.494113
411.000000	5.485197
410.000000	5.472416
409.000000	5.459041
408.000000	5.455870
407.000000	5.449926
406.000000	5.443684
405.000000	5.441802
404.000000	5.436848
403.000000	5.431795
402.000000	5.420996
401.000000	5.411287
400.000000	5.405540
399.000000	5.406036
398.000000	5.405243
397.000000	5.397020
396.000000	5.394147
395.000000	5.384635
394.000000	5.393453
393.000000	5.395137
392.000000	5.376115
391.000000	5.377502
390.000000	5.399298
389.000000	5.385824
388.000000	5.366108
387.000000	5.370666
386.000000	5.366406
385.000000	5.356498
384.000000	5.353922
383.000000	5.361749
382.000000	5.359966
381.000000	5.368585
380.000000	5.347779
379.000000	5.334107
378.000000	5.339952
377.000000	5.342429
376.000000	5.332621
375.000000	5.240481
374.000000	5.291604
373.000000	5.340943
372.000000	5.354913
371.000000	5.342429
370.000000	5.310527
369.000000	5.343618
368.000000	5.370567
367.000000	5.336089
366.000000	5.374232
365.000000	5.359867
364.000000	5.298935
363.000000	5.341835
362.000000	5.373737
361.000000	5.357390
360.000000	5.425454
359.000000	5.511749
358.000000	5.399497
357.000000	5.511650
356.000000	5.326676
355.000000	5.367694
354.000000	5.346987
353.000000	5.319345
352.000000	5.305276
351.000000	5.352238
350.000000	5.409503
349.000000	5.505507
348.000000	5.394642
347.000000	5.190250
346.000000	5.302799
345.000000	5.443288
344.000000	5.265052
343.000000	5.382258
342.000000	5.414259
341.000000	5.519972
340.000000	5.413367
339.000000	5.503030
338.000000	5.420401
337.000000	5.277832
336.000000	5.362145
335.000000	5.486286
334.000000	5.392066
333.000000	5.462112
332.000000	5.502733
331.000000	5.551676
330.000000	5.734668
329.000000	5.547911
328.000000	5.317462
327.000000	5.536220
326.000000	5.558017
325.000000	5.855540
324.000000	5.902798
323.000000	5.806101
322.000000	5.872085
321.000000	6.036253
320.000000	6.106200
319.000000	5.827105
318.000000	6.046953
317.000000	6.076873
316.000000	5.443783
315.000000	5.422680
314.000000	5.388697
313.000000	5.376016
312.000000	5.427832
311.000000	5.425752
310.000000	5.410197
309.000000	5.452304
308.000000	5.472119
307.000000	5.428129
306.000000	5.477469
305.000000	5.453294
304.000000	5.482522
303.000000	5.494609
302.000000	5.456762
301.000000	5.507290
300.000000	5.514523
299.000000	5.428327
298.000000	5.462806
297.000000	5.490547
296.000000	5.404153
295.000000	5.458644
294.000000	5.448935
293.000000	5.547218
292.000000	5.561484
291.000000	5.493915
290.000000	5.501148
289.000000	5.546227
288.000000	5.512442
287.000000	5.496491
286.000000	5.581300
285.000000	5.555639
284.000000	5.561484
283.000000	5.534536
282.000000	5.558512
281.000000	5.608842
280.000000	5.654417
279.000000	5.596557
278.000000	5.570104
277.000000	5.622713
276.000000	5.659272
275.000000	5.608545
274.000000	5.748737
273.000000	5.666207
272.000000	5.671953
271.000000	5.760427
270.000000	5.705540
269.000000	5.735361
268.000000	5.808875
267.000000	5.782125
266.000000	5.809371
265.000000	5.817098
264.000000	5.871392
263.000000	5.924199
262.000000	5.918749
261.000000	5.990975
260.000000	6.001180
259.000000	6.016735
258.000000	6.061616
257.000000	6.063399
256.000000	6.035163
255.000000	6.089357
254.000000	6.122349
253.000000	6.087177
252.000000	6.182884
251.000000	6.184964
250.000000	6.161484
