PE UV       SUBTECH     SPECTRUM    ASCII       PEDS        4.00        
   -1
CICIMAUCR0108-3.Sample.ASC
24/04/04
14:31:49.00
24/04/04
14:31:49.00
Vinicio Soto Monge
C. resplendens
250,000000
1
Lambda 1050
1050L1511233
PerkinElmer UV WinLab 6.3.2.0749 / 2.02.05 Lambda 900 UV/VIS/NIR, Aug  7 2015 09:38:08

0
0
3350/servo 860,8/2
0
0
UV/VIS
1
1
1
DoubleDePol,CommonBeamDepol,RBeamAtt,SBeamAtt,60mm sphere, WB InGaAs Detector
0
0
0
0
Program
Program
3350/servo 860,8/2
3350/0,2 860,8/0,2
3350/0,2 860,8/0,2
0
15.00
 
 
 
0
 
860,8
319,2
860,8
Front
100
on
S:100 R:100
0
0
0
0
 
0
 
 
 
0
 
 
0
0
0
0
0
 
 
 
 
0
0


0
0
#HDR
-1
-1
#GR
nm
%R
1.0
0.0
2500,000000
-1,000000
2251
8
68,128600
5,096800
#DATA
2500.000000	5.332400
2499.000000	5.420900
2498.000000	5.341800
2497.000000	5.350400
2496.000000	5.266300
2495.000000	5.351000
2494.000000	5.355900
2493.000000	5.282900
2492.000000	5.340500
2491.000000	5.337000
2490.000000	5.315100
2489.000000	5.320400
2488.000000	5.314200
2487.000000	5.222000
2486.000000	5.227000
2485.000000	5.147300
2484.000000	5.202400
2483.000000	5.299600
2482.000000	5.284800
2481.000000	5.331800
2480.000000	5.207800
2479.000000	5.324700
2478.000000	5.243100
2477.000000	5.303200
2476.000000	5.260700
2475.000000	5.258600
2474.000000	5.252000
2473.000000	5.269900
2472.000000	5.283700
2471.000000	5.266400
2470.000000	5.281600
2469.000000	5.269200
2468.000000	5.259300
2467.000000	5.343000
2466.000000	5.306800
2465.000000	5.324500
2464.000000	5.341100
2463.000000	5.320500
2462.000000	5.350800
2461.000000	5.370600
2460.000000	5.419000
2459.000000	5.435100
2458.000000	5.444800
2457.000000	5.480800
2456.000000	5.514200
2455.000000	5.494200
2454.000000	5.541300
2453.000000	5.576300
2452.000000	5.612200
2451.000000	5.652500
2450.000000	5.667200
2449.000000	5.717700
2448.000000	5.753200
2447.000000	5.767200
2446.000000	5.821400
2445.000000	5.827800
2444.000000	5.860600
2443.000000	5.908200
2442.000000	5.938200
2441.000000	5.958000
2440.000000	5.999300
2439.000000	6.035800
2438.000000	6.063200
2437.000000	6.106300
2436.000000	6.109000
2435.000000	6.144100
2434.000000	6.170900
2433.000000	6.199100
2432.000000	6.243300
2431.000000	6.248700
2430.000000	6.270100
2429.000000	6.286900
2428.000000	6.308400
2427.000000	6.334600
2426.000000	6.366000
2425.000000	6.378300
2424.000000	6.404800
2423.000000	6.412600
2422.000000	6.427000
2421.000000	6.430900
2420.000000	6.475800
2419.000000	6.486000
2418.000000	6.484500
2417.000000	6.508600
2416.000000	6.516500
2415.000000	6.531500
2414.000000	6.544400
2413.000000	6.551200
2412.000000	6.564400
2411.000000	6.572700
2410.000000	6.584700
2409.000000	6.603000
2408.000000	6.618900
2407.000000	6.631900
2406.000000	6.640500
2405.000000	6.647700
2404.000000	6.655400
2403.000000	6.683400
2402.000000	6.703000
2401.000000	6.715400
2400.000000	6.725600
2399.000000	6.752100
2398.000000	6.766800
2397.000000	6.778200
2396.000000	6.788400
2395.000000	6.792700
2394.000000	6.809600
2393.000000	6.838300
2392.000000	6.831000
2391.000000	6.824400
2390.000000	6.845600
2389.000000	6.857400
2388.000000	6.855600
2387.000000	6.849800
2386.000000	6.850300
2385.000000	6.869900
2384.000000	6.872300
2383.000000	6.861300
2382.000000	6.851200
2381.000000	6.851500
2380.000000	6.848800
2379.000000	6.833000
2378.000000	6.819500
2377.000000	6.815200
2376.000000	6.829700
2375.000000	6.812200
2374.000000	6.790200
2373.000000	6.777900
2372.000000	6.757300
2371.000000	6.737600
2370.000000	6.714400
2369.000000	6.705900
2368.000000	6.686100
2367.000000	6.647500
2366.000000	6.616400
2365.000000	6.584800
2364.000000	6.547800
2363.000000	6.524700
2362.000000	6.490500
2361.000000	6.444100
2360.000000	6.398000
2359.000000	6.365200
2358.000000	6.341800
2357.000000	6.318900
2356.000000	6.287900
2355.000000	6.260600
2354.000000	6.229200
2353.000000	6.213000
2352.000000	6.219900
2351.000000	6.219300
2350.000000	6.233300
2349.000000	6.258400
2348.000000	6.270200
2347.000000	6.297400
2346.000000	6.315200
2345.000000	6.322900
2344.000000	6.360400
2343.000000	6.383000
2342.000000	6.410000
2341.000000	6.431400
2340.000000	6.447100
2339.000000	6.450500
2338.000000	6.444300
2337.000000	6.452000
2336.000000	6.449900
2335.000000	6.438600
2334.000000	6.420100
2333.000000	6.386700
2332.000000	6.366500
2331.000000	6.350000
2330.000000	6.319000
2329.000000	6.286600
2328.000000	6.244900
2327.000000	6.192900
2326.000000	6.152200
2325.000000	6.095600
2324.000000	6.042700
2323.000000	5.982600
2322.000000	5.924200
2321.000000	5.847500
2320.000000	5.775300
2319.000000	5.700300
2318.000000	5.632700
2317.000000	5.562900
2316.000000	5.512700
2315.000000	5.445300
2314.000000	5.374400
2313.000000	5.317700
2312.000000	5.263200
2311.000000	5.210800
2310.000000	5.177900
2309.000000	5.148900
2308.000000	5.133000
2307.000000	5.131200
2306.000000	5.112500
2305.000000	5.126000
2304.000000	5.132000
2303.000000	5.147400
2302.000000	5.162500
2301.000000	5.175100
2300.000000	5.214300
2299.000000	5.246100
2298.000000	5.262600
2297.000000	5.274000
2296.000000	5.312100
2295.000000	5.348400
2294.000000	5.353500
2293.000000	5.377800
2292.000000	5.371500
2291.000000	5.374300
2290.000000	5.384900
2289.000000	5.390500
2288.000000	5.358600
2287.000000	5.339900
2286.000000	5.344100
2285.000000	5.307800
2284.000000	5.296000
2283.000000	5.274500
2282.000000	5.268900
2281.000000	5.245200
2280.000000	5.214000
2279.000000	5.183300
2278.000000	5.156300
2277.000000	5.149700
2276.000000	5.140500
2275.000000	5.136100
2274.000000	5.114100
2273.000000	5.111600
2272.000000	5.097700
2271.000000	5.102500
2270.000000	5.096800
2269.000000	5.118200
2268.000000	5.113300
2267.000000	5.146300
2266.000000	5.164000
2265.000000	5.186700
2264.000000	5.229900
2263.000000	5.263200
2262.000000	5.327100
2261.000000	5.385500
2260.000000	5.481900
2259.000000	5.497700
2258.000000	5.599100
2257.000000	5.651600
2256.000000	5.741000
2255.000000	5.804600
2254.000000	5.885000
2253.000000	5.966400
2252.000000	6.023200
2251.000000	6.089200
2250.000000	6.152800
2249.000000	6.219800
2248.000000	6.270900
2247.000000	6.317200
2246.000000	6.385500
2245.000000	6.439300
2244.000000	6.469100
2243.000000	6.521400
2242.000000	6.554200
2241.000000	6.604500
2240.000000	6.658500
2239.000000	6.667100
2238.000000	6.709500
2237.000000	6.738100
2236.000000	6.750900
2235.000000	6.755400
2234.000000	6.794700
2233.000000	6.787900
2232.000000	6.801100
2231.000000	6.792200
2230.000000	6.803300
2229.000000	6.792400
2228.000000	6.777200
2227.000000	6.766000
2226.000000	6.731400
2225.000000	6.708500
2224.000000	6.692000
2223.000000	6.646300
2222.000000	6.612300
2221.000000	6.586600
2220.000000	6.534000
2219.000000	6.500400
2218.000000	6.469100
2217.000000	6.437700
2216.000000	6.424000
2215.000000	6.390100
2214.000000	6.360700
2213.000000	6.354000
2212.000000	6.354200
2211.000000	6.331000
2210.000000	6.355400
2209.000000	6.376700
2208.000000	6.401500
2207.000000	6.450800
2206.000000	6.507900
2205.000000	6.565800
2204.000000	6.663500
2203.000000	6.730900
2202.000000	6.831600
2201.000000	6.935100
2200.000000	7.037200
2199.000000	7.139300
2198.000000	7.241500
2197.000000	7.360300
2196.000000	7.457000
2195.000000	7.569200
2194.000000	7.679100
2193.000000	7.755500
2192.000000	7.827100
2191.000000	7.912500
2190.000000	8.003700
2189.000000	8.062200
2188.000000	8.129300
2187.000000	8.191500
2186.000000	8.224300
2185.000000	8.283200
2184.000000	8.315800
2183.000000	8.345300
2182.000000	8.395800
2181.000000	8.417400
2180.000000	8.458500
2179.000000	8.484200
2178.000000	8.513700
2177.000000	8.534700
2176.000000	8.560900
2175.000000	8.587000
2174.000000	8.627600
2173.000000	8.646700
2172.000000	8.675100
2171.000000	8.697600
2170.000000	8.735700
2169.000000	8.761000
2168.000000	8.796400
2167.000000	8.830200
2166.000000	8.861700
2165.000000	8.888300
2164.000000	8.924700
2163.000000	8.953700
2162.000000	8.985800
2161.000000	9.007500
2160.000000	9.046700
2159.000000	9.078100
2158.000000	9.093100
2157.000000	9.129300
2156.000000	9.180400
2155.000000	9.231500
2154.000000	9.265800
2153.000000	9.296800
2152.000000	9.320800
2151.000000	9.360500
2150.000000	9.391800
2149.000000	9.441600
2148.000000	9.472200
2147.000000	9.489700
2146.000000	9.530100
2145.000000	9.557100
2144.000000	9.571400
2143.000000	9.605400
2142.000000	9.635300
2141.000000	9.671200
2140.000000	9.698400
2139.000000	9.705800
2138.000000	9.731300
2137.000000	9.750800
2136.000000	9.761900
2135.000000	9.788800
2134.000000	9.802800
2133.000000	9.812500
2132.000000	9.825000
2131.000000	9.831900
2130.000000	9.833500
2129.000000	9.846700
2128.000000	9.852200
2127.000000	9.848800
2126.000000	9.855100
2125.000000	9.845700
2124.000000	9.823500
2123.000000	9.828600
2122.000000	9.831800
2121.000000	9.821900
2120.000000	9.813300
2119.000000	9.810400
2118.000000	9.787200
2117.000000	9.772900
2116.000000	9.767600
2115.000000	9.752000
2114.000000	9.742300
2113.000000	9.723300
2112.000000	9.708800
2111.000000	9.699700
2110.000000	9.682600
2109.000000	9.667200
2108.000000	9.656700
2107.000000	9.647700
2106.000000	9.629800
2105.000000	9.606800
2104.000000	9.596900
2103.000000	9.588500
2102.000000	9.570300
2101.000000	9.555200
2100.000000	9.541000
2099.000000	9.529700
2098.000000	9.531300
2097.000000	9.513100
2096.000000	9.498300
2095.000000	9.493900
2094.000000	9.475200
2093.000000	9.468000
2092.000000	9.460300
2091.000000	9.464600
2090.000000	9.467900
2089.000000	9.469200
2088.000000	9.470700
2087.000000	9.458000
2086.000000	9.438900
2085.000000	9.434700
2084.000000	9.438200
2083.000000	9.435200
2082.000000	9.416900
2081.000000	9.396600
2080.000000	9.385400
2079.000000	9.365300
2078.000000	9.363600
2077.000000	9.365500
2076.000000	9.351000
2075.000000	9.343800
2074.000000	9.330500
2073.000000	9.298300
2072.000000	9.276100
2071.000000	9.266700
2070.000000	9.250200
2069.000000	9.226900
2068.000000	9.203700
2067.000000	9.183700
2066.000000	9.157900
2065.000000	9.135600
2064.000000	9.110300
2063.000000	9.093100
2062.000000	9.077100
2061.000000	9.050600
2060.000000	9.027700
2059.000000	9.020000
2058.000000	8.994700
2057.000000	8.964900
2056.000000	8.961300
2055.000000	8.966300
2054.000000	8.982300
2053.000000	9.004500
2052.000000	8.995300
2051.000000	9.024100
2050.000000	9.056200
2049.000000	9.096800
2048.000000	9.145500
2047.000000	9.214100
2046.000000	9.276300
2045.000000	9.351500
2044.000000	9.441300
2043.000000	9.536900
2042.000000	9.619000
2041.000000	9.705000
2040.000000	9.806700
2039.000000	9.894200
2038.000000	9.996400
2037.000000	10.093600
2036.000000	10.167000
2035.000000	10.244600
2034.000000	10.334500
2033.000000	10.404700
2032.000000	10.470600
2031.000000	10.546700
2030.000000	10.607500
2029.000000	10.671300
2028.000000	10.731300
2027.000000	10.798100
2026.000000	10.859700
2025.000000	10.902500
2024.000000	10.960800
2023.000000	11.014800
2022.000000	11.062400
2021.000000	11.126100
2020.000000	11.170400
2019.000000	11.199300
2018.000000	11.233600
2017.000000	11.280800
2016.000000	11.331300
2015.000000	11.366900
2014.000000	11.383700
2013.000000	11.434800
2012.000000	11.469900
2011.000000	11.514900
2010.000000	11.537600
2009.000000	11.578700
2008.000000	11.598500
2007.000000	11.626900
2006.000000	11.649700
2005.000000	11.667600
2004.000000	11.690500
2003.000000	11.719300
2002.000000	11.726400
2001.000000	11.729500
2000.000000	11.755000
1999.000000	11.750300
1998.000000	11.766200
1997.000000	11.760000
1996.000000	11.739500
1995.000000	11.746200
1994.000000	11.737700
1993.000000	11.736500
1992.000000	11.707200
1991.000000	11.680400
1990.000000	11.671000
1989.000000	11.681000
1988.000000	11.666400
1987.000000	11.614400
1986.000000	11.583800
1985.000000	11.545400
1984.000000	11.526600
1983.000000	11.512200
1982.000000	11.475500
1981.000000	11.426200
1980.000000	11.394500
1979.000000	11.360800
1978.000000	11.337500
1977.000000	11.297200
1976.000000	11.236000
1975.000000	11.215300
1974.000000	11.176300
1973.000000	11.146800
1972.000000	11.127200
1971.000000	11.074700
1970.000000	11.058000
1969.000000	11.006100
1968.000000	10.982600
1967.000000	10.952600
1966.000000	10.920800
1965.000000	10.877800
1964.000000	10.843400
1963.000000	10.817800
1962.000000	10.795200
1961.000000	10.748400
1960.000000	10.705900
1959.000000	10.688600
1958.000000	10.647700
1957.000000	10.626200
1956.000000	10.569200
1955.000000	10.545000
1954.000000	10.503200
1953.000000	10.492900
1952.000000	10.452800
1951.000000	10.406500
1950.000000	10.376700
1949.000000	10.350100
1948.000000	10.312000
1947.000000	10.311400
1946.000000	10.289800
1945.000000	10.286500
1944.000000	10.254600
1943.000000	10.240800
1942.000000	10.239200
1941.000000	10.198900
1940.000000	10.207800
1939.000000	10.238300
1938.000000	10.234400
1937.000000	10.251100
1936.000000	10.244100
1935.000000	10.257000
1934.000000	10.263900
1933.000000	10.300000
1932.000000	10.327700
1931.000000	10.366300
1930.000000	10.401400
1929.000000	10.427200
1928.000000	10.507600
1927.000000	10.542900
1926.000000	10.605100
1925.000000	10.653800
1924.000000	10.694200
1923.000000	10.759500
1922.000000	10.841300
1921.000000	10.949400
1920.000000	11.051400
1919.000000	11.143200
1918.000000	11.212000
1917.000000	11.279300
1916.000000	11.348400
1915.000000	11.423400
1914.000000	11.562800
1913.000000	11.671300
1912.000000	11.798800
1911.000000	11.912500
1910.000000	12.000800
1909.000000	12.072200
1908.000000	12.144400
1907.000000	12.265200
1906.000000	12.422000
1905.000000	12.597400
1904.000000	12.740500
1903.000000	12.849900
1902.000000	12.943500
1901.000000	13.052100
1900.000000	13.179600
1899.000000	13.337900
1898.000000	13.481100
1897.000000	13.624300
1896.000000	13.695400
1895.000000	13.769600
1894.000000	13.892100
1893.000000	14.013200
1892.000000	14.166500
1891.000000	14.314800
1890.000000	14.456300
1889.000000	14.568300
1888.000000	14.707100
1887.000000	14.856200
1886.000000	15.016100
1885.000000	15.207600
1884.000000	15.426900
1883.000000	15.668400
1882.000000	15.884900
1881.000000	16.132500
1880.000000	16.381700
1879.000000	16.612300
1878.000000	16.853900
1877.000000	17.071100
1876.000000	17.287800
1875.000000	17.500700
1874.000000	17.672000
1873.000000	17.844100
1872.000000	18.011900
1871.000000	18.141800
1870.000000	18.262000
1869.000000	18.354100
1868.000000	18.407300
1867.000000	18.434100
1866.000000	18.442700
1865.000000	18.437000
1864.000000	18.414000
1863.000000	18.401300
1862.000000	18.414900
1861.000000	18.432100
1860.000000	18.426100
1859.000000	18.437700
1858.000000	18.433700
1857.000000	18.402300
1856.000000	18.344000
1855.000000	18.305800
1854.000000	18.278100
1853.000000	18.208800
1852.000000	18.127600
1851.000000	18.085400
1850.000000	18.033700
1849.000000	18.002600
1848.000000	17.979800
1847.000000	17.948000
1846.000000	17.878400
1845.000000	17.786600
1844.000000	17.707400
1843.000000	17.670400
1842.000000	17.675300
1841.000000	17.657800
1840.000000	17.611100
1839.000000	17.580700
1838.000000	17.552600
1837.000000	17.515100
1836.000000	17.464300
1835.000000	17.396800
1834.000000	17.320200
1833.000000	17.239000
1832.000000	17.186800
1831.000000	17.136200
1830.000000	17.082000
1829.000000	17.037600
1828.000000	16.971900
1827.000000	16.910900
1826.000000	16.850100
1825.000000	16.781300
1824.000000	16.728800
1823.000000	16.699100
1822.000000	16.697200
1821.000000	16.700500
1820.000000	16.684700
1819.000000	16.660600
1818.000000	16.616400
1817.000000	16.577600
1816.000000	16.581800
1815.000000	16.587200
1814.000000	16.576200
1813.000000	16.559200
1812.000000	16.529900
1811.000000	16.506000
1810.000000	16.478700
1809.000000	16.444000
1808.000000	16.405600
1807.000000	16.379800
1806.000000	16.357100
1805.000000	16.300600
1804.000000	16.252900
1803.000000	16.215900
1802.000000	16.190800
1801.000000	16.155900
1800.000000	16.106700
1799.000000	16.055400
1798.000000	16.021300
1797.000000	15.984100
1796.000000	15.959500
1795.000000	15.924300
1794.000000	15.895300
1793.000000	15.867300
1792.000000	15.834100
1791.000000	15.787100
1790.000000	15.732100
1789.000000	15.691200
1788.000000	15.633200
1787.000000	15.591000
1786.000000	15.530900
1785.000000	15.478400
1784.000000	15.412000
1783.000000	15.336600
1782.000000	15.276700
1781.000000	15.224500
1780.000000	15.165700
1779.000000	15.098600
1778.000000	15.006100
1777.000000	14.928300
1776.000000	14.843900
1775.000000	14.755800
1774.000000	14.656300
1773.000000	14.557900
1772.000000	14.449800
1771.000000	14.346800
1770.000000	14.229800
1769.000000	14.114900
1768.000000	14.003900
1767.000000	13.913400
1766.000000	13.818600
1765.000000	13.760400
1764.000000	13.720600
1763.000000	13.683000
1762.000000	13.690500
1761.000000	13.712200
1760.000000	13.750500
1759.000000	13.784100
1758.000000	13.849500
1757.000000	13.885500
1756.000000	13.932100
1755.000000	13.959300
1754.000000	13.984400
1753.000000	13.989800
1752.000000	13.984400
1751.000000	13.972700
1750.000000	13.953200
1749.000000	13.925300
1748.000000	13.885100
1747.000000	13.841900
1746.000000	13.766900
1745.000000	13.675400
1744.000000	13.580500
1743.000000	13.455800
1742.000000	13.313800
1741.000000	13.182000
1740.000000	13.022400
1739.000000	12.843500
1738.000000	12.695600
1737.000000	12.573000
1736.000000	12.422600
1735.000000	12.345800
1734.000000	12.251200
1733.000000	12.230000
1732.000000	12.229800
1731.000000	12.251400
1730.000000	12.320600
1729.000000	12.397300
1728.000000	12.488300
1727.000000	12.573300
1726.000000	12.676600
1725.000000	12.735800
1724.000000	12.768300
1723.000000	12.807800
1722.000000	12.854800
1721.000000	12.877900
1720.000000	12.897900
1719.000000	12.938700
1718.000000	12.971800
1717.000000	13.016500
1716.000000	13.073000
1715.000000	13.098400
1714.000000	13.161600
1713.000000	13.234800
1712.000000	13.290400
1711.000000	13.320700
1710.000000	13.366800
1709.000000	13.371700
1708.000000	13.409400
1707.000000	13.408800
1706.000000	13.435000
1705.000000	13.450400
1704.000000	13.460800
1703.000000	13.450600
1702.000000	13.438900
1701.000000	13.385200
1700.000000	13.349700
1699.000000	13.260400
1698.000000	13.254200
1697.000000	13.196500
1696.000000	13.206700
1695.000000	13.204700
1694.000000	13.271900
1693.000000	13.341100
1692.000000	13.429600
1691.000000	13.544400
1690.000000	13.652500
1689.000000	13.742300
1688.000000	13.801700
1687.000000	13.808400
1686.000000	13.808600
1685.000000	13.822500
1684.000000	13.857300
1683.000000	13.953200
1682.000000	14.114700
1681.000000	14.360000
1680.000000	14.672200
1679.000000	15.008800
1678.000000	15.312900
1677.000000	15.636700
1676.000000	15.890100
1675.000000	16.153000
1674.000000	16.377600
1673.000000	16.574900
1672.000000	16.714800
1671.000000	16.856800
1670.000000	16.962600
1669.000000	17.081700
1668.000000	17.150400
1667.000000	17.212500
1666.000000	17.277100
1665.000000	17.326800
1664.000000	17.357500
1663.000000	17.387600
1662.000000	17.443100
1661.000000	17.472300
1660.000000	17.497000
1659.000000	17.499400
1658.000000	17.521600
1657.000000	17.512800
1656.000000	17.527500
1655.000000	17.508000
1654.000000	17.490100
1653.000000	17.485700
1652.000000	17.472600
1651.000000	17.450000
1650.000000	17.406300
1649.000000	17.398400
1648.000000	17.363100
1647.000000	17.346700
1646.000000	17.290700
1645.000000	17.264300
1644.000000	17.226100
1643.000000	17.171500
1642.000000	17.129900
1641.000000	17.105400
1640.000000	17.051000
1639.000000	17.017800
1638.000000	16.968100
1637.000000	16.919400
1636.000000	16.859100
1635.000000	16.801400
1634.000000	16.768800
1633.000000	16.735300
1632.000000	16.680100
1631.000000	16.613600
1630.000000	16.560700
1629.000000	16.506300
1628.000000	16.455000
1627.000000	16.421000
1626.000000	16.369900
1625.000000	16.316700
1624.000000	16.251300
1623.000000	16.212900
1622.000000	16.168100
1621.000000	16.127900
1620.000000	16.065900
1619.000000	16.018600
1618.000000	15.986600
1617.000000	15.945600
1616.000000	15.882100
1615.000000	15.850000
1614.000000	15.825000
1613.000000	15.778100
1612.000000	15.732600
1611.000000	15.681900
1610.000000	15.661200
1609.000000	15.613300
1608.000000	15.570800
1607.000000	15.529500
1606.000000	15.488800
1605.000000	15.455000
1604.000000	15.431300
1603.000000	15.396500
1602.000000	15.368600
1601.000000	15.328200
1600.000000	15.296300
1599.000000	15.269700
1598.000000	15.251200
1597.000000	15.220300
1596.000000	15.202100
1595.000000	15.169300
1594.000000	15.142600
1593.000000	15.139200
1592.000000	15.123500
1591.000000	15.094400
1590.000000	15.081000
1589.000000	15.076500
1588.000000	15.063100
1587.000000	15.044900
1586.000000	15.032100
1585.000000	15.019900
1584.000000	15.017000
1583.000000	14.999900
1582.000000	14.974700
1581.000000	14.965800
1580.000000	14.969800
1579.000000	14.975500
1578.000000	14.968800
1577.000000	14.971200
1576.000000	14.976600
1575.000000	14.972900
1574.000000	14.974500
1573.000000	14.981600
1572.000000	14.985500
1571.000000	15.004000
1570.000000	15.022500
1569.000000	15.035100
1568.000000	15.058500
1567.000000	15.076800
1566.000000	15.095600
1565.000000	15.116300
1564.000000	15.133800
1563.000000	15.159500
1562.000000	15.189900
1561.000000	15.194500
1560.000000	15.201500
1559.000000	15.220200
1558.000000	15.230800
1557.000000	15.239800
1556.000000	15.240400
1555.000000	15.236500
1554.000000	15.231300
1553.000000	15.233300
1552.000000	15.232700
1551.000000	15.221900
1550.000000	15.218800
1549.000000	15.205400
1548.000000	15.202100
1547.000000	15.191500
1546.000000	15.171300
1545.000000	15.139600
1544.000000	15.119600
1543.000000	15.127500
1542.000000	15.126000
1541.000000	15.104000
1540.000000	15.092800
1539.000000	15.091800
1538.000000	15.089700
1537.000000	15.080600
1536.000000	15.081800
1535.000000	15.091200
1534.000000	15.086000
1533.000000	15.085800
1532.000000	15.090500
1531.000000	15.082500
1530.000000	15.078000
1529.000000	15.069500
1528.000000	15.081500
1527.000000	15.064100
1526.000000	15.059900
1525.000000	15.065300
1524.000000	15.065800
1523.000000	15.061300
1522.000000	15.055800
1521.000000	15.077200
1520.000000	15.063300
1519.000000	15.045000
1518.000000	15.049600
1517.000000	15.051300
1516.000000	15.051500
1515.000000	15.040000
1514.000000	15.048600
1513.000000	15.045200
1512.000000	15.055400
1511.000000	15.050200
1510.000000	15.049500
1509.000000	15.034200
1508.000000	15.033900
1507.000000	15.038500
1506.000000	15.042700
1505.000000	15.044000
1504.000000	15.040300
1503.000000	15.051300
1502.000000	15.074300
1501.000000	15.068300
1500.000000	15.057900
1499.000000	15.071200
1498.000000	15.067200
1497.000000	15.082600
1496.000000	15.115600
1495.000000	15.126300
1494.000000	15.132400
1493.000000	15.135100
1492.000000	15.165700
1491.000000	15.178100
1490.000000	15.189700
1489.000000	15.218800
1488.000000	15.240100
1487.000000	15.241000
1486.000000	15.257200
1485.000000	15.286300
1484.000000	15.289000
1483.000000	15.319100
1482.000000	15.346800
1481.000000	15.359000
1480.000000	15.381000
1479.000000	15.409000
1478.000000	15.428300
1477.000000	15.475300
1476.000000	15.499300
1475.000000	15.527100
1474.000000	15.554000
1473.000000	15.601500
1472.000000	15.619900
1471.000000	15.662100
1470.000000	15.680900
1469.000000	15.700900
1468.000000	15.730400
1467.000000	15.756900
1466.000000	15.780400
1465.000000	15.816400
1464.000000	15.839700
1463.000000	15.890600
1462.000000	15.927500
1461.000000	15.956200
1460.000000	15.982700
1459.000000	16.012400
1458.000000	16.087300
1457.000000	16.140800
1456.000000	16.195800
1455.000000	16.259100
1454.000000	16.298600
1453.000000	16.364500
1452.000000	16.428400
1451.000000	16.491400
1450.000000	16.543700
1449.000000	16.610900
1448.000000	16.667700
1447.000000	16.722100
1446.000000	16.832800
1445.000000	16.901900
1444.000000	16.975000
1443.000000	17.007700
1442.000000	17.096800
1441.000000	17.173600
1440.000000	17.248200
1439.000000	17.323000
1438.000000	17.398900
1437.000000	17.466600
1436.000000	17.500300
1435.000000	17.568000
1434.000000	17.670500
1433.000000	17.723800
1432.000000	17.806800
1431.000000	17.878500
1430.000000	17.931700
1429.000000	18.023200
1428.000000	18.140500
1427.000000	18.227200
1426.000000	18.340900
1425.000000	18.472600
1424.000000	18.613400
1423.000000	18.706500
1422.000000	18.834800
1421.000000	18.968300
1420.000000	19.068100
1419.000000	19.203800
1418.000000	19.310300
1417.000000	19.384700
1416.000000	19.492800
1415.000000	19.622800
1414.000000	19.724100
1413.000000	19.812500
1412.000000	19.862800
1411.000000	19.999100
1410.000000	20.121300
1409.000000	20.302300
1408.000000	20.482100
1407.000000	20.662700
1406.000000	20.849100
1405.000000	21.062500
1404.000000	21.239800
1403.000000	21.461400
1402.000000	21.630400
1401.000000	21.890000
1400.000000	22.024000
1399.000000	22.096100
1398.000000	22.122000
1397.000000	22.189900
1396.000000	22.267000
1395.000000	22.242700
1394.000000	22.200500
1393.000000	22.147000
1392.000000	22.125500
1391.000000	22.104400
1390.000000	22.088900
1389.000000	22.130300
1388.000000	22.237100
1387.000000	22.279900
1386.000000	22.399900
1385.000000	22.584600
1384.000000	22.823700
1383.000000	23.045500
1382.000000	23.276800
1381.000000	23.477100
1380.000000	23.622100
1379.000000	23.814400
1378.000000	23.988500
1377.000000	24.235600
1376.000000	24.519300
1375.000000	24.870000
1374.000000	25.263100
1373.000000	25.748200
1372.000000	26.225700
1371.000000	26.678100
1370.000000	27.054800
1369.000000	27.391600
1368.000000	27.726200
1367.000000	27.982400
1366.000000	28.196400
1365.000000	28.407100
1364.000000	28.584500
1363.000000	28.744600
1362.000000	28.887900
1361.000000	28.996200
1360.000000	29.032700
1359.000000	29.071200
1358.000000	29.145500
1357.000000	29.285200
1356.000000	29.534600
1355.000000	29.906800
1354.000000	30.377100
1353.000000	30.901400
1352.000000	31.445600
1351.000000	31.993700
1350.000000	32.492800
1349.000000	32.937100
1348.000000	33.359100
1347.000000	33.732100
1346.000000	34.080800
1345.000000	34.421500
1344.000000	34.764400
1343.000000	35.071900
1342.000000	35.358500
1341.000000	35.638700
1340.000000	35.906700
1339.000000	36.142400
1338.000000	36.380500
1337.000000	36.610500
1336.000000	36.811200
1335.000000	37.011800
1334.000000	37.222600
1333.000000	37.417900
1332.000000	37.592400
1331.000000	37.748400
1330.000000	37.906200
1329.000000	38.061600
1328.000000	38.195200
1327.000000	38.321500
1326.000000	38.436100
1325.000000	38.555500
1324.000000	38.666200
1323.000000	38.768100
1322.000000	38.875600
1321.000000	38.970200
1320.000000	39.045800
1319.000000	39.135000
1318.000000	39.218100
1317.000000	39.292400
1316.000000	39.357600
1315.000000	39.426900
1314.000000	39.490000
1313.000000	39.535900
1312.000000	39.591900
1311.000000	39.642500
1310.000000	39.682600
1309.000000	39.717300
1308.000000	39.748900
1307.000000	39.778200
1306.000000	39.806100
1305.000000	39.826900
1304.000000	39.822800
1303.000000	39.813100
1302.000000	39.804800
1301.000000	39.793200
1300.000000	39.780100
1299.000000	39.761900
1298.000000	39.736200
1297.000000	39.719600
1296.000000	39.698900
1295.000000	39.664300
1294.000000	39.632000
1293.000000	39.611200
1292.000000	39.587500
1291.000000	39.527300
1290.000000	39.473600
1289.000000	39.435800
1288.000000	39.377700
1287.000000	39.311700
1286.000000	39.247600
1285.000000	39.164800
1284.000000	39.082000
1283.000000	39.001400
1282.000000	38.929400
1281.000000	38.852000
1280.000000	38.751900
1279.000000	38.670500
1278.000000	38.602300
1277.000000	38.539400
1276.000000	38.459800
1275.000000	38.385200
1274.000000	38.324800
1273.000000	38.268800
1272.000000	38.212200
1271.000000	38.148700
1270.000000	38.088000
1269.000000	38.032400
1268.000000	37.975700
1267.000000	37.928900
1266.000000	37.859300
1265.000000	37.792000
1264.000000	37.732100
1263.000000	37.683100
1262.000000	37.628300
1261.000000	37.577700
1260.000000	37.522300
1259.000000	37.453100
1258.000000	37.390900
1257.000000	37.330200
1256.000000	37.251700
1255.000000	37.174800
1254.000000	37.102100
1253.000000	37.028300
1252.000000	36.940500
1251.000000	36.855900
1250.000000	36.770500
1249.000000	36.667100
1248.000000	36.563500
1247.000000	36.455800
1246.000000	36.355600
1245.000000	36.219000
1244.000000	36.080000
1243.000000	35.938100
1242.000000	35.791900
1241.000000	35.657300
1240.000000	35.489900
1239.000000	35.335800
1238.000000	35.177700
1237.000000	35.016900
1236.000000	34.843800
1235.000000	34.671000
1234.000000	34.484100
1233.000000	34.301700
1232.000000	34.119300
1231.000000	33.932600
1230.000000	33.744100
1229.000000	33.549200
1228.000000	33.355000
1227.000000	33.163900
1226.000000	32.970400
1225.000000	32.782500
1224.000000	32.586700
1223.000000	32.405100
1222.000000	32.197100
1221.000000	32.038600
1220.000000	31.855700
1219.000000	31.693500
1218.000000	31.545900
1217.000000	31.403800
1216.000000	31.290100
1215.000000	31.174200
1214.000000	31.072000
1213.000000	30.960200
1212.000000	30.875500
1211.000000	30.791200
1210.000000	30.716600
1209.000000	30.656400
1208.000000	30.601900
1207.000000	30.550600
1206.000000	30.522500
1205.000000	30.517400
1204.000000	30.516900
1203.000000	30.508000
1202.000000	30.521700
1201.000000	30.512500
1200.000000	30.498500
1199.000000	30.456700
1198.000000	30.371100
1197.000000	30.271800
1196.000000	30.140100
1195.000000	29.944700
1194.000000	29.673800
1193.000000	29.341300
1192.000000	28.945500
1191.000000	28.541800
1190.000000	28.137700
1189.000000	27.815600
1188.000000	27.552600
1187.000000	27.404900
1186.000000	27.386600
1185.000000	27.445600
1184.000000	27.647500
1183.000000	27.947400
1182.000000	28.345200
1181.000000	28.825300
1180.000000	29.315300
1179.000000	29.749800
1178.000000	30.186500
1177.000000	30.546900
1176.000000	30.853600
1175.000000	31.131300
1174.000000	31.411500
1173.000000	31.700700
1172.000000	32.039600
1171.000000	32.367500
1170.000000	32.720800
1169.000000	33.043800
1168.000000	33.387500
1167.000000	33.736600
1166.000000	34.088200
1165.000000	34.431200
1164.000000	34.801100
1163.000000	35.176700
1162.000000	35.549800
1161.000000	35.905200
1160.000000	36.250800
1159.000000	36.595100
1158.000000	36.927000
1157.000000	37.199500
1156.000000	37.456200
1155.000000	37.653500
1154.000000	37.778200
1153.000000	37.842900
1152.000000	37.863600
1151.000000	37.855800
1150.000000	37.831700
1149.000000	37.805500
1148.000000	37.778500
1147.000000	37.791500
1146.000000	37.880600
1145.000000	38.057400
1144.000000	38.278500
1143.000000	38.576900
1142.000000	38.907900
1141.000000	39.239600
1140.000000	39.570400
1139.000000	39.929600
1138.000000	40.305500
1137.000000	40.673900
1136.000000	41.069600
1135.000000	41.431400
1134.000000	41.764400
1133.000000	42.038100
1132.000000	42.323200
1131.000000	42.607600
1130.000000	42.838800
1129.000000	43.026500
1128.000000	43.180700
1127.000000	43.310100
1126.000000	43.404200
1125.000000	43.475700
1124.000000	43.547200
1123.000000	43.616100
1122.000000	43.670900
1121.000000	43.704400
1120.000000	43.746300
1119.000000	43.777500
1118.000000	43.818500
1117.000000	43.823700
1116.000000	43.819600
1115.000000	43.822300
1114.000000	43.821700
1113.000000	43.817600
1112.000000	43.820700
1111.000000	43.820200
1110.000000	43.822000
1109.000000	43.804000
1108.000000	43.792000
1107.000000	43.795500
1106.000000	43.794900
1105.000000	43.804300
1104.000000	43.808400
1103.000000	43.793500
1102.000000	43.786200
1101.000000	43.795700
1100.000000	43.788500
1099.000000	43.770900
1098.000000	43.746900
1097.000000	43.725000
1096.000000	43.711800
1095.000000	43.702100
1094.000000	43.682600
1093.000000	43.652200
1092.000000	43.644600
1091.000000	43.617600
1090.000000	43.582500
1089.000000	43.555500
1088.000000	43.510100
1087.000000	43.469000
1086.000000	43.416200
1085.000000	43.371200
1084.000000	43.333000
1083.000000	43.295900
1082.000000	43.258200
1081.000000	43.217300
1080.000000	43.177700
1079.000000	43.137000
1078.000000	43.108400
1077.000000	43.059000
1076.000000	43.019400
1075.000000	42.993800
1074.000000	42.945600
1073.000000	42.913700
1072.000000	42.876300
1071.000000	42.829600
1070.000000	42.791200
1069.000000	42.754900
1068.000000	42.710400
1067.000000	42.664200
1066.000000	42.617100
1065.000000	42.579600
1064.000000	42.533600
1063.000000	42.486300
1062.000000	42.445200
1061.000000	42.402200
1060.000000	42.361800
1059.000000	42.313000
1058.000000	42.265900
1057.000000	42.224700
1056.000000	42.179800
1055.000000	42.137300
1054.000000	42.108900
1053.000000	42.072500
1052.000000	42.033100
1051.000000	42.005900
1050.000000	42.000700
1049.000000	41.996100
1048.000000	41.980700
1047.000000	41.983600
1046.000000	42.001000
1045.000000	42.004000
1044.000000	42.002900
1043.000000	42.012200
1042.000000	42.026900
1041.000000	42.041600
1040.000000	42.052100
1039.000000	42.070600
1038.000000	42.076900
1037.000000	42.077600
1036.000000	42.087500
1035.000000	42.089800
1034.000000	42.091200
1033.000000	42.089800
1032.000000	42.098100
1031.000000	42.105600
1030.000000	42.116200
1029.000000	42.111400
1028.000000	42.102700
1027.000000	42.113200
1026.000000	42.111900
1025.000000	42.102500
1024.000000	42.084800
1023.000000	42.064000
1022.000000	42.061200
1021.000000	42.054300
1020.000000	42.047200
1019.000000	42.034400
1018.000000	42.014600
1017.000000	41.995100
1016.000000	41.994100
1015.000000	41.999000
1014.000000	42.011500
1013.000000	42.026500
1012.000000	42.047300
1011.000000	42.079400
1010.000000	42.122500
1009.000000	42.180500
1008.000000	42.237600
1007.000000	42.289600
1006.000000	42.348000
1005.000000	42.398200
1004.000000	42.448500
1003.000000	42.503300
1002.000000	42.569600
1001.000000	42.628700
1000.000000	42.695900
999.000000	42.760100
998.000000	42.828200
997.000000	42.904600
996.000000	42.976300
995.000000	43.063100
994.000000	43.144200
993.000000	43.223400
992.000000	43.311200
991.000000	43.397600
990.000000	43.498500
989.000000	43.594600
988.000000	43.694400
987.000000	43.803700
986.000000	43.927600
985.000000	44.042400
984.000000	44.166700
983.000000	44.309600
982.000000	44.450200
981.000000	44.581500
980.000000	44.723600
979.000000	44.865500
978.000000	44.989300
977.000000	45.125100
976.000000	45.262100
975.000000	45.406000
974.000000	45.548600
973.000000	45.695600
972.000000	45.815000
971.000000	45.956700
970.000000	46.097400
969.000000	46.230400
968.000000	46.377100
967.000000	46.522200
966.000000	46.665000
965.000000	46.802900
964.000000	46.941000
963.000000	47.113500
962.000000	47.262700
961.000000	47.411900
960.000000	47.575200
959.000000	47.733500
958.000000	47.881000
957.000000	48.041200
956.000000	48.190100
955.000000	48.329400
954.000000	48.467500
953.000000	48.571800
952.000000	48.709600
951.000000	48.810800
950.000000	48.904400
949.000000	48.992900
948.000000	49.099100
947.000000	49.208500
946.000000	49.306300
945.000000	49.390600
944.000000	49.479100
943.000000	49.599300
942.000000	49.691500
941.000000	49.808100
940.000000	49.922600
939.000000	50.045100
938.000000	50.165900
937.000000	50.289600
936.000000	50.399700
935.000000	50.523100
934.000000	50.651600
933.000000	50.770400
932.000000	50.871600
931.000000	51.004000
930.000000	51.131000
929.000000	51.258200
928.000000	51.398100
927.000000	51.532600
926.000000	51.696900
925.000000	51.819400
924.000000	51.994400
923.000000	52.153400
922.000000	52.310700
921.000000	52.504000
920.000000	52.666200
919.000000	52.840000
918.000000	53.014100
917.000000	53.214000
916.000000	53.395500
915.000000	53.570900
914.000000	53.762100
913.000000	53.935200
912.000000	54.114600
911.000000	54.302200
910.000000	54.487800
909.000000	54.664600
908.000000	54.872400
907.000000	55.057500
906.000000	55.268000
905.000000	55.461400
904.000000	55.659200
903.000000	55.885600
902.000000	56.103100
901.000000	56.302000
900.000000	56.511100
899.000000	56.706700
898.000000	56.908000
897.000000	57.107700
896.000000	57.295700
895.000000	57.481400
894.000000	57.651800
893.000000	57.815100
892.000000	57.975700
891.000000	58.127400
890.000000	58.273000
889.000000	58.424900
888.000000	58.571500
887.000000	58.702200
886.000000	58.830600
885.000000	58.972200
884.000000	59.109400
883.000000	59.245700
882.000000	59.365900
881.000000	59.501100
880.000000	59.644600
879.000000	59.761900
878.000000	59.912600
877.000000	60.046200
876.000000	60.189500
875.000000	60.312200
874.000000	60.465600
873.000000	60.595800
872.000000	60.734300
871.000000	60.881000
870.000000	61.013700
869.000000	61.154100
868.000000	61.316500
867.000000	61.440800
866.000000	61.583500
865.000000	61.715900
864.000000	61.823700
863.000000	61.927300
862.000000	62.043400
861.000000	62.120100
860.000000	62.188100
859.000000	62.260300
858.000000	60.499305
857.000000	61.005843
856.000000	60.752138
855.000000	60.804662
854.000000	60.572277
853.000000	61.039373
852.000000	61.335136
851.000000	61.120969
850.000000	61.544166
849.000000	61.550562
848.000000	61.656385
847.000000	61.998664
846.000000	61.824133
845.000000	62.023569
844.000000	61.980155
843.000000	62.378931
842.000000	62.483979
841.000000	62.545903
840.000000	62.769179
839.000000	62.901070
838.000000	63.038680
837.000000	63.041781
836.000000	63.191116
835.000000	63.537465
834.000000	63.659084
833.000000	63.719264
832.000000	63.838751
831.000000	63.830417
830.000000	63.913080
829.000000	64.028981
828.000000	64.100306
827.000000	64.133933
826.000000	64.154283
825.000000	64.148566
824.000000	64.156415
823.000000	64.187523
822.000000	64.311759
821.000000	64.272123
820.000000	64.102438
819.000000	64.008631
818.000000	64.016771
817.000000	63.853481
816.000000	63.769365
815.000000	63.594737
814.000000	63.385513
813.000000	63.305952
812.000000	63.142468
811.000000	62.948071
810.000000	62.820831
809.000000	62.669654
808.000000	62.623332
807.000000	62.396859
806.000000	62.157496
805.000000	62.031322
804.000000	61.883828
803.000000	61.788859
802.000000	61.715015
801.000000	61.697765
800.000000	61.630511
799.000000	61.455399
798.000000	61.379810
797.000000	61.335136
796.000000	61.283193
795.000000	61.201209
794.000000	61.179114
793.000000	61.154306
792.000000	61.199465
791.000000	61.202275
790.000000	61.255671
789.000000	61.199465
788.000000	61.058851
787.000000	61.111860
786.000000	61.198786
785.000000	61.127075
784.000000	61.128625
783.000000	61.051777
782.000000	61.076779
781.000000	61.056041
780.000000	61.026000
779.000000	60.961362
778.000000	60.875405
777.000000	60.838967
776.000000	60.793130
775.000000	60.732659
774.000000	60.702327
773.000000	60.529637
772.000000	60.470911
771.000000	60.454340
770.000000	60.392900
769.000000	60.311788
768.000000	60.240561
767.000000	60.163907
766.000000	60.096265
765.000000	60.121268
764.000000	60.074073
763.000000	59.965827
762.000000	59.857775
761.000000	59.773853
760.000000	59.720263
759.000000	59.659017
758.000000	59.532940
757.000000	59.385446
756.000000	59.295903
755.000000	59.205682
754.000000	59.159360
753.000000	59.039582
752.000000	58.938991
751.000000	58.816306
750.000000	58.638286
749.000000	58.558725
748.000000	58.440497
747.000000	58.331573
746.000000	58.149095
745.000000	57.949949
744.000000	57.767084
743.000000	57.495258
742.000000	57.272273
741.000000	57.104622
740.000000	56.826690
739.000000	56.517457
738.000000	56.242335
737.000000	55.954228
736.000000	55.651876
735.000000	55.277036
734.000000	54.946774
733.000000	54.619225
732.000000	54.232369
731.000000	53.860921
730.000000	53.471933
729.000000	53.100097
728.000000	52.773033
727.000000	52.417187
726.000000	52.072680
725.000000	51.732727
724.000000	51.436576
723.000000	51.224348
722.000000	50.928294
721.000000	50.639896
720.000000	50.407414
719.000000	50.219995
718.000000	50.050503
717.000000	49.866765
716.000000	49.726152
715.000000	49.600462
714.000000	49.514118
713.000000	49.462563
712.000000	49.384358
711.000000	49.319914
710.000000	49.309836
709.000000	49.323112
708.000000	49.341912
707.000000	49.408876
706.000000	49.527006
705.000000	49.608797
704.000000	49.747472
703.000000	49.852617
702.000000	49.958925
701.000000	50.101573
700.000000	50.248582
699.000000	50.341711
698.000000	50.424276
697.000000	50.567312
696.000000	50.700755
695.000000	50.802314
694.000000	50.840302
693.000000	50.854354
692.000000	50.882166
691.000000	50.906878
690.000000	50.909591
689.000000	50.919960
688.000000	50.911142
687.000000	50.866952
686.000000	50.856098
685.000000	50.858424
684.000000	50.780219
683.000000	50.731474
682.000000	50.693099
681.000000	50.573515
680.000000	50.440266
679.000000	50.266123
678.000000	50.124540
677.000000	49.929755
676.000000	49.673337
675.000000	49.381063
674.000000	49.021147
673.000000	48.622662
672.000000	48.219719
671.000000	47.689536
670.000000	47.120977
669.000000	46.605330
668.000000	46.038322
667.000000	45.378573
666.000000	44.773287
665.000000	44.171586
664.000000	43.556899
663.000000	42.897150
662.000000	42.259980
661.000000	41.654209
660.000000	41.073731
659.000000	40.504300
658.000000	39.955898
657.000000	39.441608
656.000000	38.994863
655.000000	38.590272
654.000000	38.202447
653.000000	37.862107
652.000000	37.587857
651.000000	37.378730
650.000000	37.250715
649.000000	37.203133
648.000000	37.255269
647.000000	37.413908
646.000000	37.717811
645.000000	38.100209
644.000000	38.639211
643.000000	39.272019
642.000000	40.020924
641.000000	40.842024
640.000000	41.768464
639.000000	42.723103
638.000000	43.674254
637.000000	44.674731
636.000000	45.646427
635.000000	46.623258
634.000000	47.545046
633.000000	48.514900
632.000000	49.395308
631.000000	50.227360
630.000000	51.093425
629.000000	51.898342
628.000000	52.667888
627.000000	53.391015
626.000000	54.166084
625.000000	54.881846
624.000000	55.621834
623.000000	56.350000
622.000000	56.989689
621.000000	57.727449
620.000000	58.346400
619.000000	58.963606
618.000000	59.597868
617.000000	60.101983
616.000000	60.670057
615.000000	61.143646
614.000000	61.603474
613.000000	62.058456
612.000000	62.428451
611.000000	62.782261
610.000000	63.118919
609.000000	63.448891
608.000000	63.669356
607.000000	63.938469
606.000000	64.162230
605.000000	64.348293
604.000000	64.567111
603.000000	64.760539
602.000000	64.906385
601.000000	65.057756
600.000000	65.169200
599.000000	65.326578
598.000000	65.439379
597.000000	65.552955
596.000000	65.608192
595.000000	65.709267
594.000000	65.751713
593.000000	65.802008
592.000000	65.815963
591.000000	65.962391
590.000000	65.982354
589.000000	66.000572
588.000000	66.016853
587.000000	66.017337
586.000000	66.021989
585.000000	65.990882
584.000000	66.020826
583.000000	65.966558
582.000000	65.950762
581.000000	65.880697
580.000000	65.839415
579.000000	65.780495
578.000000	65.666143
577.000000	65.571949
576.000000	65.501206
575.000000	65.344021
574.000000	65.234903
573.000000	65.109698
572.000000	64.915301
571.000000	64.757535
570.000000	64.621573
569.000000	64.473110
568.000000	64.333563
567.000000	64.120075
566.000000	63.942152
565.000000	63.756961
564.000000	63.552873
563.000000	63.354599
562.000000	63.133552
561.000000	62.852907
560.000000	62.592225
559.000000	62.203431
558.000000	61.921816
557.000000	61.576243
556.000000	61.202857
555.000000	60.844879
554.000000	60.448816
553.000000	60.009048
552.000000	59.537398
551.000000	59.074856
550.000000	58.536533
549.000000	57.981929
548.000000	57.403970
547.000000	56.764378
546.000000	56.067320
545.000000	55.377820
544.000000	54.569899
543.000000	53.765079
542.000000	52.901339
541.000000	51.944180
540.000000	50.957561
539.000000	49.897970
538.000000	48.836150
537.000000	47.723357
536.000000	46.579068
535.000000	45.442048
534.000000	44.290007
533.000000	43.114805
532.000000	41.943673
531.000000	40.812177
530.000000	39.727390
529.000000	38.653069
528.000000	37.632919
527.000000	36.660546
526.000000	35.720636
525.000000	34.829180
524.000000	33.981236
523.000000	33.176416
522.000000	32.437591
521.000000	31.741695
520.000000	31.109468
519.000000	30.522884
518.000000	29.976324
517.000000	29.503898
516.000000	29.075371
515.000000	28.658764
514.000000	28.247390
513.000000	27.859177
512.000000	27.477263
511.000000	27.131205
510.000000	26.768867
509.000000	26.401101
508.000000	26.040410
507.000000	25.670609
506.000000	25.303135
505.000000	24.931784
504.000000	24.585532
503.000000	24.241800
502.000000	23.899812
501.000000	23.580597
500.000000	23.275240
499.000000	22.978508
498.000000	22.738855
497.000000	22.522363
496.000000	22.325640
495.000000	22.158667
494.000000	21.993536
493.000000	21.852729
492.000000	21.752720
491.000000	21.661821
490.000000	21.602513
489.000000	21.571599
488.000000	21.533902
487.000000	21.568595
486.000000	21.574119
485.000000	21.600575
484.000000	21.637884
483.000000	21.676066
482.000000	21.724908
481.000000	21.766094
480.000000	21.802725
479.000000	21.826758
478.000000	21.844686
477.000000	21.853311
476.000000	21.877247
475.000000	21.887907
474.000000	21.895272
473.000000	21.901765
472.000000	21.912909
471.000000	21.911746
470.000000	21.908548
469.000000	21.894884
468.000000	21.865909
467.000000	21.825207
466.000000	21.793131
465.000000	21.755046
464.000000	21.703297
463.000000	21.643408
462.000000	21.577123
461.000000	21.499112
460.000000	21.408504
459.000000	21.306460
458.000000	21.214300
457.000000	21.107314
456.000000	20.965538
455.000000	20.833064
454.000000	20.701754
453.000000	20.533328
452.000000	20.342517
451.000000	20.164788
450.000000	19.980760
449.000000	19.778028
448.000000	19.569289
447.000000	19.350761
446.000000	19.115178
445.000000	18.869420
444.000000	18.614261
443.000000	18.332647
442.000000	18.020894
441.000000	17.718154
440.000000	17.404851
439.000000	17.047455
438.000000	16.719712
437.000000	16.388675
436.000000	16.025367
435.000000	15.650818
434.000000	15.268807
433.000000	14.883792
432.000000	14.490055
431.000000	14.096028
430.000000	13.716052
429.000000	13.328421
428.000000	12.926737
427.000000	12.545502
426.000000	12.172794
425.000000	11.795144
424.000000	11.419529
423.000000	11.055349
422.000000	10.711326
421.000000	10.391530
420.000000	10.074157
419.000000	9.763373
418.000000	9.478464
417.000000	9.208866
416.000000	8.953029
415.000000	8.715120
414.000000	8.487096
413.000000	8.261107
412.000000	8.072621
411.000000	7.907199
410.000000	7.732281
409.000000	7.557749
408.000000	7.406282
407.000000	7.280787
406.000000	7.160718
405.000000	7.055767
404.000000	6.947230
403.000000	6.849837
402.000000	6.773668
401.000000	6.697789
400.000000	6.617355
399.000000	6.547485
398.000000	6.485464
397.000000	6.416465
396.000000	6.350665
395.000000	6.301048
394.000000	6.255307
393.000000	6.212377
392.000000	6.170707
391.000000	6.135335
390.000000	6.096863
389.000000	6.063817
388.000000	6.029318
387.000000	5.974953
386.000000	5.968266
385.000000	5.927274
384.000000	5.880758
383.000000	5.847422
382.000000	5.813311
381.000000	5.796061
380.000000	5.785401
379.000000	5.747704
378.000000	5.724446
377.000000	5.703902
376.000000	5.737238
375.000000	5.744409
374.000000	5.649245
373.000000	5.580829
372.000000	5.610773
371.000000	5.544294
370.000000	5.607672
369.000000	5.628701
368.000000	5.595171
367.000000	5.601761
366.000000	5.549527
365.000000	5.512799
364.000000	5.476459
363.000000	5.509214
362.000000	5.513865
361.000000	5.537704
360.000000	5.509310
359.000000	5.470547
358.000000	5.454558
357.000000	5.446708
356.000000	5.378388
355.000000	5.321697
354.000000	5.346214
353.000000	5.294950
352.000000	5.255703
351.000000	5.313266
350.000000	5.378485
349.000000	5.254249
348.000000	5.255412
347.000000	5.263843
346.000000	5.221979
345.000000	5.303672
344.000000	5.228568
343.000000	5.127590
342.000000	5.235352
341.000000	5.176044
340.000000	5.223917
339.000000	5.232154
338.000000	5.228181
337.000000	5.185444
336.000000	5.281286
335.000000	5.215292
334.000000	5.171199
333.000000	5.221591
332.000000	5.083594
331.000000	5.109759
330.000000	5.220331
329.000000	5.398157
328.000000	5.266459
327.000000	5.233317
326.000000	5.276247
325.000000	5.236224
324.000000	5.233898
323.000000	5.314526
322.000000	5.280511
321.000000	5.519777
320.000000	5.284581
319.000000	5.332260
318.000000	5.605249
317.000000	5.397866
316.000000	5.236612
315.000000	5.214420
314.000000	5.241651
313.000000	5.226339
312.000000	5.238065
311.000000	5.268010
310.000000	5.246109
309.000000	5.239131
308.000000	5.262195
307.000000	5.279154
306.000000	5.296791
305.000000	5.291849
304.000000	5.357068
303.000000	5.322763
302.000000	5.288264
301.000000	5.335748
300.000000	5.354742
299.000000	5.309293
298.000000	5.331484
297.000000	5.336136
296.000000	5.342920
295.000000	5.370732
294.000000	5.365015
293.000000	5.362301
292.000000	5.400677
291.000000	5.384493
290.000000	5.411724
289.000000	5.414244
288.000000	5.438083
287.000000	5.480626
286.000000	5.430718
285.000000	5.425098
284.000000	5.435660
283.000000	5.441475
282.000000	5.473842
281.000000	5.484405
280.000000	5.424613
279.000000	5.521230
278.000000	5.555148
277.000000	5.557764
276.000000	5.558830
275.000000	5.556311
274.000000	5.567261
273.000000	5.550593
272.000000	5.585092
271.000000	5.619592
270.000000	5.603989
269.000000	5.633740
268.000000	5.666107
267.000000	5.691982
266.000000	5.748770
265.000000	5.727450
264.000000	5.764275
263.000000	5.759720
262.000000	5.775323
261.000000	5.798290
260.000000	5.849942
259.000000	5.873781
258.000000	5.910412
257.000000	5.913223
256.000000	5.918068
255.000000	6.011487
254.000000	5.961483
253.000000	5.949078
252.000000	5.982996
251.000000	5.951501
250.000000	5.987454
