PE UV       SUBTECH     SPECTRUM    ASCII       PEDS        4.00        
   -1
CICIMAUCR0108-2.Sample.ASC
24/04/04
14:07:06.00
24/04/04
14:07:06.00
Vinicio Soto Monge
C. resplendens
250,000000
1
Lambda 1050
1050L1511233
PerkinElmer UV WinLab 6.3.2.0749 / 2.02.05 Lambda 900 UV/VIS/NIR, Aug  7 2015 09:38:08

0
0
3350/servo 860,8/2
0
0
UV/VIS
1
1
1
DoubleDePol,CommonBeamDepol,RBeamAtt,SBeamAtt,60mm sphere, WB InGaAs Detector
0
0
0
0
Program
Program
3350/servo 860,8/2
3350/0,2 860,8/0,2
3350/0,2 860,8/0,2
0
15.00
 
 
 
0
 
860,8
319,2
860,8
Front
100
on
S:100 R:100
0
0
0
0
 
0
 
 
 
0
 
 
0
0
0
0
0
 
 
 
 
0
0


0
0
#HDR
-1
-1
#GR
nm
%R
1.0
0.0
2500,000000
-1,000000
2251
8
68,305600
5,100600
#DATA
2500.000000	5.401100
2499.000000	5.417800
2498.000000	5.345800
2497.000000	5.257500
2496.000000	5.313700
2495.000000	5.353800
2494.000000	5.258200
2493.000000	5.317600
2492.000000	5.273200
2491.000000	5.308300
2490.000000	5.236400
2489.000000	5.215200
2488.000000	5.296500
2487.000000	5.284700
2486.000000	5.310100
2485.000000	5.256800
2484.000000	5.277600
2483.000000	5.215500
2482.000000	5.246900
2481.000000	5.272800
2480.000000	5.265200
2479.000000	5.212300
2478.000000	5.231800
2477.000000	5.222700
2476.000000	5.248500
2475.000000	5.251000
2474.000000	5.219200
2473.000000	5.234500
2472.000000	5.254500
2471.000000	5.246300
2470.000000	5.241300
2469.000000	5.245900
2468.000000	5.237900
2467.000000	5.256300
2466.000000	5.286500
2465.000000	5.268300
2464.000000	5.275400
2463.000000	5.310200
2462.000000	5.314700
2461.000000	5.360400
2460.000000	5.382600
2459.000000	5.387800
2458.000000	5.412700
2457.000000	5.425000
2456.000000	5.439600
2455.000000	5.460100
2454.000000	5.493200
2453.000000	5.512000
2452.000000	5.535600
2451.000000	5.580800
2450.000000	5.573000
2449.000000	5.595000
2448.000000	5.616000
2447.000000	5.674600
2446.000000	5.718700
2445.000000	5.758400
2444.000000	5.764400
2443.000000	5.797700
2442.000000	5.832700
2441.000000	5.841800
2440.000000	5.873400
2439.000000	5.909000
2438.000000	5.945400
2437.000000	5.952800
2436.000000	5.971800
2435.000000	5.995100
2434.000000	6.016900
2433.000000	6.039900
2432.000000	6.052400
2431.000000	6.074900
2430.000000	6.105400
2429.000000	6.112200
2428.000000	6.130300
2427.000000	6.155600
2426.000000	6.170800
2425.000000	6.170500
2424.000000	6.203600
2423.000000	6.228300
2422.000000	6.227700
2421.000000	6.252200
2420.000000	6.251800
2419.000000	6.265800
2418.000000	6.288900
2417.000000	6.308300
2416.000000	6.314500
2415.000000	6.330000
2414.000000	6.345100
2413.000000	6.344600
2412.000000	6.360000
2411.000000	6.381200
2410.000000	6.400700
2409.000000	6.410400
2408.000000	6.422700
2407.000000	6.429800
2406.000000	6.441200
2405.000000	6.441000
2404.000000	6.464500
2403.000000	6.492100
2402.000000	6.492900
2401.000000	6.518500
2400.000000	6.544600
2399.000000	6.551800
2398.000000	6.565300
2397.000000	6.577600
2396.000000	6.582600
2395.000000	6.579200
2394.000000	6.597100
2393.000000	6.611700
2392.000000	6.629200
2391.000000	6.630800
2390.000000	6.634400
2389.000000	6.639800
2388.000000	6.638300
2387.000000	6.661800
2386.000000	6.668400
2385.000000	6.661600
2384.000000	6.664800
2383.000000	6.675800
2382.000000	6.673500
2381.000000	6.658100
2380.000000	6.648200
2379.000000	6.653400
2378.000000	6.648800
2377.000000	6.649300
2376.000000	6.651600
2375.000000	6.634000
2374.000000	6.611000
2373.000000	6.596500
2372.000000	6.592700
2371.000000	6.581400
2370.000000	6.560700
2369.000000	6.539100
2368.000000	6.517500
2367.000000	6.499700
2366.000000	6.474800
2365.000000	6.442700
2364.000000	6.399200
2363.000000	6.356100
2362.000000	6.319600
2361.000000	6.290500
2360.000000	6.265800
2359.000000	6.224300
2358.000000	6.189100
2357.000000	6.174900
2356.000000	6.162700
2355.000000	6.141200
2354.000000	6.127300
2353.000000	6.116300
2352.000000	6.108400
2351.000000	6.125000
2350.000000	6.141400
2349.000000	6.155900
2348.000000	6.181200
2347.000000	6.198600
2346.000000	6.231000
2345.000000	6.254500
2344.000000	6.264300
2343.000000	6.296300
2342.000000	6.326900
2341.000000	6.343000
2340.000000	6.359800
2339.000000	6.355200
2338.000000	6.352100
2337.000000	6.351200
2336.000000	6.345300
2335.000000	6.338500
2334.000000	6.332300
2333.000000	6.311200
2332.000000	6.278100
2331.000000	6.261400
2330.000000	6.236300
2329.000000	6.194900
2328.000000	6.156900
2327.000000	6.112600
2326.000000	6.065000
2325.000000	6.029800
2324.000000	5.979800
2323.000000	5.921700
2322.000000	5.853600
2321.000000	5.787000
2320.000000	5.723500
2319.000000	5.660000
2318.000000	5.596400
2317.000000	5.516200
2316.000000	5.453000
2315.000000	5.398000
2314.000000	5.345800
2313.000000	5.283100
2312.000000	5.249000
2311.000000	5.207200
2310.000000	5.160100
2309.000000	5.128100
2308.000000	5.114500
2307.000000	5.100600
2306.000000	5.104800
2305.000000	5.122600
2304.000000	5.130300
2303.000000	5.144700
2302.000000	5.172100
2301.000000	5.188000
2300.000000	5.204300
2299.000000	5.237400
2298.000000	5.264600
2297.000000	5.279400
2296.000000	5.321200
2295.000000	5.328500
2294.000000	5.351000
2293.000000	5.345800
2292.000000	5.364400
2291.000000	5.368200
2290.000000	5.356600
2289.000000	5.352400
2288.000000	5.351800
2287.000000	5.340600
2286.000000	5.312100
2285.000000	5.309400
2284.000000	5.293900
2283.000000	5.261900
2282.000000	5.250700
2281.000000	5.235500
2280.000000	5.204900
2279.000000	5.181900
2278.000000	5.170500
2277.000000	5.163400
2276.000000	5.140200
2275.000000	5.120200
2274.000000	5.114700
2273.000000	5.117700
2272.000000	5.137900
2271.000000	5.125300
2270.000000	5.108300
2269.000000	5.145200
2268.000000	5.167400
2267.000000	5.183600
2266.000000	5.208500
2265.000000	5.230200
2264.000000	5.286600
2263.000000	5.332200
2262.000000	5.370800
2261.000000	5.428400
2260.000000	5.486200
2259.000000	5.548100
2258.000000	5.596800
2257.000000	5.677100
2256.000000	5.755700
2255.000000	5.824900
2254.000000	5.894800
2253.000000	5.940800
2252.000000	5.996100
2251.000000	6.057700
2250.000000	6.129000
2249.000000	6.162800
2248.000000	6.256000
2247.000000	6.271100
2246.000000	6.329900
2245.000000	6.379600
2244.000000	6.422800
2243.000000	6.464900
2242.000000	6.507800
2241.000000	6.516000
2240.000000	6.562900
2239.000000	6.601200
2238.000000	6.615200
2237.000000	6.650200
2236.000000	6.668400
2235.000000	6.680700
2234.000000	6.685800
2233.000000	6.676100
2232.000000	6.699100
2231.000000	6.696000
2230.000000	6.702200
2229.000000	6.695900
2228.000000	6.703100
2227.000000	6.635100
2226.000000	6.637100
2225.000000	6.597600
2224.000000	6.576400
2223.000000	6.545700
2222.000000	6.508600
2221.000000	6.473800
2220.000000	6.447000
2219.000000	6.406200
2218.000000	6.370000
2217.000000	6.321400
2216.000000	6.281100
2215.000000	6.275400
2214.000000	6.255800
2213.000000	6.245800
2212.000000	6.252900
2211.000000	6.235600
2210.000000	6.259600
2209.000000	6.288500
2208.000000	6.311000
2207.000000	6.371700
2206.000000	6.413200
2205.000000	6.494700
2204.000000	6.571800
2203.000000	6.648500
2202.000000	6.728300
2201.000000	6.840100
2200.000000	6.929300
2199.000000	7.039000
2198.000000	7.168900
2197.000000	7.257100
2196.000000	7.362400
2195.000000	7.482200
2194.000000	7.568800
2193.000000	7.656200
2192.000000	7.737100
2191.000000	7.830300
2190.000000	7.899600
2189.000000	7.963800
2188.000000	8.006900
2187.000000	8.067300
2186.000000	8.127500
2185.000000	8.170100
2184.000000	8.205200
2183.000000	8.252700
2182.000000	8.284900
2181.000000	8.311900
2180.000000	8.352600
2179.000000	8.376000
2178.000000	8.408200
2177.000000	8.426000
2176.000000	8.467900
2175.000000	8.482900
2174.000000	8.509600
2173.000000	8.528900
2172.000000	8.551300
2171.000000	8.586400
2170.000000	8.609300
2169.000000	8.644700
2168.000000	8.666100
2167.000000	8.683900
2166.000000	8.730900
2165.000000	8.769300
2164.000000	8.790000
2163.000000	8.831900
2162.000000	8.869300
2161.000000	8.898400
2160.000000	8.911700
2159.000000	8.949800
2158.000000	8.990700
2157.000000	9.020800
2156.000000	9.056300
2155.000000	9.097900
2154.000000	9.126100
2153.000000	9.161400
2152.000000	9.195700
2151.000000	9.216000
2150.000000	9.256300
2149.000000	9.287500
2148.000000	9.334700
2147.000000	9.362100
2146.000000	9.380400
2145.000000	9.413400
2144.000000	9.443500
2143.000000	9.465100
2142.000000	9.482000
2141.000000	9.502300
2140.000000	9.521400
2139.000000	9.566200
2138.000000	9.601600
2137.000000	9.602100
2136.000000	9.614600
2135.000000	9.625300
2134.000000	9.649500
2133.000000	9.668300
2132.000000	9.670500
2131.000000	9.678100
2130.000000	9.685600
2129.000000	9.688600
2128.000000	9.699500
2127.000000	9.709500
2126.000000	9.706800
2125.000000	9.712000
2124.000000	9.725700
2123.000000	9.708900
2122.000000	9.701800
2121.000000	9.699700
2120.000000	9.692400
2119.000000	9.687600
2118.000000	9.689100
2117.000000	9.676500
2116.000000	9.648100
2115.000000	9.636700
2114.000000	9.626000
2113.000000	9.613700
2112.000000	9.613100
2111.000000	9.598800
2110.000000	9.590500
2109.000000	9.588500
2108.000000	9.571100
2107.000000	9.558800
2106.000000	9.560100
2105.000000	9.555500
2104.000000	9.534800
2103.000000	9.508100
2102.000000	9.496300
2101.000000	9.496000
2100.000000	9.487900
2099.000000	9.483000
2098.000000	9.476400
2097.000000	9.479200
2096.000000	9.467300
2095.000000	9.456100
2094.000000	9.463400
2093.000000	9.458200
2092.000000	9.465700
2091.000000	9.453100
2090.000000	9.442900
2089.000000	9.450000
2088.000000	9.443300
2087.000000	9.425400
2086.000000	9.422600
2085.000000	9.422800
2084.000000	9.416200
2083.000000	9.410600
2082.000000	9.403700
2081.000000	9.401600
2080.000000	9.389100
2079.000000	9.379500
2078.000000	9.377900
2077.000000	9.364900
2076.000000	9.351700
2075.000000	9.342900
2074.000000	9.333100
2073.000000	9.321500
2072.000000	9.302100
2071.000000	9.282400
2070.000000	9.267600
2069.000000	9.256000
2068.000000	9.251000
2067.000000	9.223800
2066.000000	9.187800
2065.000000	9.165100
2064.000000	9.154800
2063.000000	9.131600
2062.000000	9.104100
2061.000000	9.098200
2060.000000	9.079800
2059.000000	9.051400
2058.000000	9.029500
2057.000000	9.025100
2056.000000	9.004700
2055.000000	9.018700
2054.000000	9.004100
2053.000000	9.022200
2052.000000	9.032500
2051.000000	9.049600
2050.000000	9.081600
2049.000000	9.127600
2048.000000	9.163800
2047.000000	9.216500
2046.000000	9.276500
2045.000000	9.339900
2044.000000	9.427100
2043.000000	9.513700
2042.000000	9.601800
2041.000000	9.687200
2040.000000	9.775800
2039.000000	9.860400
2038.000000	9.953500
2037.000000	10.047500
2036.000000	10.111500
2035.000000	10.213400
2034.000000	10.278400
2033.000000	10.349100
2032.000000	10.424000
2031.000000	10.492100
2030.000000	10.568400
2029.000000	10.624000
2028.000000	10.680800
2027.000000	10.747400
2026.000000	10.784200
2025.000000	10.831000
2024.000000	10.874800
2023.000000	10.929500
2022.000000	10.989600
2021.000000	11.043700
2020.000000	11.094600
2019.000000	11.129300
2018.000000	11.161600
2017.000000	11.220000
2016.000000	11.257500
2015.000000	11.288200
2014.000000	11.337300
2013.000000	11.365700
2012.000000	11.395200
2011.000000	11.443700
2010.000000	11.434800
2009.000000	11.482400
2008.000000	11.518100
2007.000000	11.566300
2006.000000	11.603200
2005.000000	11.604100
2004.000000	11.631100
2003.000000	11.654400
2002.000000	11.681600
2001.000000	11.684000
2000.000000	11.702800
1999.000000	11.720400
1998.000000	11.731500
1997.000000	11.731300
1996.000000	11.730000
1995.000000	11.737500
1994.000000	11.723300
1993.000000	11.721700
1992.000000	11.702900
1991.000000	11.693600
1990.000000	11.674200
1989.000000	11.670900
1988.000000	11.655200
1987.000000	11.630100
1986.000000	11.619500
1985.000000	11.592300
1984.000000	11.578800
1983.000000	11.551900
1982.000000	11.526300
1981.000000	11.488500
1980.000000	11.455700
1979.000000	11.432900
1978.000000	11.418200
1977.000000	11.378500
1976.000000	11.340900
1975.000000	11.311300
1974.000000	11.295300
1973.000000	11.236200
1972.000000	11.230700
1971.000000	11.182200
1970.000000	11.171300
1969.000000	11.143500
1968.000000	11.124100
1967.000000	11.084200
1966.000000	11.040600
1965.000000	11.024300
1964.000000	10.990500
1963.000000	10.968700
1962.000000	10.917500
1961.000000	10.870500
1960.000000	10.844700
1959.000000	10.845700
1958.000000	10.801800
1957.000000	10.781100
1956.000000	10.743900
1955.000000	10.698400
1954.000000	10.679600
1953.000000	10.650700
1952.000000	10.634600
1951.000000	10.606800
1950.000000	10.575100
1949.000000	10.536400
1948.000000	10.539800
1947.000000	10.500100
1946.000000	10.496300
1945.000000	10.482800
1944.000000	10.458000
1943.000000	10.454000
1942.000000	10.430800
1941.000000	10.441300
1940.000000	10.432900
1939.000000	10.463500
1938.000000	10.446300
1937.000000	10.469800
1936.000000	10.485600
1935.000000	10.494500
1934.000000	10.504300
1933.000000	10.553700
1932.000000	10.552800
1931.000000	10.579000
1930.000000	10.617800
1929.000000	10.659100
1928.000000	10.722600
1927.000000	10.768700
1926.000000	10.829900
1925.000000	10.885500
1924.000000	10.922600
1923.000000	10.955600
1922.000000	11.034000
1921.000000	11.151300
1920.000000	11.225300
1919.000000	11.309700
1918.000000	11.371900
1917.000000	11.457500
1916.000000	11.519300
1915.000000	11.565500
1914.000000	11.679500
1913.000000	11.821000
1912.000000	11.947100
1911.000000	12.038800
1910.000000	12.131400
1909.000000	12.166100
1908.000000	12.231200
1907.000000	12.347600
1906.000000	12.457800
1905.000000	12.591200
1904.000000	12.756200
1903.000000	12.852400
1902.000000	12.927400
1901.000000	13.020900
1900.000000	13.168900
1899.000000	13.316000
1898.000000	13.432200
1897.000000	13.542800
1896.000000	13.621900
1895.000000	13.695400
1894.000000	13.777600
1893.000000	13.881300
1892.000000	14.005000
1891.000000	14.129100
1890.000000	14.250800
1889.000000	14.360100
1888.000000	14.502200
1887.000000	14.589500
1886.000000	14.743900
1885.000000	14.927800
1884.000000	15.114800
1883.000000	15.324600
1882.000000	15.534500
1881.000000	15.767500
1880.000000	15.985100
1879.000000	16.172200
1878.000000	16.386600
1877.000000	16.601000
1876.000000	16.776700
1875.000000	16.951900
1874.000000	17.087800
1873.000000	17.255900
1872.000000	17.421200
1871.000000	17.552800
1870.000000	17.674300
1869.000000	17.770300
1868.000000	17.846300
1867.000000	17.879400
1866.000000	17.868800
1865.000000	17.859200
1864.000000	17.850400
1863.000000	17.834800
1862.000000	17.833400
1861.000000	17.842700
1860.000000	17.839100
1859.000000	17.841500
1858.000000	17.835800
1857.000000	17.805800
1856.000000	17.770300
1855.000000	17.721100
1854.000000	17.692900
1853.000000	17.638100
1852.000000	17.572700
1851.000000	17.502100
1850.000000	17.430700
1849.000000	17.383900
1848.000000	17.359600
1847.000000	17.348900
1846.000000	17.310200
1845.000000	17.220300
1844.000000	17.130300
1843.000000	17.094700
1842.000000	17.078000
1841.000000	17.073200
1840.000000	17.056100
1839.000000	17.021200
1838.000000	16.973400
1837.000000	16.940500
1836.000000	16.911300
1835.000000	16.869300
1834.000000	16.807700
1833.000000	16.722700
1832.000000	16.648500
1831.000000	16.604400
1830.000000	16.569600
1829.000000	16.518700
1828.000000	16.448700
1827.000000	16.390200
1826.000000	16.345400
1825.000000	16.289200
1824.000000	16.237300
1823.000000	16.200400
1822.000000	16.177800
1821.000000	16.179400
1820.000000	16.199700
1819.000000	16.179400
1818.000000	16.133700
1817.000000	16.090900
1816.000000	16.091000
1815.000000	16.090600
1814.000000	16.077800
1813.000000	16.066600
1812.000000	16.048900
1811.000000	16.049000
1810.000000	16.002700
1809.000000	15.954800
1808.000000	15.921000
1807.000000	15.904200
1806.000000	15.885000
1805.000000	15.840000
1804.000000	15.798700
1803.000000	15.755000
1802.000000	15.719600
1801.000000	15.695000
1800.000000	15.666600
1799.000000	15.631400
1798.000000	15.597300
1797.000000	15.561600
1796.000000	15.539200
1795.000000	15.496300
1794.000000	15.458800
1793.000000	15.436100
1792.000000	15.398300
1791.000000	15.354900
1790.000000	15.326400
1789.000000	15.274600
1788.000000	15.216500
1787.000000	15.174200
1786.000000	15.139800
1785.000000	15.088800
1784.000000	15.031700
1783.000000	14.961300
1782.000000	14.888000
1781.000000	14.815800
1780.000000	14.759900
1779.000000	14.704800
1778.000000	14.632800
1777.000000	14.555700
1776.000000	14.473700
1775.000000	14.387800
1774.000000	14.294300
1773.000000	14.196800
1772.000000	14.099700
1771.000000	14.007100
1770.000000	13.875100
1769.000000	13.760500
1768.000000	13.661100
1767.000000	13.568300
1766.000000	13.483300
1765.000000	13.414000
1764.000000	13.370900
1763.000000	13.333800
1762.000000	13.351400
1761.000000	13.383700
1760.000000	13.411000
1759.000000	13.454200
1758.000000	13.507200
1757.000000	13.549000
1756.000000	13.559900
1755.000000	13.584100
1754.000000	13.625100
1753.000000	13.631700
1752.000000	13.644500
1751.000000	13.629200
1750.000000	13.611600
1749.000000	13.569900
1748.000000	13.540000
1747.000000	13.505300
1746.000000	13.434900
1745.000000	13.348300
1744.000000	13.260600
1743.000000	13.138600
1742.000000	13.023500
1741.000000	12.860400
1740.000000	12.721900
1739.000000	12.595400
1738.000000	12.431900
1737.000000	12.289600
1736.000000	12.169600
1735.000000	12.079400
1734.000000	11.991700
1733.000000	11.961700
1732.000000	11.965400
1731.000000	11.995000
1730.000000	12.049300
1729.000000	12.119100
1728.000000	12.183500
1727.000000	12.284400
1726.000000	12.350700
1725.000000	12.415100
1724.000000	12.472900
1723.000000	12.519100
1722.000000	12.554900
1721.000000	12.573900
1720.000000	12.603200
1719.000000	12.642700
1718.000000	12.649900
1717.000000	12.708400
1716.000000	12.756400
1715.000000	12.801700
1714.000000	12.866000
1713.000000	12.920100
1712.000000	12.971400
1711.000000	13.013800
1710.000000	13.042200
1709.000000	13.094400
1708.000000	13.105300
1707.000000	13.109800
1706.000000	13.134000
1705.000000	13.176500
1704.000000	13.172900
1703.000000	13.176300
1702.000000	13.172500
1701.000000	13.135500
1700.000000	13.095100
1699.000000	13.068500
1698.000000	13.030700
1697.000000	13.016000
1696.000000	13.007200
1695.000000	13.025900
1694.000000	13.069900
1693.000000	13.171300
1692.000000	13.257800
1691.000000	13.346300
1690.000000	13.474100
1689.000000	13.518500
1688.000000	13.570000
1687.000000	13.600400
1686.000000	13.601100
1685.000000	13.653900
1684.000000	13.670800
1683.000000	13.762500
1682.000000	13.917200
1681.000000	14.148700
1680.000000	14.418200
1679.000000	14.727000
1678.000000	15.003200
1677.000000	15.301000
1676.000000	15.553800
1675.000000	15.790000
1674.000000	15.984900
1673.000000	16.163100
1672.000000	16.304900
1671.000000	16.449200
1670.000000	16.555600
1669.000000	16.643000
1668.000000	16.707100
1667.000000	16.774500
1666.000000	16.828100
1665.000000	16.859700
1664.000000	16.912200
1663.000000	16.954900
1662.000000	16.980000
1661.000000	17.011100
1660.000000	17.032700
1659.000000	17.033600
1658.000000	17.044800
1657.000000	17.050400
1656.000000	17.064700
1655.000000	17.049600
1654.000000	17.062800
1653.000000	17.044000
1652.000000	17.046400
1651.000000	17.005200
1650.000000	17.004400
1649.000000	16.986600
1648.000000	16.935800
1647.000000	16.899000
1646.000000	16.869500
1645.000000	16.838400
1644.000000	16.796600
1643.000000	16.748500
1642.000000	16.733700
1641.000000	16.696900
1640.000000	16.647100
1639.000000	16.621200
1638.000000	16.571900
1637.000000	16.520800
1636.000000	16.485200
1635.000000	16.422900
1634.000000	16.373700
1633.000000	16.331900
1632.000000	16.293500
1631.000000	16.254000
1630.000000	16.194700
1629.000000	16.143600
1628.000000	16.095100
1627.000000	16.062700
1626.000000	16.003900
1625.000000	15.954200
1624.000000	15.911900
1623.000000	15.867300
1622.000000	15.817900
1621.000000	15.771600
1620.000000	15.728200
1619.000000	15.690200
1618.000000	15.643700
1617.000000	15.596800
1616.000000	15.540900
1615.000000	15.504100
1614.000000	15.466700
1613.000000	15.428400
1612.000000	15.395800
1611.000000	15.361000
1610.000000	15.320800
1609.000000	15.287400
1608.000000	15.261800
1607.000000	15.228100
1606.000000	15.182500
1605.000000	15.154300
1604.000000	15.131300
1603.000000	15.093200
1602.000000	15.064900
1601.000000	15.039100
1600.000000	15.012700
1599.000000	14.978400
1598.000000	14.955400
1597.000000	14.927500
1596.000000	14.915400
1595.000000	14.889300
1594.000000	14.869700
1593.000000	14.870900
1592.000000	14.841700
1591.000000	14.825200
1590.000000	14.813600
1589.000000	14.793700
1588.000000	14.768600
1587.000000	14.754100
1586.000000	14.749600
1585.000000	14.734500
1584.000000	14.722000
1583.000000	14.711400
1582.000000	14.696500
1581.000000	14.689300
1580.000000	14.694900
1579.000000	14.686000
1578.000000	14.672400
1577.000000	14.677300
1576.000000	14.678800
1575.000000	14.677900
1574.000000	14.690300
1573.000000	14.694300
1572.000000	14.698200
1571.000000	14.719200
1570.000000	14.739100
1569.000000	14.749000
1568.000000	14.765500
1567.000000	14.778100
1566.000000	14.799300
1565.000000	14.814900
1564.000000	14.839900
1563.000000	14.847800
1562.000000	14.860800
1561.000000	14.885800
1560.000000	14.889900
1559.000000	14.906200
1558.000000	14.927600
1557.000000	14.933000
1556.000000	14.938300
1555.000000	14.948400
1554.000000	14.939300
1553.000000	14.934000
1552.000000	14.929300
1551.000000	14.942700
1550.000000	14.923300
1549.000000	14.914500
1548.000000	14.916200
1547.000000	14.899600
1546.000000	14.877100
1545.000000	14.860600
1544.000000	14.855200
1543.000000	14.837200
1542.000000	14.827300
1541.000000	14.819300
1540.000000	14.802500
1539.000000	14.799100
1538.000000	14.794900
1537.000000	14.788300
1536.000000	14.788300
1535.000000	14.792200
1534.000000	14.787900
1533.000000	14.799100
1532.000000	14.804900
1531.000000	14.803900
1530.000000	14.804600
1529.000000	14.793800
1528.000000	14.791700
1527.000000	14.792500
1526.000000	14.807000
1525.000000	14.804700
1524.000000	14.804000
1523.000000	14.791500
1522.000000	14.787100
1521.000000	14.800100
1520.000000	14.807200
1519.000000	14.798800
1518.000000	14.812700
1517.000000	14.816700
1516.000000	14.802300
1515.000000	14.793300
1514.000000	14.801900
1513.000000	14.806700
1512.000000	14.815300
1511.000000	14.815400
1510.000000	14.818100
1509.000000	14.835500
1508.000000	14.840200
1507.000000	14.832500
1506.000000	14.835400
1505.000000	14.854300
1504.000000	14.851900
1503.000000	14.849600
1502.000000	14.852800
1501.000000	14.842300
1500.000000	14.855300
1499.000000	14.887900
1498.000000	14.882300
1497.000000	14.906100
1496.000000	14.931900
1495.000000	14.927200
1494.000000	14.936300
1493.000000	14.963000
1492.000000	14.989500
1491.000000	15.003300
1490.000000	15.039500
1489.000000	15.038100
1488.000000	15.047300
1487.000000	15.077800
1486.000000	15.103900
1485.000000	15.115300
1484.000000	15.120200
1483.000000	15.156600
1482.000000	15.164300
1481.000000	15.199900
1480.000000	15.209600
1479.000000	15.234400
1478.000000	15.267700
1477.000000	15.295100
1476.000000	15.313700
1475.000000	15.360200
1474.000000	15.377000
1473.000000	15.411800
1472.000000	15.458800
1471.000000	15.480100
1470.000000	15.514000
1469.000000	15.540400
1468.000000	15.554000
1467.000000	15.583100
1466.000000	15.603200
1465.000000	15.657300
1464.000000	15.660300
1463.000000	15.694700
1462.000000	15.729400
1461.000000	15.764900
1460.000000	15.819200
1459.000000	15.882000
1458.000000	15.906900
1457.000000	15.960100
1456.000000	15.993500
1455.000000	16.063500
1454.000000	16.087800
1453.000000	16.137700
1452.000000	16.204100
1451.000000	16.263500
1450.000000	16.317000
1449.000000	16.351700
1448.000000	16.438400
1447.000000	16.481400
1446.000000	16.572900
1445.000000	16.647400
1444.000000	16.694000
1443.000000	16.727600
1442.000000	16.815500
1441.000000	16.893300
1440.000000	16.957000
1439.000000	17.020900
1438.000000	17.078300
1437.000000	17.152500
1436.000000	17.199100
1435.000000	17.245300
1434.000000	17.328200
1433.000000	17.372800
1432.000000	17.448400
1431.000000	17.500000
1430.000000	17.578100
1429.000000	17.653300
1428.000000	17.763800
1427.000000	17.861900
1426.000000	17.966900
1425.000000	18.045400
1424.000000	18.172300
1423.000000	18.287000
1422.000000	18.386500
1421.000000	18.495000
1420.000000	18.612000
1419.000000	18.765100
1418.000000	18.822100
1417.000000	18.906500
1416.000000	18.990100
1415.000000	19.097700
1414.000000	19.201400
1413.000000	19.275500
1412.000000	19.327000
1411.000000	19.431700
1410.000000	19.550900
1409.000000	19.718200
1408.000000	19.894100
1407.000000	20.040300
1406.000000	20.221600
1405.000000	20.437500
1404.000000	20.599400
1403.000000	20.781200
1402.000000	20.942100
1401.000000	21.171600
1400.000000	21.312900
1399.000000	21.406300
1398.000000	21.400300
1397.000000	21.463100
1396.000000	21.521300
1395.000000	21.501500
1394.000000	21.437000
1393.000000	21.373800
1392.000000	21.382700
1391.000000	21.351700
1390.000000	21.329200
1389.000000	21.360000
1388.000000	21.458400
1387.000000	21.517300
1386.000000	21.652200
1385.000000	21.805900
1384.000000	22.017300
1383.000000	22.248700
1382.000000	22.496200
1381.000000	22.704200
1380.000000	22.825500
1379.000000	23.007800
1378.000000	23.197000
1377.000000	23.427000
1376.000000	23.716800
1375.000000	24.067900
1374.000000	24.451600
1373.000000	24.901900
1372.000000	25.377100
1371.000000	25.819300
1370.000000	26.213400
1369.000000	26.548100
1368.000000	26.873600
1367.000000	27.140800
1366.000000	27.368800
1365.000000	27.562700
1364.000000	27.750900
1363.000000	27.890100
1362.000000	28.034800
1361.000000	28.149300
1360.000000	28.194900
1359.000000	28.219100
1358.000000	28.289000
1357.000000	28.447900
1356.000000	28.722800
1355.000000	29.085400
1354.000000	29.576100
1353.000000	30.081300
1352.000000	30.626100
1351.000000	31.183900
1350.000000	31.700300
1349.000000	32.153900
1348.000000	32.562000
1347.000000	32.961000
1346.000000	33.300300
1345.000000	33.637200
1344.000000	33.990900
1343.000000	34.281700
1342.000000	34.564500
1341.000000	34.835800
1340.000000	35.107400
1339.000000	35.364100
1338.000000	35.595100
1337.000000	35.814600
1336.000000	36.034600
1335.000000	36.241700
1334.000000	36.442400
1333.000000	36.628500
1332.000000	36.810400
1331.000000	36.978600
1330.000000	37.131800
1329.000000	37.272700
1328.000000	37.411200
1327.000000	37.541000
1326.000000	37.659800
1325.000000	37.777600
1324.000000	37.895000
1323.000000	38.005200
1322.000000	38.090100
1321.000000	38.188600
1320.000000	38.262300
1319.000000	38.339900
1318.000000	38.425400
1317.000000	38.494000
1316.000000	38.565300
1315.000000	38.622200
1314.000000	38.680400
1313.000000	38.748700
1312.000000	38.799600
1311.000000	38.845800
1310.000000	38.884100
1309.000000	38.903700
1308.000000	38.929400
1307.000000	38.956300
1306.000000	38.971500
1305.000000	38.982900
1304.000000	38.996400
1303.000000	38.990900
1302.000000	38.975900
1301.000000	38.968300
1300.000000	38.955600
1299.000000	38.935600
1298.000000	38.909700
1297.000000	38.885600
1296.000000	38.864400
1295.000000	38.848600
1294.000000	38.821500
1293.000000	38.783400
1292.000000	38.746800
1291.000000	38.712200
1290.000000	38.668600
1289.000000	38.615400
1288.000000	38.563000
1287.000000	38.505600
1286.000000	38.438200
1285.000000	38.360700
1284.000000	38.285900
1283.000000	38.204500
1282.000000	38.113800
1281.000000	38.031500
1280.000000	37.968700
1279.000000	37.896500
1278.000000	37.811800
1277.000000	37.730500
1276.000000	37.664400
1275.000000	37.598500
1274.000000	37.537000
1273.000000	37.476900
1272.000000	37.417200
1271.000000	37.369500
1270.000000	37.313500
1269.000000	37.265900
1268.000000	37.205700
1267.000000	37.145000
1266.000000	37.090900
1265.000000	37.030400
1264.000000	36.963300
1263.000000	36.915100
1262.000000	36.851600
1261.000000	36.785600
1260.000000	36.732200
1259.000000	36.674800
1258.000000	36.614200
1257.000000	36.548900
1256.000000	36.463700
1255.000000	36.395900
1254.000000	36.325900
1253.000000	36.231200
1252.000000	36.145400
1251.000000	36.068700
1250.000000	35.989900
1249.000000	35.878900
1248.000000	35.753300
1247.000000	35.648300
1246.000000	35.532800
1245.000000	35.399600
1244.000000	35.253200
1243.000000	35.129500
1242.000000	34.957300
1241.000000	34.800700
1240.000000	34.664500
1239.000000	34.478400
1238.000000	34.312100
1237.000000	34.136700
1236.000000	33.945000
1235.000000	33.774700
1234.000000	33.591900
1233.000000	33.391600
1232.000000	33.206100
1231.000000	33.007800
1230.000000	32.816200
1229.000000	32.611600
1228.000000	32.405300
1227.000000	32.191300
1226.000000	32.012400
1225.000000	31.804600
1224.000000	31.604700
1223.000000	31.405700
1222.000000	31.217100
1221.000000	31.029700
1220.000000	30.858100
1219.000000	30.685400
1218.000000	30.528400
1217.000000	30.387600
1216.000000	30.276600
1215.000000	30.154700
1214.000000	30.050200
1213.000000	29.934300
1212.000000	29.832700
1211.000000	29.746500
1210.000000	29.704600
1209.000000	29.636400
1208.000000	29.560500
1207.000000	29.525900
1206.000000	29.513000
1205.000000	29.520800
1204.000000	29.521600
1203.000000	29.540800
1202.000000	29.540100
1201.000000	29.559400
1200.000000	29.528800
1199.000000	29.515600
1198.000000	29.436600
1197.000000	29.338400
1196.000000	29.194700
1195.000000	28.991100
1194.000000	28.706500
1193.000000	28.398100
1192.000000	28.021100
1191.000000	27.628600
1190.000000	27.248300
1189.000000	26.906100
1188.000000	26.641100
1187.000000	26.532100
1186.000000	26.484400
1185.000000	26.583500
1184.000000	26.773400
1183.000000	27.097100
1182.000000	27.504300
1181.000000	27.978500
1180.000000	28.457900
1179.000000	28.887100
1178.000000	29.343700
1177.000000	29.687300
1176.000000	30.008200
1175.000000	30.277700
1174.000000	30.557200
1173.000000	30.858700
1172.000000	31.199700
1171.000000	31.522000
1170.000000	31.882600
1169.000000	32.203900
1168.000000	32.571700
1167.000000	32.913200
1166.000000	33.265400
1165.000000	33.624900
1164.000000	34.031300
1163.000000	34.393000
1162.000000	34.772700
1161.000000	35.129800
1160.000000	35.476700
1159.000000	35.833000
1158.000000	36.180700
1157.000000	36.482700
1156.000000	36.735700
1155.000000	36.921200
1154.000000	37.046400
1153.000000	37.128100
1152.000000	37.140100
1151.000000	37.128800
1150.000000	37.108400
1149.000000	37.072400
1148.000000	37.064400
1147.000000	37.067100
1146.000000	37.170800
1145.000000	37.341600
1144.000000	37.587700
1143.000000	37.898000
1142.000000	38.238900
1141.000000	38.595200
1140.000000	38.962400
1139.000000	39.313000
1138.000000	39.678800
1137.000000	40.089300
1136.000000	40.483300
1135.000000	40.846500
1134.000000	41.211800
1133.000000	41.468700
1132.000000	41.760100
1131.000000	42.040700
1130.000000	42.274200
1129.000000	42.472100
1128.000000	42.641400
1127.000000	42.760000
1126.000000	42.870200
1125.000000	42.935300
1124.000000	43.009400
1123.000000	43.086400
1122.000000	43.148600
1121.000000	43.180100
1120.000000	43.228400
1119.000000	43.269400
1118.000000	43.265600
1117.000000	43.276300
1116.000000	43.285200
1115.000000	43.268400
1114.000000	43.257500
1113.000000	43.272400
1112.000000	43.273300
1111.000000	43.256300
1110.000000	43.270400
1109.000000	43.269700
1108.000000	43.261300
1107.000000	43.257300
1106.000000	43.249500
1105.000000	43.257000
1104.000000	43.253000
1103.000000	43.267200
1102.000000	43.256800
1101.000000	43.255500
1100.000000	43.266800
1099.000000	43.258900
1098.000000	43.252100
1097.000000	43.240100
1096.000000	43.249700
1095.000000	43.231600
1094.000000	43.222900
1093.000000	43.197500
1092.000000	43.171600
1091.000000	43.157300
1090.000000	43.136400
1089.000000	43.108400
1088.000000	43.081400
1087.000000	43.055400
1086.000000	43.029400
1085.000000	42.997200
1084.000000	42.955700
1083.000000	42.938000
1082.000000	42.893100
1081.000000	42.845500
1080.000000	42.786300
1079.000000	42.767900
1078.000000	42.753200
1077.000000	42.723500
1076.000000	42.676500
1075.000000	42.639000
1074.000000	42.619800
1073.000000	42.586500
1072.000000	42.540500
1071.000000	42.490400
1070.000000	42.442800
1069.000000	42.403300
1068.000000	42.370200
1067.000000	42.313300
1066.000000	42.254200
1065.000000	42.196400
1064.000000	42.144800
1063.000000	42.083200
1062.000000	42.038500
1061.000000	41.987700
1060.000000	41.936400
1059.000000	41.881900
1058.000000	41.836100
1057.000000	41.786400
1056.000000	41.733100
1055.000000	41.690200
1054.000000	41.652700
1053.000000	41.609100
1052.000000	41.580800
1051.000000	41.557100
1050.000000	41.537500
1049.000000	41.524600
1048.000000	41.520300
1047.000000	41.530200
1046.000000	41.534600
1045.000000	41.549500
1044.000000	41.559300
1043.000000	41.557100
1042.000000	41.574300
1041.000000	41.593300
1040.000000	41.621400
1039.000000	41.652100
1038.000000	41.673200
1037.000000	41.684200
1036.000000	41.690300
1035.000000	41.703900
1034.000000	41.727000
1033.000000	41.744200
1032.000000	41.760600
1031.000000	41.776800
1030.000000	41.789800
1029.000000	41.803900
1028.000000	41.821500
1027.000000	41.839100
1026.000000	41.850300
1025.000000	41.856100
1024.000000	41.859700
1023.000000	41.871200
1022.000000	41.871200
1021.000000	41.861000
1020.000000	41.865600
1019.000000	41.872000
1018.000000	41.869500
1017.000000	41.868400
1016.000000	41.859000
1015.000000	41.864600
1014.000000	41.882100
1013.000000	41.898200
1012.000000	41.917900
1011.000000	41.951100
1010.000000	41.986600
1009.000000	42.031400
1008.000000	42.079900
1007.000000	42.128500
1006.000000	42.193700
1005.000000	42.253400
1004.000000	42.294300
1003.000000	42.356100
1002.000000	42.415000
1001.000000	42.468000
1000.000000	42.514700
999.000000	42.575800
998.000000	42.635500
997.000000	42.703800
996.000000	42.789300
995.000000	42.856900
994.000000	42.930300
993.000000	43.015900
992.000000	43.100400
991.000000	43.180100
990.000000	43.271000
989.000000	43.368000
988.000000	43.482200
987.000000	43.591000
986.000000	43.711000
985.000000	43.832300
984.000000	43.968000
983.000000	44.102100
982.000000	44.242500
981.000000	44.383400
980.000000	44.541300
979.000000	44.685900
978.000000	44.839800
977.000000	45.005200
976.000000	45.155900
975.000000	45.305900
974.000000	45.457200
973.000000	45.616500
972.000000	45.758300
971.000000	45.910600
970.000000	46.077800
969.000000	46.235700
968.000000	46.384000
967.000000	46.530400
966.000000	46.696900
965.000000	46.853900
964.000000	47.004600
963.000000	47.178300
962.000000	47.348700
961.000000	47.514400
960.000000	47.692600
959.000000	47.873900
958.000000	48.049600
957.000000	48.219200
956.000000	48.375300
955.000000	48.538900
954.000000	48.686400
953.000000	48.809300
952.000000	48.942800
951.000000	49.059900
950.000000	49.169500
949.000000	49.285400
948.000000	49.391400
947.000000	49.491200
946.000000	49.604600
945.000000	49.695400
944.000000	49.777800
943.000000	49.876100
942.000000	49.998700
941.000000	50.120600
940.000000	50.231100
939.000000	50.359400
938.000000	50.485500
937.000000	50.632700
936.000000	50.731300
935.000000	50.846100
934.000000	50.984700
933.000000	51.095700
932.000000	51.232300
931.000000	51.348300
930.000000	51.498600
929.000000	51.632400
928.000000	51.740200
927.000000	51.883700
926.000000	52.023100
925.000000	52.188300
924.000000	52.329700
923.000000	52.498300
922.000000	52.676200
921.000000	52.845400
920.000000	53.052300
919.000000	53.229200
918.000000	53.427700
917.000000	53.614300
916.000000	53.797000
915.000000	54.007400
914.000000	54.220600
913.000000	54.426100
912.000000	54.622400
911.000000	54.833400
910.000000	55.029600
909.000000	55.260400
908.000000	55.436900
907.000000	55.645800
906.000000	55.869800
905.000000	56.043100
904.000000	56.288200
903.000000	56.479500
902.000000	56.677700
901.000000	56.863200
900.000000	57.075300
899.000000	57.272600
898.000000	57.517500
897.000000	57.676200
896.000000	57.832300
895.000000	58.025200
894.000000	58.196200
893.000000	58.348600
892.000000	58.486100
891.000000	58.641800
890.000000	58.788700
889.000000	58.936000
888.000000	59.052900
887.000000	59.177000
886.000000	59.295300
885.000000	59.423100
884.000000	59.546500
883.000000	59.656400
882.000000	59.766900
881.000000	59.906600
880.000000	60.036200
879.000000	60.163600
878.000000	60.285400
877.000000	60.392300
876.000000	60.520000
875.000000	60.675000
874.000000	60.832300
873.000000	60.983400
872.000000	61.113300
871.000000	61.264100
870.000000	61.415000
869.000000	61.569700
868.000000	61.724500
867.000000	61.854700
866.000000	61.987400
865.000000	62.146300
864.000000	62.272400
863.000000	62.405200
862.000000	62.514000
861.000000	62.608700
860.000000	62.699200
859.000000	62.776800
858.000000	61.332735
857.000000	61.501017
856.000000	61.435888
855.000000	61.164062
854.000000	61.660622
853.000000	61.703034
852.000000	61.779278
851.000000	62.123740
850.000000	62.075381
849.000000	62.121986
848.000000	62.462255
847.000000	62.701907
846.000000	62.778346
845.000000	62.719457
844.000000	62.674997
843.000000	63.028527
842.000000	63.363045
841.000000	63.218357
840.000000	63.467661
839.000000	63.862140
838.000000	63.842250
837.000000	63.689567
836.000000	63.980893
835.000000	64.060452
834.000000	64.232049
833.000000	64.363185
832.000000	64.520255
831.000000	64.597669
830.000000	64.645736
829.000000	64.684638
828.000000	64.965336
827.000000	64.860330
826.000000	64.773166
825.000000	65.070049
824.000000	65.059422
823.000000	64.967091
822.000000	65.056985
821.000000	65.012623
820.000000	64.799588
819.000000	64.770631
818.000000	64.702285
817.000000	64.456198
816.000000	64.338713
815.000000	64.348658
814.000000	64.165750
813.000000	64.017260
812.000000	63.723789
811.000000	63.621611
810.000000	63.392879
809.000000	63.254919
808.000000	63.149425
807.000000	62.995573
806.000000	62.750559
805.000000	62.666905
804.000000	62.556342
803.000000	62.315033
802.000000	62.238399
801.000000	62.236936
800.000000	62.031214
799.000000	62.054614
798.000000	62.022244
797.000000	61.931571
796.000000	61.913534
795.000000	61.746519
794.000000	61.702547
793.000000	61.750029
792.000000	61.648630
791.000000	61.709567
790.000000	61.755196
789.000000	61.724191
788.000000	61.742131
787.000000	61.765823
786.000000	61.734721
785.000000	61.698939
784.000000	61.697184
783.000000	61.739596
782.000000	61.721754
781.000000	61.724289
780.000000	61.635760
779.000000	61.557274
778.000000	61.466990
777.000000	61.419508
776.000000	61.389479
775.000000	61.360912
774.000000	61.327470
773.000000	61.257856
772.000000	61.147292
771.000000	61.010794
770.000000	60.969358
769.000000	60.891944
768.000000	60.742186
767.000000	60.695972
766.000000	60.621093
765.000000	60.548456
764.000000	60.391484
763.000000	60.311145
762.000000	60.288525
761.000000	60.183714
760.000000	60.109420
759.000000	60.077148
758.000000	59.963172
757.000000	59.788748
756.000000	59.777145
755.000000	59.734733
754.000000	59.561478
753.000000	59.461055
752.000000	59.381789
751.000000	59.277660
750.000000	59.173434
749.000000	59.035864
748.000000	58.898488
747.000000	58.774470
746.000000	58.643529
745.000000	58.462670
744.000000	58.255875
743.000000	58.008034
742.000000	57.781837
741.000000	57.571435
740.000000	57.272700
739.000000	56.984982
738.000000	56.717543
737.000000	56.441915
736.000000	56.145129
735.000000	55.817826
734.000000	55.477946
733.000000	55.120419
732.000000	54.747780
731.000000	54.349303
730.000000	53.958821
729.000000	53.590569
728.000000	53.226510
727.000000	52.868690
726.000000	52.550747
725.000000	52.193610
724.000000	51.852268
723.000000	51.534910
722.000000	51.244462
721.000000	50.987358
720.000000	50.740589
719.000000	50.522387
718.000000	50.339187
717.000000	50.156670
716.000000	49.980880
715.000000	49.866612
714.000000	49.768431
713.000000	49.667422
712.000000	49.611166
711.000000	49.581624
710.000000	49.569144
709.000000	49.579771
708.000000	49.618576
707.000000	49.656698
706.000000	49.708274
705.000000	49.801190
704.000000	49.950266
703.000000	50.079841
702.000000	50.186310
701.000000	50.313838
700.000000	50.428789
699.000000	50.568114
698.000000	50.689987
697.000000	50.808935
696.000000	50.937634
695.000000	50.999448
694.000000	51.069452
693.000000	51.184500
692.000000	51.278684
691.000000	51.301888
690.000000	51.313588
689.000000	51.357852
688.000000	51.391002
687.000000	51.366822
686.000000	51.374915
685.000000	51.343910
684.000000	51.305691
683.000000	51.255771
682.000000	51.209070
681.000000	51.094314
680.000000	51.014950
679.000000	50.825315
678.000000	50.638703
677.000000	50.392714
676.000000	50.109871
675.000000	49.823810
674.000000	49.487733
673.000000	49.114118
672.000000	48.644078
671.000000	48.124020
670.000000	47.571496
669.000000	46.991282
668.000000	46.408826
667.000000	45.773135
666.000000	45.135104
665.000000	44.470359
664.000000	43.782994
663.000000	43.161051
662.000000	42.452042
661.000000	41.783982
660.000000	41.189143
659.000000	40.529565
658.000000	39.927902
657.000000	39.377132
656.000000	38.838453
655.000000	38.349790
654.000000	37.878579
653.000000	37.502430
652.000000	37.171422
651.000000	36.912271
650.000000	36.714739
649.000000	36.677495
648.000000	36.728779
647.000000	36.893259
646.000000	37.203304
645.000000	37.646533
644.000000	38.197107
643.000000	38.914892
642.000000	39.709992
641.000000	40.589137
640.000000	41.593762
639.000000	42.606089
638.000000	43.672626
637.000000	44.764805
636.000000	45.879018
635.000000	46.938340
634.000000	47.953788
633.000000	49.017594
632.000000	50.025145
631.000000	51.002665
630.000000	51.913594
629.000000	52.821501
628.000000	53.626059
627.000000	54.387620
626.000000	55.206705
625.000000	55.939700
624.000000	56.697751
623.000000	57.421483
622.000000	58.164519
621.000000	58.805572
620.000000	59.485527
619.000000	60.148712
618.000000	60.703382
617.000000	61.304168
616.000000	61.806870
615.000000	62.291438
614.000000	62.766841
613.000000	63.220892
612.000000	63.552094
611.000000	63.873352
610.000000	64.212842
609.000000	64.518598
608.000000	64.721200
607.000000	64.960851
606.000000	65.148438
605.000000	65.352600
604.000000	65.501383
603.000000	65.643731
602.000000	65.770772
601.000000	65.904735
600.000000	66.029143
599.000000	66.140096
598.000000	66.209028
597.000000	66.252512
596.000000	66.297654
595.000000	66.394762
594.000000	66.436199
593.000000	66.479684
592.000000	66.554660
591.000000	66.548907
590.000000	66.596974
589.000000	66.581180
588.000000	66.592294
587.000000	66.587517
586.000000	66.552125
585.000000	66.539743
584.000000	66.537500
583.000000	66.494796
582.000000	66.432397
581.000000	66.344161
580.000000	66.299019
579.000000	66.200253
578.000000	66.122156
577.000000	65.991703
576.000000	65.888062
575.000000	65.688385
574.000000	65.597809
573.000000	65.472913
572.000000	65.308433
571.000000	65.118701
570.000000	65.014963
569.000000	64.801051
568.000000	64.656168
567.000000	64.440404
566.000000	64.259739
565.000000	64.089019
564.000000	63.886319
563.000000	63.670165
562.000000	63.413451
561.000000	63.161613
560.000000	62.852445
559.000000	62.358420
558.000000	62.074699
557.000000	61.746519
556.000000	61.381874
555.000000	61.004360
554.000000	60.596718
553.000000	60.193952
552.000000	59.708116
551.000000	59.230081
550.000000	58.698129
549.000000	58.182361
548.000000	57.575920
547.000000	56.938280
546.000000	56.298592
545.000000	55.563843
544.000000	54.785414
543.000000	53.943319
542.000000	53.036485
541.000000	52.086849
540.000000	51.071012
539.000000	50.001550
538.000000	48.910639
537.000000	47.794475
536.000000	46.620592
535.000000	45.447685
534.000000	44.243968
533.000000	43.047855
532.000000	41.846771
531.000000	40.660116
530.000000	39.524355
529.000000	38.387814
528.000000	37.292516
527.000000	36.262151
526.000000	35.252651
525.000000	34.307207
524.000000	33.400373
523.000000	32.545311
522.000000	31.760545
521.000000	31.029793
520.000000	30.377820
519.000000	29.774694
518.000000	29.247032
517.000000	28.768119
516.000000	28.341076
515.000000	27.946986
514.000000	27.612859
513.000000	27.256112
512.000000	26.922179
511.000000	26.613011
510.000000	26.298578
509.000000	25.997503
508.000000	25.681607
507.000000	25.373317
506.000000	25.044942
505.000000	24.717834
504.000000	24.381367
503.000000	24.046849
502.000000	23.740216
501.000000	23.427051
500.000000	23.143525
499.000000	22.892076
498.000000	22.653887
497.000000	22.419208
496.000000	22.219629
495.000000	22.062558
494.000000	21.930253
493.000000	21.827294
492.000000	21.737108
491.000000	21.652285
490.000000	21.592420
489.000000	21.569021
488.000000	21.576528
487.000000	21.579356
486.000000	21.615625
485.000000	21.657354
484.000000	21.693819
483.000000	21.761190
482.000000	21.832462
481.000000	21.890863
480.000000	21.936980
479.000000	21.971690
478.000000	22.004449
477.000000	22.027556
476.000000	22.049591
475.000000	22.074063
474.000000	22.087226
473.000000	22.088201
472.000000	22.098925
471.000000	22.100290
470.000000	22.096195
469.000000	22.064508
468.000000	22.055441
467.000000	22.045106
466.000000	21.988947
465.000000	21.942538
464.000000	21.900223
463.000000	21.822127
462.000000	21.747151
461.000000	21.676952
460.000000	21.576528
459.000000	21.480980
458.000000	21.377729
457.000000	21.260438
456.000000	21.126182
455.000000	20.972915
454.000000	20.809897
453.000000	20.646782
452.000000	20.475477
451.000000	20.283405
450.000000	20.060913
449.000000	19.845734
448.000000	19.649664
447.000000	19.428050
446.000000	19.170459
445.000000	18.926030
444.000000	18.643284
443.000000	18.343963
442.000000	18.054198
441.000000	17.734987
440.000000	17.416070
439.000000	17.085745
438.000000	16.737090
437.000000	16.384535
436.000000	16.020768
435.000000	15.643546
434.000000	15.252479
433.000000	14.866482
432.000000	14.463911
431.000000	14.054904
430.000000	13.662668
429.000000	13.251711
428.000000	12.846897
427.000000	12.467530
426.000000	12.091186
425.000000	11.691832
424.000000	11.296963
423.000000	10.947528
422.000000	10.608623
421.000000	10.269425
420.000000	9.945730
419.000000	9.638902
418.000000	9.349332
417.000000	9.078091
416.000000	8.819232
415.000000	8.589233
414.000000	8.367424
413.000000	8.158679
412.000000	7.971677
411.000000	7.792085
410.000000	7.615905
409.000000	7.477164
408.000000	7.341739
407.000000	7.204461
406.000000	7.083855
405.000000	6.994936
404.000000	6.901045
403.000000	6.807447
402.000000	6.724475
401.000000	6.654277
400.000000	6.579008
399.000000	6.519046
398.000000	6.466982
397.000000	6.412383
396.000000	6.353396
395.000000	6.301722
394.000000	6.269060
393.000000	6.217873
392.000000	6.189793
391.000000	6.143287
390.000000	6.105457
389.000000	6.074258
388.000000	6.041986
387.000000	6.015271
386.000000	5.985339
385.000000	5.941562
384.000000	5.904415
383.000000	5.877506
382.000000	5.839774
381.000000	5.832754
380.000000	5.823589
379.000000	5.792779
378.000000	5.755242
377.000000	5.735255
376.000000	5.794827
375.000000	5.811596
374.000000	5.663984
373.000000	5.757582
372.000000	5.694891
371.000000	5.692551
370.000000	5.627032
369.000000	5.618354
368.000000	5.656866
367.000000	5.656379
366.000000	5.642924
365.000000	5.571555
364.000000	5.552348
363.000000	5.589787
362.000000	5.542013
361.000000	5.538016
360.000000	5.485464
359.000000	5.526023
358.000000	5.565510
357.000000	5.458847
356.000000	5.443442
355.000000	5.409610
354.000000	5.376558
353.000000	5.382115
352.000000	5.300899
351.000000	5.290369
350.000000	5.396058
349.000000	5.340873
348.000000	5.302069
347.000000	5.271649
346.000000	5.265897
345.000000	5.257707
344.000000	5.398203
343.000000	5.227775
342.000000	5.228458
341.000000	5.280229
340.000000	5.238305
339.000000	5.238207
338.000000	5.263460
337.000000	5.191896
336.000000	5.305774
335.000000	5.282374
334.000000	5.259852
333.000000	5.230603
332.000000	5.273794
331.000000	5.179611
330.000000	5.324494
329.000000	5.285982
328.000000	5.256050
327.000000	5.137101
326.000000	5.262875
325.000000	5.128327
324.000000	5.251565
323.000000	5.337461
322.000000	5.420725
321.000000	5.273794
320.000000	5.413315
319.000000	5.659791
318.000000	5.493556
317.000000	5.562683
316.000000	5.219780
315.000000	5.228945
314.000000	5.176198
313.000000	5.192481
312.000000	5.131057
311.000000	5.186923
310.000000	5.184193
309.000000	5.247372
308.000000	5.193456
307.000000	5.249517
306.000000	5.234015
305.000000	5.179513
304.000000	5.278182
303.000000	5.266580
302.000000	5.243570
301.000000	5.295927
300.000000	5.209153
299.000000	5.277304
298.000000	5.271162
297.000000	5.256440
296.000000	5.263265
295.000000	5.253320
294.000000	5.279254
293.000000	5.292807
292.000000	5.300899
291.000000	5.266190
290.000000	5.314646
289.000000	5.268140
288.000000	5.330929
287.000000	5.310941
286.000000	5.355791
285.000000	5.353451
284.000000	5.304311
283.000000	5.361933
282.000000	5.310941
281.000000	5.366906
280.000000	5.350818
279.000000	5.421992
278.000000	5.385625
277.000000	5.439932
276.000000	5.422870
275.000000	5.424527
274.000000	5.427355
273.000000	5.487121
272.000000	5.463722
271.000000	5.463527
270.000000	5.496871
269.000000	5.541038
268.000000	5.498334
267.000000	5.555370
266.000000	5.542890
265.000000	5.602755
264.000000	5.618647
263.000000	5.682508
262.000000	5.684556
261.000000	5.685823
260.000000	5.699863
259.000000	5.747345
258.000000	5.785759
257.000000	5.763530
256.000000	5.749977
255.000000	5.772110
254.000000	5.788294
253.000000	5.748222
252.000000	5.797069
251.000000	5.793267
250.000000	5.788782
