PE UV       SUBTECH     SPECTRUM    ASCII       PEDS        4.00        
   -1
CICIMAUCR0006-1.Sample.ASC
24/03/08
11:34:28.00
24/03/08
11:34:28.00
Vinicio Soto Monge
C. kalinini
250,000000
1
Lambda 1050
1050L1511233
PerkinElmer UV WinLab 6.3.2.0749 / 2.02.05 Lambda 900 UV/VIS/NIR, Aug  7 2015 09:38:08

0
0
3350/servo 860,8/2
0
0
UV/VIS
1
1
1
DoubleDePol,CommonBeamDepol,RBeamAtt,SBeamAtt,60mm sphere, WB InGaAs Detector
0
0
0
0
Program
Program
3350/servo 860,8/2
3350/0,2 860,8/0,2
3350/0,2 860,8/0,2
0
15.00
 
 
 
0
 
860,8
319,2
860,8
Front
100
on
S:100 R:100
0
0
0
0
 
0
 
 
 
0
 
 
0
0
0
0
0
 
 
 
 
0
0


0
0
#HDR
-1
-1
#GR
nm
%R
1.0
0.0
2500,000000
-1,000000
2251
8
34,259900
1,836500
#DATA
2500.000000	2.121500
2499.000000	2.108000
2498.000000	1.906100
2497.000000	2.029000
2496.000000	1.871300
2495.000000	1.957000
2494.000000	1.941200
2493.000000	1.900500
2492.000000	1.868200
2491.000000	1.836500
2490.000000	1.906500
2489.000000	1.924200
2488.000000	1.923100
2487.000000	1.853800
2486.000000	1.865800
2485.000000	1.938100
2484.000000	1.901200
2483.000000	1.848300
2482.000000	1.863500
2481.000000	1.906000
2480.000000	1.878000
2479.000000	1.880000
2478.000000	1.841300
2477.000000	1.871900
2476.000000	1.875400
2475.000000	1.845700
2474.000000	1.876500
2473.000000	1.857400
2472.000000	1.846200
2471.000000	1.928500
2470.000000	1.902000
2469.000000	1.870700
2468.000000	1.857500
2467.000000	1.874600
2466.000000	1.873000
2465.000000	1.883800
2464.000000	1.897100
2463.000000	1.924100
2462.000000	1.931600
2461.000000	1.923200
2460.000000	1.907900
2459.000000	1.911900
2458.000000	1.934500
2457.000000	1.926000
2456.000000	1.959000
2455.000000	1.975100
2454.000000	1.971700
2453.000000	1.978900
2452.000000	2.015500
2451.000000	2.030300
2450.000000	2.050400
2449.000000	2.055200
2448.000000	2.066600
2447.000000	2.100300
2446.000000	2.102200
2445.000000	2.110800
2444.000000	2.140700
2443.000000	2.143900
2442.000000	2.182900
2441.000000	2.182200
2440.000000	2.190400
2439.000000	2.219900
2438.000000	2.224400
2437.000000	2.228100
2436.000000	2.248300
2435.000000	2.263200
2434.000000	2.277300
2433.000000	2.299800
2432.000000	2.297900
2431.000000	2.312800
2430.000000	2.338100
2429.000000	2.348800
2428.000000	2.348000
2427.000000	2.369100
2426.000000	2.382100
2425.000000	2.417100
2424.000000	2.429700
2423.000000	2.463100
2422.000000	2.490600
2421.000000	2.505900
2420.000000	2.536300
2419.000000	2.550400
2418.000000	2.557200
2417.000000	2.563900
2416.000000	2.567800
2415.000000	2.606400
2414.000000	2.628700
2413.000000	2.630900
2412.000000	2.642700
2411.000000	2.665600
2410.000000	2.695400
2409.000000	2.692100
2408.000000	2.706300
2407.000000	2.732200
2406.000000	2.728400
2405.000000	2.748300
2404.000000	2.777800
2403.000000	2.777000
2402.000000	2.774700
2401.000000	2.805600
2400.000000	2.836800
2399.000000	2.844000
2398.000000	2.853400
2397.000000	2.870000
2396.000000	2.880700
2395.000000	2.895000
2394.000000	2.901000
2393.000000	2.918100
2392.000000	2.938600
2391.000000	2.960300
2390.000000	2.972900
2389.000000	2.978100
2388.000000	2.985300
2387.000000	2.982500
2386.000000	2.997000
2385.000000	3.008500
2384.000000	3.024800
2383.000000	3.022800
2382.000000	3.023800
2381.000000	3.033900
2380.000000	3.037900
2379.000000	3.042800
2378.000000	3.046900
2377.000000	3.048800
2376.000000	3.045500
2375.000000	3.040400
2374.000000	3.050900
2373.000000	3.065000
2372.000000	3.052600
2371.000000	3.058300
2370.000000	3.063200
2369.000000	3.046000
2368.000000	3.034500
2367.000000	3.025800
2366.000000	3.039300
2365.000000	3.046300
2364.000000	3.031500
2363.000000	3.025800
2362.000000	3.017500
2361.000000	3.010100
2360.000000	2.984000
2359.000000	2.974500
2358.000000	2.980700
2357.000000	2.962900
2356.000000	2.949800
2355.000000	2.951000
2354.000000	2.947700
2353.000000	2.934600
2352.000000	2.936300
2351.000000	2.955800
2350.000000	2.964500
2349.000000	2.961300
2348.000000	2.981000
2347.000000	3.002200
2346.000000	3.006900
2345.000000	3.015200
2344.000000	3.032800
2343.000000	3.071600
2342.000000	3.075600
2341.000000	3.079800
2340.000000	3.085700
2339.000000	3.081300
2338.000000	3.094800
2337.000000	3.113400
2336.000000	3.117200
2335.000000	3.113100
2334.000000	3.123000
2333.000000	3.125400
2332.000000	3.125900
2331.000000	3.120500
2330.000000	3.103300
2329.000000	3.095000
2328.000000	3.087000
2327.000000	3.073600
2326.000000	3.064500
2325.000000	3.028900
2324.000000	3.027700
2323.000000	3.012000
2322.000000	2.975000
2321.000000	2.961200
2320.000000	2.933400
2319.000000	2.922100
2318.000000	2.902900
2317.000000	2.863900
2316.000000	2.831100
2315.000000	2.806900
2314.000000	2.770300
2313.000000	2.731900
2312.000000	2.717700
2311.000000	2.704400
2310.000000	2.697000
2309.000000	2.670500
2308.000000	2.667600
2307.000000	2.647600
2306.000000	2.637800
2305.000000	2.636600
2304.000000	2.643200
2303.000000	2.641500
2302.000000	2.663300
2301.000000	2.666400
2300.000000	2.687300
2299.000000	2.703500
2298.000000	2.714600
2297.000000	2.737400
2296.000000	2.756100
2295.000000	2.749000
2294.000000	2.774500
2293.000000	2.795200
2292.000000	2.809600
2291.000000	2.813100
2290.000000	2.825500
2289.000000	2.820100
2288.000000	2.810600
2287.000000	2.799200
2286.000000	2.810100
2285.000000	2.797900
2284.000000	2.776600
2283.000000	2.742200
2282.000000	2.736700
2281.000000	2.717600
2280.000000	2.703000
2279.000000	2.692100
2278.000000	2.646800
2277.000000	2.654600
2276.000000	2.636800
2275.000000	2.617600
2274.000000	2.594200
2273.000000	2.589400
2272.000000	2.588800
2271.000000	2.571600
2270.000000	2.584600
2269.000000	2.565300
2268.000000	2.572200
2267.000000	2.585400
2266.000000	2.599000
2265.000000	2.632100
2264.000000	2.643700
2263.000000	2.657800
2262.000000	2.679700
2261.000000	2.719100
2260.000000	2.756300
2259.000000	2.806800
2258.000000	2.832100
2257.000000	2.899700
2256.000000	2.943900
2255.000000	2.971800
2254.000000	3.016800
2253.000000	3.054400
2252.000000	3.112100
2251.000000	3.134400
2250.000000	3.168400
2249.000000	3.195300
2248.000000	3.242200
2247.000000	3.282400
2246.000000	3.322300
2245.000000	3.354200
2244.000000	3.362300
2243.000000	3.376500
2242.000000	3.422300
2241.000000	3.424800
2240.000000	3.440100
2239.000000	3.496100
2238.000000	3.514600
2237.000000	3.501900
2236.000000	3.510300
2235.000000	3.539400
2234.000000	3.535200
2233.000000	3.548300
2232.000000	3.562900
2231.000000	3.567200
2230.000000	3.564300
2229.000000	3.536200
2228.000000	3.538100
2227.000000	3.531000
2226.000000	3.531100
2225.000000	3.521800
2224.000000	3.510900
2223.000000	3.490800
2222.000000	3.467300
2221.000000	3.465100
2220.000000	3.425600
2219.000000	3.397600
2218.000000	3.407800
2217.000000	3.392700
2216.000000	3.367400
2215.000000	3.344900
2214.000000	3.329300
2213.000000	3.328200
2212.000000	3.324600
2211.000000	3.307000
2210.000000	3.310000
2209.000000	3.328300
2208.000000	3.371500
2207.000000	3.381200
2206.000000	3.403700
2205.000000	3.408100
2204.000000	3.477700
2203.000000	3.522500
2202.000000	3.575700
2201.000000	3.627400
2200.000000	3.661300
2199.000000	3.727000
2198.000000	3.777200
2197.000000	3.841000
2196.000000	3.893500
2195.000000	3.949100
2194.000000	4.011200
2193.000000	4.045500
2192.000000	4.094200
2191.000000	4.151600
2190.000000	4.190800
2189.000000	4.206200
2188.000000	4.211200
2187.000000	4.262200
2186.000000	4.287200
2185.000000	4.319900
2184.000000	4.333900
2183.000000	4.341100
2182.000000	4.346800
2181.000000	4.356300
2180.000000	4.359200
2179.000000	4.384000
2178.000000	4.386100
2177.000000	4.402500
2176.000000	4.391200
2175.000000	4.418700
2174.000000	4.415700
2173.000000	4.403600
2172.000000	4.419000
2171.000000	4.425600
2170.000000	4.432800
2169.000000	4.446400
2168.000000	4.472200
2167.000000	4.475600
2166.000000	4.487500
2165.000000	4.497600
2164.000000	4.486200
2163.000000	4.480400
2162.000000	4.480900
2161.000000	4.490400
2160.000000	4.485800
2159.000000	4.507600
2158.000000	4.509400
2157.000000	4.506800
2156.000000	4.517300
2155.000000	4.508700
2154.000000	4.528100
2153.000000	4.552300
2152.000000	4.565900
2151.000000	4.572100
2150.000000	4.580100
2149.000000	4.582000
2148.000000	4.593600
2147.000000	4.618600
2146.000000	4.617300
2145.000000	4.617600
2144.000000	4.632700
2143.000000	4.646900
2142.000000	4.649400
2141.000000	4.667100
2140.000000	4.685900
2139.000000	4.682700
2138.000000	4.693200
2137.000000	4.683000
2136.000000	4.686900
2135.000000	4.705100
2134.000000	4.713900
2133.000000	4.723000
2132.000000	4.727200
2131.000000	4.728700
2130.000000	4.719300
2129.000000	4.723500
2128.000000	4.736000
2127.000000	4.742100
2126.000000	4.752500
2125.000000	4.753600
2124.000000	4.751300
2123.000000	4.747400
2122.000000	4.753200
2121.000000	4.754300
2120.000000	4.757000
2119.000000	4.755800
2118.000000	4.746400
2117.000000	4.722900
2116.000000	4.718000
2115.000000	4.738500
2114.000000	4.732600
2113.000000	4.717000
2112.000000	4.727000
2111.000000	4.736800
2110.000000	4.725400
2109.000000	4.708200
2108.000000	4.706700
2107.000000	4.715900
2106.000000	4.725100
2105.000000	4.724500
2104.000000	4.706600
2103.000000	4.695400
2102.000000	4.698300
2101.000000	4.700300
2100.000000	4.702000
2099.000000	4.700000
2098.000000	4.691200
2097.000000	4.692200
2096.000000	4.692000
2095.000000	4.687100
2094.000000	4.684600
2093.000000	4.681000
2092.000000	4.690500
2091.000000	4.703500
2090.000000	4.700700
2089.000000	4.690100
2088.000000	4.684100
2087.000000	4.692000
2086.000000	4.682000
2085.000000	4.675600
2084.000000	4.682400
2083.000000	4.689500
2082.000000	4.692600
2081.000000	4.684100
2080.000000	4.685200
2079.000000	4.679800
2078.000000	4.671400
2077.000000	4.674300
2076.000000	4.690700
2075.000000	4.687900
2074.000000	4.671700
2073.000000	4.667700
2072.000000	4.666400
2071.000000	4.655900
2070.000000	4.662100
2069.000000	4.655700
2068.000000	4.648000
2067.000000	4.660000
2066.000000	4.646100
2065.000000	4.642200
2064.000000	4.634800
2063.000000	4.643700
2062.000000	4.652500
2061.000000	4.652100
2060.000000	4.645100
2059.000000	4.648700
2058.000000	4.663900
2057.000000	4.654800
2056.000000	4.676800
2055.000000	4.688400
2054.000000	4.696900
2053.000000	4.707300
2052.000000	4.737100
2051.000000	4.758400
2050.000000	4.778500
2049.000000	4.788100
2048.000000	4.824300
2047.000000	4.836900
2046.000000	4.880600
2045.000000	4.899500
2044.000000	4.936900
2043.000000	4.979000
2042.000000	5.004000
2041.000000	5.029300
2040.000000	5.067700
2039.000000	5.096000
2038.000000	5.121900
2037.000000	5.153800
2036.000000	5.170400
2035.000000	5.184900
2034.000000	5.210300
2033.000000	5.230300
2032.000000	5.245600
2031.000000	5.282700
2030.000000	5.302500
2029.000000	5.317800
2028.000000	5.337500
2027.000000	5.377000
2026.000000	5.377300
2025.000000	5.366500
2024.000000	5.388000
2023.000000	5.406400
2022.000000	5.408100
2021.000000	5.429500
2020.000000	5.454300
2019.000000	5.456100
2018.000000	5.446200
2017.000000	5.465500
2016.000000	5.477400
2015.000000	5.481900
2014.000000	5.477400
2013.000000	5.481100
2012.000000	5.476300
2011.000000	5.492900
2010.000000	5.489900
2009.000000	5.489400
2008.000000	5.497000
2007.000000	5.477400
2006.000000	5.471800
2005.000000	5.461000
2004.000000	5.441400
2003.000000	5.445900
2002.000000	5.440600
2001.000000	5.410100
2000.000000	5.385600
1999.000000	5.401800
1998.000000	5.385900
1997.000000	5.373700
1996.000000	5.367700
1995.000000	5.352300
1994.000000	5.328800
1993.000000	5.308400
1992.000000	5.285300
1991.000000	5.285600
1990.000000	5.238600
1989.000000	5.219000
1988.000000	5.205900
1987.000000	5.179200
1986.000000	5.176700
1985.000000	5.144000
1984.000000	5.104800
1983.000000	5.096100
1982.000000	5.058600
1981.000000	5.056900
1980.000000	5.014700
1979.000000	4.994100
1978.000000	4.971300
1977.000000	4.935600
1976.000000	4.919000
1975.000000	4.886200
1974.000000	4.849100
1973.000000	4.844600
1972.000000	4.839100
1971.000000	4.811700
1970.000000	4.770600
1969.000000	4.752200
1968.000000	4.731900
1967.000000	4.716200
1966.000000	4.690900
1965.000000	4.657800
1964.000000	4.630900
1963.000000	4.611900
1962.000000	4.586800
1961.000000	4.556600
1960.000000	4.553400
1959.000000	4.527000
1958.000000	4.502700
1957.000000	4.494800
1956.000000	4.448900
1955.000000	4.424700
1954.000000	4.416300
1953.000000	4.387800
1952.000000	4.396400
1951.000000	4.351700
1950.000000	4.335400
1949.000000	4.337900
1948.000000	4.306000
1947.000000	4.291700
1946.000000	4.269800
1945.000000	4.266200
1944.000000	4.255700
1943.000000	4.237600
1942.000000	4.219900
1941.000000	4.220900
1940.000000	4.213600
1939.000000	4.203600
1938.000000	4.198200
1937.000000	4.207400
1936.000000	4.234700
1935.000000	4.222500
1934.000000	4.224100
1933.000000	4.220100
1932.000000	4.268400
1931.000000	4.285400
1930.000000	4.280800
1929.000000	4.312600
1928.000000	4.329000
1927.000000	4.344800
1926.000000	4.360800
1925.000000	4.387200
1924.000000	4.425700
1923.000000	4.459900
1922.000000	4.493400
1921.000000	4.519600
1920.000000	4.566700
1919.000000	4.623200
1918.000000	4.663900
1917.000000	4.703100
1916.000000	4.745700
1915.000000	4.797800
1914.000000	4.859300
1913.000000	4.903000
1912.000000	4.953200
1911.000000	5.028100
1910.000000	5.070600
1909.000000	5.136400
1908.000000	5.211200
1907.000000	5.288200
1906.000000	5.360900
1905.000000	5.431300
1904.000000	5.483600
1903.000000	5.568800
1902.000000	5.657400
1901.000000	5.736300
1900.000000	5.802800
1899.000000	5.867900
1898.000000	5.957900
1897.000000	6.048300
1896.000000	6.128500
1895.000000	6.236700
1894.000000	6.328100
1893.000000	6.435000
1892.000000	6.519700
1891.000000	6.606800
1890.000000	6.698100
1889.000000	6.810100
1888.000000	6.920200
1887.000000	7.044100
1886.000000	7.170100
1885.000000	7.303800
1884.000000	7.445100
1883.000000	7.589400
1882.000000	7.741200
1881.000000	7.920900
1880.000000	8.089100
1879.000000	8.235100
1878.000000	8.391600
1877.000000	8.545300
1876.000000	8.667600
1875.000000	8.781300
1874.000000	8.899500
1873.000000	8.989200
1872.000000	9.077500
1871.000000	9.153500
1870.000000	9.214000
1869.000000	9.277000
1868.000000	9.362900
1867.000000	9.452800
1866.000000	9.511300
1865.000000	9.565500
1864.000000	9.641700
1863.000000	9.723500
1862.000000	9.773100
1861.000000	9.788100
1860.000000	9.790600
1859.000000	9.787000
1858.000000	9.795400
1857.000000	9.827800
1856.000000	9.864000
1855.000000	9.876300
1854.000000	9.857000
1853.000000	9.832800
1852.000000	9.839800
1851.000000	9.878600
1850.000000	9.909600
1849.000000	9.888200
1848.000000	9.820300
1847.000000	9.734700
1846.000000	9.711500
1845.000000	9.748700
1844.000000	9.793100
1843.000000	9.821200
1842.000000	9.804100
1841.000000	9.743500
1840.000000	9.707900
1839.000000	9.698100
1838.000000	9.678700
1837.000000	9.652800
1836.000000	9.629200
1835.000000	9.608200
1834.000000	9.600800
1833.000000	9.588200
1832.000000	9.588700
1831.000000	9.581200
1830.000000	9.540600
1829.000000	9.501600
1828.000000	9.462800
1827.000000	9.423200
1826.000000	9.394300
1825.000000	9.379500
1824.000000	9.385700
1823.000000	9.424400
1822.000000	9.423200
1821.000000	9.356400
1820.000000	9.292300
1819.000000	9.269500
1818.000000	9.275300
1817.000000	9.286700
1816.000000	9.279800
1815.000000	9.258300
1814.000000	9.262300
1813.000000	9.266400
1812.000000	9.252000
1811.000000	9.230100
1810.000000	9.222900
1809.000000	9.229400
1808.000000	9.213600
1807.000000	9.179000
1806.000000	9.153400
1805.000000	9.126400
1804.000000	9.109500
1803.000000	9.097100
1802.000000	9.068900
1801.000000	9.046300
1800.000000	9.024600
1799.000000	9.004700
1798.000000	9.001100
1797.000000	8.993500
1796.000000	8.967300
1795.000000	8.952400
1794.000000	8.944000
1793.000000	8.918300
1792.000000	8.907600
1791.000000	8.885500
1790.000000	8.859200
1789.000000	8.833200
1788.000000	8.827700
1787.000000	8.818900
1786.000000	8.792100
1785.000000	8.748800
1784.000000	8.730900
1783.000000	8.725100
1782.000000	8.688400
1781.000000	8.672500
1780.000000	8.666200
1779.000000	8.640700
1778.000000	8.613700
1777.000000	8.565200
1776.000000	8.536600
1775.000000	8.504000
1774.000000	8.481800
1773.000000	8.456400
1772.000000	8.425900
1771.000000	8.392100
1770.000000	8.354200
1769.000000	8.324200
1768.000000	8.310400
1767.000000	8.265900
1766.000000	8.245700
1765.000000	8.235500
1764.000000	8.229500
1763.000000	8.239600
1762.000000	8.242900
1761.000000	8.253500
1760.000000	8.299500
1759.000000	8.342200
1758.000000	8.342400
1757.000000	8.376000
1756.000000	8.416200
1755.000000	8.457100
1754.000000	8.470500
1753.000000	8.463200
1752.000000	8.489200
1751.000000	8.476600
1750.000000	8.496000
1749.000000	8.496200
1748.000000	8.466300
1747.000000	8.454000
1746.000000	8.421500
1745.000000	8.371200
1744.000000	8.342900
1743.000000	8.308300
1742.000000	8.275000
1741.000000	8.201600
1740.000000	8.130800
1739.000000	8.077800
1738.000000	8.011200
1737.000000	7.958900
1736.000000	7.921300
1735.000000	7.883800
1734.000000	7.859600
1733.000000	7.869300
1732.000000	7.887200
1731.000000	7.917100
1730.000000	7.932500
1729.000000	7.996000
1728.000000	8.011600
1727.000000	8.074300
1726.000000	8.102200
1725.000000	8.104900
1724.000000	8.132800
1723.000000	8.164700
1722.000000	8.165900
1721.000000	8.170400
1720.000000	8.193700
1719.000000	8.201800
1718.000000	8.198800
1717.000000	8.212100
1716.000000	8.237800
1715.000000	8.260800
1714.000000	8.289200
1713.000000	8.292200
1712.000000	8.319100
1711.000000	8.301600
1710.000000	8.305300
1709.000000	8.318700
1708.000000	8.292900
1707.000000	8.294200
1706.000000	8.279700
1705.000000	8.270900
1704.000000	8.252900
1703.000000	8.201300
1702.000000	8.171100
1701.000000	8.125100
1700.000000	8.083000
1699.000000	8.033000
1698.000000	7.957200
1697.000000	7.897200
1696.000000	7.886400
1695.000000	7.896300
1694.000000	7.893600
1693.000000	7.919700
1692.000000	7.971100
1691.000000	7.999500
1690.000000	8.046400
1689.000000	8.090500
1688.000000	8.121500
1687.000000	8.122900
1686.000000	8.108800
1685.000000	8.114400
1684.000000	8.149000
1683.000000	8.191500
1682.000000	8.298000
1681.000000	8.413000
1680.000000	8.574500
1679.000000	8.736700
1678.000000	8.901700
1677.000000	9.069700
1676.000000	9.196100
1675.000000	9.311200
1674.000000	9.413500
1673.000000	9.524900
1672.000000	9.597700
1671.000000	9.674500
1670.000000	9.724500
1669.000000	9.773600
1668.000000	9.826600
1667.000000	9.879500
1666.000000	9.898000
1665.000000	9.937300
1664.000000	9.951700
1663.000000	9.967500
1662.000000	9.988200
1661.000000	10.020700
1660.000000	10.028800
1659.000000	10.024600
1658.000000	10.036000
1657.000000	10.042400
1656.000000	10.048600
1655.000000	10.051700
1654.000000	10.048800
1653.000000	10.039700
1652.000000	10.048700
1651.000000	10.040900
1650.000000	10.042800
1649.000000	10.028000
1648.000000	10.005100
1647.000000	10.002800
1646.000000	10.009500
1645.000000	9.982700
1644.000000	9.968500
1643.000000	9.955200
1642.000000	9.941600
1641.000000	9.920800
1640.000000	9.914100
1639.000000	9.915700
1638.000000	9.908700
1637.000000	9.893900
1636.000000	9.872000
1635.000000	9.866500
1634.000000	9.844600
1633.000000	9.819800
1632.000000	9.807200
1631.000000	9.794500
1630.000000	9.784000
1629.000000	9.776000
1628.000000	9.762900
1627.000000	9.745900
1626.000000	9.724400
1625.000000	9.700500
1624.000000	9.703600
1623.000000	9.688300
1622.000000	9.671800
1621.000000	9.654400
1620.000000	9.630400
1619.000000	9.607600
1618.000000	9.592500
1617.000000	9.578500
1616.000000	9.560100
1615.000000	9.539300
1614.000000	9.521800
1613.000000	9.514500
1612.000000	9.500100
1611.000000	9.490500
1610.000000	9.481100
1609.000000	9.467200
1608.000000	9.438200
1607.000000	9.426900
1606.000000	9.415100
1605.000000	9.394800
1604.000000	9.366800
1603.000000	9.341400
1602.000000	9.325700
1601.000000	9.320400
1600.000000	9.298800
1599.000000	9.279500
1598.000000	9.261600
1597.000000	9.239800
1596.000000	9.213100
1595.000000	9.182700
1594.000000	9.160600
1593.000000	9.150600
1592.000000	9.137500
1591.000000	9.115900
1590.000000	9.110100
1589.000000	9.094300
1588.000000	9.060600
1587.000000	9.044500
1586.000000	9.041600
1585.000000	9.020100
1584.000000	8.995200
1583.000000	8.988600
1582.000000	8.975600
1581.000000	8.949500
1580.000000	8.923700
1579.000000	8.916900
1578.000000	8.895900
1577.000000	8.878900
1576.000000	8.867100
1575.000000	8.856900
1574.000000	8.853100
1573.000000	8.859100
1572.000000	8.849800
1571.000000	8.840900
1570.000000	8.846500
1569.000000	8.847900
1568.000000	8.847800
1567.000000	8.845400
1566.000000	8.851300
1565.000000	8.855500
1564.000000	8.847900
1563.000000	8.853000
1562.000000	8.858300
1561.000000	8.855500
1560.000000	8.854700
1559.000000	8.856500
1558.000000	8.851100
1557.000000	8.842600
1556.000000	8.845500
1555.000000	8.834600
1554.000000	8.830200
1553.000000	8.832500
1552.000000	8.829800
1551.000000	8.829600
1550.000000	8.828700
1549.000000	8.826600
1548.000000	8.833500
1547.000000	8.832500
1546.000000	8.828600
1545.000000	8.848300
1544.000000	8.853300
1543.000000	8.845100
1542.000000	8.838300
1541.000000	8.844300
1540.000000	8.844100
1539.000000	8.847700
1538.000000	8.857800
1537.000000	8.870400
1536.000000	8.887300
1535.000000	8.892000
1534.000000	8.872000
1533.000000	8.874800
1532.000000	8.874000
1531.000000	8.866700
1530.000000	8.865900
1529.000000	8.868700
1528.000000	8.882100
1527.000000	8.881300
1526.000000	8.872200
1525.000000	8.867600
1524.000000	8.856500
1523.000000	8.851200
1522.000000	8.852000
1521.000000	8.867200
1520.000000	8.854200
1519.000000	8.840700
1518.000000	8.847300
1517.000000	8.824800
1516.000000	8.824500
1515.000000	8.822900
1514.000000	8.819700
1513.000000	8.826700
1512.000000	8.811200
1511.000000	8.803900
1510.000000	8.783900
1509.000000	8.759700
1508.000000	8.758800
1507.000000	8.745200
1506.000000	8.726700
1505.000000	8.739200
1504.000000	8.721700
1503.000000	8.716600
1502.000000	8.696600
1501.000000	8.685500
1500.000000	8.669800
1499.000000	8.664300
1498.000000	8.672500
1497.000000	8.643800
1496.000000	8.618600
1495.000000	8.619400
1494.000000	8.608000
1493.000000	8.604900
1492.000000	8.595300
1491.000000	8.588600
1490.000000	8.569100
1489.000000	8.555700
1488.000000	8.548800
1487.000000	8.542700
1486.000000	8.536200
1485.000000	8.525200
1484.000000	8.515500
1483.000000	8.505700
1482.000000	8.509300
1481.000000	8.487900
1480.000000	8.481400
1479.000000	8.471500
1478.000000	8.471800
1477.000000	8.470000
1476.000000	8.471000
1475.000000	8.462700
1474.000000	8.447100
1473.000000	8.431700
1472.000000	8.432100
1471.000000	8.440000
1470.000000	8.442300
1469.000000	8.441500
1468.000000	8.463700
1467.000000	8.456400
1466.000000	8.448200
1465.000000	8.459700
1464.000000	8.480900
1463.000000	8.491800
1462.000000	8.483600
1461.000000	8.470800
1460.000000	8.503100
1459.000000	8.515000
1458.000000	8.523500
1457.000000	8.559400
1456.000000	8.582500
1455.000000	8.595500
1454.000000	8.623100
1453.000000	8.676300
1452.000000	8.681000
1451.000000	8.718200
1450.000000	8.749800
1449.000000	8.776900
1448.000000	8.818400
1447.000000	8.857700
1446.000000	8.904500
1445.000000	8.923500
1444.000000	8.968000
1443.000000	9.008000
1442.000000	9.046700
1441.000000	9.088300
1440.000000	9.127100
1439.000000	9.203100
1438.000000	9.236700
1437.000000	9.262600
1436.000000	9.311100
1435.000000	9.365900
1434.000000	9.409500
1433.000000	9.436700
1432.000000	9.492800
1431.000000	9.524700
1430.000000	9.603100
1429.000000	9.664000
1428.000000	9.706500
1427.000000	9.777300
1426.000000	9.837500
1425.000000	9.930300
1424.000000	9.986500
1423.000000	10.039200
1422.000000	10.103100
1421.000000	10.203900
1420.000000	10.248900
1419.000000	10.320800
1418.000000	10.406300
1417.000000	10.443500
1416.000000	10.549500
1415.000000	10.608900
1414.000000	10.683200
1413.000000	10.733600
1412.000000	10.796700
1411.000000	10.868400
1410.000000	10.980100
1409.000000	11.081300
1408.000000	11.172400
1407.000000	11.247700
1406.000000	11.337200
1405.000000	11.441500
1404.000000	11.504700
1403.000000	11.594900
1402.000000	11.710300
1401.000000	11.833500
1400.000000	11.816600
1399.000000	11.856100
1398.000000	11.925000
1397.000000	11.996500
1396.000000	12.022100
1395.000000	11.971800
1394.000000	12.004100
1393.000000	12.019600
1392.000000	12.036200
1391.000000	12.044400
1390.000000	12.088200
1389.000000	12.155300
1388.000000	12.188000
1387.000000	12.240800
1386.000000	12.356100
1385.000000	12.489000
1384.000000	12.629800
1383.000000	12.775800
1382.000000	12.902300
1381.000000	13.014200
1380.000000	13.166200
1379.000000	13.304400
1378.000000	13.484400
1377.000000	13.651400
1376.000000	13.811900
1375.000000	14.021600
1374.000000	14.229100
1373.000000	14.463900
1372.000000	14.665800
1371.000000	14.832400
1370.000000	15.006300
1369.000000	15.165800
1368.000000	15.287700
1367.000000	15.374100
1366.000000	15.498400
1365.000000	15.583800
1364.000000	15.656700
1363.000000	15.743900
1362.000000	15.804700
1361.000000	15.832300
1360.000000	15.836500
1359.000000	15.915000
1358.000000	15.957200
1357.000000	16.044500
1356.000000	16.153500
1355.000000	16.288000
1354.000000	16.445400
1353.000000	16.606200
1352.000000	16.822800
1351.000000	17.028100
1350.000000	17.177700
1349.000000	17.310300
1348.000000	17.477700
1347.000000	17.599700
1346.000000	17.736500
1345.000000	17.865300
1344.000000	17.991000
1343.000000	18.104700
1342.000000	18.225900
1341.000000	18.340800
1340.000000	18.460900
1339.000000	18.576300
1338.000000	18.680800
1337.000000	18.776500
1336.000000	18.874600
1335.000000	18.984500
1334.000000	19.077300
1333.000000	19.170400
1332.000000	19.268600
1331.000000	19.343300
1330.000000	19.441500
1329.000000	19.511100
1328.000000	19.577300
1327.000000	19.650800
1326.000000	19.705600
1325.000000	19.773600
1324.000000	19.843400
1323.000000	19.913000
1322.000000	19.967600
1321.000000	20.022300
1320.000000	20.065100
1319.000000	20.113100
1318.000000	20.163700
1317.000000	20.193700
1316.000000	20.229600
1315.000000	20.266700
1314.000000	20.304700
1313.000000	20.326200
1312.000000	20.358700
1311.000000	20.382700
1310.000000	20.408600
1309.000000	20.438100
1308.000000	20.457900
1307.000000	20.465900
1306.000000	20.469500
1305.000000	20.477800
1304.000000	20.480900
1303.000000	20.477200
1302.000000	20.474400
1301.000000	20.479200
1300.000000	20.477000
1299.000000	20.473800
1298.000000	20.485200
1297.000000	20.481500
1296.000000	20.471000
1295.000000	20.463500
1294.000000	20.459800
1293.000000	20.461800
1292.000000	20.448700
1291.000000	20.434200
1290.000000	20.434800
1289.000000	20.431000
1288.000000	20.416400
1287.000000	20.407400
1286.000000	20.408400
1285.000000	20.394700
1284.000000	20.363700
1283.000000	20.344900
1282.000000	20.338500
1281.000000	20.321500
1280.000000	20.303900
1279.000000	20.286800
1278.000000	20.269300
1277.000000	20.253300
1276.000000	20.231900
1275.000000	20.221800
1274.000000	20.210700
1273.000000	20.196600
1272.000000	20.192100
1271.000000	20.189700
1270.000000	20.176200
1269.000000	20.165700
1268.000000	20.134900
1267.000000	20.097100
1266.000000	20.085900
1265.000000	20.074800
1264.000000	20.042200
1263.000000	20.015400
1262.000000	19.990700
1261.000000	19.973700
1260.000000	19.947600
1259.000000	19.911300
1258.000000	19.892300
1257.000000	19.853400
1256.000000	19.809900
1255.000000	19.780000
1254.000000	19.755100
1253.000000	19.702700
1252.000000	19.661500
1251.000000	19.620900
1250.000000	19.573100
1249.000000	19.546000
1248.000000	19.501700
1247.000000	19.458500
1246.000000	19.391800
1245.000000	19.345500
1244.000000	19.293500
1243.000000	19.250200
1242.000000	19.198400
1241.000000	19.157600
1240.000000	19.099400
1239.000000	19.045200
1238.000000	18.991800
1237.000000	18.942200
1236.000000	18.881000
1235.000000	18.813600
1234.000000	18.763800
1233.000000	18.717600
1232.000000	18.649700
1231.000000	18.573500
1230.000000	18.507600
1229.000000	18.453100
1228.000000	18.380700
1227.000000	18.306700
1226.000000	18.221300
1225.000000	18.168500
1224.000000	18.123800
1223.000000	18.055000
1222.000000	17.988300
1221.000000	17.935800
1220.000000	17.863800
1219.000000	17.798100
1218.000000	17.746300
1217.000000	17.710200
1216.000000	17.625300
1215.000000	17.592500
1214.000000	17.583000
1213.000000	17.521900
1212.000000	17.483400
1211.000000	17.457700
1210.000000	17.421400
1209.000000	17.408700
1208.000000	17.395700
1207.000000	17.382300
1206.000000	17.370300
1205.000000	17.378800
1204.000000	17.346900
1203.000000	17.386500
1202.000000	17.370000
1201.000000	17.361400
1200.000000	17.355000
1199.000000	17.344100
1198.000000	17.301100
1197.000000	17.289500
1196.000000	17.207500
1195.000000	17.147100
1194.000000	17.066800
1193.000000	16.915300
1192.000000	16.792800
1191.000000	16.648200
1190.000000	16.494900
1189.000000	16.379900
1188.000000	16.288500
1187.000000	16.256000
1186.000000	16.242000
1185.000000	16.264800
1184.000000	16.351800
1183.000000	16.461900
1182.000000	16.616800
1181.000000	16.770900
1180.000000	16.944600
1179.000000	17.116000
1178.000000	17.246500
1177.000000	17.368300
1176.000000	17.471500
1175.000000	17.566100
1174.000000	17.690600
1173.000000	17.800400
1172.000000	17.917200
1171.000000	18.030700
1170.000000	18.146700
1169.000000	18.284800
1168.000000	18.385800
1167.000000	18.491200
1166.000000	18.628600
1165.000000	18.763400
1164.000000	18.889900
1163.000000	19.041000
1162.000000	19.190800
1161.000000	19.344000
1160.000000	19.457300
1159.000000	19.565300
1158.000000	19.732900
1157.000000	19.835500
1156.000000	19.951100
1155.000000	20.012300
1154.000000	20.084500
1153.000000	20.124300
1152.000000	20.151800
1151.000000	20.149400
1150.000000	20.178900
1149.000000	20.212300
1148.000000	20.237700
1147.000000	20.295300
1146.000000	20.327700
1145.000000	20.399400
1144.000000	20.517600
1143.000000	20.631600
1142.000000	20.755700
1141.000000	20.880900
1140.000000	21.039100
1139.000000	21.157200
1138.000000	21.295800
1137.000000	21.427800
1136.000000	21.604900
1135.000000	21.706500
1134.000000	21.833600
1133.000000	21.968000
1132.000000	22.092800
1131.000000	22.203600
1130.000000	22.297500
1129.000000	22.367100
1128.000000	22.420100
1127.000000	22.476000
1126.000000	22.517100
1125.000000	22.527600
1124.000000	22.563500
1123.000000	22.608600
1122.000000	22.615900
1121.000000	22.623400
1120.000000	22.630000
1119.000000	22.649700
1118.000000	22.648200
1117.000000	22.655600
1116.000000	22.636500
1115.000000	22.637800
1114.000000	22.631400
1113.000000	22.630000
1112.000000	22.635500
1111.000000	22.633600
1110.000000	22.616400
1109.000000	22.607400
1108.000000	22.626000
1107.000000	22.627300
1106.000000	22.619500
1105.000000	22.612400
1104.000000	22.613200
1103.000000	22.610000
1102.000000	22.604400
1101.000000	22.597000
1100.000000	22.588400
1099.000000	22.587300
1098.000000	22.594300
1097.000000	22.575000
1096.000000	22.558600
1095.000000	22.546200
1094.000000	22.536100
1093.000000	22.529800
1092.000000	22.499400
1091.000000	22.491100
1090.000000	22.482300
1089.000000	22.471700
1088.000000	22.443100
1087.000000	22.427200
1086.000000	22.390200
1085.000000	22.369800
1084.000000	22.340600
1083.000000	22.317100
1082.000000	22.294200
1081.000000	22.251500
1080.000000	22.221900
1079.000000	22.191100
1078.000000	22.152500
1077.000000	22.122100
1076.000000	22.103100
1075.000000	22.072000
1074.000000	22.035700
1073.000000	22.008000
1072.000000	21.984300
1071.000000	21.939500
1070.000000	21.911400
1069.000000	21.882100
1068.000000	21.855000
1067.000000	21.833000
1066.000000	21.808200
1065.000000	21.796100
1064.000000	21.775900
1063.000000	21.737800
1062.000000	21.723400
1061.000000	21.716700
1060.000000	21.695900
1059.000000	21.687200
1058.000000	21.659800
1057.000000	21.649000
1056.000000	21.640100
1055.000000	21.623400
1054.000000	21.590600
1053.000000	21.570100
1052.000000	21.569500
1051.000000	21.565300
1050.000000	21.552000
1049.000000	21.532000
1048.000000	21.521400
1047.000000	21.526300
1046.000000	21.507000
1045.000000	21.492900
1044.000000	21.469600
1043.000000	21.453400
1042.000000	21.441900
1041.000000	21.428300
1040.000000	21.431200
1039.000000	21.420100
1038.000000	21.398700
1037.000000	21.384700
1036.000000	21.360300
1035.000000	21.354300
1034.000000	21.352800
1033.000000	21.326600
1032.000000	21.295200
1031.000000	21.280600
1030.000000	21.267500
1029.000000	21.247400
1028.000000	21.237500
1027.000000	21.232600
1026.000000	21.212800
1025.000000	21.186700
1024.000000	21.173400
1023.000000	21.154200
1022.000000	21.122300
1021.000000	21.113300
1020.000000	21.100500
1019.000000	21.090800
1018.000000	21.084400
1017.000000	21.067900
1016.000000	21.046700
1015.000000	21.044500
1014.000000	21.045300
1013.000000	21.042800
1012.000000	21.063300
1011.000000	21.085900
1010.000000	21.076200
1009.000000	21.077800
1008.000000	21.113200
1007.000000	21.140100
1006.000000	21.153500
1005.000000	21.160700
1004.000000	21.183100
1003.000000	21.211200
1002.000000	21.231200
1001.000000	21.250600
1000.000000	21.253900
999.000000	21.275600
998.000000	21.296700
997.000000	21.311300
996.000000	21.328800
995.000000	21.342700
994.000000	21.364700
993.000000	21.390800
992.000000	21.402000
991.000000	21.410500
990.000000	21.436800
989.000000	21.452500
988.000000	21.467300
987.000000	21.507500
986.000000	21.535300
985.000000	21.557600
984.000000	21.570500
983.000000	21.610600
982.000000	21.636600
981.000000	21.650800
980.000000	21.691300
979.000000	21.734600
978.000000	21.750300
977.000000	21.754400
976.000000	21.785600
975.000000	21.823700
974.000000	21.829600
973.000000	21.851700
972.000000	21.884400
971.000000	21.914400
970.000000	21.922700
969.000000	21.947500
968.000000	21.962300
967.000000	22.014500
966.000000	22.036700
965.000000	22.047100
964.000000	22.070700
963.000000	22.104200
962.000000	22.127500
961.000000	22.150600
960.000000	22.186400
959.000000	22.221600
958.000000	22.247300
957.000000	22.260200
956.000000	22.272100
955.000000	22.299900
954.000000	22.312800
953.000000	22.356200
952.000000	22.380200
951.000000	22.395100
950.000000	22.397900
949.000000	22.409700
948.000000	22.423900
947.000000	22.441200
946.000000	22.486000
945.000000	22.497100
944.000000	22.508000
943.000000	22.562700
942.000000	22.587400
941.000000	22.597400
940.000000	22.633900
939.000000	22.660100
938.000000	22.682700
937.000000	22.697600
936.000000	22.725400
935.000000	22.740200
934.000000	22.783800
933.000000	22.800900
932.000000	22.840800
931.000000	22.873100
930.000000	22.908400
929.000000	22.928800
928.000000	22.937100
927.000000	22.987200
926.000000	23.014700
925.000000	23.020100
924.000000	23.011500
923.000000	23.067900
922.000000	23.093300
921.000000	23.102400
920.000000	23.110100
919.000000	23.108400
918.000000	23.104300
917.000000	23.094700
916.000000	23.107600
915.000000	23.097200
914.000000	23.097000
913.000000	23.140800
912.000000	23.113800
911.000000	23.093200
910.000000	23.044400
909.000000	23.009600
908.000000	23.048000
907.000000	23.051800
906.000000	23.028000
905.000000	22.997000
904.000000	22.988900
903.000000	22.957100
902.000000	22.936200
901.000000	22.921500
900.000000	22.909700
899.000000	22.826200
898.000000	22.825100
897.000000	22.812100
896.000000	22.784100
895.000000	22.773800
894.000000	22.734500
893.000000	22.722900
892.000000	22.705500
891.000000	22.653700
890.000000	22.536600
889.000000	22.502100
888.000000	22.481600
887.000000	22.438100
886.000000	22.369900
885.000000	22.206700
884.000000	22.190000
883.000000	22.144300
882.000000	22.047800
881.000000	21.898800
880.000000	21.832300
879.000000	21.714800
878.000000	21.538200
877.000000	21.431200
876.000000	21.331300
875.000000	21.133400
874.000000	21.020000
873.000000	20.828300
872.000000	20.711800
871.000000	20.515400
870.000000	20.382500
869.000000	20.205200
868.000000	20.076400
867.000000	19.926100
866.000000	19.781300
865.000000	19.586600
864.000000	19.400100
863.000000	19.279400
862.000000	19.164900
861.000000	19.001800
860.000000	18.901200
859.000000	18.907800
858.000000	15.125085
857.000000	18.696420
856.000000	18.664761
855.000000	18.822829
854.000000	18.922396
853.000000	18.940673
852.000000	19.101189
851.000000	19.170320
850.000000	19.226986
849.000000	19.211844
848.000000	19.463744
847.000000	19.617759
846.000000	19.831805
845.000000	19.956302
844.000000	20.076135
843.000000	20.120412
842.000000	20.175396
841.000000	20.288040
840.000000	20.448402
839.000000	20.496427
838.000000	20.661454
837.000000	20.839176
836.000000	20.922531
835.000000	20.919778
834.000000	21.111876
833.000000	21.274456
832.000000	21.292886
831.000000	21.441854
830.000000	21.556945
829.000000	21.644736
828.000000	21.793321
827.000000	21.894953
826.000000	22.001632
825.000000	22.047974
824.000000	22.165054
823.000000	22.274256
822.000000	22.437295
821.000000	22.607293
820.000000	22.694472
819.000000	22.776450
818.000000	22.904159
817.000000	22.908671
816.000000	23.031409
815.000000	23.158047
814.000000	23.264573
813.000000	23.407194
812.000000	23.565951
811.000000	23.582316
810.000000	23.691977
809.000000	23.838269
808.000000	23.916118
807.000000	24.012702
806.000000	24.141940
805.000000	24.227284
804.000000	24.393305
803.000000	24.487290
802.000000	24.553132
801.000000	24.692235
800.000000	24.796008
799.000000	24.901540
798.000000	24.985813
797.000000	25.083850
796.000000	25.181735
795.000000	25.238707
794.000000	25.333380
793.000000	25.406487
792.000000	25.495042
791.000000	25.547579
790.000000	25.601645
789.000000	25.624892
788.000000	25.687829
787.000000	25.724306
786.000000	25.794508
785.000000	25.837715
784.000000	25.910517
783.000000	25.945541
782.000000	25.973836
781.000000	26.046943
780.000000	26.069503
779.000000	26.090762
778.000000	26.162264
777.000000	26.149952
776.000000	26.106745
775.000000	26.109421
774.000000	26.152934
773.000000	26.176182
772.000000	26.174805
771.000000	26.166164
770.000000	26.197976
769.000000	26.199353
768.000000	26.192088
767.000000	26.194382
766.000000	26.197135
765.000000	26.160122
764.000000	26.108962
763.000000	26.119210
762.000000	26.153240
761.000000	26.134657
760.000000	26.145669
759.000000	26.167311
758.000000	26.112480
757.000000	26.089156
756.000000	26.087627
755.000000	26.076309
754.000000	26.048014
753.000000	26.046102
752.000000	26.048932
751.000000	26.011307
750.000000	25.988442
749.000000	25.969783
748.000000	25.948523
747.000000	25.930935
746.000000	25.898205
745.000000	25.877557
744.000000	25.857062
743.000000	25.807585
742.000000	25.803149
741.000000	25.781737
740.000000	25.722853
739.000000	25.663205
738.000000	25.613421
737.000000	25.550944
736.000000	25.496648
735.000000	25.472177
734.000000	25.410540
733.000000	25.330015
732.000000	25.275796
731.000000	25.193282
730.000000	25.121551
729.000000	25.025808
728.000000	24.908117
727.000000	24.840745
726.000000	24.755325
725.000000	24.617751
724.000000	24.509696
723.000000	24.435594
722.000000	24.328151
721.000000	24.209924
720.000000	24.115099
719.000000	23.961695
718.000000	23.831157
717.000000	23.714613
716.000000	23.595316
715.000000	23.475484
714.000000	23.358022
713.000000	23.209284
712.000000	23.068651
711.000000	22.945301
710.000000	22.870358
709.000000	22.753814
708.000000	22.629470
707.000000	22.510020
706.000000	22.406094
705.000000	22.298498
704.000000	22.196254
703.000000	22.091028
702.000000	21.986949
701.000000	21.888988
700.000000	21.798063
699.000000	21.694749
698.000000	21.589064
697.000000	21.505709
696.000000	21.415395
695.000000	21.317281
694.000000	21.235379
693.000000	21.153248
692.000000	21.061634
691.000000	20.969102
690.000000	20.857070
689.000000	20.779986
688.000000	20.665737
687.000000	20.570911
686.000000	20.466755
685.000000	20.363212
684.000000	20.239021
683.000000	20.117736
682.000000	20.003104
681.000000	19.883118
680.000000	19.757321
679.000000	19.617912
678.000000	19.482633
677.000000	19.358212
676.000000	19.251074
675.000000	19.121607
674.000000	18.993974
673.000000	18.890813
672.000000	18.774958
671.000000	18.689614
670.000000	18.598077
669.000000	18.503251
668.000000	18.431061
667.000000	18.361777
666.000000	18.283929
665.000000	18.231927
664.000000	18.177938
663.000000	18.126166
662.000000	18.088083
661.000000	18.040135
660.000000	17.989051
659.000000	17.975898
658.000000	17.930244
657.000000	17.906461
656.000000	17.862489
655.000000	17.820812
654.000000	17.760781
653.000000	17.735851
652.000000	17.689356
651.000000	17.618848
650.000000	17.567918
649.000000	17.500393
648.000000	17.426826
647.000000	17.336895
646.000000	17.264476
645.000000	17.181197
644.000000	17.102125
643.000000	16.996669
642.000000	16.908956
641.000000	16.818259
640.000000	16.742246
639.000000	16.647420
638.000000	16.556800
637.000000	16.468016
636.000000	16.392461
635.000000	16.316448
634.000000	16.250834
633.000000	16.172833
632.000000	16.121749
631.000000	16.037094
630.000000	15.949992
629.000000	15.880096
628.000000	15.806989
627.000000	15.737476
626.000000	15.665668
625.000000	15.576348
624.000000	15.516929
623.000000	15.435257
622.000000	15.353355
621.000000	15.257153
620.000000	15.178539
619.000000	15.100614
618.000000	15.023606
617.000000	14.949351
616.000000	14.875173
615.000000	14.781342
614.000000	14.716723
613.000000	14.643233
612.000000	14.571884
611.000000	14.497935
610.000000	14.441957
609.000000	14.385521
608.000000	14.343996
607.000000	14.294060
606.000000	14.250241
605.000000	14.228447
604.000000	14.209787
603.000000	14.183175
602.000000	14.173769
601.000000	14.173310
600.000000	14.173692
599.000000	14.179198
598.000000	14.205046
597.000000	14.246647
596.000000	14.286413
595.000000	14.343002
594.000000	14.403645
593.000000	14.474229
592.000000	14.550319
591.000000	14.646750
590.000000	14.761459
589.000000	14.860338
588.000000	14.974281
587.000000	15.099161
586.000000	15.223275
585.000000	15.361232
584.000000	15.496435
583.000000	15.595925
582.000000	15.746270
581.000000	15.876885
580.000000	16.019429
579.000000	16.133067
578.000000	16.264676
577.000000	16.392997
576.000000	16.496846
575.000000	16.606201
574.000000	16.712804
573.000000	16.825754
572.000000	16.911173
571.000000	17.003705
570.000000	17.085530
569.000000	17.180662
568.000000	17.268452
567.000000	17.341560
566.000000	17.412679
565.000000	17.495269
564.000000	17.566847
563.000000	17.621219
562.000000	17.667332
561.000000	17.712298
560.000000	17.825094
559.000000	18.443067
558.000000	18.474115
557.000000	18.500345
556.000000	18.521910
555.000000	18.558847
554.000000	18.553188
553.000000	18.561982
552.000000	18.549746
551.000000	18.540111
550.000000	18.538734
549.000000	18.525811
548.000000	18.498739
547.000000	18.472203
546.000000	18.453162
545.000000	18.425861
544.000000	18.389460
543.000000	18.344495
542.000000	18.295552
541.000000	18.246381
540.000000	18.188491
539.000000	18.132743
538.000000	18.072865
537.000000	18.018416
536.000000	17.954486
535.000000	17.878931
534.000000	17.800929
533.000000	17.714515
532.000000	17.636514
531.000000	17.546276
530.000000	17.453439
529.000000	17.364731
528.000000	17.264628
527.000000	17.170491
526.000000	17.070159
525.000000	16.976557
524.000000	16.871943
523.000000	16.753487
522.000000	16.635108
521.000000	16.530876
520.000000	16.419609
519.000000	16.315301
518.000000	16.205410
517.000000	16.095825
516.000000	15.988458
515.000000	15.858761
514.000000	15.729828
513.000000	15.592102
512.000000	15.446728
511.000000	15.313819
510.000000	15.152386
509.000000	14.989346
508.000000	14.818507
507.000000	14.649733
506.000000	14.466429
505.000000	14.288324
504.000000	14.085443
503.000000	13.889750
502.000000	13.704152
501.000000	13.517560
500.000000	13.319649
499.000000	13.136115
498.000000	12.942946
497.000000	12.748018
496.000000	12.555996
495.000000	12.361603
494.000000	12.174476
493.000000	11.964177
492.000000	11.758619
491.000000	11.551073
490.000000	11.337868
489.000000	11.120381
488.000000	10.907099
487.000000	10.701771
486.000000	10.496519
485.000000	10.285455
484.000000	10.064909
483.000000	9.858281
482.000000	9.672377
481.000000	9.499625
480.000000	9.319915
479.000000	9.125370
478.000000	8.930518
477.000000	8.744996
476.000000	8.554121
475.000000	8.362176
474.000000	8.170307
473.000000	7.986926
472.000000	7.804998
471.000000	7.623070
470.000000	7.455519
469.000000	7.301504
468.000000	7.150854
467.000000	7.015956
466.000000	6.890848
465.000000	6.773233
464.000000	6.679249
463.000000	6.591382
462.000000	6.519574
461.000000	6.465126
460.000000	6.422684
459.000000	6.385136
458.000000	6.364106
457.000000	6.355541
456.000000	6.352406
455.000000	6.361276
454.000000	6.374200
453.000000	6.398748
452.000000	6.428343
451.000000	6.453961
450.000000	6.475526
449.000000	6.494338
448.000000	6.520874
447.000000	6.554522
446.000000	6.587788
445.000000	6.613788
444.000000	6.631989
443.000000	6.653630
442.000000	6.672901
441.000000	6.683149
440.000000	6.690108
439.000000	6.689496
438.000000	6.684219
437.000000	6.685443
436.000000	6.683378
435.000000	6.672442
434.000000	6.653171
433.000000	6.629847
432.000000	6.605682
431.000000	6.585723
430.000000	6.560410
429.000000	6.517509
428.000000	6.479044
427.000000	6.440272
426.000000	6.397371
425.000000	6.351412
424.000000	6.299410
423.000000	6.242515
422.000000	6.183478
421.000000	6.130636
420.000000	6.060740
419.000000	5.979756
418.000000	5.911313
417.000000	5.845012
416.000000	5.763416
415.000000	5.673713
414.000000	5.578582
413.000000	5.485133
412.000000	5.387325
411.000000	5.296934
410.000000	5.203638
409.000000	5.099483
408.000000	4.992268
407.000000	4.885742
406.000000	4.778910
405.000000	4.672996
404.000000	4.569223
403.000000	4.447709
402.000000	4.323059
401.000000	4.209803
400.000000	4.097465
399.000000	3.986657
398.000000	3.869042
397.000000	3.752193
396.000000	3.639549
395.000000	3.533635
394.000000	3.409749
393.000000	3.296800
392.000000	3.208015
391.000000	3.109137
390.000000	2.993740
389.000000	2.895626
388.000000	2.811124
387.000000	2.732969
386.000000	2.654508
385.000000	2.573754
384.000000	2.493305
383.000000	2.421803
382.000000	2.357949
381.000000	2.296541
380.000000	2.240487
379.000000	2.188104
378.000000	2.136408
377.000000	2.089684
376.000000	2.358025
375.000000	2.120578
374.000000	1.986905
373.000000	2.007629
372.000000	1.987287
371.000000	2.044183
370.000000	2.042424
369.000000	1.995087
368.000000	2.052136
367.000000	2.010076
366.000000	1.976963
365.000000	2.013594
364.000000	2.024759
363.000000	1.986675
362.000000	1.912727
361.000000	1.855984
360.000000	1.954404
359.000000	1.926874
358.000000	1.929780
357.000000	1.887108
356.000000	1.982087
355.000000	1.914180
354.000000	1.904620
353.000000	1.933221
352.000000	1.926568
351.000000	1.897967
350.000000	1.864855
349.000000	1.883132
348.000000	1.845890
347.000000	1.874949
346.000000	1.814001
345.000000	1.846196
344.000000	1.786853
343.000000	1.836101
342.000000	1.824172
341.000000	1.841760
340.000000	1.853078
339.000000	1.988511
338.000000	1.879002
337.000000	1.878085
336.000000	1.854378
335.000000	1.949892
334.000000	1.769188
333.000000	1.726669
332.000000	1.845431
331.000000	1.820960
330.000000	1.800006
329.000000	1.993099
328.000000	1.725140
327.000000	1.894985
326.000000	1.942092
325.000000	1.807959
324.000000	1.849943
323.000000	1.871661
322.000000	1.954480
321.000000	1.880838
320.000000	2.064295
319.000000	1.831513
318.000000	1.884814
317.000000	2.163403
316.000000	1.739976
315.000000	1.622438
314.000000	1.635055
313.000000	1.670845
312.000000	1.605767
311.000000	1.660903
310.000000	1.678109
309.000000	1.655244
308.000000	1.571889
307.000000	1.602478
306.000000	1.588178
305.000000	1.660368
304.000000	1.645838
303.000000	1.627714
302.000000	1.639338
301.000000	1.691721
300.000000	1.673674
299.000000	1.674209
298.000000	1.619226
297.000000	1.668397
296.000000	1.631691
295.000000	1.602631
294.000000	1.642932
293.000000	1.656315
292.000000	1.645609
291.000000	1.683309
290.000000	1.684686
289.000000	1.718869
288.000000	1.682851
287.000000	1.664344
286.000000	1.694169
285.000000	1.690880
284.000000	1.685068
283.000000	1.722616
282.000000	1.670615
281.000000	1.721775
280.000000	1.701051
279.000000	1.712522
278.000000	1.744487
277.000000	1.723993
276.000000	1.691033
275.000000	1.704110
274.000000	1.702428
273.000000	1.733858
272.000000	1.723993
271.000000	1.738523
270.000000	1.733169
269.000000	1.750988
268.000000	1.723993
267.000000	1.701051
266.000000	1.724375
265.000000	1.730340
264.000000	1.746782
263.000000	1.791212
262.000000	1.784712
261.000000	1.741352
260.000000	1.759705
259.000000	1.747699
258.000000	1.761617
257.000000	1.771864
256.000000	1.769111
255.000000	1.813313
254.000000	1.768806
253.000000	1.770259
252.000000	1.763911
251.000000	1.776453
250.000000	1.742499
