PE UV       SUBTECH     SPECTRUM    ASCII       PEDS        4.00        
   -1
CICIMAUCR0018-1.Sample.ASC
24/03/08
12:50:34.00
24/03/08
12:50:34.00
Vinicio Soto Monge
c. cupreomarginata
250,000000
1
Lambda 1050
1050L1511233
PerkinElmer UV WinLab 6.3.2.0749 / 2.02.05 Lambda 900 UV/VIS/NIR, Aug  7 2015 09:38:08

0
0
3350/servo 860,8/2
0
0
UV/VIS
1
1
1
DoubleDePol,CommonBeamDepol,RBeamAtt,SBeamAtt,60mm sphere, WB InGaAs Detector
0
0
0
0
Program
Program
3350/servo 860,8/2
3350/0,2 860,8/0,2
3350/0,2 860,8/0,2
0
15.00
 
 
 
0
 
860,8
319,2
860,8
Front
100
on
S:100 R:100
0
0
0
0
 
0
 
 
 
0
 
 
0
0
0
0
0
 
 
 
 
0
0


0
0
#HDR
-1
-1
#GR
nm
%R
1.0
0.0
2500,000000
-1,000000
2251
8
27,295000
2,488900
#DATA
2500.000000	3.071000
2499.000000	2.992900
2498.000000	3.002000
2497.000000	3.100800
2496.000000	3.150000
2495.000000	3.040300
2494.000000	3.033900
2493.000000	3.070400
2492.000000	3.029100
2491.000000	3.004600
2490.000000	2.904200
2489.000000	2.911000
2488.000000	2.950600
2487.000000	2.899000
2486.000000	2.937000
2485.000000	2.929000
2484.000000	2.936600
2483.000000	3.018900
2482.000000	2.942500
2481.000000	2.932000
2480.000000	2.944000
2479.000000	2.948400
2478.000000	2.971500
2477.000000	2.957300
2476.000000	2.985200
2475.000000	2.954500
2474.000000	2.936000
2473.000000	2.989500
2472.000000	2.945200
2471.000000	2.974500
2470.000000	2.965200
2469.000000	2.978600
2468.000000	3.006200
2467.000000	2.983600
2466.000000	2.987700
2465.000000	2.991000
2464.000000	3.009900
2463.000000	3.053900
2462.000000	3.056900
2461.000000	3.017600
2460.000000	3.024600
2459.000000	3.057500
2458.000000	3.119600
2457.000000	3.133500
2456.000000	3.152800
2455.000000	3.168300
2454.000000	3.211000
2453.000000	3.219900
2452.000000	3.253300
2451.000000	3.268600
2450.000000	3.304000
2449.000000	3.333400
2448.000000	3.350400
2447.000000	3.376900
2446.000000	3.422300
2445.000000	3.458500
2444.000000	3.505600
2443.000000	3.531600
2442.000000	3.558600
2441.000000	3.594800
2440.000000	3.641700
2439.000000	3.658100
2438.000000	3.681000
2437.000000	3.710100
2436.000000	3.717000
2435.000000	3.763400
2434.000000	3.781700
2433.000000	3.807300
2432.000000	3.833100
2431.000000	3.862500
2430.000000	3.897100
2429.000000	3.929600
2428.000000	3.966100
2427.000000	3.960500
2426.000000	3.986600
2425.000000	4.024100
2424.000000	4.052800
2423.000000	4.096000
2422.000000	4.137900
2421.000000	4.179000
2420.000000	4.214700
2419.000000	4.242100
2418.000000	4.268700
2417.000000	4.272000
2416.000000	4.289500
2415.000000	4.321000
2414.000000	4.322100
2413.000000	4.350000
2412.000000	4.372800
2411.000000	4.396100
2410.000000	4.404600
2409.000000	4.435900
2408.000000	4.468600
2407.000000	4.481900
2406.000000	4.508900
2405.000000	4.536000
2404.000000	4.528000
2403.000000	4.538500
2402.000000	4.562300
2401.000000	4.588900
2400.000000	4.607700
2399.000000	4.629500
2398.000000	4.648200
2397.000000	4.652900
2396.000000	4.676700
2395.000000	4.711900
2394.000000	4.731900
2393.000000	4.740500
2392.000000	4.745200
2391.000000	4.752000
2390.000000	4.768100
2389.000000	4.790600
2388.000000	4.815000
2387.000000	4.827100
2386.000000	4.836400
2385.000000	4.833500
2384.000000	4.830600
2383.000000	4.838800
2382.000000	4.857400
2381.000000	4.866700
2380.000000	4.875300
2379.000000	4.872100
2378.000000	4.859200
2377.000000	4.871900
2376.000000	4.872500
2375.000000	4.867700
2374.000000	4.871300
2373.000000	4.872600
2372.000000	4.865600
2371.000000	4.851600
2370.000000	4.830700
2369.000000	4.823100
2368.000000	4.825200
2367.000000	4.816500
2366.000000	4.801600
2365.000000	4.794300
2364.000000	4.782700
2363.000000	4.765900
2362.000000	4.740300
2361.000000	4.728800
2360.000000	4.713100
2359.000000	4.682200
2358.000000	4.665500
2357.000000	4.660000
2356.000000	4.651800
2355.000000	4.647000
2354.000000	4.630000
2353.000000	4.622800
2352.000000	4.619000
2351.000000	4.585900
2350.000000	4.592300
2349.000000	4.617800
2348.000000	4.631200
2347.000000	4.637100
2346.000000	4.656000
2345.000000	4.671900
2344.000000	4.707500
2343.000000	4.734800
2342.000000	4.743300
2341.000000	4.752900
2340.000000	4.777200
2339.000000	4.801200
2338.000000	4.810700
2337.000000	4.808400
2336.000000	4.810700
2335.000000	4.816000
2334.000000	4.811900
2333.000000	4.804100
2332.000000	4.799700
2331.000000	4.783800
2330.000000	4.769200
2329.000000	4.751000
2328.000000	4.755600
2327.000000	4.733000
2326.000000	4.702300
2325.000000	4.680700
2324.000000	4.661600
2323.000000	4.637600
2322.000000	4.608600
2321.000000	4.556600
2320.000000	4.533700
2319.000000	4.489900
2318.000000	4.433500
2317.000000	4.402400
2316.000000	4.366800
2315.000000	4.320400
2314.000000	4.274900
2313.000000	4.236700
2312.000000	4.201800
2311.000000	4.156700
2310.000000	4.125800
2309.000000	4.097400
2308.000000	4.092000
2307.000000	4.053700
2306.000000	4.053900
2305.000000	4.045200
2304.000000	4.047700
2303.000000	4.068400
2302.000000	4.076100
2301.000000	4.087400
2300.000000	4.100900
2299.000000	4.144100
2298.000000	4.171000
2297.000000	4.202500
2296.000000	4.228600
2295.000000	4.266500
2294.000000	4.307000
2293.000000	4.315100
2292.000000	4.346600
2291.000000	4.349400
2290.000000	4.333200
2289.000000	4.337300
2288.000000	4.334700
2287.000000	4.314700
2286.000000	4.308000
2285.000000	4.312800
2284.000000	4.274000
2283.000000	4.254100
2282.000000	4.217100
2281.000000	4.206100
2280.000000	4.180600
2279.000000	4.169800
2278.000000	4.141400
2277.000000	4.119600
2276.000000	4.077000
2275.000000	4.058000
2274.000000	4.040200
2273.000000	4.027100
2272.000000	4.010500
2271.000000	3.984500
2270.000000	4.002100
2269.000000	3.995400
2268.000000	4.015600
2267.000000	4.034000
2266.000000	4.041000
2265.000000	4.052900
2264.000000	4.078200
2263.000000	4.119000
2262.000000	4.179000
2261.000000	4.229000
2260.000000	4.286400
2259.000000	4.329400
2258.000000	4.391100
2257.000000	4.459300
2256.000000	4.527500
2255.000000	4.595300
2254.000000	4.659400
2253.000000	4.723300
2252.000000	4.752700
2251.000000	4.822100
2250.000000	4.900300
2249.000000	4.951500
2248.000000	5.003900
2247.000000	5.039800
2246.000000	5.083200
2245.000000	5.115600
2244.000000	5.170100
2243.000000	5.198000
2242.000000	5.219800
2241.000000	5.224200
2240.000000	5.284900
2239.000000	5.286500
2238.000000	5.310000
2237.000000	5.326400
2236.000000	5.346500
2235.000000	5.363700
2234.000000	5.347100
2233.000000	5.375700
2232.000000	5.379200
2231.000000	5.374300
2230.000000	5.385700
2229.000000	5.368700
2228.000000	5.370600
2227.000000	5.341800
2226.000000	5.323500
2225.000000	5.308800
2224.000000	5.268600
2223.000000	5.234000
2222.000000	5.216100
2221.000000	5.174200
2220.000000	5.149000
2219.000000	5.138500
2218.000000	5.093300
2217.000000	5.065700
2216.000000	5.030400
2215.000000	5.001600
2214.000000	4.960500
2213.000000	4.967300
2212.000000	4.961500
2211.000000	4.928600
2210.000000	4.931500
2209.000000	4.961300
2208.000000	4.965100
2207.000000	5.010400
2206.000000	5.012700
2205.000000	5.078500
2204.000000	5.108800
2203.000000	5.156500
2202.000000	5.235300
2201.000000	5.309100
2200.000000	5.386500
2199.000000	5.457300
2198.000000	5.556000
2197.000000	5.634700
2196.000000	5.719700
2195.000000	5.781200
2194.000000	5.856400
2193.000000	5.937400
2192.000000	6.012200
2191.000000	6.071700
2190.000000	6.127100
2189.000000	6.189500
2188.000000	6.214300
2187.000000	6.251500
2186.000000	6.307300
2185.000000	6.338000
2184.000000	6.373200
2183.000000	6.384400
2182.000000	6.429000
2181.000000	6.440200
2180.000000	6.452700
2179.000000	6.477000
2178.000000	6.496200
2177.000000	6.507800
2176.000000	6.521900
2175.000000	6.524500
2174.000000	6.537400
2173.000000	6.539100
2172.000000	6.583600
2171.000000	6.585700
2170.000000	6.584300
2169.000000	6.596300
2168.000000	6.621900
2167.000000	6.638100
2166.000000	6.652800
2165.000000	6.646700
2164.000000	6.657300
2163.000000	6.684300
2162.000000	6.711000
2161.000000	6.724700
2160.000000	6.730000
2159.000000	6.763400
2158.000000	6.789900
2157.000000	6.787400
2156.000000	6.816400
2155.000000	6.832800
2154.000000	6.862700
2153.000000	6.878500
2152.000000	6.893700
2151.000000	6.893400
2150.000000	6.924900
2149.000000	6.958000
2148.000000	6.978700
2147.000000	6.993400
2146.000000	7.011800
2145.000000	7.053200
2144.000000	7.064400
2143.000000	7.074800
2142.000000	7.094700
2141.000000	7.109700
2140.000000	7.127300
2139.000000	7.139900
2138.000000	7.145100
2137.000000	7.168800
2136.000000	7.190300
2135.000000	7.199000
2134.000000	7.204700
2133.000000	7.215800
2132.000000	7.222100
2131.000000	7.224700
2130.000000	7.232900
2129.000000	7.240000
2128.000000	7.232500
2127.000000	7.233100
2126.000000	7.246800
2125.000000	7.244500
2124.000000	7.238400
2123.000000	7.247300
2122.000000	7.248000
2121.000000	7.234300
2120.000000	7.227200
2119.000000	7.220600
2118.000000	7.220500
2117.000000	7.220100
2116.000000	7.198500
2115.000000	7.203700
2114.000000	7.213900
2113.000000	7.202900
2112.000000	7.193900
2111.000000	7.166100
2110.000000	7.158200
2109.000000	7.169100
2108.000000	7.160600
2107.000000	7.137800
2106.000000	7.116000
2105.000000	7.104500
2104.000000	7.105800
2103.000000	7.085700
2102.000000	7.069800
2101.000000	7.077400
2100.000000	7.074600
2099.000000	7.053700
2098.000000	7.050100
2097.000000	7.046200
2096.000000	7.026100
2095.000000	7.009800
2094.000000	7.012100
2093.000000	7.015000
2092.000000	7.008800
2091.000000	7.009600
2090.000000	7.011300
2089.000000	7.002100
2088.000000	6.989700
2087.000000	6.982500
2086.000000	6.978200
2085.000000	6.977100
2084.000000	6.967900
2083.000000	6.959200
2082.000000	6.950800
2081.000000	6.931600
2080.000000	6.933400
2079.000000	6.922300
2078.000000	6.900200
2077.000000	6.895300
2076.000000	6.884500
2075.000000	6.861600
2074.000000	6.845800
2073.000000	6.848900
2072.000000	6.833100
2071.000000	6.804500
2070.000000	6.795700
2069.000000	6.792000
2068.000000	6.776400
2067.000000	6.774000
2066.000000	6.751800
2065.000000	6.714800
2064.000000	6.696500
2063.000000	6.692700
2062.000000	6.692500
2061.000000	6.681800
2060.000000	6.684200
2059.000000	6.678700
2058.000000	6.663200
2057.000000	6.676400
2056.000000	6.684600
2055.000000	6.684100
2054.000000	6.704000
2053.000000	6.723600
2052.000000	6.752300
2051.000000	6.782800
2050.000000	6.803600
2049.000000	6.857300
2048.000000	6.895200
2047.000000	6.950800
2046.000000	6.973100
2045.000000	7.023000
2044.000000	7.087700
2043.000000	7.134700
2042.000000	7.180000
2041.000000	7.224000
2040.000000	7.285000
2039.000000	7.362300
2038.000000	7.399300
2037.000000	7.439200
2036.000000	7.500400
2035.000000	7.550200
2034.000000	7.589900
2033.000000	7.641000
2032.000000	7.668700
2031.000000	7.698300
2030.000000	7.757700
2029.000000	7.792800
2028.000000	7.831400
2027.000000	7.836700
2026.000000	7.873000
2025.000000	7.900700
2024.000000	7.939600
2023.000000	7.984700
2022.000000	8.009000
2021.000000	8.035300
2020.000000	8.068900
2019.000000	8.079700
2018.000000	8.109900
2017.000000	8.129200
2016.000000	8.145700
2015.000000	8.172600
2014.000000	8.192900
2013.000000	8.203800
2012.000000	8.228500
2011.000000	8.244100
2010.000000	8.279600
2009.000000	8.289900
2008.000000	8.284800
2007.000000	8.289700
2006.000000	8.295800
2005.000000	8.310500
2004.000000	8.305600
2003.000000	8.305600
2002.000000	8.279500
2001.000000	8.290800
2000.000000	8.292300
1999.000000	8.293800
1998.000000	8.277500
1997.000000	8.280400
1996.000000	8.280200
1995.000000	8.255700
1994.000000	8.229900
1993.000000	8.222600
1992.000000	8.215000
1991.000000	8.187500
1990.000000	8.187600
1989.000000	8.154600
1988.000000	8.139100
1987.000000	8.112100
1986.000000	8.112800
1985.000000	8.079900
1984.000000	8.044300
1983.000000	8.005100
1982.000000	7.986500
1981.000000	7.952100
1980.000000	7.925100
1979.000000	7.922000
1978.000000	7.895100
1977.000000	7.878200
1976.000000	7.838400
1975.000000	7.821000
1974.000000	7.806800
1973.000000	7.770800
1972.000000	7.746300
1971.000000	7.710400
1970.000000	7.682500
1969.000000	7.658800
1968.000000	7.650300
1967.000000	7.610000
1966.000000	7.595900
1965.000000	7.582600
1964.000000	7.537500
1963.000000	7.524600
1962.000000	7.496000
1961.000000	7.482500
1960.000000	7.456100
1959.000000	7.442700
1958.000000	7.426800
1957.000000	7.383600
1956.000000	7.380500
1955.000000	7.337200
1954.000000	7.338300
1953.000000	7.310500
1952.000000	7.279900
1951.000000	7.235500
1950.000000	7.225000
1949.000000	7.209000
1948.000000	7.185600
1947.000000	7.189000
1946.000000	7.185500
1945.000000	7.142100
1944.000000	7.134500
1943.000000	7.116400
1942.000000	7.126000
1941.000000	7.122700
1940.000000	7.110300
1939.000000	7.102200
1938.000000	7.109100
1937.000000	7.105000
1936.000000	7.121800
1935.000000	7.117500
1934.000000	7.150500
1933.000000	7.154100
1932.000000	7.194200
1931.000000	7.207200
1930.000000	7.238600
1929.000000	7.276000
1928.000000	7.319700
1927.000000	7.333700
1926.000000	7.371600
1925.000000	7.414500
1924.000000	7.490800
1923.000000	7.547200
1922.000000	7.588000
1921.000000	7.647200
1920.000000	7.691400
1919.000000	7.751400
1918.000000	7.836200
1917.000000	7.945600
1916.000000	8.010400
1915.000000	8.091800
1914.000000	8.162400
1913.000000	8.234000
1912.000000	8.314800
1911.000000	8.384800
1910.000000	8.488800
1909.000000	8.589000
1908.000000	8.687800
1907.000000	8.778900
1906.000000	8.887900
1905.000000	8.972000
1904.000000	9.070900
1903.000000	9.162300
1902.000000	9.262500
1901.000000	9.375700
1900.000000	9.478700
1899.000000	9.573900
1898.000000	9.703000
1897.000000	9.806700
1896.000000	9.906500
1895.000000	10.020100
1894.000000	10.139800
1893.000000	10.253900
1892.000000	10.339000
1891.000000	10.425500
1890.000000	10.522800
1889.000000	10.618200
1888.000000	10.744400
1887.000000	10.890100
1886.000000	11.001800
1885.000000	11.121300
1884.000000	11.281600
1883.000000	11.414100
1882.000000	11.574400
1881.000000	11.736700
1880.000000	11.899700
1879.000000	12.058700
1878.000000	12.215000
1877.000000	12.332800
1876.000000	12.459300
1875.000000	12.573200
1874.000000	12.650800
1873.000000	12.736300
1872.000000	12.818300
1871.000000	12.873900
1870.000000	12.892500
1869.000000	12.918100
1868.000000	12.969800
1867.000000	13.010000
1866.000000	13.041100
1865.000000	13.078400
1864.000000	13.119800
1863.000000	13.143100
1862.000000	13.176900
1861.000000	13.169700
1860.000000	13.140600
1859.000000	13.112900
1858.000000	13.105700
1857.000000	13.097300
1856.000000	13.080100
1855.000000	13.068200
1854.000000	13.031200
1853.000000	12.999300
1852.000000	12.974300
1851.000000	12.971900
1850.000000	12.986600
1849.000000	12.956000
1848.000000	12.877300
1847.000000	12.781600
1846.000000	12.723900
1845.000000	12.726400
1844.000000	12.743600
1843.000000	12.767400
1842.000000	12.759400
1841.000000	12.706400
1840.000000	12.660300
1839.000000	12.634500
1838.000000	12.620600
1837.000000	12.584900
1836.000000	12.538600
1835.000000	12.502800
1834.000000	12.486600
1833.000000	12.479500
1832.000000	12.466600
1831.000000	12.433100
1830.000000	12.382400
1829.000000	12.330600
1828.000000	12.297400
1827.000000	12.264700
1826.000000	12.226600
1825.000000	12.208500
1824.000000	12.206700
1823.000000	12.214600
1822.000000	12.201400
1821.000000	12.168500
1820.000000	12.131400
1819.000000	12.116800
1818.000000	12.128000
1817.000000	12.133000
1816.000000	12.138000
1815.000000	12.138000
1814.000000	12.132000
1813.000000	12.136800
1812.000000	12.118400
1811.000000	12.094600
1810.000000	12.092700
1809.000000	12.085700
1808.000000	12.082000
1807.000000	12.070800
1806.000000	12.038700
1805.000000	12.010200
1804.000000	12.000600
1803.000000	11.983100
1802.000000	11.952500
1801.000000	11.931500
1800.000000	11.913900
1799.000000	11.901400
1798.000000	11.880800
1797.000000	11.863500
1796.000000	11.840800
1795.000000	11.831000
1794.000000	11.814300
1793.000000	11.797200
1792.000000	11.786700
1791.000000	11.753700
1790.000000	11.721500
1789.000000	11.701600
1788.000000	11.691600
1787.000000	11.663000
1786.000000	11.630700
1785.000000	11.601900
1784.000000	11.586300
1783.000000	11.543000
1782.000000	11.526200
1781.000000	11.483100
1780.000000	11.449100
1779.000000	11.409700
1778.000000	11.389600
1777.000000	11.339800
1776.000000	11.309200
1775.000000	11.238300
1774.000000	11.172600
1773.000000	11.138600
1772.000000	11.099900
1771.000000	11.054600
1770.000000	11.010700
1769.000000	10.962100
1768.000000	10.903700
1767.000000	10.866500
1766.000000	10.836300
1765.000000	10.816000
1764.000000	10.811200
1763.000000	10.805400
1762.000000	10.801300
1761.000000	10.832200
1760.000000	10.861900
1759.000000	10.879700
1758.000000	10.911200
1757.000000	10.924100
1756.000000	10.942100
1755.000000	10.952200
1754.000000	10.950000
1753.000000	10.973100
1752.000000	10.962200
1751.000000	10.935400
1750.000000	10.930900
1749.000000	10.907600
1748.000000	10.869100
1747.000000	10.827400
1746.000000	10.798100
1745.000000	10.764500
1744.000000	10.699200
1743.000000	10.624600
1742.000000	10.551400
1741.000000	10.478200
1740.000000	10.392200
1739.000000	10.323600
1738.000000	10.246600
1737.000000	10.186000
1736.000000	10.136100
1735.000000	10.117700
1734.000000	10.113900
1733.000000	10.114700
1732.000000	10.136400
1731.000000	10.141000
1730.000000	10.206600
1729.000000	10.248000
1728.000000	10.284300
1727.000000	10.337100
1726.000000	10.356700
1725.000000	10.383200
1724.000000	10.405700
1723.000000	10.423900
1722.000000	10.441500
1721.000000	10.439900
1720.000000	10.425200
1719.000000	10.468100
1718.000000	10.482400
1717.000000	10.501200
1716.000000	10.535200
1715.000000	10.531700
1714.000000	10.596200
1713.000000	10.600700
1712.000000	10.609400
1711.000000	10.631000
1710.000000	10.661600
1709.000000	10.669000
1708.000000	10.631500
1707.000000	10.671600
1706.000000	10.648800
1705.000000	10.631600
1704.000000	10.628100
1703.000000	10.606100
1702.000000	10.558500
1701.000000	10.506500
1700.000000	10.462200
1699.000000	10.406100
1698.000000	10.354400
1697.000000	10.316100
1696.000000	10.313400
1695.000000	10.292300
1694.000000	10.325500
1693.000000	10.371900
1692.000000	10.422800
1691.000000	10.474000
1690.000000	10.528400
1689.000000	10.559200
1688.000000	10.583200
1687.000000	10.586200
1686.000000	10.608900
1685.000000	10.601800
1684.000000	10.654400
1683.000000	10.731300
1682.000000	10.843000
1681.000000	11.001900
1680.000000	11.185500
1679.000000	11.381100
1678.000000	11.562700
1677.000000	11.752000
1676.000000	11.914100
1675.000000	12.076300
1674.000000	12.205800
1673.000000	12.334200
1672.000000	12.378100
1671.000000	12.465000
1670.000000	12.537300
1669.000000	12.602200
1668.000000	12.671100
1667.000000	12.754600
1666.000000	12.788400
1665.000000	12.828600
1664.000000	12.839800
1663.000000	12.860800
1662.000000	12.894400
1661.000000	12.921700
1660.000000	12.927900
1659.000000	12.928100
1658.000000	12.941000
1657.000000	12.935300
1656.000000	12.936300
1655.000000	12.956000
1654.000000	12.922700
1653.000000	12.912500
1652.000000	12.911200
1651.000000	12.879600
1650.000000	12.877700
1649.000000	12.859400
1648.000000	12.839000
1647.000000	12.825700
1646.000000	12.813200
1645.000000	12.769700
1644.000000	12.745900
1643.000000	12.723900
1642.000000	12.696100
1641.000000	12.695400
1640.000000	12.666300
1639.000000	12.634600
1638.000000	12.608700
1637.000000	12.581300
1636.000000	12.547800
1635.000000	12.525300
1634.000000	12.493200
1633.000000	12.457300
1632.000000	12.404100
1631.000000	12.390300
1630.000000	12.370200
1629.000000	12.332300
1628.000000	12.284800
1627.000000	12.258200
1626.000000	12.233600
1625.000000	12.194200
1624.000000	12.154800
1623.000000	12.121600
1622.000000	12.087200
1621.000000	12.058900
1620.000000	12.047100
1619.000000	11.994700
1618.000000	11.964500
1617.000000	11.941300
1616.000000	11.913900
1615.000000	11.871100
1614.000000	11.848400
1613.000000	11.827500
1612.000000	11.808000
1611.000000	11.787200
1610.000000	11.747200
1609.000000	11.725800
1608.000000	11.708600
1607.000000	11.676100
1606.000000	11.659200
1605.000000	11.630500
1604.000000	11.591200
1603.000000	11.568000
1602.000000	11.538700
1601.000000	11.513900
1600.000000	11.490000
1599.000000	11.459100
1598.000000	11.429100
1597.000000	11.421300
1596.000000	11.407000
1595.000000	11.378400
1594.000000	11.360300
1593.000000	11.336900
1592.000000	11.318900
1591.000000	11.297400
1590.000000	11.284400
1589.000000	11.269200
1588.000000	11.266100
1587.000000	11.260100
1586.000000	11.251900
1585.000000	11.245500
1584.000000	11.223300
1583.000000	11.220400
1582.000000	11.222200
1581.000000	11.219800
1580.000000	11.212000
1579.000000	11.211300
1578.000000	11.207500
1577.000000	11.191800
1576.000000	11.198000
1575.000000	11.208500
1574.000000	11.223200
1573.000000	11.220500
1572.000000	11.215200
1571.000000	11.229500
1570.000000	11.249900
1569.000000	11.269200
1568.000000	11.279600
1567.000000	11.290900
1566.000000	11.305900
1565.000000	11.310300
1564.000000	11.328100
1563.000000	11.352200
1562.000000	11.365200
1561.000000	11.380700
1560.000000	11.396600
1559.000000	11.398400
1558.000000	11.398500
1557.000000	11.413100
1556.000000	11.421200
1555.000000	11.424900
1554.000000	11.432000
1553.000000	11.441300
1552.000000	11.438900
1551.000000	11.433800
1550.000000	11.430800
1549.000000	11.450000
1548.000000	11.463200
1547.000000	11.452500
1546.000000	11.478600
1545.000000	11.490200
1544.000000	11.478800
1543.000000	11.479800
1542.000000	11.492600
1541.000000	11.492200
1540.000000	11.495500
1539.000000	11.508300
1538.000000	11.515200
1537.000000	11.519300
1536.000000	11.513100
1535.000000	11.521100
1534.000000	11.541300
1533.000000	11.545300
1532.000000	11.526400
1531.000000	11.527700
1530.000000	11.536400
1529.000000	11.528300
1528.000000	11.533300
1527.000000	11.530000
1526.000000	11.502200
1525.000000	11.506700
1524.000000	11.509500
1523.000000	11.509600
1522.000000	11.505500
1521.000000	11.492800
1520.000000	11.485200
1519.000000	11.473200
1518.000000	11.463100
1517.000000	11.458000
1516.000000	11.451800
1515.000000	11.447200
1514.000000	11.434500
1513.000000	11.421800
1512.000000	11.416200
1511.000000	11.398600
1510.000000	11.382300
1509.000000	11.385400
1508.000000	11.377200
1507.000000	11.366700
1506.000000	11.344900
1505.000000	11.337000
1504.000000	11.344900
1503.000000	11.325900
1502.000000	11.327300
1501.000000	11.318300
1500.000000	11.316800
1499.000000	11.304900
1498.000000	11.293000
1497.000000	11.301200
1496.000000	11.304100
1495.000000	11.297400
1494.000000	11.296700
1493.000000	11.308400
1492.000000	11.300200
1491.000000	11.314400
1490.000000	11.301800
1489.000000	11.324600
1488.000000	11.345900
1487.000000	11.337600
1486.000000	11.353600
1485.000000	11.337000
1484.000000	11.327100
1483.000000	11.359100
1482.000000	11.374700
1481.000000	11.397000
1480.000000	11.387800
1479.000000	11.391200
1478.000000	11.401300
1477.000000	11.396500
1476.000000	11.410300
1475.000000	11.436700
1474.000000	11.438200
1473.000000	11.462800
1472.000000	11.474100
1471.000000	11.499500
1470.000000	11.508000
1469.000000	11.496900
1468.000000	11.519900
1467.000000	11.529000
1466.000000	11.538900
1465.000000	11.559300
1464.000000	11.566500
1463.000000	11.597600
1462.000000	11.601800
1461.000000	11.642200
1460.000000	11.679200
1459.000000	11.676300
1458.000000	11.702900
1457.000000	11.742400
1456.000000	11.775800
1455.000000	11.822800
1454.000000	11.841500
1453.000000	11.877200
1452.000000	11.916800
1451.000000	11.953100
1450.000000	11.972000
1449.000000	12.010800
1448.000000	12.050700
1447.000000	12.095800
1446.000000	12.160800
1445.000000	12.188400
1444.000000	12.221100
1443.000000	12.253000
1442.000000	12.297800
1441.000000	12.367600
1440.000000	12.406700
1439.000000	12.443900
1438.000000	12.465000
1437.000000	12.528900
1436.000000	12.543700
1435.000000	12.596300
1434.000000	12.663400
1433.000000	12.699100
1432.000000	12.738300
1431.000000	12.780500
1430.000000	12.833000
1429.000000	12.881600
1428.000000	12.967400
1427.000000	13.035700
1426.000000	13.090000
1425.000000	13.176800
1424.000000	13.258400
1423.000000	13.311900
1422.000000	13.357700
1421.000000	13.455900
1420.000000	13.523600
1419.000000	13.610700
1418.000000	13.674500
1417.000000	13.715100
1416.000000	13.816100
1415.000000	13.858500
1414.000000	13.915200
1413.000000	13.957900
1412.000000	13.998500
1411.000000	14.113400
1410.000000	14.172200
1409.000000	14.260800
1408.000000	14.351200
1407.000000	14.426000
1406.000000	14.540700
1405.000000	14.655000
1404.000000	14.740500
1403.000000	14.824900
1402.000000	14.941900
1401.000000	15.061700
1400.000000	15.104900
1399.000000	15.123000
1398.000000	15.159700
1397.000000	15.200300
1396.000000	15.243600
1395.000000	15.199400
1394.000000	15.177800
1393.000000	15.136800
1392.000000	15.118900
1391.000000	15.089100
1390.000000	15.103000
1389.000000	15.094100
1388.000000	15.137900
1387.000000	15.165100
1386.000000	15.230500
1385.000000	15.340200
1384.000000	15.449700
1383.000000	15.542800
1382.000000	15.671000
1381.000000	15.758400
1380.000000	15.860200
1379.000000	16.015100
1378.000000	16.147300
1377.000000	16.304100
1376.000000	16.499500
1375.000000	16.708400
1374.000000	16.961200
1373.000000	17.222200
1372.000000	17.452400
1371.000000	17.678500
1370.000000	17.875000
1369.000000	18.070300
1368.000000	18.218500
1367.000000	18.321100
1366.000000	18.444200
1365.000000	18.560000
1364.000000	18.618300
1363.000000	18.705800
1362.000000	18.773300
1361.000000	18.793200
1360.000000	18.816000
1359.000000	18.847400
1358.000000	18.875300
1357.000000	18.947400
1356.000000	19.072300
1355.000000	19.243900
1354.000000	19.450500
1353.000000	19.648900
1352.000000	19.905500
1351.000000	20.124300
1350.000000	20.349700
1349.000000	20.547000
1348.000000	20.711700
1347.000000	20.848400
1346.000000	20.974900
1345.000000	21.126700
1344.000000	21.275900
1343.000000	21.386500
1342.000000	21.496500
1341.000000	21.601600
1340.000000	21.706700
1339.000000	21.799700
1338.000000	21.904700
1337.000000	22.006300
1336.000000	22.078900
1335.000000	22.161700
1334.000000	22.236800
1333.000000	22.320800
1332.000000	22.394200
1331.000000	22.458900
1330.000000	22.526900
1329.000000	22.578800
1328.000000	22.633300
1327.000000	22.700300
1326.000000	22.736100
1325.000000	22.776300
1324.000000	22.828900
1323.000000	22.866300
1322.000000	22.908000
1321.000000	22.950400
1320.000000	23.001000
1319.000000	23.036700
1318.000000	23.054700
1317.000000	23.080800
1316.000000	23.125700
1315.000000	23.156700
1314.000000	23.167400
1313.000000	23.194800
1312.000000	23.217600
1311.000000	23.218800
1310.000000	23.229000
1309.000000	23.244000
1308.000000	23.263600
1307.000000	23.279900
1306.000000	23.284800
1305.000000	23.283000
1304.000000	23.289600
1303.000000	23.282600
1302.000000	23.270400
1301.000000	23.272900
1300.000000	23.267600
1299.000000	23.252200
1298.000000	23.244900
1297.000000	23.245500
1296.000000	23.238500
1295.000000	23.221800
1294.000000	23.202500
1293.000000	23.183900
1292.000000	23.172600
1291.000000	23.174400
1290.000000	23.170700
1289.000000	23.142500
1288.000000	23.122600
1287.000000	23.099100
1286.000000	23.069700
1285.000000	23.042900
1284.000000	23.019000
1283.000000	23.004900
1282.000000	22.982700
1281.000000	22.964300
1280.000000	22.942900
1279.000000	22.928200
1278.000000	22.910700
1277.000000	22.885900
1276.000000	22.882500
1275.000000	22.867000
1274.000000	22.845400
1273.000000	22.829500
1272.000000	22.814400
1271.000000	22.801700
1270.000000	22.778000
1269.000000	22.766100
1268.000000	22.753200
1267.000000	22.733700
1266.000000	22.712100
1265.000000	22.700200
1264.000000	22.671700
1263.000000	22.632900
1262.000000	22.610900
1261.000000	22.601900
1260.000000	22.572600
1259.000000	22.535300
1258.000000	22.502600
1257.000000	22.488500
1256.000000	22.454500
1255.000000	22.418500
1254.000000	22.392300
1253.000000	22.364400
1252.000000	22.322100
1251.000000	22.285200
1250.000000	22.241400
1249.000000	22.208900
1248.000000	22.169900
1247.000000	22.125400
1246.000000	22.085200
1245.000000	22.039800
1244.000000	21.986700
1243.000000	21.928400
1242.000000	21.874900
1241.000000	21.823100
1240.000000	21.757600
1239.000000	21.709200
1238.000000	21.653300
1237.000000	21.582900
1236.000000	21.527700
1235.000000	21.470900
1234.000000	21.400800
1233.000000	21.343100
1232.000000	21.274400
1231.000000	21.201000
1230.000000	21.109600
1229.000000	21.050000
1228.000000	20.976400
1227.000000	20.909200
1226.000000	20.836800
1225.000000	20.740400
1224.000000	20.680100
1223.000000	20.623600
1222.000000	20.537700
1221.000000	20.457600
1220.000000	20.389000
1219.000000	20.322200
1218.000000	20.247200
1217.000000	20.196700
1216.000000	20.135100
1215.000000	20.069000
1214.000000	20.001600
1213.000000	19.972400
1212.000000	19.917700
1211.000000	19.874100
1210.000000	19.829600
1209.000000	19.782600
1208.000000	19.754200
1207.000000	19.732800
1206.000000	19.718000
1205.000000	19.693600
1204.000000	19.678000
1203.000000	19.682800
1202.000000	19.668900
1201.000000	19.668600
1200.000000	19.666900
1199.000000	19.639100
1198.000000	19.597500
1197.000000	19.543500
1196.000000	19.457500
1195.000000	19.364700
1194.000000	19.244500
1193.000000	19.074100
1192.000000	18.888800
1191.000000	18.703300
1190.000000	18.516900
1189.000000	18.379700
1188.000000	18.267300
1187.000000	18.234400
1186.000000	18.240100
1185.000000	18.278800
1184.000000	18.389100
1183.000000	18.547200
1182.000000	18.752800
1181.000000	18.964400
1180.000000	19.167400
1179.000000	19.385600
1178.000000	19.560100
1177.000000	19.728600
1176.000000	19.855200
1175.000000	19.989700
1174.000000	20.127000
1173.000000	20.252400
1172.000000	20.406200
1171.000000	20.569100
1170.000000	20.744500
1169.000000	20.915300
1168.000000	21.055800
1167.000000	21.226400
1166.000000	21.387900
1165.000000	21.567600
1164.000000	21.728800
1163.000000	21.910000
1162.000000	22.067500
1161.000000	22.250600
1160.000000	22.411900
1159.000000	22.535700
1158.000000	22.672100
1157.000000	22.824300
1156.000000	22.928800
1155.000000	22.991800
1154.000000	23.056800
1153.000000	23.088400
1152.000000	23.048800
1151.000000	23.063700
1150.000000	23.078300
1149.000000	23.043300
1148.000000	23.054700
1147.000000	23.072400
1146.000000	23.129000
1145.000000	23.195700
1144.000000	23.291500
1143.000000	23.409400
1142.000000	23.569000
1141.000000	23.706700
1140.000000	23.847900
1139.000000	24.005100
1138.000000	24.162000
1137.000000	24.324100
1136.000000	24.484100
1135.000000	24.635900
1134.000000	24.792900
1133.000000	24.865700
1132.000000	24.979300
1131.000000	25.112100
1130.000000	25.201500
1129.000000	25.294100
1128.000000	25.357800
1127.000000	25.414600
1126.000000	25.452000
1125.000000	25.468600
1124.000000	25.503100
1123.000000	25.530400
1122.000000	25.549200
1121.000000	25.572300
1120.000000	25.578900
1119.000000	25.599200
1118.000000	25.596700
1117.000000	25.611900
1116.000000	25.594500
1115.000000	25.606200
1114.000000	25.600500
1113.000000	25.604500
1112.000000	25.594000
1111.000000	25.592100
1110.000000	25.588700
1109.000000	25.566700
1108.000000	25.575100
1107.000000	25.587700
1106.000000	25.582800
1105.000000	25.572100
1104.000000	25.569500
1103.000000	25.579700
1102.000000	25.572100
1101.000000	25.566100
1100.000000	25.557300
1099.000000	25.540900
1098.000000	25.533700
1097.000000	25.529100
1096.000000	25.521800
1095.000000	25.523000
1094.000000	25.504000
1093.000000	25.480000
1092.000000	25.465700
1091.000000	25.450600
1090.000000	25.439800
1089.000000	25.440200
1088.000000	25.432400
1087.000000	25.423500
1086.000000	25.403700
1085.000000	25.384900
1084.000000	25.383300
1083.000000	25.375500
1082.000000	25.355700
1081.000000	25.345100
1080.000000	25.317900
1079.000000	25.298600
1078.000000	25.311300
1077.000000	25.290700
1076.000000	25.271000
1075.000000	25.280800
1074.000000	25.262400
1073.000000	25.263700
1072.000000	25.251400
1071.000000	25.233800
1070.000000	25.203300
1069.000000	25.191900
1068.000000	25.184100
1067.000000	25.169700
1066.000000	25.155700
1065.000000	25.153700
1064.000000	25.156500
1063.000000	25.164600
1062.000000	25.151300
1061.000000	25.130400
1060.000000	25.113800
1059.000000	25.113700
1058.000000	25.096400
1057.000000	25.084000
1056.000000	25.073600
1055.000000	25.055800
1054.000000	25.051500
1053.000000	25.035600
1052.000000	25.024400
1051.000000	25.014400
1050.000000	25.007600
1049.000000	25.002900
1048.000000	25.001400
1047.000000	25.000600
1046.000000	24.992900
1045.000000	24.975900
1044.000000	24.970600
1043.000000	24.964400
1042.000000	24.969400
1041.000000	24.969400
1040.000000	24.961000
1039.000000	24.960000
1038.000000	24.939200
1037.000000	24.929000
1036.000000	24.917800
1035.000000	24.920200
1034.000000	24.900900
1033.000000	24.865200
1032.000000	24.857000
1031.000000	24.849000
1030.000000	24.827900
1029.000000	24.800500
1028.000000	24.785600
1027.000000	24.779300
1026.000000	24.773600
1025.000000	24.752900
1024.000000	24.723200
1023.000000	24.701800
1022.000000	24.705700
1021.000000	24.701200
1020.000000	24.697700
1019.000000	24.681100
1018.000000	24.657700
1017.000000	24.664700
1016.000000	24.668300
1015.000000	24.651500
1014.000000	24.643300
1013.000000	24.666100
1012.000000	24.685300
1011.000000	24.698800
1010.000000	24.710800
1009.000000	24.730500
1008.000000	24.776000
1007.000000	24.778100
1006.000000	24.805100
1005.000000	24.845800
1004.000000	24.854200
1003.000000	24.889100
1002.000000	24.926800
1001.000000	24.944800
1000.000000	24.969600
999.000000	24.993600
998.000000	25.039700
997.000000	25.081600
996.000000	25.101600
995.000000	25.126000
994.000000	25.156800
993.000000	25.184100
992.000000	25.221900
991.000000	25.247300
990.000000	25.257500
989.000000	25.293400
988.000000	25.319300
987.000000	25.323500
986.000000	25.347700
985.000000	25.369100
984.000000	25.414000
983.000000	25.434600
982.000000	25.440000
981.000000	25.447900
980.000000	25.468900
979.000000	25.478900
978.000000	25.485900
977.000000	25.508400
976.000000	25.539800
975.000000	25.540400
974.000000	25.573900
973.000000	25.573000
972.000000	25.575500
971.000000	25.590500
970.000000	25.610600
969.000000	25.632300
968.000000	25.634400
967.000000	25.670800
966.000000	25.688000
965.000000	25.685300
964.000000	25.708100
963.000000	25.752000
962.000000	25.762600
961.000000	25.792200
960.000000	25.809700
959.000000	25.822900
958.000000	25.858600
957.000000	25.906200
956.000000	25.918700
955.000000	25.939800
954.000000	25.983500
953.000000	26.024100
952.000000	26.047000
951.000000	26.082000
950.000000	26.090800
949.000000	26.117700
948.000000	26.150300
947.000000	26.176700
946.000000	26.208100
945.000000	26.239500
944.000000	26.265700
943.000000	26.288500
942.000000	26.336200
941.000000	26.361000
940.000000	26.389500
939.000000	26.414700
938.000000	26.488700
937.000000	26.506700
936.000000	26.518200
935.000000	26.550600
934.000000	26.570400
933.000000	26.621500
932.000000	26.621300
931.000000	26.641400
930.000000	26.688700
929.000000	26.683400
928.000000	26.694400
927.000000	26.701000
926.000000	26.726400
925.000000	26.739300
924.000000	26.754400
923.000000	26.761300
922.000000	26.800800
921.000000	26.802100
920.000000	26.800200
919.000000	26.814900
918.000000	26.809200
917.000000	26.824400
916.000000	26.840600
915.000000	26.833300
914.000000	26.845300
913.000000	26.869800
912.000000	26.853800
911.000000	26.862300
910.000000	26.851600
909.000000	26.915600
908.000000	26.904200
907.000000	26.909400
906.000000	26.919400
905.000000	26.941900
904.000000	27.001200
903.000000	27.009000
902.000000	27.049900
901.000000	27.051200
900.000000	27.082800
899.000000	27.116100
898.000000	27.143000
897.000000	27.197200
896.000000	27.202100
895.000000	27.205500
894.000000	27.245000
893.000000	27.283700
892.000000	27.293900
891.000000	27.295000
890.000000	27.244100
889.000000	27.243600
888.000000	27.244700
887.000000	27.233600
886.000000	27.242000
885.000000	27.215200
884.000000	27.181800
883.000000	27.159800
882.000000	27.081000
881.000000	26.999500
880.000000	26.950400
879.000000	26.928400
878.000000	26.856300
877.000000	26.758100
876.000000	26.714500
875.000000	26.613100
874.000000	26.554500
873.000000	26.469500
872.000000	26.359100
871.000000	26.282300
870.000000	26.183400
869.000000	26.109800
868.000000	26.033600
867.000000	25.983100
866.000000	25.913200
865.000000	25.844600
864.000000	25.736100
863.000000	25.629400
862.000000	25.515500
861.000000	25.444800
860.000000	25.352900
859.000000	25.281400
858.000000	25.260402
857.000000	24.793608
856.000000	24.872428
855.000000	25.161400
854.000000	24.886384
853.000000	25.091015
852.000000	25.045329
851.000000	24.931769
850.000000	24.999544
849.000000	25.166019
848.000000	25.309903
847.000000	25.130877
846.000000	25.207588
845.000000	25.120334
844.000000	25.166622
843.000000	25.242028
842.000000	25.282191
841.000000	25.274158
840.000000	25.256386
839.000000	25.186201
838.000000	25.261406
837.000000	25.097240
836.000000	25.091015
835.000000	25.010990
834.000000	24.951248
833.000000	25.090914
832.000000	24.964903
831.000000	24.899136
830.000000	24.959481
829.000000	24.914197
828.000000	24.976751
827.000000	24.870721
826.000000	24.803448
825.000000	24.714788
824.000000	24.761879
823.000000	24.714186
822.000000	24.579439
821.000000	24.568495
820.000000	24.502125
819.000000	24.493691
818.000000	24.479433
817.000000	24.460356
816.000000	24.413666
815.000000	24.342879
814.000000	24.397501
813.000000	24.331232
812.000000	24.256227
811.000000	24.206024
810.000000	24.236849
809.000000	24.243777
808.000000	24.173090
807.000000	24.073787
806.000000	24.033624
805.000000	24.024989
804.000000	23.981412
803.000000	23.929000
802.000000	23.966853
801.000000	23.977798
800.000000	23.905504
799.000000	23.824877
798.000000	23.802687
797.000000	23.792546
796.000000	23.699067
795.000000	23.666434
794.000000	23.607595
793.000000	23.566228
792.000000	23.538716
791.000000	23.505983
790.000000	23.456984
789.000000	23.382482
788.000000	23.322840
787.000000	23.288501
786.000000	23.260386
785.000000	23.222131
784.000000	23.128049
783.000000	23.071721
782.000000	23.010272
781.000000	22.969607
780.000000	22.912073
779.000000	22.870203
778.000000	22.790982
777.000000	22.751120
776.000000	22.748811
775.000000	22.695494
774.000000	22.593179
773.000000	22.573901
772.000000	22.533637
771.000000	22.473092
770.000000	22.446986
769.000000	22.413249
768.000000	22.396180
767.000000	22.352000
766.000000	22.324690
765.000000	22.310432
764.000000	22.278703
763.000000	22.231511
762.000000	22.229303
761.000000	22.196971
760.000000	22.190545
759.000000	22.170263
758.000000	22.173777
757.000000	22.197273
756.000000	22.165544
755.000000	22.168857
754.000000	22.135924
753.000000	22.109516
752.000000	22.121666
751.000000	22.131506
750.000000	22.135020
749.000000	22.125883
748.000000	22.089435
747.000000	22.095660
746.000000	22.124979
745.000000	22.115842
744.000000	22.128594
743.000000	22.138032
742.000000	22.136727
741.000000	22.150784
740.000000	22.122369
739.000000	22.081302
738.000000	22.064434
737.000000	22.050678
736.000000	22.035516
735.000000	21.996960
734.000000	21.952178
733.000000	21.927177
732.000000	21.914425
731.000000	21.865225
730.000000	21.787711
729.000000	21.731081
728.000000	21.678969
727.000000	21.618825
726.000000	21.545026
725.000000	21.471026
724.000000	21.404656
723.000000	21.366803
722.000000	21.312984
721.000000	21.241494
720.000000	21.152834
719.000000	21.070400
718.000000	21.023710
717.000000	20.969290
716.000000	20.895089
715.000000	20.812152
714.000000	20.743272
713.000000	20.684032
712.000000	20.650094
711.000000	20.558422
710.000000	20.472474
709.000000	20.431909
708.000000	20.378291
707.000000	20.331803
706.000000	20.276077
705.000000	20.241537
704.000000	20.206896
703.000000	20.202779
702.000000	20.176372
701.000000	20.158198
700.000000	20.151873
699.000000	20.143338
698.000000	20.135004
697.000000	20.134301
696.000000	20.145647
695.000000	20.160909
694.000000	20.160206
693.000000	20.137615
692.000000	20.131892
691.000000	20.125466
690.000000	20.111710
689.000000	20.090825
688.000000	20.094942
687.000000	20.089018
686.000000	20.055080
685.000000	20.065221
684.000000	20.050060
683.000000	20.057590
682.000000	20.059598
681.000000	20.065422
680.000000	20.050562
679.000000	20.064418
678.000000	20.075362
677.000000	20.066125
676.000000	20.052469
675.000000	20.065623
674.000000	20.078475
673.000000	20.056988
672.000000	20.038814
671.000000	20.032990
670.000000	20.028572
669.000000	20.006081
668.000000	19.966721
667.000000	19.921940
666.000000	19.849445
665.000000	19.798338
664.000000	19.749942
663.000000	19.668712
662.000000	19.587985
661.000000	19.501132
660.000000	19.416689
659.000000	19.300518
658.000000	19.212360
657.000000	19.108740
656.000000	18.988452
655.000000	18.869871
654.000000	18.756812
653.000000	18.621262
652.000000	18.500271
651.000000	18.355082
650.000000	18.215114
649.000000	18.087697
648.000000	17.970120
647.000000	17.839188
646.000000	17.713177
645.000000	17.618693
644.000000	17.521599
643.000000	17.466677
642.000000	17.394785
641.000000	17.387355
640.000000	17.352313
639.000000	17.401713
638.000000	17.483043
637.000000	17.601223
636.000000	17.774225
635.000000	17.985783
634.000000	18.234091
633.000000	18.513725
632.000000	18.798280
631.000000	19.128721
630.000000	19.483862
629.000000	19.817114
628.000000	20.170548
627.000000	20.479000
626.000000	20.791568
625.000000	21.104538
624.000000	21.430863
623.000000	21.729173
622.000000	22.002583
621.000000	22.291555
620.000000	22.601412
619.000000	22.842290
618.000000	23.128150
617.000000	23.367220
616.000000	23.623159
615.000000	23.865241
614.000000	24.107424
613.000000	24.349305
612.000000	24.591287
611.000000	24.809673
610.000000	24.995628
609.000000	25.174253
608.000000	25.332294
607.000000	25.466137
606.000000	25.558211
605.000000	25.678398
604.000000	25.740249
603.000000	25.754206
602.000000	25.797582
601.000000	25.815454
600.000000	25.780312
599.000000	25.789951
598.000000	25.786738
597.000000	25.759728
596.000000	25.783927
595.000000	25.773384
594.000000	25.774488
593.000000	25.818065
592.000000	25.835436
591.000000	25.888651
590.000000	25.937349
589.000000	25.993778
588.000000	26.050508
587.000000	26.087157
586.000000	26.156338
585.000000	26.222105
584.000000	26.265983
583.000000	26.301326
582.000000	26.362073
581.000000	26.367294
580.000000	26.374222
579.000000	26.370406
578.000000	26.377334
577.000000	26.372415
576.000000	26.317190
575.000000	26.286867
574.000000	26.261163
573.000000	26.211261
572.000000	26.195697
571.000000	26.144188
570.000000	26.122701
569.000000	26.130834
568.000000	26.096495
567.000000	26.084948
566.000000	26.074405
565.000000	26.050408
564.000000	26.031832
563.000000	26.006630
562.000000	25.952711
561.000000	25.894375
560.000000	25.903311
559.000000	26.477039
558.000000	26.359161
557.000000	26.195396
556.000000	25.999300
555.000000	25.790152
554.000000	25.587730
553.000000	25.330687
552.000000	25.051153
551.000000	24.777141
550.000000	24.468388
549.000000	24.165359
548.000000	23.837930
547.000000	23.512108
546.000000	23.181265
545.000000	22.822510
544.000000	22.432025
543.000000	22.038026
542.000000	21.631477
541.000000	21.215991
540.000000	20.777311
539.000000	20.349374
538.000000	19.928868
537.000000	19.506253
536.000000	19.084642
535.000000	18.656605
534.000000	18.234794
533.000000	17.827742
532.000000	17.418079
531.000000	17.016550
530.000000	16.637412
529.000000	16.267912
528.000000	15.932250
527.000000	15.608537
526.000000	15.306009
525.000000	15.014125
524.000000	14.752061
523.000000	14.489395
522.000000	14.244100
521.000000	14.013163
520.000000	13.803311
519.000000	13.596572
518.000000	13.419655
517.000000	13.252978
516.000000	13.076562
515.000000	12.916312
514.000000	12.768211
513.000000	12.597920
512.000000	12.437770
511.000000	12.275010
510.000000	12.103514
509.000000	11.947581
508.000000	11.805605
507.000000	11.666440
506.000000	11.520147
505.000000	11.378873
504.000000	11.228463
503.000000	11.081065
502.000000	10.943105
501.000000	10.805045
500.000000	10.659856
499.000000	10.519787
498.000000	10.394278
497.000000	10.255615
496.000000	10.110225
495.000000	9.975981
494.000000	9.839125
493.000000	9.703676
492.000000	9.576761
491.000000	9.450047
490.000000	9.315701
489.000000	9.190995
488.000000	9.055445
487.000000	8.920498
486.000000	8.779425
485.000000	8.660945
484.000000	8.541861
483.000000	8.416151
482.000000	8.292048
481.000000	8.171960
480.000000	8.052777
479.000000	7.936806
478.000000	7.820936
477.000000	7.705367
476.000000	7.587790
475.000000	7.471016
474.000000	7.346210
473.000000	7.232649
472.000000	7.124209
471.000000	7.017375
470.000000	6.916867
469.000000	6.826400
468.000000	6.751095
467.000000	6.677898
466.000000	6.605805
465.000000	6.546665
464.000000	6.488831
463.000000	6.445153
462.000000	6.423164
461.000000	6.398062
460.000000	6.379386
459.000000	6.363823
458.000000	6.353983
457.000000	6.365229
456.000000	6.383604
455.000000	6.396255
454.000000	6.418043
453.000000	6.444651
452.000000	6.467845
451.000000	6.502386
450.000000	6.540540
449.000000	6.569458
448.000000	6.595965
447.000000	6.622372
446.000000	6.635225
445.000000	6.653599
444.000000	6.663238
443.000000	6.665447
442.000000	6.663640
441.000000	6.648077
440.000000	6.633518
439.000000	6.612934
438.000000	6.584920
437.000000	6.551284
436.000000	6.511322
435.000000	6.468347
434.000000	6.425875
433.000000	6.377880
432.000000	6.332697
431.000000	6.289120
430.000000	6.239318
429.000000	6.183391
428.000000	6.122042
427.000000	6.068826
426.000000	6.017116
425.000000	5.953056
424.000000	5.875441
423.000000	5.803349
422.000000	5.734469
421.000000	5.660570
420.000000	5.583959
419.000000	5.505741
418.000000	5.422805
417.000000	5.350612
416.000000	5.281532
415.000000	5.198294
414.000000	5.112747
413.000000	5.013243
412.000000	4.918659
411.000000	4.823272
410.000000	4.732805
409.000000	4.629385
408.000000	4.538316
407.000000	4.447748
406.000000	4.342320
405.000000	4.238700
404.000000	4.137991
403.000000	4.045114
402.000000	3.952037
401.000000	3.854641
400.000000	3.763371
399.000000	3.670494
398.000000	3.574906
397.000000	3.486849
396.000000	3.407929
395.000000	3.327000
394.000000	3.245871
393.000000	3.172875
392.000000	3.102088
391.000000	3.050077
390.000000	2.979189
389.000000	2.921154
388.000000	2.873360
387.000000	2.830988
386.000000	2.793837
385.000000	2.750863
384.000000	2.711001
383.000000	2.672043
382.000000	2.649451
381.000000	2.619831
380.000000	2.583483
379.000000	2.562799
378.000000	2.550851
377.000000	2.520126
376.000000	2.830385
375.000000	2.710800
374.000000	2.658588
373.000000	2.797954
372.000000	2.811509
371.000000	2.759799
370.000000	2.772852
369.000000	2.797251
368.000000	2.795544
367.000000	2.746746
366.000000	2.703169
365.000000	2.764518
364.000000	2.753975
363.000000	2.770944
362.000000	2.852073
361.000000	2.776266
360.000000	2.788415
359.000000	2.725259
358.000000	2.767731
357.000000	2.822353
356.000000	2.714113
355.000000	2.720238
354.000000	2.702667
353.000000	2.700157
352.000000	2.744838
351.000000	2.687505
350.000000	2.696542
349.000000	2.605673
348.000000	2.635093
347.000000	2.625253
346.000000	2.567820
345.000000	2.675055
344.000000	2.740621
343.000000	2.654170
342.000000	2.754076
341.000000	2.735902
340.000000	2.702667
339.000000	2.722949
338.000000	2.722246
337.000000	2.791829
336.000000	2.900269
335.000000	2.862014
334.000000	2.916133
333.000000	2.865729
332.000000	2.786106
331.000000	2.873761
330.000000	2.865327
329.000000	2.946055
328.000000	3.046663
327.000000	3.106807
326.000000	3.030598
325.000000	2.878079
324.000000	2.819140
323.000000	2.966437
322.000000	2.870046
321.000000	3.080902
320.000000	3.128696
319.000000	3.347082
318.000000	2.970755
317.000000	3.033509
316.000000	2.568824
315.000000	2.591114
314.000000	2.581174
313.000000	2.553562
312.000000	2.581776
311.000000	2.599649
310.000000	2.589709
309.000000	2.600452
308.000000	2.553662
307.000000	2.610794
306.000000	2.575551
305.000000	2.558883
304.000000	2.552658
303.000000	2.536593
302.000000	2.579567
301.000000	2.573443
300.000000	2.499041
299.000000	2.549044
298.000000	2.547035
297.000000	2.616819
296.000000	2.567016
295.000000	2.575451
294.000000	2.567820
293.000000	2.617722
292.000000	2.603364
291.000000	2.588905
290.000000	2.583182
289.000000	2.620634
288.000000	2.590211
287.000000	2.588202
286.000000	2.632884
285.000000	2.555068
284.000000	2.643025
283.000000	2.638105
282.000000	2.616517
281.000000	2.589106
280.000000	2.594629
279.000000	2.632482
278.000000	2.605975
277.000000	2.645435
276.000000	2.654973
275.000000	2.638607
274.000000	2.648347
273.000000	2.628165
272.000000	2.663910
271.000000	2.658488
270.000000	2.643627
269.000000	2.685397
268.000000	2.667223
267.000000	2.685999
266.000000	2.690116
265.000000	2.719535
264.000000	2.720539
263.000000	2.757289
262.000000	2.781487
261.000000	2.786909
260.000000	2.796950
259.000000	2.723351
258.000000	2.792833
257.000000	2.776466
256.000000	2.780985
255.000000	2.773253
254.000000	2.769840
253.000000	2.766426
252.000000	2.838217
251.000000	2.830385
250.000000	2.841631
