PE UV       SUBTECH     SPECTRUM    ASCII       PEDS        4.00        
   -1
CICIMAUCR0098-1.ASC
24/04/03
14:55:53.00
24/04/03
14:55:53.00
Vinicio Soto Monge
C. cupreomarginata
250,000000
1
Lambda 1050
1050L1511233
PerkinElmer UV WinLab 6.3.2.0749 / 2.02.05 Lambda 900 UV/VIS/NIR, Aug  7 2015 09:38:08

0
0
3350/servo 860,8/2
0
0
UV/VIS
1
1
1
DoubleDePol,CommonBeamDepol,RBeamAtt,SBeamAtt,60mm sphere, WB InGaAs Detector
0
0
0
0
Program
Program
3350/servo 860,8/2
3350/0,2 860,8/0,2
3350/0,2 860,8/0,2
0
15.00
 
 
 
0
 
860,8
319,2
860,8
Front
100
on
S:100 R:100
0
0
0
0
 
0
 
 
 
0
 
 
0
0
0
0
0
 
 
 
 
0
0


0
0
#HDR
-1
-1
#GR
nm
%R
1.0
0.0
2500,000000
-1,000000
2251
8
55,162100
5,208800
#DATA
2500.000000	5.449500
2499.000000	5.597100
2498.000000	5.678900
2497.000000	5.685800
2496.000000	5.624700
2495.000000	5.808200
2494.000000	5.565000
2493.000000	5.596800
2492.000000	5.638500
2491.000000	5.568500
2490.000000	5.599500
2489.000000	5.773400
2488.000000	5.598900
2487.000000	5.581300
2486.000000	5.603200
2485.000000	5.717600
2484.000000	5.728400
2483.000000	5.648100
2482.000000	5.737100
2481.000000	5.600200
2480.000000	5.609100
2479.000000	5.717300
2478.000000	5.697900
2477.000000	5.714600
2476.000000	5.717700
2475.000000	5.741200
2474.000000	5.790100
2473.000000	5.742100
2472.000000	5.807100
2471.000000	5.796100
2470.000000	5.771900
2469.000000	5.793100
2468.000000	5.809100
2467.000000	5.810700
2466.000000	5.815500
2465.000000	5.865000
2464.000000	5.861500
2463.000000	5.911100
2462.000000	5.914900
2461.000000	5.950300
2460.000000	5.944200
2459.000000	5.953500
2458.000000	6.019000
2457.000000	6.025800
2456.000000	6.043500
2455.000000	6.061000
2454.000000	6.125500
2453.000000	6.137700
2452.000000	6.175500
2451.000000	6.203700
2450.000000	6.246400
2449.000000	6.256500
2448.000000	6.311700
2447.000000	6.331200
2446.000000	6.371000
2445.000000	6.380000
2444.000000	6.414100
2443.000000	6.448300
2442.000000	6.482500
2441.000000	6.499400
2440.000000	6.536800
2439.000000	6.575800
2438.000000	6.589500
2437.000000	6.623000
2436.000000	6.643300
2435.000000	6.684600
2434.000000	6.711800
2433.000000	6.727300
2432.000000	6.761500
2431.000000	6.751000
2430.000000	6.769900
2429.000000	6.800900
2428.000000	6.812100
2427.000000	6.828300
2426.000000	6.847500
2425.000000	6.862000
2424.000000	6.885800
2423.000000	6.897300
2422.000000	6.914400
2421.000000	6.932900
2420.000000	6.946700
2419.000000	6.963000
2418.000000	6.970300
2417.000000	6.976100
2416.000000	6.979200
2415.000000	7.006100
2414.000000	7.019500
2413.000000	7.039600
2412.000000	7.049500
2411.000000	7.047400
2410.000000	7.065200
2409.000000	7.071200
2408.000000	7.077200
2407.000000	7.087700
2406.000000	7.109800
2405.000000	7.112500
2404.000000	7.124800
2403.000000	7.131000
2402.000000	7.139500
2401.000000	7.159400
2400.000000	7.169800
2399.000000	7.183000
2398.000000	7.193000
2397.000000	7.207000
2396.000000	7.208700
2395.000000	7.222000
2394.000000	7.224500
2393.000000	7.233100
2392.000000	7.243000
2391.000000	7.240700
2390.000000	7.249200
2389.000000	7.270900
2388.000000	7.276900
2387.000000	7.266000
2386.000000	7.266300
2385.000000	7.270900
2384.000000	7.262800
2383.000000	7.245900
2382.000000	7.231500
2381.000000	7.224100
2380.000000	7.228200
2379.000000	7.215000
2378.000000	7.201300
2377.000000	7.212300
2376.000000	7.196800
2375.000000	7.189800
2374.000000	7.187200
2373.000000	7.164800
2372.000000	7.154500
2371.000000	7.148300
2370.000000	7.130400
2369.000000	7.116600
2368.000000	7.107600
2367.000000	7.077200
2366.000000	7.063900
2365.000000	7.047100
2364.000000	7.002100
2363.000000	6.973900
2362.000000	6.959100
2361.000000	6.930400
2360.000000	6.893500
2359.000000	6.859000
2358.000000	6.836400
2357.000000	6.826400
2356.000000	6.818100
2355.000000	6.792700
2354.000000	6.762600
2353.000000	6.764000
2352.000000	6.757500
2351.000000	6.764400
2350.000000	6.779000
2349.000000	6.777000
2348.000000	6.780100
2347.000000	6.781900
2346.000000	6.797900
2345.000000	6.826000
2344.000000	6.858100
2343.000000	6.876500
2342.000000	6.897300
2341.000000	6.913800
2340.000000	6.923900
2339.000000	6.945600
2338.000000	6.946400
2337.000000	6.952500
2336.000000	6.956300
2335.000000	6.966100
2334.000000	6.958600
2333.000000	6.951600
2332.000000	6.932600
2331.000000	6.915900
2330.000000	6.892400
2329.000000	6.873500
2328.000000	6.849400
2327.000000	6.824300
2326.000000	6.790700
2325.000000	6.741000
2324.000000	6.701900
2323.000000	6.665900
2322.000000	6.598600
2321.000000	6.544800
2320.000000	6.495800
2319.000000	6.437800
2318.000000	6.374700
2317.000000	6.295000
2316.000000	6.232000
2315.000000	6.169600
2314.000000	6.112200
2313.000000	6.040900
2312.000000	6.003600
2311.000000	5.949600
2310.000000	5.911800
2309.000000	5.876500
2308.000000	5.852700
2307.000000	5.837500
2306.000000	5.840400
2305.000000	5.843000
2304.000000	5.848900
2303.000000	5.871200
2302.000000	5.898600
2301.000000	5.929000
2300.000000	5.954400
2299.000000	5.961600
2298.000000	5.990900
2297.000000	6.026100
2296.000000	6.065000
2295.000000	6.073500
2294.000000	6.104300
2293.000000	6.128700
2292.000000	6.139100
2291.000000	6.143900
2290.000000	6.147100
2289.000000	6.147500
2288.000000	6.135300
2287.000000	6.134800
2286.000000	6.103900
2285.000000	6.082600
2284.000000	6.067300
2283.000000	6.059200
2282.000000	6.025400
2281.000000	5.998100
2280.000000	5.986500
2279.000000	5.979700
2278.000000	5.953900
2277.000000	5.935600
2276.000000	5.927300
2275.000000	5.905800
2274.000000	5.879800
2273.000000	5.894300
2272.000000	5.899700
2271.000000	5.876200
2270.000000	5.877900
2269.000000	5.889400
2268.000000	5.914800
2267.000000	5.924700
2266.000000	5.949100
2265.000000	5.992000
2264.000000	6.026800
2263.000000	6.069100
2262.000000	6.110800
2261.000000	6.155100
2260.000000	6.231300
2259.000000	6.279500
2258.000000	6.354800
2257.000000	6.415100
2256.000000	6.484500
2255.000000	6.555500
2254.000000	6.588300
2253.000000	6.637200
2252.000000	6.700200
2251.000000	6.753700
2250.000000	6.815200
2249.000000	6.862300
2248.000000	6.915000
2247.000000	6.966200
2246.000000	7.002700
2245.000000	7.051400
2244.000000	7.048400
2243.000000	7.085700
2242.000000	7.116100
2241.000000	7.165600
2240.000000	7.176800
2239.000000	7.211200
2238.000000	7.229100
2237.000000	7.258300
2236.000000	7.269900
2235.000000	7.268600
2234.000000	7.286800
2233.000000	7.276300
2232.000000	7.281600
2231.000000	7.300300
2230.000000	7.301300
2229.000000	7.276600
2228.000000	7.261200
2227.000000	7.217200
2226.000000	7.208100
2225.000000	7.181800
2224.000000	7.129500
2223.000000	7.122100
2222.000000	7.101800
2221.000000	7.051400
2220.000000	6.992900
2219.000000	6.966200
2218.000000	6.927200
2217.000000	6.891000
2216.000000	6.872100
2215.000000	6.833100
2214.000000	6.814400
2213.000000	6.801700
2212.000000	6.768000
2211.000000	6.769100
2210.000000	6.789400
2209.000000	6.819800
2208.000000	6.865000
2207.000000	6.896300
2206.000000	6.959400
2205.000000	7.019600
2204.000000	7.116000
2203.000000	7.194300
2202.000000	7.307400
2201.000000	7.415400
2200.000000	7.516400
2199.000000	7.617900
2198.000000	7.754400
2197.000000	7.867200
2196.000000	7.979200
2195.000000	8.080600
2194.000000	8.171800
2193.000000	8.285900
2192.000000	8.401800
2191.000000	8.475200
2190.000000	8.549000
2189.000000	8.639600
2188.000000	8.699700
2187.000000	8.774300
2186.000000	8.825900
2185.000000	8.863200
2184.000000	8.916200
2183.000000	8.967800
2182.000000	8.978800
2181.000000	9.032200
2180.000000	9.041100
2179.000000	9.081700
2178.000000	9.105900
2177.000000	9.123700
2176.000000	9.151900
2175.000000	9.184600
2174.000000	9.210000
2173.000000	9.238500
2172.000000	9.249000
2171.000000	9.267700
2170.000000	9.308500
2169.000000	9.331900
2168.000000	9.370200
2167.000000	9.393800
2166.000000	9.417600
2165.000000	9.443000
2164.000000	9.487900
2163.000000	9.516000
2162.000000	9.535100
2161.000000	9.569100
2160.000000	9.600900
2159.000000	9.630000
2158.000000	9.655400
2157.000000	9.670200
2156.000000	9.700800
2155.000000	9.732200
2154.000000	9.777400
2153.000000	9.812100
2152.000000	9.836200
2151.000000	9.870100
2150.000000	9.901200
2149.000000	9.925900
2148.000000	9.954800
2147.000000	9.970400
2146.000000	10.014000
2145.000000	10.046200
2144.000000	10.058400
2143.000000	10.075600
2142.000000	10.087800
2141.000000	10.119900
2140.000000	10.148200
2139.000000	10.165800
2138.000000	10.196600
2137.000000	10.218600
2136.000000	10.235600
2135.000000	10.250100
2134.000000	10.263900
2133.000000	10.279300
2132.000000	10.296300
2131.000000	10.298200
2130.000000	10.297300
2129.000000	10.316300
2128.000000	10.332000
2127.000000	10.322300
2126.000000	10.320400
2125.000000	10.321600
2124.000000	10.318100
2123.000000	10.317600
2122.000000	10.321500
2121.000000	10.321900
2120.000000	10.321100
2119.000000	10.307100
2118.000000	10.295300
2117.000000	10.295400
2116.000000	10.286500
2115.000000	10.287600
2114.000000	10.278900
2113.000000	10.274200
2112.000000	10.261300
2111.000000	10.247100
2110.000000	10.238600
2109.000000	10.224800
2108.000000	10.208300
2107.000000	10.207400
2106.000000	10.213600
2105.000000	10.199000
2104.000000	10.192100
2103.000000	10.203200
2102.000000	10.188300
2101.000000	10.168900
2100.000000	10.155400
2099.000000	10.142100
2098.000000	10.132100
2097.000000	10.121400
2096.000000	10.114100
2095.000000	10.114500
2094.000000	10.115500
2093.000000	10.108600
2092.000000	10.096700
2091.000000	10.092900
2090.000000	10.084200
2089.000000	10.088900
2088.000000	10.094900
2087.000000	10.087000
2086.000000	10.085600
2085.000000	10.088600
2084.000000	10.069800
2083.000000	10.054200
2082.000000	10.044500
2081.000000	10.045700
2080.000000	10.038300
2079.000000	10.034300
2078.000000	10.035200
2077.000000	10.018200
2076.000000	9.996400
2075.000000	9.977800
2074.000000	9.973500
2073.000000	9.949500
2072.000000	9.943400
2071.000000	9.926100
2070.000000	9.913200
2069.000000	9.896300
2068.000000	9.866300
2067.000000	9.852600
2066.000000	9.834900
2065.000000	9.797200
2064.000000	9.792700
2063.000000	9.756700
2062.000000	9.735000
2061.000000	9.719100
2060.000000	9.711700
2059.000000	9.686300
2058.000000	9.672300
2057.000000	9.664900
2056.000000	9.648200
2055.000000	9.631300
2054.000000	9.643100
2053.000000	9.650200
2052.000000	9.642300
2051.000000	9.650500
2050.000000	9.663800
2049.000000	9.698000
2048.000000	9.715900
2047.000000	9.767100
2046.000000	9.822100
2045.000000	9.866200
2044.000000	9.900300
2043.000000	9.966200
2042.000000	10.032700
2041.000000	10.103300
2040.000000	10.170600
2039.000000	10.225500
2038.000000	10.283200
2037.000000	10.348100
2036.000000	10.425300
2035.000000	10.479300
2034.000000	10.522200
2033.000000	10.581200
2032.000000	10.645200
2031.000000	10.687400
2030.000000	10.718000
2029.000000	10.760600
2028.000000	10.796600
2027.000000	10.847100
2026.000000	10.873700
2025.000000	10.905200
2024.000000	10.938600
2023.000000	10.970000
2022.000000	11.005000
2021.000000	11.043100
2020.000000	11.079100
2019.000000	11.108700
2018.000000	11.114900
2017.000000	11.144500
2016.000000	11.174000
2015.000000	11.176300
2014.000000	11.213800
2013.000000	11.243800
2012.000000	11.240200
2011.000000	11.262800
2010.000000	11.283700
2009.000000	11.310200
2008.000000	11.305200
2007.000000	11.333200
2006.000000	11.343100
2005.000000	11.371500
2004.000000	11.361200
2003.000000	11.362700
2002.000000	11.368300
2001.000000	11.384700
2000.000000	11.387500
1999.000000	11.364900
1998.000000	11.371100
1997.000000	11.356500
1996.000000	11.361500
1995.000000	11.339400
1994.000000	11.330900
1993.000000	11.309400
1992.000000	11.322200
1991.000000	11.306600
1990.000000	11.279300
1989.000000	11.264400
1988.000000	11.237800
1987.000000	11.210900
1986.000000	11.185200
1985.000000	11.160100
1984.000000	11.125300
1983.000000	11.113000
1982.000000	11.104100
1981.000000	11.073300
1980.000000	11.054900
1979.000000	11.028800
1978.000000	10.994000
1977.000000	10.966000
1976.000000	10.952200
1975.000000	10.931200
1974.000000	10.889600
1973.000000	10.876100
1972.000000	10.868000
1971.000000	10.838100
1970.000000	10.803300
1969.000000	10.794300
1968.000000	10.753200
1967.000000	10.772200
1966.000000	10.729300
1965.000000	10.696800
1964.000000	10.659300
1963.000000	10.667800
1962.000000	10.658300
1961.000000	10.642100
1960.000000	10.611500
1959.000000	10.569800
1958.000000	10.552600
1957.000000	10.531200
1956.000000	10.520900
1955.000000	10.522300
1954.000000	10.486700
1953.000000	10.470000
1952.000000	10.441500
1951.000000	10.444300
1950.000000	10.422600
1949.000000	10.428600
1948.000000	10.411400
1947.000000	10.396900
1946.000000	10.380000
1945.000000	10.403600
1944.000000	10.369500
1943.000000	10.373300
1942.000000	10.391500
1941.000000	10.377700
1940.000000	10.390400
1939.000000	10.394100
1938.000000	10.414800
1937.000000	10.405400
1936.000000	10.430200
1935.000000	10.442200
1934.000000	10.463300
1933.000000	10.517600
1932.000000	10.545600
1931.000000	10.587100
1930.000000	10.636500
1929.000000	10.676400
1928.000000	10.712300
1927.000000	10.739200
1926.000000	10.782000
1925.000000	10.837800
1924.000000	10.925200
1923.000000	10.983300
1922.000000	11.028500
1921.000000	11.101800
1920.000000	11.164600
1919.000000	11.222400
1918.000000	11.297100
1917.000000	11.393000
1916.000000	11.481800
1915.000000	11.572600
1914.000000	11.658100
1913.000000	11.750300
1912.000000	11.825900
1911.000000	11.908000
1910.000000	12.001200
1909.000000	12.091400
1908.000000	12.206700
1907.000000	12.307700
1906.000000	12.402000
1905.000000	12.521700
1904.000000	12.621100
1903.000000	12.740600
1902.000000	12.840500
1901.000000	12.956700
1900.000000	13.078200
1899.000000	13.198600
1898.000000	13.277900
1897.000000	13.410000
1896.000000	13.519800
1895.000000	13.614400
1894.000000	13.733500
1893.000000	13.858800
1892.000000	13.995500
1891.000000	14.122100
1890.000000	14.239500
1889.000000	14.361200
1888.000000	14.508600
1887.000000	14.661200
1886.000000	14.833000
1885.000000	15.039200
1884.000000	15.269300
1883.000000	15.506600
1882.000000	15.741100
1881.000000	15.980500
1880.000000	16.225100
1879.000000	16.469800
1878.000000	16.719800
1877.000000	16.945800
1876.000000	17.155400
1875.000000	17.358900
1874.000000	17.546500
1873.000000	17.713700
1872.000000	17.875600
1871.000000	18.005900
1870.000000	18.116900
1869.000000	18.219200
1868.000000	18.286400
1867.000000	18.322000
1866.000000	18.347200
1865.000000	18.386500
1864.000000	18.404000
1863.000000	18.424300
1862.000000	18.443500
1861.000000	18.451000
1860.000000	18.450200
1859.000000	18.429100
1858.000000	18.395100
1857.000000	18.370900
1856.000000	18.327700
1855.000000	18.287700
1854.000000	18.244300
1853.000000	18.178200
1852.000000	18.109900
1851.000000	18.046700
1850.000000	18.008300
1849.000000	17.984200
1848.000000	17.909700
1847.000000	17.836600
1846.000000	17.759700
1845.000000	17.679700
1844.000000	17.641600
1843.000000	17.626900
1842.000000	17.611100
1841.000000	17.573300
1840.000000	17.528600
1839.000000	17.483900
1838.000000	17.440300
1837.000000	17.395300
1836.000000	17.350300
1835.000000	17.284700
1834.000000	17.209300
1833.000000	17.152500
1832.000000	17.093500
1831.000000	17.037800
1830.000000	16.983700
1829.000000	16.921100
1828.000000	16.841300
1827.000000	16.767300
1826.000000	16.699900
1825.000000	16.653400
1824.000000	16.622100
1823.000000	16.601600
1822.000000	16.582700
1821.000000	16.567200
1820.000000	16.533800
1819.000000	16.480900
1818.000000	16.454300
1817.000000	16.444500
1816.000000	16.438400
1815.000000	16.424400
1814.000000	16.409300
1813.000000	16.404600
1812.000000	16.400200
1811.000000	16.380400
1810.000000	16.341600
1809.000000	16.312100
1808.000000	16.282300
1807.000000	16.241300
1806.000000	16.199700
1805.000000	16.175000
1804.000000	16.144800
1803.000000	16.116100
1802.000000	16.081500
1801.000000	16.040600
1800.000000	15.991400
1799.000000	15.962700
1798.000000	15.915900
1797.000000	15.872400
1796.000000	15.844300
1795.000000	15.816400
1794.000000	15.782400
1793.000000	15.749800
1792.000000	15.704400
1791.000000	15.660000
1790.000000	15.618500
1789.000000	15.586900
1788.000000	15.540200
1787.000000	15.495100
1786.000000	15.434600
1785.000000	15.391000
1784.000000	15.306700
1783.000000	15.250900
1782.000000	15.199800
1781.000000	15.146500
1780.000000	15.092300
1779.000000	15.017200
1778.000000	14.943900
1777.000000	14.875300
1776.000000	14.795300
1775.000000	14.711600
1774.000000	14.626400
1773.000000	14.544800
1772.000000	14.440300
1771.000000	14.348900
1770.000000	14.241300
1769.000000	14.143600
1768.000000	14.054400
1767.000000	13.980100
1766.000000	13.907100
1765.000000	13.838100
1764.000000	13.800100
1763.000000	13.783500
1762.000000	13.811200
1761.000000	13.832800
1760.000000	13.874800
1759.000000	13.898500
1758.000000	13.950300
1757.000000	13.991900
1756.000000	14.028500
1755.000000	14.064900
1754.000000	14.075900
1753.000000	14.066100
1752.000000	14.078500
1751.000000	14.063000
1750.000000	14.041300
1749.000000	14.016000
1748.000000	13.978500
1747.000000	13.927400
1746.000000	13.867100
1745.000000	13.795000
1744.000000	13.694900
1743.000000	13.592200
1742.000000	13.487900
1741.000000	13.369200
1740.000000	13.221800
1739.000000	13.084500
1738.000000	12.948400
1737.000000	12.843200
1736.000000	12.739800
1735.000000	12.657300
1734.000000	12.597100
1733.000000	12.591400
1732.000000	12.588600
1731.000000	12.595700
1730.000000	12.671900
1729.000000	12.731900
1728.000000	12.816900
1727.000000	12.889100
1726.000000	12.962700
1725.000000	13.014100
1724.000000	13.055600
1723.000000	13.084300
1722.000000	13.127400
1721.000000	13.139400
1720.000000	13.164500
1719.000000	13.194700
1718.000000	13.230100
1717.000000	13.264100
1716.000000	13.288300
1715.000000	13.336100
1714.000000	13.376300
1713.000000	13.420200
1712.000000	13.471700
1711.000000	13.500900
1710.000000	13.534000
1709.000000	13.562000
1708.000000	13.572100
1707.000000	13.589600
1706.000000	13.595600
1705.000000	13.599700
1704.000000	13.611100
1703.000000	13.604900
1702.000000	13.571500
1701.000000	13.578000
1700.000000	13.502000
1699.000000	13.471000
1698.000000	13.402500
1697.000000	13.397900
1696.000000	13.405600
1695.000000	13.420400
1694.000000	13.452600
1693.000000	13.550400
1692.000000	13.659600
1691.000000	13.741300
1690.000000	13.849400
1689.000000	13.919400
1688.000000	13.963100
1687.000000	14.007100
1686.000000	13.997400
1685.000000	14.002200
1684.000000	14.082800
1683.000000	14.187100
1682.000000	14.340800
1681.000000	14.590200
1680.000000	14.857000
1679.000000	15.163000
1678.000000	15.475000
1677.000000	15.751500
1676.000000	16.023300
1675.000000	16.273500
1674.000000	16.482900
1673.000000	16.683200
1672.000000	16.823600
1671.000000	16.979400
1670.000000	17.081700
1669.000000	17.190200
1668.000000	17.282200
1667.000000	17.372200
1666.000000	17.426700
1665.000000	17.486800
1664.000000	17.523500
1663.000000	17.567600
1662.000000	17.607900
1661.000000	17.634900
1660.000000	17.667200
1659.000000	17.670700
1658.000000	17.688000
1657.000000	17.681700
1656.000000	17.704800
1655.000000	17.687300
1654.000000	17.691800
1653.000000	17.686200
1652.000000	17.652000
1651.000000	17.644200
1650.000000	17.626300
1649.000000	17.596100
1648.000000	17.558400
1647.000000	17.542900
1646.000000	17.494700
1645.000000	17.463600
1644.000000	17.422100
1643.000000	17.389700
1642.000000	17.362200
1641.000000	17.329600
1640.000000	17.280900
1639.000000	17.219600
1638.000000	17.170700
1637.000000	17.142000
1636.000000	17.095100
1635.000000	17.026800
1634.000000	16.976700
1633.000000	16.929900
1632.000000	16.865600
1631.000000	16.806500
1630.000000	16.765300
1629.000000	16.730000
1628.000000	16.669700
1627.000000	16.607900
1626.000000	16.543100
1625.000000	16.489300
1624.000000	16.447100
1623.000000	16.388800
1622.000000	16.353900
1621.000000	16.294300
1620.000000	16.243900
1619.000000	16.181300
1618.000000	16.148800
1617.000000	16.102000
1616.000000	16.036600
1615.000000	15.991100
1614.000000	15.930200
1613.000000	15.869500
1612.000000	15.835000
1611.000000	15.794700
1610.000000	15.754900
1609.000000	15.710700
1608.000000	15.672500
1607.000000	15.626800
1606.000000	15.570700
1605.000000	15.533700
1604.000000	15.486700
1603.000000	15.437100
1602.000000	15.382300
1601.000000	15.353300
1600.000000	15.333200
1599.000000	15.300600
1598.000000	15.260200
1597.000000	15.222200
1596.000000	15.186200
1595.000000	15.148700
1594.000000	15.132600
1593.000000	15.115800
1592.000000	15.082600
1591.000000	15.057900
1590.000000	15.048500
1589.000000	15.023400
1588.000000	15.005900
1587.000000	14.977200
1586.000000	14.955700
1585.000000	14.968700
1584.000000	14.974100
1583.000000	14.966100
1582.000000	14.960000
1581.000000	14.948900
1580.000000	14.929000
1579.000000	14.931000
1578.000000	14.926600
1577.000000	14.928200
1576.000000	14.930700
1575.000000	14.927000
1574.000000	14.925000
1573.000000	14.939400
1572.000000	14.953100
1571.000000	14.949200
1570.000000	14.964900
1569.000000	14.999000
1568.000000	15.003600
1567.000000	15.015000
1566.000000	15.039200
1565.000000	15.051600
1564.000000	15.071700
1563.000000	15.094100
1562.000000	15.109000
1561.000000	15.117600
1560.000000	15.140100
1559.000000	15.159800
1558.000000	15.176000
1557.000000	15.203500
1556.000000	15.214600
1555.000000	15.224200
1554.000000	15.232000
1553.000000	15.244400
1552.000000	15.257600
1551.000000	15.240700
1550.000000	15.231000
1549.000000	15.219200
1548.000000	15.222100
1547.000000	15.225100
1546.000000	15.230900
1545.000000	15.229300
1544.000000	15.232400
1543.000000	15.224600
1542.000000	15.221800
1541.000000	15.225300
1540.000000	15.225400
1539.000000	15.228700
1538.000000	15.239500
1537.000000	15.249400
1536.000000	15.253100
1535.000000	15.261700
1534.000000	15.268400
1533.000000	15.266300
1532.000000	15.279100
1531.000000	15.295700
1530.000000	15.293700
1529.000000	15.298000
1528.000000	15.304300
1527.000000	15.311900
1526.000000	15.306500
1525.000000	15.317400
1524.000000	15.322300
1523.000000	15.328400
1522.000000	15.337800
1521.000000	15.332700
1520.000000	15.339400
1519.000000	15.347200
1518.000000	15.356000
1517.000000	15.337200
1516.000000	15.325600
1515.000000	15.339100
1514.000000	15.337100
1513.000000	15.328400
1512.000000	15.348000
1511.000000	15.371600
1510.000000	15.374500
1509.000000	15.352200
1508.000000	15.350700
1507.000000	15.354400
1506.000000	15.348700
1505.000000	15.341100
1504.000000	15.354900
1503.000000	15.358000
1502.000000	15.367700
1501.000000	15.364900
1500.000000	15.364400
1499.000000	15.386900
1498.000000	15.390100
1497.000000	15.396500
1496.000000	15.394400
1495.000000	15.417600
1494.000000	15.416400
1493.000000	15.429600
1492.000000	15.440400
1491.000000	15.458600
1490.000000	15.457400
1489.000000	15.470300
1488.000000	15.505900
1487.000000	15.523800
1486.000000	15.533600
1485.000000	15.536700
1484.000000	15.554600
1483.000000	15.580200
1482.000000	15.595100
1481.000000	15.597300
1480.000000	15.619600
1479.000000	15.648500
1478.000000	15.681000
1477.000000	15.693500
1476.000000	15.708100
1475.000000	15.736300
1474.000000	15.764500
1473.000000	15.793200
1472.000000	15.818200
1471.000000	15.855500
1470.000000	15.861000
1469.000000	15.872700
1468.000000	15.891300
1467.000000	15.908800
1466.000000	15.937600
1465.000000	15.948500
1464.000000	15.978100
1463.000000	15.995900
1462.000000	16.039100
1461.000000	16.090200
1460.000000	16.109200
1459.000000	16.158400
1458.000000	16.178700
1457.000000	16.234700
1456.000000	16.283000
1455.000000	16.330800
1454.000000	16.367100
1453.000000	16.440300
1452.000000	16.507200
1451.000000	16.535300
1450.000000	16.597700
1449.000000	16.626700
1448.000000	16.697400
1447.000000	16.777800
1446.000000	16.865200
1445.000000	16.909700
1444.000000	16.948000
1443.000000	17.011700
1442.000000	17.095800
1441.000000	17.164800
1440.000000	17.250600
1439.000000	17.287900
1438.000000	17.350900
1437.000000	17.410700
1436.000000	17.467900
1435.000000	17.521400
1434.000000	17.590600
1433.000000	17.663400
1432.000000	17.744100
1431.000000	17.795100
1430.000000	17.861700
1429.000000	17.946000
1428.000000	18.061100
1427.000000	18.143500
1426.000000	18.254600
1425.000000	18.403100
1424.000000	18.512600
1423.000000	18.621100
1422.000000	18.717000
1421.000000	18.852200
1420.000000	18.973100
1419.000000	19.106200
1418.000000	19.179200
1417.000000	19.273200
1416.000000	19.371700
1415.000000	19.500600
1414.000000	19.606500
1413.000000	19.678100
1412.000000	19.751800
1411.000000	19.900400
1410.000000	20.042100
1409.000000	20.207400
1408.000000	20.387900
1407.000000	20.583100
1406.000000	20.783100
1405.000000	20.997400
1404.000000	21.176100
1403.000000	21.374100
1402.000000	21.593500
1401.000000	21.825700
1400.000000	21.957300
1399.000000	22.023800
1398.000000	22.103500
1397.000000	22.191200
1396.000000	22.255600
1395.000000	22.253900
1394.000000	22.175100
1393.000000	22.180300
1392.000000	22.176300
1391.000000	22.188700
1390.000000	22.210000
1389.000000	22.299100
1388.000000	22.401500
1387.000000	22.535800
1386.000000	22.681300
1385.000000	22.920600
1384.000000	23.210400
1383.000000	23.475100
1382.000000	23.719600
1381.000000	23.933900
1380.000000	24.074600
1379.000000	24.346400
1378.000000	24.568600
1377.000000	24.839400
1376.000000	25.179700
1375.000000	25.570700
1374.000000	26.041300
1373.000000	26.545300
1372.000000	27.100300
1371.000000	27.580700
1370.000000	28.025700
1369.000000	28.421800
1368.000000	28.760300
1367.000000	29.046400
1366.000000	29.302300
1365.000000	29.553700
1364.000000	29.752200
1363.000000	29.933900
1362.000000	30.122000
1361.000000	30.206200
1360.000000	30.259000
1359.000000	30.322400
1358.000000	30.430800
1357.000000	30.605900
1356.000000	30.926000
1355.000000	31.414400
1354.000000	31.976000
1353.000000	32.575900
1352.000000	33.206500
1351.000000	33.812800
1350.000000	34.373400
1349.000000	34.880000
1348.000000	35.345700
1347.000000	35.764700
1346.000000	36.142600
1345.000000	36.526000
1344.000000	36.912100
1343.000000	37.249300
1342.000000	37.565300
1341.000000	37.872200
1340.000000	38.161200
1339.000000	38.431900
1338.000000	38.698800
1337.000000	38.958200
1336.000000	39.187800
1335.000000	39.402600
1334.000000	39.637400
1333.000000	39.857200
1332.000000	40.052200
1331.000000	40.238600
1330.000000	40.404100
1329.000000	40.572500
1328.000000	40.740300
1327.000000	40.894500
1326.000000	41.021900
1325.000000	41.153300
1324.000000	41.273800
1323.000000	41.390700
1322.000000	41.508000
1321.000000	41.608300
1320.000000	41.692000
1319.000000	41.799900
1318.000000	41.891500
1317.000000	41.957700
1316.000000	42.035600
1315.000000	42.114600
1314.000000	42.173500
1313.000000	42.231800
1312.000000	42.289300
1311.000000	42.334500
1310.000000	42.373400
1309.000000	42.419100
1308.000000	42.451100
1307.000000	42.471800
1306.000000	42.483600
1305.000000	42.483600
1304.000000	42.493400
1303.000000	42.492200
1302.000000	42.486400
1301.000000	42.480400
1300.000000	42.471300
1299.000000	42.447400
1298.000000	42.418100
1297.000000	42.404900
1296.000000	42.381700
1295.000000	42.339700
1294.000000	42.313600
1293.000000	42.292300
1292.000000	42.252700
1291.000000	42.209500
1290.000000	42.164300
1289.000000	42.109900
1288.000000	42.036000
1287.000000	41.964100
1286.000000	41.896400
1285.000000	41.813300
1284.000000	41.725700
1283.000000	41.624100
1282.000000	41.543000
1281.000000	41.467400
1280.000000	41.378100
1279.000000	41.291900
1278.000000	41.219000
1277.000000	41.140300
1276.000000	41.062200
1275.000000	40.987700
1274.000000	40.927300
1273.000000	40.865500
1272.000000	40.796800
1271.000000	40.739400
1270.000000	40.679900
1269.000000	40.623500
1268.000000	40.561600
1267.000000	40.490300
1266.000000	40.430700
1265.000000	40.367900
1264.000000	40.309300
1263.000000	40.235900
1262.000000	40.183800
1261.000000	40.135100
1260.000000	40.064800
1259.000000	40.006200
1258.000000	39.950500
1257.000000	39.867400
1256.000000	39.795400
1255.000000	39.717400
1254.000000	39.637700
1253.000000	39.563500
1252.000000	39.475200
1251.000000	39.384300
1250.000000	39.306000
1249.000000	39.206400
1248.000000	39.083800
1247.000000	38.958400
1246.000000	38.841600
1245.000000	38.719600
1244.000000	38.572500
1243.000000	38.423500
1242.000000	38.238900
1241.000000	38.062100
1240.000000	37.890800
1239.000000	37.763600
1238.000000	37.616000
1237.000000	37.443300
1236.000000	37.238600
1235.000000	37.052900
1234.000000	36.841300
1233.000000	36.681700
1232.000000	36.520100
1231.000000	36.311300
1230.000000	36.082800
1229.000000	35.864900
1228.000000	35.653600
1227.000000	35.429200
1226.000000	35.210300
1225.000000	34.984400
1224.000000	34.774200
1223.000000	34.558000
1222.000000	34.341600
1221.000000	34.133900
1220.000000	33.935100
1219.000000	33.760000
1218.000000	33.588500
1217.000000	33.425100
1216.000000	33.259800
1215.000000	33.095400
1214.000000	32.952300
1213.000000	32.827600
1212.000000	32.721900
1211.000000	32.594600
1210.000000	32.484000
1209.000000	32.389000
1208.000000	32.300400
1207.000000	32.239100
1206.000000	32.194300
1205.000000	32.166800
1204.000000	32.167600
1203.000000	32.147900
1202.000000	32.147900
1201.000000	32.122400
1200.000000	32.058800
1199.000000	32.005800
1198.000000	31.889900
1197.000000	31.736200
1196.000000	31.532100
1195.000000	31.259900
1194.000000	30.904800
1193.000000	30.462000
1192.000000	29.981700
1191.000000	29.468700
1190.000000	28.989500
1189.000000	28.570900
1188.000000	28.266900
1187.000000	28.118700
1186.000000	28.067000
1185.000000	28.159200
1184.000000	28.412300
1183.000000	28.768100
1182.000000	29.265800
1181.000000	29.805500
1180.000000	30.355700
1179.000000	30.886100
1178.000000	31.373100
1177.000000	31.790000
1176.000000	32.164800
1175.000000	32.499700
1174.000000	32.825900
1173.000000	33.200800
1172.000000	33.570100
1171.000000	33.966900
1170.000000	34.352000
1169.000000	34.785700
1168.000000	35.207900
1167.000000	35.601400
1166.000000	36.054400
1165.000000	36.489500
1164.000000	36.952000
1163.000000	37.400500
1162.000000	37.850400
1161.000000	38.282000
1160.000000	38.689300
1159.000000	39.111200
1158.000000	39.504800
1157.000000	39.864100
1156.000000	40.163400
1155.000000	40.398100
1154.000000	40.547000
1153.000000	40.634000
1152.000000	40.651900
1151.000000	40.635100
1150.000000	40.609600
1149.000000	40.563700
1148.000000	40.546400
1147.000000	40.597100
1146.000000	40.746400
1145.000000	40.962000
1144.000000	41.303700
1143.000000	41.665800
1142.000000	42.095000
1141.000000	42.531500
1140.000000	42.962600
1139.000000	43.398800
1138.000000	43.852700
1137.000000	44.325000
1136.000000	44.807200
1135.000000	45.278300
1134.000000	45.680600
1133.000000	46.012700
1132.000000	46.344100
1131.000000	46.663400
1130.000000	46.951200
1129.000000	47.177700
1128.000000	47.357700
1127.000000	47.517400
1126.000000	47.621900
1125.000000	47.720100
1124.000000	47.797200
1123.000000	47.876700
1122.000000	47.937800
1121.000000	47.988100
1120.000000	48.023400
1119.000000	48.053300
1118.000000	48.078900
1117.000000	48.072500
1116.000000	48.068900
1115.000000	48.051000
1114.000000	48.039500
1113.000000	48.027300
1112.000000	48.013400
1111.000000	47.991800
1110.000000	47.962100
1109.000000	47.955300
1108.000000	47.941000
1107.000000	47.922300
1106.000000	47.887300
1105.000000	47.879000
1104.000000	47.856000
1103.000000	47.829900
1102.000000	47.796800
1101.000000	47.769300
1100.000000	47.737900
1099.000000	47.697400
1098.000000	47.664600
1097.000000	47.643800
1096.000000	47.611000
1095.000000	47.566700
1094.000000	47.524400
1093.000000	47.489700
1092.000000	47.429400
1091.000000	47.384400
1090.000000	47.351400
1089.000000	47.304800
1088.000000	47.263000
1087.000000	47.197600
1086.000000	47.156000
1085.000000	47.111200
1084.000000	47.060100
1083.000000	47.016300
1082.000000	46.962200
1081.000000	46.915200
1080.000000	46.875700
1079.000000	46.856700
1078.000000	46.812500
1077.000000	46.767900
1076.000000	46.743300
1075.000000	46.708200
1074.000000	46.679500
1073.000000	46.661400
1072.000000	46.622800
1071.000000	46.585500
1070.000000	46.550500
1069.000000	46.534400
1068.000000	46.502200
1067.000000	46.463600
1066.000000	46.438600
1065.000000	46.412700
1064.000000	46.363900
1063.000000	46.321900
1062.000000	46.288800
1061.000000	46.251800
1060.000000	46.223300
1059.000000	46.180900
1058.000000	46.128500
1057.000000	46.076900
1056.000000	46.035100
1055.000000	45.989500
1054.000000	45.938200
1053.000000	45.886000
1052.000000	45.849300
1051.000000	45.817600
1050.000000	45.784200
1049.000000	45.752700
1048.000000	45.722400
1047.000000	45.693700
1046.000000	45.658300
1045.000000	45.622300
1044.000000	45.599600
1043.000000	45.576500
1042.000000	45.550100
1041.000000	45.514700
1040.000000	45.478500
1039.000000	45.446700
1038.000000	45.405900
1037.000000	45.381900
1036.000000	45.349000
1035.000000	45.292300
1034.000000	45.245700
1033.000000	45.197100
1032.000000	45.154500
1031.000000	45.097200
1030.000000	45.032400
1029.000000	44.987200
1028.000000	44.927800
1027.000000	44.862100
1026.000000	44.812000
1025.000000	44.739900
1024.000000	44.650900
1023.000000	44.590100
1022.000000	44.525000
1021.000000	44.464800
1020.000000	44.422400
1019.000000	44.368000
1018.000000	44.313100
1017.000000	44.260100
1016.000000	44.209200
1015.000000	44.185900
1014.000000	44.176000
1013.000000	44.166600
1012.000000	44.156200
1011.000000	44.163400
1010.000000	44.199100
1009.000000	44.239100
1008.000000	44.282900
1007.000000	44.317500
1006.000000	44.355100
1005.000000	44.406400
1004.000000	44.436100
1003.000000	44.465300
1002.000000	44.508500
1001.000000	44.543700
1000.000000	44.597600
999.000000	44.630700
998.000000	44.669700
997.000000	44.719900
996.000000	44.774600
995.000000	44.823300
994.000000	44.882500
993.000000	44.931200
992.000000	44.980400
991.000000	45.031200
990.000000	45.083500
989.000000	45.152700
988.000000	45.219200
987.000000	45.293400
986.000000	45.367300
985.000000	45.440100
984.000000	45.511000
983.000000	45.572100
982.000000	45.639700
981.000000	45.720100
980.000000	45.797600
979.000000	45.861200
978.000000	45.930000
977.000000	45.987700
976.000000	46.056700
975.000000	46.136600
974.000000	46.189200
973.000000	46.257600
972.000000	46.316100
971.000000	46.372000
970.000000	46.434300
969.000000	46.499800
968.000000	46.562900
967.000000	46.610300
966.000000	46.637700
965.000000	46.688900
964.000000	46.737500
963.000000	46.805100
962.000000	46.889300
961.000000	46.958300
960.000000	47.002200
959.000000	47.072900
958.000000	47.151700
957.000000	47.215000
956.000000	47.268300
955.000000	47.315500
954.000000	47.370000
953.000000	47.409600
952.000000	47.443900
951.000000	47.481800
950.000000	47.498000
949.000000	47.543700
948.000000	47.565100
947.000000	47.586600
946.000000	47.633500
945.000000	47.666100
944.000000	47.710200
943.000000	47.755200
942.000000	47.792700
941.000000	47.838400
940.000000	47.909800
939.000000	47.977000
938.000000	48.019100
937.000000	48.085600
936.000000	48.174900
935.000000	48.269600
934.000000	48.347000
933.000000	48.417300
932.000000	48.497800
931.000000	48.589400
930.000000	48.640200
929.000000	48.721400
928.000000	48.789700
927.000000	48.887100
926.000000	48.947500
925.000000	49.008100
924.000000	49.098300
923.000000	49.179700
922.000000	49.240700
921.000000	49.321600
920.000000	49.390000
919.000000	49.442100
918.000000	49.499200
917.000000	49.570700
916.000000	49.588500
915.000000	49.668500
914.000000	49.688500
913.000000	49.723400
912.000000	49.767400
911.000000	49.818500
910.000000	49.895200
909.000000	49.944300
908.000000	50.002300
907.000000	50.058600
906.000000	50.129900
905.000000	50.239900
904.000000	50.328800
903.000000	50.442200
902.000000	50.542800
901.000000	50.684600
900.000000	50.797500
899.000000	50.925700
898.000000	51.057700
897.000000	51.181900
896.000000	51.341200
895.000000	51.446500
894.000000	51.572400
893.000000	51.684900
892.000000	51.810300
891.000000	51.922100
890.000000	52.043200
889.000000	52.119800
888.000000	52.210800
887.000000	52.333900
886.000000	52.434600
885.000000	52.501100
884.000000	52.559000
883.000000	52.646500
882.000000	52.712800
881.000000	52.765400
880.000000	52.843900
879.000000	52.876200
878.000000	52.943300
877.000000	52.965200
876.000000	52.997100
875.000000	53.043000
874.000000	53.067700
873.000000	53.104200
872.000000	53.124500
871.000000	53.130000
870.000000	53.131300
869.000000	53.142300
868.000000	53.126800
867.000000	53.135800
866.000000	53.115500
865.000000	53.094700
864.000000	53.054300
863.000000	52.967100
862.000000	52.906600
861.000000	52.804300
860.000000	52.761800
859.000000	52.712200
858.000000	49.930521
857.000000	51.758700
856.000000	51.260970
855.000000	51.623708
854.000000	51.891623
853.000000	51.481472
852.000000	51.422866
851.000000	51.599908
850.000000	51.353159
849.000000	51.368869
848.000000	51.303866
847.000000	51.311956
846.000000	51.508377
845.000000	51.438294
844.000000	51.342435
843.000000	51.175083
842.000000	51.140841
841.000000	51.154481
840.000000	51.226634
839.000000	51.229926
838.000000	51.287027
837.000000	51.125037
836.000000	51.207443
835.000000	51.194367
834.000000	51.169062
833.000000	51.202269
832.000000	50.883086
831.000000	50.945643
830.000000	50.869634
829.000000	50.657315
828.000000	50.720154
827.000000	50.693815
826.000000	50.621003
825.000000	50.565878
824.000000	50.474629
823.000000	50.458072
822.000000	50.328913
821.000000	50.356099
820.000000	50.407744
819.000000	50.246883
818.000000	50.047828
817.000000	50.023464
816.000000	49.943221
815.000000	49.774363
814.000000	49.632316
813.000000	49.469479
812.000000	49.366282
811.000000	49.236558
810.000000	49.215675
809.000000	49.121603
808.000000	49.073063
807.000000	48.999875
806.000000	48.946725
805.000000	48.851337
804.000000	48.783982
803.000000	48.725564
802.000000	48.760088
801.000000	48.766014
800.000000	48.678528
799.000000	48.596122
798.000000	48.480791
797.000000	48.387943
796.000000	48.415599
795.000000	48.386908
794.000000	48.318706
793.000000	48.338273
792.000000	48.309675
791.000000	48.234324
790.000000	48.294248
789.000000	48.372891
788.000000	48.408826
787.000000	48.370727
786.000000	48.337238
785.000000	48.235735
784.000000	48.272423
783.000000	48.329618
782.000000	48.250693
781.000000	48.144957
780.000000	48.138466
779.000000	48.068947
778.000000	47.957003
777.000000	47.883439
776.000000	47.876195
775.000000	47.779208
774.000000	47.741015
773.000000	47.730103
772.000000	47.649108
771.000000	47.580530
770.000000	47.528132
769.000000	47.469244
768.000000	47.371127
767.000000	47.296059
766.000000	47.238957
765.000000	47.129176
764.000000	47.128142
763.000000	47.130493
762.000000	47.052132
761.000000	46.975746
760.000000	46.956462
759.000000	46.873773
758.000000	46.769825
757.000000	46.732290
756.000000	46.710936
755.000000	46.708396
754.000000	46.654399
753.000000	46.610844
752.000000	46.541890
751.000000	46.478674
750.000000	46.490057
749.000000	46.442457
748.000000	46.371433
747.000000	46.311698
746.000000	46.276798
745.000000	46.222142
744.000000	46.173790
743.000000	46.162219
742.000000	46.130517
741.000000	45.982167
740.000000	45.900513
739.000000	45.876807
738.000000	45.790168
737.000000	45.681421
736.000000	45.564303
735.000000	45.505697
734.000000	45.436930
733.000000	45.373809
732.000000	45.302221
731.000000	45.234866
730.000000	45.223107
729.000000	45.242015
728.000000	45.263651
727.000000	45.246154
726.000000	45.190276
725.000000	45.175601
724.000000	45.143523
723.000000	45.098274
722.000000	45.080307
721.000000	45.026874
720.000000	44.977205
719.000000	44.937977
718.000000	44.859804
717.000000	44.818977
716.000000	44.803173
715.000000	44.751152
714.000000	44.738170
713.000000	44.751152
712.000000	44.741745
711.000000	44.706186
710.000000	44.693392
709.000000	44.690852
708.000000	44.629988
707.000000	44.572134
706.000000	44.471666
705.000000	44.407886
704.000000	44.319271
703.000000	44.226705
702.000000	44.124168
701.000000	43.955592
700.000000	43.825680
699.000000	43.766227
698.000000	43.627942
697.000000	43.441399
696.000000	43.309888
695.000000	43.194180
694.000000	43.009613
693.000000	42.855618
692.000000	42.733420
691.000000	42.618371
690.000000	42.423832
689.000000	42.257702
688.000000	42.082730
687.000000	41.891577
686.000000	41.739276
685.000000	41.571265
684.000000	41.445303
683.000000	41.290650
682.000000	41.131764
681.000000	40.971373
680.000000	40.796307
679.000000	40.627637
678.000000	40.471855
677.000000	40.310523
676.000000	40.149756
675.000000	39.992751
674.000000	39.836405
673.000000	39.669052
672.000000	39.559271
671.000000	39.407158
670.000000	39.317602
669.000000	39.262194
668.000000	39.255045
667.000000	39.227764
666.000000	39.234819
665.000000	39.296718
664.000000	39.338862
663.000000	39.375832
662.000000	39.376020
661.000000	39.421080
660.000000	39.439048
659.000000	39.464165
658.000000	39.398503
657.000000	39.368118
656.000000	39.353161
655.000000	39.317884
654.000000	39.226635
653.000000	39.158528
652.000000	39.087692
651.000000	38.971138
650.000000	38.852044
649.000000	38.711972
648.000000	38.588457
647.000000	38.441329
646.000000	38.355066
645.000000	38.235784
644.000000	38.095242
643.000000	37.988941
642.000000	37.911991
641.000000	37.788476
640.000000	37.693746
639.000000	37.592055
638.000000	37.466846
637.000000	37.332325
636.000000	37.204952
635.000000	37.065257
634.000000	36.870529
633.000000	36.666489
632.000000	36.436955
631.000000	36.171392
630.000000	35.903666
629.000000	35.624369
628.000000	35.332184
627.000000	35.081296
626.000000	34.867943
625.000000	34.694569
624.000000	34.593443
623.000000	34.545467
622.000000	34.606707
621.000000	34.767945
620.000000	34.980640
619.000000	35.268403
618.000000	35.634340
617.000000	35.991340
616.000000	36.449937
615.000000	36.928853
614.000000	37.480487
613.000000	38.015751
612.000000	38.547253
611.000000	39.153448
610.000000	39.784007
609.000000	40.426325
608.000000	41.012294
607.000000	41.634857
606.000000	42.160809
605.000000	42.659762
604.000000	43.074616
603.000000	43.501228
602.000000	43.873562
601.000000	44.167252
600.000000	44.443069
599.000000	44.713806
598.000000	44.981062
597.000000	45.164030
596.000000	45.423761
595.000000	45.661572
594.000000	45.953475
593.000000	46.243873
592.000000	46.579425
591.000000	46.896821
590.000000	47.283923
589.000000	47.685325
588.000000	48.066501
587.000000	48.424066
586.000000	48.742873
585.000000	49.023581
584.000000	49.256972
583.000000	49.435989
582.000000	49.508236
581.000000	49.542666
580.000000	49.502121
579.000000	49.407768
578.000000	49.294600
577.000000	49.130164
576.000000	48.993479
575.000000	48.839860
574.000000	48.765450
573.000000	48.683232
572.000000	48.694238
571.000000	48.764321
570.000000	48.867705
569.000000	49.039856
568.000000	49.221695
567.000000	49.392622
566.000000	49.574744
565.000000	49.780007
564.000000	49.909355
563.000000	50.004932
562.000000	50.024498
561.000000	50.004555
560.000000	49.910390
559.000000	49.811239
558.000000	49.637113
557.000000	49.445773
556.000000	49.238816
555.000000	49.032048
554.000000	48.830829
553.000000	48.677776
552.000000	48.544853
551.000000	48.453510
550.000000	48.346363
549.000000	48.269601
548.000000	48.144016
547.000000	47.959354
546.000000	47.700094
545.000000	47.374984
544.000000	46.929369
543.000000	46.444809
542.000000	45.856300
541.000000	45.210501
540.000000	44.522465
539.000000	43.816461
538.000000	43.088915
537.000000	42.371998
536.000000	41.630247
535.000000	40.862627
534.000000	40.109211
533.000000	39.335287
532.000000	38.534554
531.000000	37.701178
530.000000	36.897528
529.000000	36.073841
528.000000	35.279692
527.000000	34.498807
526.000000	33.727706
525.000000	32.996867
524.000000	32.259161
523.000000	31.537165
522.000000	30.835300
521.000000	30.139080
520.000000	29.475408
519.000000	28.836759
518.000000	28.222756
517.000000	27.653720
516.000000	27.117044
515.000000	26.589117
514.000000	26.079816
513.000000	25.577476
512.000000	25.101664
511.000000	24.647394
510.000000	24.197452
509.000000	23.756446
508.000000	23.337924
507.000000	22.920906
506.000000	22.485263
505.000000	22.058744
504.000000	21.590458
503.000000	21.121702
502.000000	20.674205
501.000000	20.186822
500.000000	19.701227
499.000000	19.238021
498.000000	18.769452
497.000000	18.310291
496.000000	17.880010
495.000000	17.475316
494.000000	17.107309
493.000000	16.772134
492.000000	16.478914
491.000000	16.236398
490.000000	16.035274
489.000000	15.885795
488.000000	15.771499
487.000000	15.706684
486.000000	15.679215
485.000000	15.667456
484.000000	15.678274
483.000000	15.691538
482.000000	15.709882
481.000000	15.734529
480.000000	15.753437
479.000000	15.770276
478.000000	15.768959
477.000000	15.757953
476.000000	15.752026
475.000000	15.723993
474.000000	15.695866
473.000000	15.649865
472.000000	15.602453
471.000000	15.554383
470.000000	15.494365
469.000000	15.436700
468.000000	15.380163
467.000000	15.325696
466.000000	15.268312
465.000000	15.202651
464.000000	15.126077
463.000000	15.046493
462.000000	14.957501
461.000000	14.869357
460.000000	14.776791
459.000000	14.662024
458.000000	14.543776
457.000000	14.431361
456.000000	14.319040
455.000000	14.202862
454.000000	14.055171
453.000000	13.916980
452.000000	13.801179
451.000000	13.660260
450.000000	13.503255
449.000000	13.358198
448.000000	13.210035
447.000000	13.071281
446.000000	12.921519
445.000000	12.735917
444.000000	12.555394
443.000000	12.393686
442.000000	12.219843
441.000000	12.017496
440.000000	11.820605
439.000000	11.627006
438.000000	11.422778
437.000000	11.223159
436.000000	11.024292
435.000000	10.822886
434.000000	10.616588
433.000000	10.401729
432.000000	10.188658
431.000000	9.989039
430.000000	9.785375
429.000000	9.579453
428.000000	9.386043
427.000000	9.180121
426.000000	8.973917
425.000000	8.771570
424.000000	8.572798
423.000000	8.376472
422.000000	8.177887
421.000000	7.995013
420.000000	7.811668
419.000000	7.630299
418.000000	7.463605
417.000000	7.305377
416.000000	7.159849
415.000000	7.021283
414.000000	6.882810
413.000000	6.748100
412.000000	6.614519
411.000000	6.489592
410.000000	6.376895
409.000000	6.279437
408.000000	6.187248
407.000000	6.086121
406.000000	6.015098
405.000000	5.949436
404.000000	5.882551
403.000000	5.815949
402.000000	5.759977
401.000000	5.710119
400.000000	5.669480
399.000000	5.622350
398.000000	5.580583
397.000000	5.542296
396.000000	5.501563
395.000000	5.476822
394.000000	5.441640
393.000000	5.428470
392.000000	5.405328
391.000000	5.377295
390.000000	5.357540
389.000000	5.328566
388.000000	5.307965
387.000000	5.291032
386.000000	5.268643
385.000000	5.252181
384.000000	5.221513
383.000000	5.213611
382.000000	5.194797
381.000000	5.173255
380.000000	5.155664
379.000000	5.148608
378.000000	5.133745
377.000000	5.123962
376.000000	5.213141
375.000000	5.239199
374.000000	5.139013
373.000000	5.152465
372.000000	5.101102
371.000000	5.155852
370.000000	5.148890
369.000000	5.125937
368.000000	5.122080
367.000000	5.127160
366.000000	5.144939
365.000000	5.103924
364.000000	5.026033
363.000000	5.080313
362.000000	5.029890
361.000000	5.015403
360.000000	5.012487
359.000000	5.078431
358.000000	5.053879
357.000000	5.034030
356.000000	5.029138
355.000000	5.097245
354.000000	4.998753
353.000000	4.988781
352.000000	5.007407
351.000000	5.022741
350.000000	5.021236
349.000000	4.899978
348.000000	5.069871
347.000000	5.044001
346.000000	5.081347
345.000000	4.996589
344.000000	4.993297
343.000000	5.063003
342.000000	5.069494
341.000000	5.029044
340.000000	4.995931
339.000000	4.998377
338.000000	5.036287
337.000000	4.908350
336.000000	4.963852
335.000000	5.029702
334.000000	5.020577
333.000000	5.026410
332.000000	5.230544
331.000000	5.043154
330.000000	5.090566
329.000000	5.085392
328.000000	5.057830
327.000000	5.105053
326.000000	5.123115
325.000000	5.207591
324.000000	5.332894
323.000000	5.064414
322.000000	5.319630
321.000000	5.174854
320.000000	5.476728
319.000000	5.357916
318.000000	5.163660
317.000000	5.262058
316.000000	5.003739
315.000000	4.966110
314.000000	5.058394
313.000000	5.010135
312.000000	5.000728
311.000000	4.991415
310.000000	5.036381
309.000000	5.021988
308.000000	5.004773
307.000000	4.983325
306.000000	5.053220
305.000000	5.035629
304.000000	5.069118
303.000000	5.029890
302.000000	5.039203
301.000000	5.065637
300.000000	5.021988
299.000000	5.017097
298.000000	4.981538
297.000000	5.075327
296.000000	5.058112
295.000000	5.067143
294.000000	5.072787
293.000000	5.123491
292.000000	5.018037
291.000000	5.110227
290.000000	5.062345
289.000000	5.078149
288.000000	5.128947
287.000000	5.102325
286.000000	5.083417
285.000000	5.132240
284.000000	5.053690
283.000000	5.112109
282.000000	5.123962
281.000000	5.052562
280.000000	5.125749
279.000000	5.126313
278.000000	5.182568
277.000000	5.204675
276.000000	5.204769
275.000000	5.199689
274.000000	5.219444
273.000000	5.250675
272.000000	5.251052
271.000000	5.237317
270.000000	5.233837
269.000000	5.282471
268.000000	5.306177
267.000000	5.305237
266.000000	5.347569
265.000000	5.338162
264.000000	5.384350
263.000000	5.432139
262.000000	5.372403
261.000000	5.435337
260.000000	5.421603
259.000000	5.513228
258.000000	5.541732
257.000000	5.550762
256.000000	5.546341
255.000000	5.535617
254.000000	5.555654
253.000000	5.545683
252.000000	5.564967
251.000000	5.676253
250.000000	5.617083
