PE UV       SUBTECH     SPECTRUM    ASCII       PEDS        4.00        
   -1
CICIMAUCR0012-2.Sample.ASC
24/04/04
15:16:23.00
24/04/04
15:16:23.00
Vinicio Soto Monge
C. cupreomarginata
250,000000
1
Lambda 1050
1050L1511233
PerkinElmer UV WinLab 6.3.2.0749 / 2.02.05 Lambda 900 UV/VIS/NIR, Aug  7 2015 09:38:08

0
0
3350/servo 860,8/2
0
0
UV/VIS
1
1
1
DoubleDePol,CommonBeamDepol,RBeamAtt,SBeamAtt,60mm sphere, WB InGaAs Detector
0
0
0
0
Program
Program
3350/servo 860,8/2
3350/0,2 860,8/0,2
3350/0,2 860,8/0,2
0
15.00
 
 
 
0
 
860,8
319,2
860,8
Front
100
on
S:100 R:100
0
0
0
0
 
0
 
 
 
0
 
 
0
0
0
0
0
 
 
 
 
0
0


0
0
#HDR
-1
-1
#GR
nm
%R
1.0
0.0
2500,000000
-1,000000
2251
8
58,712100
5,302800
#DATA
2500.000000	7.176000
2499.000000	7.201900
2498.000000	7.156900
2497.000000	7.206000
2496.000000	7.095900
2495.000000	7.209900
2494.000000	7.197200
2493.000000	7.242800
2492.000000	7.164300
2491.000000	7.121200
2490.000000	7.197900
2489.000000	7.168000
2488.000000	7.186000
2487.000000	7.238000
2486.000000	7.105000
2485.000000	7.198200
2484.000000	7.110800
2483.000000	7.117700
2482.000000	7.181300
2481.000000	7.199300
2480.000000	7.210500
2479.000000	7.193800
2478.000000	7.225900
2477.000000	7.193200
2476.000000	7.292000
2475.000000	7.288100
2474.000000	7.303300
2473.000000	7.262900
2472.000000	7.312100
2471.000000	7.350400
2470.000000	7.320800
2469.000000	7.286400
2468.000000	7.347700
2467.000000	7.395400
2466.000000	7.355300
2465.000000	7.406100
2464.000000	7.438000
2463.000000	7.472400
2462.000000	7.528300
2461.000000	7.539500
2460.000000	7.601700
2459.000000	7.644000
2458.000000	7.707400
2457.000000	7.748900
2456.000000	7.793700
2455.000000	7.847400
2454.000000	7.901600
2453.000000	7.996600
2452.000000	8.065800
2451.000000	8.118300
2450.000000	8.170600
2449.000000	8.251500
2448.000000	8.336500
2447.000000	8.386400
2446.000000	8.466600
2445.000000	8.553300
2444.000000	8.622600
2443.000000	8.690600
2442.000000	8.772100
2441.000000	8.837500
2440.000000	8.898400
2439.000000	8.980800
2438.000000	9.056400
2437.000000	9.097700
2436.000000	9.168400
2435.000000	9.242300
2434.000000	9.282700
2433.000000	9.365500
2432.000000	9.423700
2431.000000	9.453800
2430.000000	9.536000
2429.000000	9.579700
2428.000000	9.632600
2427.000000	9.685100
2426.000000	9.735800
2425.000000	9.771400
2424.000000	9.819100
2423.000000	9.872700
2422.000000	9.915600
2421.000000	9.961000
2420.000000	10.022400
2419.000000	10.067500
2418.000000	10.122400
2417.000000	10.173700
2416.000000	10.187400
2415.000000	10.224400
2414.000000	10.271700
2413.000000	10.303100
2412.000000	10.329400
2411.000000	10.364900
2410.000000	10.408800
2409.000000	10.432800
2408.000000	10.475600
2407.000000	10.499700
2406.000000	10.539100
2405.000000	10.558600
2404.000000	10.599600
2403.000000	10.633700
2402.000000	10.663000
2401.000000	10.703700
2400.000000	10.731100
2399.000000	10.764400
2398.000000	10.789200
2397.000000	10.816300
2396.000000	10.853400
2395.000000	10.891200
2394.000000	10.920100
2393.000000	10.939300
2392.000000	10.960600
2391.000000	10.982300
2390.000000	11.011400
2389.000000	11.031500
2388.000000	11.043500
2387.000000	11.053100
2386.000000	11.056000
2385.000000	11.065700
2384.000000	11.074900
2383.000000	11.079700
2382.000000	11.065800
2381.000000	11.061400
2380.000000	11.059600
2379.000000	11.044800
2378.000000	11.031900
2377.000000	11.012700
2376.000000	10.998100
2375.000000	10.991100
2374.000000	10.973600
2373.000000	10.941300
2372.000000	10.912000
2371.000000	10.875800
2370.000000	10.858400
2369.000000	10.842900
2368.000000	10.795900
2367.000000	10.749800
2366.000000	10.705400
2365.000000	10.657200
2364.000000	10.603800
2363.000000	10.543700
2362.000000	10.491400
2361.000000	10.448900
2360.000000	10.390200
2359.000000	10.325800
2358.000000	10.268800
2357.000000	10.229500
2356.000000	10.189400
2355.000000	10.147400
2354.000000	10.127800
2353.000000	10.102700
2352.000000	10.081300
2351.000000	10.082700
2350.000000	10.082200
2349.000000	10.099200
2348.000000	10.133900
2347.000000	10.155100
2346.000000	10.167500
2345.000000	10.210100
2344.000000	10.242300
2343.000000	10.271700
2342.000000	10.299200
2341.000000	10.325900
2340.000000	10.341500
2339.000000	10.347000
2338.000000	10.351800
2337.000000	10.357200
2336.000000	10.346700
2335.000000	10.325200
2334.000000	10.304400
2333.000000	10.285600
2332.000000	10.235700
2331.000000	10.196300
2330.000000	10.142400
2329.000000	10.085800
2328.000000	10.034700
2327.000000	9.970000
2326.000000	9.907900
2325.000000	9.840000
2324.000000	9.769600
2323.000000	9.690300
2322.000000	9.590300
2321.000000	9.500700
2320.000000	9.406200
2319.000000	9.301700
2318.000000	9.217100
2317.000000	9.113100
2316.000000	9.011900
2315.000000	8.910100
2314.000000	8.808600
2313.000000	8.714000
2312.000000	8.626600
2311.000000	8.548500
2310.000000	8.448400
2309.000000	8.399400
2308.000000	8.352900
2307.000000	8.304800
2306.000000	8.280900
2305.000000	8.271900
2304.000000	8.273300
2303.000000	8.296200
2302.000000	8.331700
2301.000000	8.349300
2300.000000	8.395000
2299.000000	8.441400
2298.000000	8.496400
2297.000000	8.537100
2296.000000	8.587300
2295.000000	8.636300
2294.000000	8.671900
2293.000000	8.690900
2292.000000	8.712800
2291.000000	8.730700
2290.000000	8.725700
2289.000000	8.709300
2288.000000	8.690000
2287.000000	8.666000
2286.000000	8.626800
2285.000000	8.588100
2284.000000	8.535600
2283.000000	8.475100
2282.000000	8.411200
2281.000000	8.362100
2280.000000	8.295800
2279.000000	8.247100
2278.000000	8.162000
2277.000000	8.098400
2276.000000	8.036500
2275.000000	7.979300
2274.000000	7.932700
2273.000000	7.900000
2272.000000	7.872900
2271.000000	7.820200
2270.000000	7.808900
2269.000000	7.809100
2268.000000	7.837800
2267.000000	7.857000
2266.000000	7.890300
2265.000000	7.925200
2264.000000	7.998500
2263.000000	8.070700
2262.000000	8.153900
2261.000000	8.244300
2260.000000	8.372100
2259.000000	8.487900
2258.000000	8.630400
2257.000000	8.765900
2256.000000	8.894300
2255.000000	9.081700
2254.000000	9.190300
2253.000000	9.307500
2252.000000	9.470400
2251.000000	9.574300
2250.000000	9.714700
2249.000000	9.822900
2248.000000	9.918300
2247.000000	10.049400
2246.000000	10.148500
2245.000000	10.244600
2244.000000	10.314800
2243.000000	10.387200
2242.000000	10.475000
2241.000000	10.528700
2240.000000	10.607400
2239.000000	10.657900
2238.000000	10.680800
2237.000000	10.737100
2236.000000	10.783700
2235.000000	10.807000
2234.000000	10.824300
2233.000000	10.846700
2232.000000	10.851300
2231.000000	10.844700
2230.000000	10.837800
2229.000000	10.858200
2228.000000	10.811100
2227.000000	10.778300
2226.000000	10.762600
2225.000000	10.690400
2224.000000	10.637500
2223.000000	10.549800
2222.000000	10.514600
2221.000000	10.427200
2220.000000	10.357800
2219.000000	10.287600
2218.000000	10.205900
2217.000000	10.131100
2216.000000	10.081000
2215.000000	10.040300
2214.000000	9.989100
2213.000000	9.952400
2212.000000	9.921400
2211.000000	9.923000
2210.000000	9.908700
2209.000000	9.910000
2208.000000	9.954400
2207.000000	10.008000
2206.000000	10.067000
2205.000000	10.164700
2204.000000	10.257600
2203.000000	10.382000
2202.000000	10.517200
2201.000000	10.655100
2200.000000	10.800300
2199.000000	10.950800
2198.000000	11.131600
2197.000000	11.301200
2196.000000	11.435100
2195.000000	11.603800
2194.000000	11.749600
2193.000000	11.890900
2192.000000	12.009900
2191.000000	12.155200
2190.000000	12.257800
2189.000000	12.345400
2188.000000	12.450300
2187.000000	12.551500
2186.000000	12.620600
2185.000000	12.692300
2184.000000	12.746000
2183.000000	12.790400
2182.000000	12.833800
2181.000000	12.886500
2180.000000	12.922700
2179.000000	12.950300
2178.000000	12.994100
2177.000000	12.999500
2176.000000	13.034100
2175.000000	13.076200
2174.000000	13.126900
2173.000000	13.135000
2172.000000	13.180200
2171.000000	13.218100
2170.000000	13.239500
2169.000000	13.275400
2168.000000	13.315700
2167.000000	13.355400
2166.000000	13.389300
2165.000000	13.423300
2164.000000	13.470200
2163.000000	13.512800
2162.000000	13.541300
2161.000000	13.592100
2160.000000	13.654200
2159.000000	13.709100
2158.000000	13.756600
2157.000000	13.788900
2156.000000	13.849200
2155.000000	13.896800
2154.000000	13.952600
2153.000000	14.021900
2152.000000	14.082800
2151.000000	14.150700
2150.000000	14.219400
2149.000000	14.269300
2148.000000	14.320500
2147.000000	14.386700
2146.000000	14.440500
2145.000000	14.490300
2144.000000	14.553700
2143.000000	14.607000
2142.000000	14.642800
2141.000000	14.698500
2140.000000	14.752100
2139.000000	14.798300
2138.000000	14.836300
2137.000000	14.877900
2136.000000	14.915200
2135.000000	14.956600
2134.000000	14.974100
2133.000000	15.012200
2132.000000	15.042300
2131.000000	15.059500
2130.000000	15.094500
2129.000000	15.122800
2128.000000	15.128400
2127.000000	15.133400
2126.000000	15.139500
2125.000000	15.141600
2124.000000	15.140000
2123.000000	15.134600
2122.000000	15.141500
2121.000000	15.130700
2120.000000	15.113900
2119.000000	15.105400
2118.000000	15.097100
2117.000000	15.094900
2116.000000	15.075900
2115.000000	15.042900
2114.000000	15.031900
2113.000000	15.019200
2112.000000	14.982200
2111.000000	14.957400
2110.000000	14.937500
2109.000000	14.922100
2108.000000	14.896200
2107.000000	14.877600
2106.000000	14.866700
2105.000000	14.851500
2104.000000	14.822500
2103.000000	14.798200
2102.000000	14.783700
2101.000000	14.760300
2100.000000	14.726400
2099.000000	14.691600
2098.000000	14.664500
2097.000000	14.668500
2096.000000	14.664000
2095.000000	14.643000
2094.000000	14.628800
2093.000000	14.608800
2092.000000	14.586300
2091.000000	14.572600
2090.000000	14.573400
2089.000000	14.562200
2088.000000	14.546800
2087.000000	14.536900
2086.000000	14.523000
2085.000000	14.498000
2084.000000	14.479800
2083.000000	14.464900
2082.000000	14.445200
2081.000000	14.437200
2080.000000	14.411100
2079.000000	14.384900
2078.000000	14.371500
2077.000000	14.342100
2076.000000	14.301100
2075.000000	14.268800
2074.000000	14.232700
2073.000000	14.213500
2072.000000	14.193300
2071.000000	14.159100
2070.000000	14.133900
2069.000000	14.096400
2068.000000	14.062000
2067.000000	14.041700
2066.000000	14.005400
2065.000000	13.983500
2064.000000	13.953200
2063.000000	13.901900
2062.000000	13.901700
2061.000000	13.889800
2060.000000	13.867800
2059.000000	13.855400
2058.000000	13.858900
2057.000000	13.864400
2056.000000	13.878400
2055.000000	13.903300
2054.000000	13.923000
2053.000000	13.974900
2052.000000	14.031800
2051.000000	14.084900
2050.000000	14.164600
2049.000000	14.239100
2048.000000	14.325500
2047.000000	14.422700
2046.000000	14.502900
2045.000000	14.627100
2044.000000	14.766700
2043.000000	14.877800
2042.000000	14.985500
2041.000000	15.099000
2040.000000	15.209600
2039.000000	15.331200
2038.000000	15.452600
2037.000000	15.558800
2036.000000	15.650800
2035.000000	15.741300
2034.000000	15.848000
2033.000000	15.956700
2032.000000	16.052200
2031.000000	16.137000
2030.000000	16.231600
2029.000000	16.292800
2028.000000	16.362200
2027.000000	16.430200
2026.000000	16.504600
2025.000000	16.573800
2024.000000	16.638400
2023.000000	16.679300
2022.000000	16.732400
2021.000000	16.798600
2020.000000	16.857100
2019.000000	16.903300
2018.000000	16.953600
2017.000000	17.006200
2016.000000	17.028700
2015.000000	17.050100
2014.000000	17.096100
2013.000000	17.121800
2012.000000	17.136000
2011.000000	17.165600
2010.000000	17.181500
2009.000000	17.175900
2008.000000	17.183500
2007.000000	17.186900
2006.000000	17.163200
2005.000000	17.151300
2004.000000	17.151700
2003.000000	17.119800
2002.000000	17.104800
2001.000000	17.102800
2000.000000	17.081700
1999.000000	17.029500
1998.000000	16.980400
1997.000000	16.972300
1996.000000	16.908700
1995.000000	16.854500
1994.000000	16.822100
1993.000000	16.749000
1992.000000	16.701200
1991.000000	16.644500
1990.000000	16.582300
1989.000000	16.530400
1988.000000	16.457300
1987.000000	16.385000
1986.000000	16.309100
1985.000000	16.236900
1984.000000	16.179600
1983.000000	16.102200
1982.000000	16.031400
1981.000000	15.956200
1980.000000	15.894700
1979.000000	15.805900
1978.000000	15.735000
1977.000000	15.642100
1976.000000	15.574000
1975.000000	15.499800
1974.000000	15.422500
1973.000000	15.339400
1972.000000	15.283500
1971.000000	15.181800
1970.000000	15.114200
1969.000000	15.072300
1968.000000	15.010200
1967.000000	14.922000
1966.000000	14.860500
1965.000000	14.801900
1964.000000	14.722300
1963.000000	14.649700
1962.000000	14.577500
1961.000000	14.504700
1960.000000	14.435400
1959.000000	14.364500
1958.000000	14.320800
1957.000000	14.242600
1956.000000	14.192000
1955.000000	14.088200
1954.000000	14.046100
1953.000000	13.969500
1952.000000	13.906900
1951.000000	13.850400
1950.000000	13.785700
1949.000000	13.742900
1948.000000	13.676900
1947.000000	13.649700
1946.000000	13.595000
1945.000000	13.539000
1944.000000	13.499000
1943.000000	13.465700
1942.000000	13.460700
1941.000000	13.426200
1940.000000	13.423200
1939.000000	13.418100
1938.000000	13.399900
1937.000000	13.415900
1936.000000	13.414600
1935.000000	13.431300
1934.000000	13.476500
1933.000000	13.497300
1932.000000	13.523000
1931.000000	13.584000
1930.000000	13.626900
1929.000000	13.716900
1928.000000	13.786300
1927.000000	13.865600
1926.000000	13.960500
1925.000000	14.068300
1924.000000	14.173600
1923.000000	14.275800
1922.000000	14.396800
1921.000000	14.543000
1920.000000	14.705300
1919.000000	14.830000
1918.000000	14.955900
1917.000000	15.137900
1916.000000	15.287400
1915.000000	15.449500
1914.000000	15.652000
1913.000000	15.870900
1912.000000	16.082200
1911.000000	16.255600
1910.000000	16.468600
1909.000000	16.637500
1908.000000	16.847000
1907.000000	17.074100
1906.000000	17.346500
1905.000000	17.591900
1904.000000	17.848400
1903.000000	18.085500
1902.000000	18.333300
1901.000000	18.579900
1900.000000	18.856500
1899.000000	19.133500
1898.000000	19.399800
1897.000000	19.687600
1896.000000	19.957600
1895.000000	20.199100
1894.000000	20.451000
1893.000000	20.745900
1892.000000	21.046500
1891.000000	21.342900
1890.000000	21.636600
1889.000000	21.888100
1888.000000	22.206000
1887.000000	22.515900
1886.000000	22.844200
1885.000000	23.197400
1884.000000	23.614600
1883.000000	24.017100
1882.000000	24.428100
1881.000000	24.878300
1880.000000	25.294900
1879.000000	25.704500
1878.000000	26.094600
1877.000000	26.477000
1876.000000	26.835500
1875.000000	27.161000
1874.000000	27.473200
1873.000000	27.740300
1872.000000	27.994500
1871.000000	28.200000
1870.000000	28.334400
1869.000000	28.476400
1868.000000	28.597300
1867.000000	28.681200
1866.000000	28.762000
1865.000000	28.836300
1864.000000	28.898800
1863.000000	28.963300
1862.000000	29.028400
1861.000000	29.075900
1860.000000	29.117500
1859.000000	29.129100
1858.000000	29.102600
1857.000000	29.091100
1856.000000	29.078900
1855.000000	29.049500
1854.000000	29.009900
1853.000000	28.944000
1852.000000	28.875800
1851.000000	28.862600
1850.000000	28.874200
1849.000000	28.867600
1848.000000	28.790600
1847.000000	28.656700
1846.000000	28.539100
1845.000000	28.479600
1844.000000	28.471900
1843.000000	28.500600
1842.000000	28.499700
1841.000000	28.452700
1840.000000	28.385800
1839.000000	28.325600
1838.000000	28.296500
1837.000000	28.249000
1836.000000	28.165300
1835.000000	28.074600
1834.000000	27.997500
1833.000000	27.938900
1832.000000	27.886800
1831.000000	27.838100
1830.000000	27.760100
1829.000000	27.685000
1828.000000	27.611200
1827.000000	27.536700
1826.000000	27.460700
1825.000000	27.389700
1824.000000	27.350800
1823.000000	27.364200
1822.000000	27.408400
1821.000000	27.382000
1820.000000	27.302600
1819.000000	27.262600
1818.000000	27.246700
1817.000000	27.242400
1816.000000	27.252700
1815.000000	27.270000
1814.000000	27.245400
1813.000000	27.233100
1812.000000	27.239600
1811.000000	27.202800
1810.000000	27.151700
1809.000000	27.127300
1808.000000	27.111700
1807.000000	27.092500
1806.000000	27.045700
1805.000000	26.978500
1804.000000	26.926700
1803.000000	26.910800
1802.000000	26.897700
1801.000000	26.848100
1800.000000	26.788500
1799.000000	26.738400
1798.000000	26.704200
1797.000000	26.669600
1796.000000	26.637500
1795.000000	26.604800
1794.000000	26.550000
1793.000000	26.497400
1792.000000	26.457800
1791.000000	26.409300
1790.000000	26.358000
1789.000000	26.312400
1788.000000	26.246900
1787.000000	26.187700
1786.000000	26.136600
1785.000000	26.063300
1784.000000	25.994500
1783.000000	25.913400
1782.000000	25.834700
1781.000000	25.777600
1780.000000	25.702700
1779.000000	25.617200
1778.000000	25.559300
1777.000000	25.461100
1776.000000	25.361500
1775.000000	25.252000
1774.000000	25.122400
1773.000000	25.012700
1772.000000	24.886700
1771.000000	24.760300
1770.000000	24.633000
1769.000000	24.505300
1768.000000	24.395400
1767.000000	24.292500
1766.000000	24.185000
1765.000000	24.120300
1764.000000	24.073300
1763.000000	24.043200
1762.000000	24.062600
1761.000000	24.090600
1760.000000	24.110800
1759.000000	24.174800
1758.000000	24.234200
1757.000000	24.295400
1756.000000	24.320900
1755.000000	24.353400
1754.000000	24.363800
1753.000000	24.357400
1752.000000	24.350100
1751.000000	24.319800
1750.000000	24.260900
1749.000000	24.200400
1748.000000	24.112400
1747.000000	24.033500
1746.000000	23.914000
1745.000000	23.779700
1744.000000	23.642500
1743.000000	23.459900
1742.000000	23.265000
1741.000000	23.053500
1740.000000	22.840100
1739.000000	22.625200
1738.000000	22.405700
1737.000000	22.219500
1736.000000	22.099200
1735.000000	21.996300
1734.000000	21.953700
1733.000000	21.910000
1732.000000	21.962600
1731.000000	22.023100
1730.000000	22.069900
1729.000000	22.194500
1728.000000	22.307300
1727.000000	22.381800
1726.000000	22.475900
1725.000000	22.519000
1724.000000	22.570900
1723.000000	22.608100
1722.000000	22.617900
1721.000000	22.638700
1720.000000	22.645200
1719.000000	22.666000
1718.000000	22.694800
1717.000000	22.740400
1716.000000	22.789900
1715.000000	22.845500
1714.000000	22.919200
1713.000000	22.977500
1712.000000	23.035500
1711.000000	23.056300
1710.000000	23.087000
1709.000000	23.067700
1708.000000	23.049600
1707.000000	23.047600
1706.000000	23.013900
1705.000000	22.962600
1704.000000	22.892600
1703.000000	22.827100
1702.000000	22.733200
1701.000000	22.602500
1700.000000	22.460800
1699.000000	22.293200
1698.000000	22.162800
1697.000000	22.036200
1696.000000	21.957600
1695.000000	21.935200
1694.000000	21.951500
1693.000000	22.023300
1692.000000	22.149200
1691.000000	22.283300
1690.000000	22.417100
1689.000000	22.524600
1688.000000	22.579400
1687.000000	22.614100
1686.000000	22.612400
1685.000000	22.615500
1684.000000	22.694600
1683.000000	22.848200
1682.000000	23.113400
1681.000000	23.500500
1680.000000	23.988800
1679.000000	24.461100
1678.000000	24.962100
1677.000000	25.452700
1676.000000	25.850400
1675.000000	26.248600
1674.000000	26.561500
1673.000000	26.852100
1672.000000	27.113600
1671.000000	27.313900
1670.000000	27.505000
1669.000000	27.676700
1668.000000	27.824500
1667.000000	27.930800
1666.000000	28.023100
1665.000000	28.139600
1664.000000	28.217300
1663.000000	28.295500
1662.000000	28.371400
1661.000000	28.407500
1660.000000	28.432100
1659.000000	28.465700
1658.000000	28.516600
1657.000000	28.548500
1656.000000	28.549500
1655.000000	28.544600
1654.000000	28.556300
1653.000000	28.544200
1652.000000	28.518500
1651.000000	28.510700
1650.000000	28.468900
1649.000000	28.430600
1648.000000	28.387900
1647.000000	28.367100
1646.000000	28.318000
1645.000000	28.262000
1644.000000	28.206200
1643.000000	28.164800
1642.000000	28.118500
1641.000000	28.069000
1640.000000	28.013900
1639.000000	27.951800
1638.000000	27.900600
1637.000000	27.823200
1636.000000	27.778100
1635.000000	27.714100
1634.000000	27.648900
1633.000000	27.572200
1632.000000	27.520200
1631.000000	27.436300
1630.000000	27.360500
1629.000000	27.293100
1628.000000	27.211100
1627.000000	27.137700
1626.000000	27.082700
1625.000000	27.014600
1624.000000	26.923100
1623.000000	26.858300
1622.000000	26.794500
1621.000000	26.715700
1620.000000	26.651100
1619.000000	26.580200
1618.000000	26.516700
1617.000000	26.447200
1616.000000	26.383100
1615.000000	26.331900
1614.000000	26.252500
1613.000000	26.185000
1612.000000	26.128700
1611.000000	26.065700
1610.000000	26.024200
1609.000000	25.976800
1608.000000	25.898800
1607.000000	25.833900
1606.000000	25.774800
1605.000000	25.729800
1604.000000	25.659600
1603.000000	25.592700
1602.000000	25.534900
1601.000000	25.463900
1600.000000	25.411600
1599.000000	25.364200
1598.000000	25.321400
1597.000000	25.260700
1596.000000	25.219700
1595.000000	25.177700
1594.000000	25.120700
1593.000000	25.067100
1592.000000	25.039000
1591.000000	25.018700
1590.000000	24.981700
1589.000000	24.943100
1588.000000	24.911900
1587.000000	24.884400
1586.000000	24.850000
1585.000000	24.830300
1584.000000	24.822000
1583.000000	24.805200
1582.000000	24.774500
1581.000000	24.757900
1580.000000	24.744100
1579.000000	24.740300
1578.000000	24.736800
1577.000000	24.738700
1576.000000	24.747900
1575.000000	24.756300
1574.000000	24.771500
1573.000000	24.790300
1572.000000	24.803400
1571.000000	24.810900
1570.000000	24.833400
1569.000000	24.856900
1568.000000	24.882300
1567.000000	24.916200
1566.000000	24.936200
1565.000000	24.963700
1564.000000	25.012200
1563.000000	25.045200
1562.000000	25.056200
1561.000000	25.065500
1560.000000	25.093400
1559.000000	25.116900
1558.000000	25.124800
1557.000000	25.136600
1556.000000	25.141100
1555.000000	25.155400
1554.000000	25.170300
1553.000000	25.169000
1552.000000	25.158800
1551.000000	25.147900
1550.000000	25.134800
1549.000000	25.136300
1548.000000	25.124900
1547.000000	25.099700
1546.000000	25.080700
1545.000000	25.077800
1544.000000	25.070500
1543.000000	25.066700
1542.000000	25.048900
1541.000000	25.047500
1540.000000	25.057700
1539.000000	25.051300
1538.000000	25.051400
1537.000000	25.036500
1536.000000	25.021800
1535.000000	25.018200
1534.000000	25.012300
1533.000000	25.002400
1532.000000	24.981600
1531.000000	24.966500
1530.000000	24.957400
1529.000000	24.934400
1528.000000	24.901800
1527.000000	24.884100
1526.000000	24.858800
1525.000000	24.837100
1524.000000	24.814000
1523.000000	24.789300
1522.000000	24.764300
1521.000000	24.729600
1520.000000	24.710300
1519.000000	24.683200
1518.000000	24.641100
1517.000000	24.617800
1516.000000	24.580200
1515.000000	24.554400
1514.000000	24.524500
1513.000000	24.481000
1512.000000	24.447600
1511.000000	24.417600
1510.000000	24.377500
1509.000000	24.339900
1508.000000	24.314300
1507.000000	24.271400
1506.000000	24.225000
1505.000000	24.201200
1504.000000	24.188200
1503.000000	24.144600
1502.000000	24.114700
1501.000000	24.084700
1500.000000	24.053100
1499.000000	24.040100
1498.000000	24.002100
1497.000000	24.003000
1496.000000	24.010200
1495.000000	23.985900
1494.000000	23.976200
1493.000000	23.986000
1492.000000	24.003300
1491.000000	23.980000
1490.000000	23.973100
1489.000000	23.982300
1488.000000	23.987300
1487.000000	23.991700
1486.000000	24.002300
1485.000000	23.993100
1484.000000	23.999000
1483.000000	24.031500
1482.000000	24.046600
1481.000000	24.058700
1480.000000	24.091800
1479.000000	24.121400
1478.000000	24.142300
1477.000000	24.151900
1476.000000	24.192500
1475.000000	24.223300
1474.000000	24.263600
1473.000000	24.320600
1472.000000	24.352900
1471.000000	24.358200
1470.000000	24.394700
1469.000000	24.419700
1468.000000	24.463600
1467.000000	24.538100
1466.000000	24.578500
1465.000000	24.610000
1464.000000	24.652900
1463.000000	24.694300
1462.000000	24.769200
1461.000000	24.831900
1460.000000	24.909200
1459.000000	24.964200
1458.000000	25.036400
1457.000000	25.110000
1456.000000	25.211600
1455.000000	25.308300
1454.000000	25.375300
1453.000000	25.462000
1452.000000	25.577000
1451.000000	25.671600
1450.000000	25.773800
1449.000000	25.866900
1448.000000	25.947600
1447.000000	26.074700
1446.000000	26.208900
1445.000000	26.300300
1444.000000	26.399100
1443.000000	26.511700
1442.000000	26.637800
1441.000000	26.755400
1440.000000	26.855700
1439.000000	26.984900
1438.000000	27.085300
1437.000000	27.194800
1436.000000	27.302300
1435.000000	27.412100
1434.000000	27.542500
1433.000000	27.639100
1432.000000	27.764800
1431.000000	27.875700
1430.000000	27.973700
1429.000000	28.138000
1428.000000	28.269800
1427.000000	28.417400
1426.000000	28.583200
1425.000000	28.781400
1424.000000	28.960600
1423.000000	29.122500
1422.000000	29.279100
1421.000000	29.490400
1420.000000	29.698200
1419.000000	29.868500
1418.000000	30.039100
1417.000000	30.150000
1416.000000	30.360200
1415.000000	30.566500
1414.000000	30.716900
1413.000000	30.832000
1412.000000	30.983700
1411.000000	31.177200
1410.000000	31.381000
1409.000000	31.628900
1408.000000	31.843700
1407.000000	32.096400
1406.000000	32.340000
1405.000000	32.583200
1404.000000	32.787700
1403.000000	33.025200
1402.000000	33.286800
1401.000000	33.568000
1400.000000	33.701300
1399.000000	33.775000
1398.000000	33.839800
1397.000000	33.997900
1396.000000	34.069700
1395.000000	34.042300
1394.000000	33.995600
1393.000000	33.961700
1392.000000	33.954000
1391.000000	33.907000
1390.000000	33.903300
1389.000000	33.976900
1388.000000	34.066400
1387.000000	34.107900
1386.000000	34.244300
1385.000000	34.478000
1384.000000	34.755400
1383.000000	35.017300
1382.000000	35.300500
1381.000000	35.542000
1380.000000	35.771600
1379.000000	36.094700
1378.000000	36.406100
1377.000000	36.802100
1376.000000	37.221600
1375.000000	37.684300
1374.000000	38.184800
1373.000000	38.773700
1372.000000	39.345700
1371.000000	39.839400
1370.000000	40.266500
1369.000000	40.667400
1368.000000	41.001100
1367.000000	41.256100
1366.000000	41.509700
1365.000000	41.730800
1364.000000	41.904200
1363.000000	42.064700
1362.000000	42.248700
1361.000000	42.326000
1360.000000	42.337400
1359.000000	42.404800
1358.000000	42.494100
1357.000000	42.636100
1356.000000	42.875000
1355.000000	43.198900
1354.000000	43.581700
1353.000000	43.985300
1352.000000	44.486200
1351.000000	44.945100
1350.000000	45.383600
1349.000000	45.776200
1348.000000	46.146200
1347.000000	46.463500
1346.000000	46.752400
1345.000000	47.054400
1344.000000	47.350700
1343.000000	47.586500
1342.000000	47.835500
1341.000000	48.093500
1340.000000	48.330000
1339.000000	48.534300
1338.000000	48.747800
1337.000000	48.948100
1336.000000	49.137100
1335.000000	49.314200
1334.000000	49.485900
1333.000000	49.646300
1332.000000	49.800000
1331.000000	49.952100
1330.000000	50.094900
1329.000000	50.230700
1328.000000	50.340500
1327.000000	50.442800
1326.000000	50.555600
1325.000000	50.646900
1324.000000	50.730700
1323.000000	50.834400
1322.000000	50.934400
1321.000000	51.017500
1320.000000	51.097200
1319.000000	51.161900
1318.000000	51.230500
1317.000000	51.291500
1316.000000	51.353100
1315.000000	51.430700
1314.000000	51.492500
1313.000000	51.529500
1312.000000	51.577700
1311.000000	51.634900
1310.000000	51.681700
1309.000000	51.721400
1308.000000	51.760400
1307.000000	51.792000
1306.000000	51.822300
1305.000000	51.841100
1304.000000	51.854900
1303.000000	51.873600
1302.000000	51.880700
1301.000000	51.887900
1300.000000	51.880100
1299.000000	51.874000
1298.000000	51.879100
1297.000000	51.875300
1296.000000	51.867600
1295.000000	51.858600
1294.000000	51.849300
1293.000000	51.841600
1292.000000	51.821100
1291.000000	51.780200
1290.000000	51.753700
1289.000000	51.736800
1288.000000	51.692800
1287.000000	51.635600
1286.000000	51.588400
1285.000000	51.552800
1284.000000	51.487400
1283.000000	51.424700
1282.000000	51.385900
1281.000000	51.338500
1280.000000	51.279700
1279.000000	51.235500
1278.000000	51.189000
1277.000000	51.121000
1276.000000	51.070100
1275.000000	51.051300
1274.000000	51.020500
1273.000000	50.992100
1272.000000	50.958700
1271.000000	50.917800
1270.000000	50.891600
1269.000000	50.866100
1268.000000	50.830600
1267.000000	50.801100
1266.000000	50.766700
1265.000000	50.720400
1264.000000	50.681600
1263.000000	50.646900
1262.000000	50.606700
1261.000000	50.569600
1260.000000	50.533500
1259.000000	50.475500
1258.000000	50.412600
1257.000000	50.374200
1256.000000	50.329300
1255.000000	50.261900
1254.000000	50.206700
1253.000000	50.155300
1252.000000	50.080200
1251.000000	50.009900
1250.000000	49.928800
1249.000000	49.836900
1248.000000	49.765500
1247.000000	49.667900
1246.000000	49.559100
1245.000000	49.458400
1244.000000	49.362500
1243.000000	49.252000
1242.000000	49.146200
1241.000000	49.039100
1240.000000	48.921900
1239.000000	48.787000
1238.000000	48.667600
1237.000000	48.560300
1236.000000	48.425000
1235.000000	48.297900
1234.000000	48.188100
1233.000000	48.047200
1232.000000	47.915600
1231.000000	47.775800
1230.000000	47.626100
1229.000000	47.471400
1228.000000	47.319100
1227.000000	47.164200
1226.000000	47.018100
1225.000000	46.873100
1224.000000	46.727800
1223.000000	46.581800
1222.000000	46.425800
1221.000000	46.283600
1220.000000	46.137600
1219.000000	45.991200
1218.000000	45.873900
1217.000000	45.756400
1216.000000	45.624200
1215.000000	45.521800
1214.000000	45.412500
1213.000000	45.304200
1212.000000	45.208300
1211.000000	45.106300
1210.000000	45.034000
1209.000000	44.931100
1208.000000	44.874500
1207.000000	44.804500
1206.000000	44.743100
1205.000000	44.711300
1204.000000	44.667500
1203.000000	44.657500
1202.000000	44.631200
1201.000000	44.608900
1200.000000	44.561900
1199.000000	44.489300
1198.000000	44.397100
1197.000000	44.287600
1196.000000	44.113100
1195.000000	43.919900
1194.000000	43.665200
1193.000000	43.347400
1192.000000	42.986900
1191.000000	42.605000
1190.000000	42.235200
1189.000000	41.902300
1188.000000	41.632000
1187.000000	41.491800
1186.000000	41.448900
1185.000000	41.509400
1184.000000	41.698700
1183.000000	41.982200
1182.000000	42.371900
1181.000000	42.789000
1180.000000	43.219600
1179.000000	43.654100
1178.000000	44.023600
1177.000000	44.351600
1176.000000	44.640900
1175.000000	44.906600
1174.000000	45.161400
1173.000000	45.443600
1172.000000	45.732200
1171.000000	46.021700
1170.000000	46.333600
1169.000000	46.641500
1168.000000	46.946000
1167.000000	47.256700
1166.000000	47.582600
1165.000000	47.895700
1164.000000	48.195600
1163.000000	48.542000
1162.000000	48.864300
1161.000000	49.167800
1160.000000	49.468500
1159.000000	49.733200
1158.000000	50.044500
1157.000000	50.279600
1156.000000	50.491200
1155.000000	50.651400
1154.000000	50.783100
1153.000000	50.871900
1152.000000	50.904200
1151.000000	50.925600
1150.000000	50.900000
1149.000000	50.907400
1148.000000	50.907800
1147.000000	50.946000
1146.000000	51.013100
1145.000000	51.159300
1144.000000	51.341300
1143.000000	51.561300
1142.000000	51.821000
1141.000000	52.089200
1140.000000	52.348200
1139.000000	52.621900
1138.000000	52.907600
1137.000000	53.186700
1136.000000	53.531800
1135.000000	53.824200
1134.000000	54.069300
1133.000000	54.256900
1132.000000	54.490500
1131.000000	54.692300
1130.000000	54.897400
1129.000000	55.050500
1128.000000	55.166600
1127.000000	55.274300
1126.000000	55.340700
1125.000000	55.422100
1124.000000	55.472600
1123.000000	55.510700
1122.000000	55.552600
1121.000000	55.587800
1120.000000	55.597900
1119.000000	55.611700
1118.000000	55.623500
1117.000000	55.631100
1116.000000	55.601800
1115.000000	55.589300
1114.000000	55.562900
1113.000000	55.551700
1112.000000	55.536400
1111.000000	55.525200
1110.000000	55.509100
1109.000000	55.476600
1108.000000	55.483100
1107.000000	55.469900
1106.000000	55.461900
1105.000000	55.428900
1104.000000	55.403700
1103.000000	55.394400
1102.000000	55.365400
1101.000000	55.352500
1100.000000	55.327900
1099.000000	55.302300
1098.000000	55.278600
1097.000000	55.254600
1096.000000	55.224100
1095.000000	55.199300
1094.000000	55.157800
1093.000000	55.137400
1092.000000	55.118500
1091.000000	55.071300
1090.000000	55.034400
1089.000000	54.998500
1088.000000	54.966700
1087.000000	54.936700
1086.000000	54.888500
1085.000000	54.847600
1084.000000	54.813900
1083.000000	54.788800
1082.000000	54.758000
1081.000000	54.702900
1080.000000	54.663500
1079.000000	54.648900
1078.000000	54.630300
1077.000000	54.573900
1076.000000	54.544300
1075.000000	54.520700
1074.000000	54.502500
1073.000000	54.477100
1072.000000	54.441000
1071.000000	54.411100
1070.000000	54.374600
1069.000000	54.342800
1068.000000	54.308500
1067.000000	54.268700
1066.000000	54.233800
1065.000000	54.205400
1064.000000	54.169700
1063.000000	54.140000
1062.000000	54.110600
1061.000000	54.056900
1060.000000	54.022000
1059.000000	53.997700
1058.000000	53.947600
1057.000000	53.900600
1056.000000	53.856400
1055.000000	53.826500
1054.000000	53.782600
1053.000000	53.733700
1052.000000	53.680000
1051.000000	53.637600
1050.000000	53.608500
1049.000000	53.563000
1048.000000	53.525900
1047.000000	53.500600
1046.000000	53.467300
1045.000000	53.421000
1044.000000	53.381200
1043.000000	53.349000
1042.000000	53.318700
1041.000000	53.272600
1040.000000	53.229300
1039.000000	53.201000
1038.000000	53.162700
1037.000000	53.110800
1036.000000	53.059300
1035.000000	53.001200
1034.000000	52.945600
1033.000000	52.892900
1032.000000	52.840400
1031.000000	52.781800
1030.000000	52.712600
1029.000000	52.650700
1028.000000	52.589800
1027.000000	52.533100
1026.000000	52.471600
1025.000000	52.390900
1024.000000	52.323000
1023.000000	52.254900
1022.000000	52.176600
1021.000000	52.108500
1020.000000	52.032900
1019.000000	51.958500
1018.000000	51.900600
1017.000000	51.842200
1016.000000	51.794600
1015.000000	51.750600
1014.000000	51.709600
1013.000000	51.670700
1012.000000	51.629800
1011.000000	51.599300
1010.000000	51.575300
1009.000000	51.559100
1008.000000	51.552000
1007.000000	51.546800
1006.000000	51.537500
1005.000000	51.516000
1004.000000	51.511700
1003.000000	51.498400
1002.000000	51.497700
1001.000000	51.494600
1000.000000	51.480700
999.000000	51.468300
998.000000	51.466100
997.000000	51.456500
996.000000	51.451600
995.000000	51.439600
994.000000	51.445900
993.000000	51.453800
992.000000	51.456100
991.000000	51.455000
990.000000	51.449600
989.000000	51.455100
988.000000	51.477800
987.000000	51.484500
986.000000	51.479900
985.000000	51.476300
984.000000	51.493500
983.000000	51.513400
982.000000	51.515600
981.000000	51.526200
980.000000	51.536000
979.000000	51.548700
978.000000	51.554200
977.000000	51.562700
976.000000	51.569900
975.000000	51.572500
974.000000	51.560200
973.000000	51.575600
972.000000	51.585100
971.000000	51.589800
970.000000	51.582200
969.000000	51.585600
968.000000	51.596400
967.000000	51.588800
966.000000	51.568900
965.000000	51.567600
964.000000	51.570200
963.000000	51.590800
962.000000	51.600700
961.000000	51.602300
960.000000	51.624300
959.000000	51.635100
958.000000	51.646400
957.000000	51.645700
956.000000	51.647800
955.000000	51.655700
954.000000	51.652000
953.000000	51.660200
952.000000	51.651300
951.000000	51.636200
950.000000	51.622100
949.000000	51.603200
948.000000	51.614300
947.000000	51.609500
946.000000	51.604600
945.000000	51.588500
944.000000	51.612800
943.000000	51.603700
942.000000	51.610500
941.000000	51.648900
940.000000	51.658100
939.000000	51.681400
938.000000	51.722100
937.000000	51.757300
936.000000	51.786100
935.000000	51.817600
934.000000	51.862200
933.000000	51.926000
932.000000	51.944900
931.000000	51.989000
930.000000	52.025600
929.000000	52.069900
928.000000	52.128800
927.000000	52.174400
926.000000	52.222500
925.000000	52.274900
924.000000	52.343600
923.000000	52.396000
922.000000	52.452500
921.000000	52.490600
920.000000	52.541300
919.000000	52.592400
918.000000	52.660400
917.000000	52.722600
916.000000	52.780800
915.000000	52.852700
914.000000	52.922500
913.000000	52.971100
912.000000	53.050700
911.000000	53.110700
910.000000	53.198400
909.000000	53.301100
908.000000	53.377000
907.000000	53.489800
906.000000	53.596100
905.000000	53.741500
904.000000	53.862800
903.000000	54.005100
902.000000	54.126600
901.000000	54.253500
900.000000	54.403500
899.000000	54.554500
898.000000	54.689400
897.000000	54.842400
896.000000	54.958600
895.000000	55.120900
894.000000	55.276100
893.000000	55.417100
892.000000	55.537200
891.000000	55.681800
890.000000	55.797900
889.000000	55.912000
888.000000	56.036400
887.000000	56.136900
886.000000	56.240600
885.000000	56.355200
884.000000	56.414700
883.000000	56.507500
882.000000	56.601600
881.000000	56.636600
880.000000	56.733200
879.000000	56.782800
878.000000	56.868500
877.000000	56.941900
876.000000	56.996600
875.000000	57.005800
874.000000	57.040500
873.000000	57.083100
872.000000	57.119500
871.000000	57.140900
870.000000	57.164700
869.000000	57.158200
868.000000	57.172100
867.000000	57.160400
866.000000	57.163400
865.000000	57.106100
864.000000	57.070800
863.000000	56.999700
862.000000	56.914100
861.000000	56.791600
860.000000	56.636300
859.000000	56.512400
858.000000	54.391561
857.000000	55.480760
856.000000	55.500637
855.000000	55.889533
854.000000	55.753947
853.000000	55.873785
852.000000	56.010715
851.000000	56.155039
850.000000	56.003609
849.000000	55.947820
848.000000	56.154943
847.000000	56.258937
846.000000	56.377622
845.000000	55.974034
844.000000	55.931784
843.000000	55.956462
842.000000	55.953485
841.000000	56.020222
840.000000	56.097041
839.000000	56.024159
838.000000	56.071018
837.000000	56.045092
836.000000	55.979700
835.000000	56.146589
834.000000	56.073995
833.000000	55.929383
832.000000	55.751163
831.000000	55.578800
830.000000	55.535781
829.000000	55.717170
828.000000	55.531460
827.000000	55.416520
826.000000	55.468661
825.000000	55.356025
824.000000	55.209108
823.000000	55.113564
822.000000	55.072274
821.000000	55.072466
820.000000	54.872064
819.000000	54.766726
818.000000	54.639783
817.000000	54.563348
816.000000	54.447639
815.000000	54.382247
814.000000	54.343837
813.000000	54.260584
812.000000	54.196537
811.000000	54.069305
810.000000	53.928246
809.000000	53.831166
808.000000	53.750122
807.000000	53.697309
806.000000	53.562011
805.000000	53.333858
804.000000	53.260976
803.000000	53.178300
802.000000	52.996718
801.000000	52.888788
800.000000	52.714312
799.000000	52.567780
798.000000	52.513622
797.000000	52.333098
796.000000	52.179844
795.000000	52.026397
794.000000	51.898686
793.000000	51.855763
792.000000	51.674566
791.000000	51.448814
790.000000	51.287782
789.000000	51.201745
788.000000	51.129439
787.000000	50.970519
786.000000	50.777703
785.000000	50.641253
784.000000	50.547438
783.000000	50.350685
782.000000	50.189941
781.000000	50.039856
780.000000	49.880456
779.000000	49.716832
778.000000	49.591617
777.000000	49.469666
776.000000	49.414549
775.000000	49.309883
774.000000	49.195230
773.000000	49.200607
772.000000	49.170648
771.000000	49.098054
770.000000	48.951137
769.000000	48.798459
768.000000	48.795963
767.000000	48.802781
766.000000	48.715111
765.000000	48.638484
764.000000	48.636659
763.000000	48.539195
762.000000	48.444035
761.000000	48.417629
760.000000	48.354349
759.000000	48.292894
758.000000	48.271577
757.000000	48.254100
756.000000	48.179682
755.000000	48.100654
754.000000	48.087403
753.000000	48.086058
752.000000	48.039583
751.000000	47.977455
750.000000	47.917729
749.000000	47.850800
748.000000	47.790401
747.000000	47.751607
746.000000	47.726449
745.000000	47.648286
744.000000	47.551206
743.000000	47.492535
742.000000	47.439338
741.000000	47.371257
740.000000	47.302120
739.000000	47.280802
738.000000	47.273313
737.000000	47.206288
736.000000	47.155203
735.000000	47.106711
734.000000	47.057451
733.000000	47.020482
732.000000	46.943279
731.000000	46.894210
730.000000	46.858874
729.000000	46.829202
728.000000	46.765250
727.000000	46.669419
726.000000	46.628512
725.000000	46.566865
724.000000	46.506082
723.000000	46.483516
722.000000	46.411979
721.000000	46.324981
720.000000	46.275241
719.000000	46.171631
718.000000	46.048432
717.000000	45.916880
716.000000	45.803091
715.000000	45.710332
714.000000	45.587998
713.000000	45.416595
712.000000	45.315002
711.000000	45.192764
710.000000	45.044983
709.000000	44.935132
708.000000	44.828449
707.000000	44.723015
706.000000	44.609131
705.000000	44.463462
704.000000	44.347370
703.000000	44.261716
702.000000	44.135445
701.000000	44.040189
700.000000	43.936868
699.000000	43.860241
698.000000	43.731953
697.000000	43.636313
696.000000	43.503416
695.000000	43.404799
694.000000	43.342096
693.000000	43.293604
692.000000	43.234837
691.000000	43.175687
690.000000	43.098291
689.000000	43.073997
688.000000	42.989400
687.000000	42.888671
686.000000	42.859384
685.000000	42.826256
684.000000	42.783333
683.000000	42.697584
682.000000	42.634208
681.000000	42.581299
680.000000	42.499102
679.000000	42.395301
678.000000	42.308975
677.000000	42.209398
676.000000	42.098683
675.000000	41.989216
674.000000	41.857375
673.000000	41.710266
672.000000	41.539632
671.000000	41.432565
670.000000	41.268173
669.000000	41.065082
668.000000	40.936026
667.000000	40.719396
666.000000	40.578049
665.000000	40.401845
664.000000	40.212294
663.000000	40.020055
662.000000	39.802368
661.000000	39.652283
660.000000	39.419041
659.000000	39.190024
658.000000	38.930280
657.000000	38.698094
656.000000	38.441038
655.000000	38.174860
654.000000	37.891590
653.000000	37.608031
652.000000	37.302291
651.000000	37.002793
650.000000	36.712705
649.000000	36.434908
648.000000	36.205699
647.000000	35.920220
646.000000	35.722795
645.000000	35.478414
644.000000	35.281565
643.000000	35.099696
642.000000	34.969776
641.000000	34.805287
640.000000	34.671910
639.000000	34.609110
638.000000	34.570125
637.000000	34.546119
636.000000	34.535556
635.000000	34.580687
634.000000	34.610647
633.000000	34.702830
632.000000	34.791171
631.000000	34.920612
630.000000	35.133593
629.000000	35.320935
628.000000	35.544191
627.000000	35.801823
626.000000	36.136850
625.000000	36.455361
624.000000	36.840033
623.000000	37.210877
622.000000	37.637991
621.000000	38.114269
620.000000	38.594772
619.000000	39.104659
618.000000	39.638648
617.000000	40.158713
616.000000	40.667063
615.000000	41.169844
614.000000	41.688469
613.000000	42.142950
612.000000	42.587444
611.000000	43.006204
610.000000	43.403551
609.000000	43.795136
608.000000	44.156954
607.000000	44.503985
606.000000	44.891249
605.000000	45.186042
604.000000	45.526158
603.000000	45.858017
602.000000	46.179793
601.000000	46.556590
600.000000	46.872893
599.000000	47.248826
598.000000	47.572427
597.000000	47.913120
596.000000	48.189572
595.000000	48.514805
594.000000	48.828323
593.000000	49.125613
592.000000	49.348484
591.000000	49.622440
590.000000	49.834845
589.000000	50.024684
588.000000	50.197815
587.000000	50.350013
586.000000	50.494625
585.000000	50.611006
584.000000	50.677166
583.000000	50.768581
582.000000	50.833781
581.000000	50.890147
580.000000	50.934222
579.000000	50.994525
578.000000	51.083731
577.000000	51.057421
576.000000	51.105529
575.000000	51.108601
574.000000	51.159878
573.000000	51.172745
572.000000	51.205201
571.000000	51.260511
570.000000	51.297576
569.000000	51.316877
568.000000	51.322927
567.000000	51.353270
566.000000	51.332529
565.000000	51.331473
564.000000	51.278372
563.000000	51.210099
562.000000	51.120028
561.000000	51.048106
560.000000	50.950642
559.000000	50.810831
558.000000	50.671789
557.000000	50.520743
556.000000	50.362784
555.000000	50.198295
554.000000	50.036303
553.000000	49.838014
552.000000	49.632907
551.000000	49.394191
550.000000	49.187164
549.000000	48.935678
548.000000	48.658361
547.000000	48.357326
546.000000	47.998005
545.000000	47.623320
544.000000	47.187275
543.000000	46.710709
542.000000	46.214842
541.000000	45.683446
540.000000	45.098276
539.000000	44.499375
538.000000	43.868307
537.000000	43.200941
536.000000	42.530502
535.000000	41.837498
534.000000	41.106372
533.000000	40.344999
532.000000	39.578441
531.000000	38.816011
530.000000	38.064145
529.000000	37.307381
528.000000	36.559643
527.000000	35.835815
526.000000	35.125911
525.000000	34.433291
524.000000	33.758915
523.000000	33.112098
522.000000	32.486311
521.000000	31.903254
520.000000	31.321253
519.000000	30.742710
518.000000	30.176265
517.000000	29.630849
516.000000	29.089755
515.000000	28.558647
514.000000	28.031956
513.000000	27.516788
512.000000	27.024090
511.000000	26.546179
510.000000	26.091986
509.000000	25.624446
508.000000	25.205398
507.000000	24.782029
506.000000	24.389675
505.000000	24.011725
504.000000	23.647603
503.000000	23.328132
502.000000	23.034587
501.000000	22.751892
500.000000	22.494356
499.000000	22.256505
498.000000	22.030849
497.000000	21.816524
496.000000	21.598742
495.000000	21.399492
494.000000	21.213494
493.000000	21.020102
492.000000	20.830647
491.000000	20.597405
490.000000	20.362339
489.000000	20.136875
488.000000	19.878379
487.000000	19.614697
486.000000	19.358121
485.000000	19.078020
484.000000	18.781018
483.000000	18.468364
482.000000	18.146492
481.000000	17.813001
480.000000	17.477206
479.000000	17.148132
478.000000	16.826260
477.000000	16.512262
476.000000	16.199513
475.000000	15.906928
474.000000	15.642190
473.000000	15.395121
472.000000	15.160919
471.000000	14.958980
470.000000	14.784985
469.000000	14.622801
468.000000	14.498642
467.000000	14.402330
466.000000	14.317925
465.000000	14.258870
464.000000	14.227279
463.000000	14.215468
462.000000	14.229295
461.000000	14.266840
460.000000	14.310627
459.000000	14.353454
458.000000	14.427392
457.000000	14.518999
456.000000	14.598411
455.000000	14.664955
454.000000	14.734477
453.000000	14.809471
452.000000	14.863341
451.000000	14.893876
450.000000	14.928541
449.000000	14.951683
448.000000	14.965702
447.000000	14.959076
446.000000	14.939103
445.000000	14.891956
444.000000	14.836934
443.000000	14.778936
442.000000	14.690498
441.000000	14.602732
440.000000	14.515542
439.000000	14.403098
438.000000	14.290270
437.000000	14.165631
436.000000	14.032926
435.000000	13.891483
434.000000	13.756378
433.000000	13.614646
432.000000	13.452078
431.000000	13.295367
430.000000	13.122236
429.000000	12.950545
428.000000	12.787593
427.000000	12.608220
426.000000	12.427503
425.000000	12.232287
424.000000	12.033230
423.000000	11.835324
422.000000	11.631082
421.000000	11.418773
420.000000	11.194365
419.000000	10.989066
418.000000	10.770708
417.000000	10.536314
416.000000	10.310177
415.000000	10.087402
414.000000	9.861362
413.000000	9.624375
412.000000	9.377690
411.000000	9.150785
410.000000	8.943278
409.000000	8.710516
408.000000	8.484284
407.000000	8.272167
406.000000	8.050352
405.000000	7.860609
404.000000	7.682965
403.000000	7.498503
402.000000	7.323740
401.000000	7.164532
400.000000	7.006477
399.000000	6.852550
398.000000	6.717541
397.000000	6.597607
396.000000	6.490156
395.000000	6.378193
394.000000	6.259123
393.000000	6.165212
392.000000	6.070724
391.000000	6.000627
390.000000	5.934274
389.000000	5.868786
388.000000	5.811556
387.000000	5.765944
386.000000	5.716108
385.000000	5.669152
384.000000	5.617972
383.000000	5.575721
382.000000	5.540192
381.000000	5.503991
380.000000	5.476529
379.000000	5.442824
378.000000	5.415842
377.000000	5.400766
376.000000	5.387418
375.000000	5.392316
374.000000	5.376280
373.000000	5.351890
372.000000	5.399902
371.000000	5.353330
370.000000	5.347280
369.000000	5.328460
368.000000	5.352370
367.000000	5.323178
366.000000	5.268157
365.000000	5.258843
364.000000	5.242614
363.000000	5.272478
362.000000	5.295428
361.000000	5.237333
360.000000	5.225426
359.000000	5.236181
358.000000	5.199212
357.000000	5.182311
356.000000	5.199788
355.000000	5.207086
354.000000	5.232436
353.000000	5.221969
352.000000	5.180391
351.000000	5.121912
350.000000	5.170020
349.000000	5.172325
348.000000	5.199980
347.000000	5.171557
346.000000	5.151584
345.000000	5.139869
344.000000	5.133435
343.000000	5.126330
342.000000	5.144382
341.000000	5.210735
340.000000	5.203245
339.000000	5.136988
338.000000	5.138621
337.000000	5.218609
336.000000	5.097907
335.000000	5.157633
334.000000	5.100403
333.000000	5.146783
332.000000	5.186921
331.000000	5.115863
330.000000	5.127482
329.000000	5.099251
328.000000	5.136220
327.000000	5.172517
326.000000	5.136892
325.000000	5.122873
324.000000	5.101555
323.000000	5.150336
322.000000	5.091953
321.000000	5.114999
320.000000	5.188073
319.000000	5.132475
318.000000	5.299461
317.000000	5.164259
316.000000	5.136892
315.000000	5.126906
314.000000	5.119320
313.000000	5.138621
312.000000	5.133051
311.000000	5.139677
310.000000	5.144670
309.000000	5.189705
308.000000	5.178375
307.000000	5.134396
306.000000	5.148895
305.000000	5.162339
304.000000	5.167620
303.000000	5.186633
302.000000	5.180007
301.000000	5.177990
300.000000	5.195947
299.000000	5.204877
298.000000	5.182888
297.000000	5.212751
296.000000	5.184040
295.000000	5.226098
294.000000	5.251161
293.000000	5.222834
292.000000	5.244919
291.000000	5.221585
290.000000	5.231764
289.000000	5.234356
288.000000	5.292739
287.000000	5.229843
286.000000	5.252793
285.000000	5.286401
284.000000	5.268829
283.000000	5.268829
282.000000	5.282560
281.000000	5.250680
280.000000	5.316169
279.000000	5.274590
278.000000	5.341999
277.000000	5.304838
276.000000	5.304838
275.000000	5.381561
274.000000	5.362644
273.000000	5.331917
272.000000	5.381753
271.000000	5.384730
270.000000	5.385690
269.000000	5.416418
268.000000	5.451946
267.000000	5.480850
266.000000	5.483634
265.000000	5.474512
264.000000	5.515610
263.000000	5.544898
262.000000	5.602800
261.000000	5.610962
260.000000	5.597039
259.000000	5.631799
258.000000	5.659550
257.000000	5.649756
256.000000	5.667808
255.000000	5.677891
254.000000	5.696327
253.000000	5.743283
252.000000	5.741842
251.000000	5.762200
250.000000	5.776219
