PE UV       SUBTECH     SPECTRUM    ASCII       PEDS        4.00        
   -1
CICIMAUCR0014-1.Sample.ASC
24/04/04
10:38:24.00
24/04/04
10:38:24.00
Vinicio Soto Monge
C. cupreomarginata
250,000000
1
Lambda 1050
1050L1511233
PerkinElmer UV WinLab 6.3.2.0749 / 2.02.05 Lambda 900 UV/VIS/NIR, Aug  7 2015 09:38:08

0
0
3350/servo 860,8/2
0
0
UV/VIS
1
1
1
DoubleDePol,CommonBeamDepol,RBeamAtt,SBeamAtt,60mm sphere, WB InGaAs Detector
0
0
0
0
Program
Program
3350/servo 860,8/2
3350/0,2 860,8/0,2
3350/0,2 860,8/0,2
0
15.00
 
 
 
0
 
860,8
319,2
860,8
Front
100
on
S:100 R:100
0
0
0
0
 
0
 
 
 
0
 
 
0
0
0
0
0
 
 
 
 
0
0


0
0
#HDR
-1
-1
#GR
nm
%R
1.0
0.0
2500,000000
-1,000000
2251
8
68,620100
4,694900
#DATA
2500.000000	12.808200
2499.000000	12.689300
2498.000000	12.842400
2497.000000	12.805800
2496.000000	12.802100
2495.000000	12.897300
2494.000000	12.893000
2493.000000	12.867700
2492.000000	12.831600
2491.000000	12.867000
2490.000000	12.952300
2489.000000	12.868500
2488.000000	12.865100
2487.000000	12.938700
2486.000000	12.931500
2485.000000	12.933000
2484.000000	12.892200
2483.000000	12.969400
2482.000000	12.959800
2481.000000	12.991800
2480.000000	13.035600
2479.000000	13.047400
2478.000000	13.095900
2477.000000	13.130700
2476.000000	13.209500
2475.000000	13.206000
2474.000000	13.243000
2473.000000	13.282200
2472.000000	13.314000
2471.000000	13.351300
2470.000000	13.398500
2469.000000	13.470800
2468.000000	13.494000
2467.000000	13.546400
2466.000000	13.622900
2465.000000	13.635600
2464.000000	13.737500
2463.000000	13.833900
2462.000000	13.889900
2461.000000	13.962900
2460.000000	14.049300
2459.000000	14.139800
2458.000000	14.226400
2457.000000	14.334400
2456.000000	14.441200
2455.000000	14.566400
2454.000000	14.644300
2453.000000	14.737600
2452.000000	14.881000
2451.000000	14.991000
2450.000000	15.122400
2449.000000	15.227400
2448.000000	15.349900
2447.000000	15.490600
2446.000000	15.606500
2445.000000	15.738900
2444.000000	15.859100
2443.000000	15.986900
2442.000000	16.102200
2441.000000	16.241400
2440.000000	16.368200
2439.000000	16.499500
2438.000000	16.622300
2437.000000	16.747500
2436.000000	16.856100
2435.000000	16.969500
2434.000000	17.082200
2433.000000	17.218400
2432.000000	17.315100
2431.000000	17.420900
2430.000000	17.530900
2429.000000	17.635200
2428.000000	17.739000
2427.000000	17.824300
2426.000000	17.910900
2425.000000	18.024700
2424.000000	18.147200
2423.000000	18.243000
2422.000000	18.336500
2421.000000	18.422300
2420.000000	18.482900
2419.000000	18.540800
2418.000000	18.636600
2417.000000	18.710100
2416.000000	18.788200
2415.000000	18.855000
2414.000000	18.911500
2413.000000	18.981500
2412.000000	19.047400
2411.000000	19.107800
2410.000000	19.156100
2409.000000	19.215100
2408.000000	19.265500
2407.000000	19.318100
2406.000000	19.373000
2405.000000	19.405400
2404.000000	19.447500
2403.000000	19.491100
2402.000000	19.534000
2401.000000	19.557500
2400.000000	19.601400
2399.000000	19.657400
2398.000000	19.678500
2397.000000	19.717700
2396.000000	19.757000
2395.000000	19.794600
2394.000000	19.822900
2393.000000	19.831900
2392.000000	19.851100
2391.000000	19.873900
2390.000000	19.877400
2389.000000	19.891600
2388.000000	19.899600
2387.000000	19.908800
2386.000000	19.912300
2385.000000	19.892100
2384.000000	19.885200
2383.000000	19.880500
2382.000000	19.869400
2381.000000	19.861200
2380.000000	19.838600
2379.000000	19.815900
2378.000000	19.795300
2377.000000	19.766500
2376.000000	19.723800
2375.000000	19.686700
2374.000000	19.654900
2373.000000	19.631200
2372.000000	19.594400
2371.000000	19.560400
2370.000000	19.523100
2369.000000	19.460100
2368.000000	19.411100
2367.000000	19.361600
2366.000000	19.323300
2365.000000	19.279100
2364.000000	19.226400
2363.000000	19.183600
2362.000000	19.123500
2361.000000	19.057300
2360.000000	19.004200
2359.000000	18.957600
2358.000000	18.912600
2357.000000	18.868000
2356.000000	18.830600
2355.000000	18.784600
2354.000000	18.753800
2353.000000	18.731700
2352.000000	18.696800
2351.000000	18.687400
2350.000000	18.681500
2349.000000	18.672800
2348.000000	18.666300
2347.000000	18.674500
2346.000000	18.690200
2345.000000	18.698100
2344.000000	18.698100
2343.000000	18.703400
2342.000000	18.709700
2341.000000	18.694500
2340.000000	18.691200
2339.000000	18.682800
2338.000000	18.671100
2337.000000	18.659700
2336.000000	18.635700
2335.000000	18.594100
2334.000000	18.563100
2333.000000	18.525700
2332.000000	18.485200
2331.000000	18.436800
2330.000000	18.406700
2329.000000	18.368500
2328.000000	18.304100
2327.000000	18.241000
2326.000000	18.183900
2325.000000	18.112700
2324.000000	18.041500
2323.000000	17.973300
2322.000000	17.884100
2321.000000	17.800700
2320.000000	17.684100
2319.000000	17.576800
2318.000000	17.478700
2317.000000	17.377100
2316.000000	17.252400
2315.000000	17.130900
2314.000000	17.011000
2313.000000	16.906200
2312.000000	16.796700
2311.000000	16.697200
2310.000000	16.586400
2309.000000	16.486900
2308.000000	16.415900
2307.000000	16.375100
2306.000000	16.325400
2305.000000	16.295500
2304.000000	16.276000
2303.000000	16.258200
2302.000000	16.262400
2301.000000	16.268800
2300.000000	16.296400
2299.000000	16.328200
2298.000000	16.341600
2297.000000	16.357300
2296.000000	16.393400
2295.000000	16.397200
2294.000000	16.408500
2293.000000	16.391900
2292.000000	16.394600
2291.000000	16.391100
2290.000000	16.371500
2289.000000	16.330600
2288.000000	16.294200
2287.000000	16.254500
2286.000000	16.210500
2285.000000	16.147700
2284.000000	16.105900
2283.000000	16.035700
2282.000000	15.980500
2281.000000	15.905300
2280.000000	15.822900
2279.000000	15.747600
2278.000000	15.679000
2277.000000	15.612200
2276.000000	15.540900
2275.000000	15.472100
2274.000000	15.416600
2273.000000	15.351000
2272.000000	15.307100
2271.000000	15.291100
2270.000000	15.267500
2269.000000	15.252500
2268.000000	15.259300
2267.000000	15.276100
2266.000000	15.286100
2265.000000	15.349900
2264.000000	15.432700
2263.000000	15.514000
2262.000000	15.587000
2261.000000	15.717300
2260.000000	15.843000
2259.000000	15.976200
2258.000000	16.110800
2257.000000	16.248000
2256.000000	16.384600
2255.000000	16.550400
2254.000000	16.693600
2253.000000	16.824200
2252.000000	17.001400
2251.000000	17.134600
2250.000000	17.247700
2249.000000	17.375800
2248.000000	17.491500
2247.000000	17.584500
2246.000000	17.674000
2245.000000	17.789800
2244.000000	17.879400
2243.000000	17.965000
2242.000000	18.004900
2241.000000	18.081700
2240.000000	18.120000
2239.000000	18.169100
2238.000000	18.190900
2237.000000	18.214200
2236.000000	18.232700
2235.000000	18.244300
2234.000000	18.217900
2233.000000	18.181800
2232.000000	18.162600
2231.000000	18.105700
2230.000000	18.031300
2229.000000	17.949800
2228.000000	17.879600
2227.000000	17.784100
2226.000000	17.666900
2225.000000	17.575600
2224.000000	17.439600
2223.000000	17.299100
2222.000000	17.166900
2221.000000	17.027900
2220.000000	16.875300
2219.000000	16.741400
2218.000000	16.613700
2217.000000	16.477500
2216.000000	16.372700
2215.000000	16.250700
2214.000000	16.156400
2213.000000	16.090200
2212.000000	16.047700
2211.000000	16.017600
2210.000000	16.014400
2209.000000	16.040800
2208.000000	16.100800
2207.000000	16.185500
2206.000000	16.311300
2205.000000	16.464600
2204.000000	16.621000
2203.000000	16.815300
2202.000000	17.032200
2201.000000	17.264200
2200.000000	17.508500
2199.000000	17.772400
2198.000000	18.010300
2197.000000	18.257700
2196.000000	18.535000
2195.000000	18.773300
2194.000000	19.001600
2193.000000	19.240700
2192.000000	19.416400
2191.000000	19.605000
2190.000000	19.783000
2189.000000	19.943400
2188.000000	20.082800
2187.000000	20.219800
2186.000000	20.326300
2185.000000	20.440800
2184.000000	20.527000
2183.000000	20.598500
2182.000000	20.690300
2181.000000	20.753400
2180.000000	20.831100
2179.000000	20.874900
2178.000000	20.920400
2177.000000	20.965400
2176.000000	21.015800
2175.000000	21.061800
2174.000000	21.134300
2173.000000	21.187800
2172.000000	21.235800
2171.000000	21.299800
2170.000000	21.343400
2169.000000	21.428800
2168.000000	21.492700
2167.000000	21.550600
2166.000000	21.612700
2165.000000	21.682100
2164.000000	21.746800
2163.000000	21.834800
2162.000000	21.917700
2161.000000	21.988600
2160.000000	22.081700
2159.000000	22.174400
2158.000000	22.264400
2157.000000	22.375800
2156.000000	22.493600
2155.000000	22.606800
2154.000000	22.716400
2153.000000	22.839000
2152.000000	22.971600
2151.000000	23.088200
2150.000000	23.193100
2149.000000	23.315200
2148.000000	23.429900
2147.000000	23.556600
2146.000000	23.687600
2145.000000	23.829500
2144.000000	23.945600
2143.000000	24.056400
2142.000000	24.165100
2141.000000	24.289100
2140.000000	24.397900
2139.000000	24.510700
2138.000000	24.614700
2137.000000	24.693600
2136.000000	24.789500
2135.000000	24.889700
2134.000000	24.969700
2133.000000	25.042600
2132.000000	25.115500
2131.000000	25.192500
2130.000000	25.265500
2129.000000	25.330100
2128.000000	25.378400
2127.000000	25.432900
2126.000000	25.493600
2125.000000	25.524000
2124.000000	25.548700
2123.000000	25.594100
2122.000000	25.630400
2121.000000	25.644400
2120.000000	25.656000
2119.000000	25.674500
2118.000000	25.704500
2117.000000	25.712900
2116.000000	25.724500
2115.000000	25.718300
2114.000000	25.729600
2113.000000	25.736300
2112.000000	25.712700
2111.000000	25.708000
2110.000000	25.721700
2109.000000	25.720900
2108.000000	25.704800
2107.000000	25.681400
2106.000000	25.667400
2105.000000	25.661400
2104.000000	25.654300
2103.000000	25.639200
2102.000000	25.623300
2101.000000	25.608100
2100.000000	25.594100
2099.000000	25.585400
2098.000000	25.590000
2097.000000	25.589200
2096.000000	25.570200
2095.000000	25.563300
2094.000000	25.566800
2093.000000	25.571300
2092.000000	25.576700
2091.000000	25.571500
2090.000000	25.557600
2089.000000	25.564600
2088.000000	25.562500
2087.000000	25.543300
2086.000000	25.531600
2085.000000	25.518400
2084.000000	25.484200
2083.000000	25.454200
2082.000000	25.425600
2081.000000	25.392300
2080.000000	25.349400
2079.000000	25.299900
2078.000000	25.244900
2077.000000	25.181800
2076.000000	25.117500
2075.000000	25.036700
2074.000000	24.963000
2073.000000	24.892700
2072.000000	24.803200
2071.000000	24.718300
2070.000000	24.641600
2069.000000	24.552400
2068.000000	24.452600
2067.000000	24.359800
2066.000000	24.263100
2065.000000	24.181400
2064.000000	24.107800
2063.000000	24.022900
2062.000000	23.940000
2061.000000	23.874700
2060.000000	23.829900
2059.000000	23.781700
2058.000000	23.758300
2057.000000	23.743900
2056.000000	23.730800
2055.000000	23.753700
2054.000000	23.788200
2053.000000	23.843600
2052.000000	23.933400
2051.000000	24.033100
2050.000000	24.142300
2049.000000	24.277000
2048.000000	24.414100
2047.000000	24.579200
2046.000000	24.750200
2045.000000	24.938400
2044.000000	25.127300
2043.000000	25.303100
2042.000000	25.489800
2041.000000	25.684300
2040.000000	25.877400
2039.000000	26.065300
2038.000000	26.237000
2037.000000	26.400800
2036.000000	26.571000
2035.000000	26.732300
2034.000000	26.882000
2033.000000	27.022900
2032.000000	27.163200
2031.000000	27.293300
2030.000000	27.399400
2029.000000	27.509400
2028.000000	27.637300
2027.000000	27.756800
2026.000000	27.856400
2025.000000	27.942400
2024.000000	28.026800
2023.000000	28.111800
2022.000000	28.205200
2021.000000	28.294300
2020.000000	28.354100
2019.000000	28.414800
2018.000000	28.475600
2017.000000	28.534500
2016.000000	28.587900
2015.000000	28.632900
2014.000000	28.671900
2013.000000	28.701000
2012.000000	28.729500
2011.000000	28.741200
2010.000000	28.765500
2009.000000	28.785700
2008.000000	28.787800
2007.000000	28.793400
2006.000000	28.774600
2005.000000	28.771200
2004.000000	28.751400
2003.000000	28.734300
2002.000000	28.704300
2001.000000	28.656700
2000.000000	28.608600
1999.000000	28.594000
1998.000000	28.528400
1997.000000	28.485400
1996.000000	28.437000
1995.000000	28.358900
1994.000000	28.293600
1993.000000	28.214300
1992.000000	28.143600
1991.000000	28.075400
1990.000000	27.998600
1989.000000	27.908800
1988.000000	27.832100
1987.000000	27.730900
1986.000000	27.634700
1985.000000	27.561500
1984.000000	27.491300
1983.000000	27.383900
1982.000000	27.291000
1981.000000	27.199100
1980.000000	27.100700
1979.000000	27.016400
1978.000000	26.923200
1977.000000	26.840600
1976.000000	26.758400
1975.000000	26.662100
1974.000000	26.573200
1973.000000	26.504100
1972.000000	26.438800
1971.000000	26.326500
1970.000000	26.267900
1969.000000	26.168800
1968.000000	26.103700
1967.000000	26.007500
1966.000000	25.933300
1965.000000	25.879000
1964.000000	25.791500
1963.000000	25.722400
1962.000000	25.640100
1961.000000	25.543600
1960.000000	25.487700
1959.000000	25.365000
1958.000000	25.320800
1957.000000	25.216000
1956.000000	25.132600
1955.000000	25.039000
1954.000000	24.954400
1953.000000	24.888600
1952.000000	24.803400
1951.000000	24.737200
1950.000000	24.668200
1949.000000	24.596100
1948.000000	24.551200
1947.000000	24.498600
1946.000000	24.423700
1945.000000	24.382000
1944.000000	24.343200
1943.000000	24.292200
1942.000000	24.291700
1941.000000	24.267700
1940.000000	24.269200
1939.000000	24.276200
1938.000000	24.260700
1937.000000	24.277200
1936.000000	24.289800
1935.000000	24.298600
1934.000000	24.352600
1933.000000	24.415100
1932.000000	24.505000
1931.000000	24.588500
1930.000000	24.665000
1929.000000	24.785900
1928.000000	24.891300
1927.000000	25.010200
1926.000000	25.139900
1925.000000	25.292900
1924.000000	25.456300
1923.000000	25.602500
1922.000000	25.793600
1921.000000	26.004900
1920.000000	26.207500
1919.000000	26.397400
1918.000000	26.622700
1917.000000	26.839300
1916.000000	27.074000
1915.000000	27.347400
1914.000000	27.653400
1913.000000	27.933000
1912.000000	28.217900
1911.000000	28.495700
1910.000000	28.789500
1909.000000	29.078000
1908.000000	29.418800
1907.000000	29.789100
1906.000000	30.189500
1905.000000	30.595300
1904.000000	30.991200
1903.000000	31.355200
1902.000000	31.709400
1901.000000	32.123300
1900.000000	32.552500
1899.000000	32.943800
1898.000000	33.358800
1897.000000	33.781600
1896.000000	34.145000
1895.000000	34.540700
1894.000000	34.964200
1893.000000	35.410300
1892.000000	35.884400
1891.000000	36.321000
1890.000000	36.747700
1889.000000	37.151800
1888.000000	37.544900
1887.000000	37.936700
1886.000000	38.349500
1885.000000	38.800000
1884.000000	39.228600
1883.000000	39.615200
1882.000000	39.968400
1881.000000	40.349700
1880.000000	40.687700
1879.000000	41.022700
1878.000000	41.346000
1877.000000	41.656700
1876.000000	41.952200
1875.000000	42.223100
1874.000000	42.477200
1873.000000	42.714000
1872.000000	42.918600
1871.000000	43.065900
1870.000000	43.168600
1869.000000	43.282200
1868.000000	43.338900
1867.000000	43.371800
1866.000000	43.421000
1865.000000	43.472400
1864.000000	43.541200
1863.000000	43.639000
1862.000000	43.734900
1861.000000	43.812900
1860.000000	43.873800
1859.000000	43.888000
1858.000000	43.907000
1857.000000	43.921000
1856.000000	43.933300
1855.000000	43.939800
1854.000000	43.904800
1853.000000	43.853000
1852.000000	43.860500
1851.000000	43.918600
1850.000000	44.004200
1849.000000	44.018800
1848.000000	43.931500
1847.000000	43.811000
1846.000000	43.718100
1845.000000	43.692800
1844.000000	43.714800
1843.000000	43.750400
1842.000000	43.737100
1841.000000	43.696500
1840.000000	43.653100
1839.000000	43.598900
1838.000000	43.555800
1837.000000	43.490100
1836.000000	43.393500
1835.000000	43.290400
1834.000000	43.215200
1833.000000	43.175600
1832.000000	43.138700
1831.000000	43.097100
1830.000000	43.046400
1829.000000	42.973200
1828.000000	42.891600
1827.000000	42.833000
1826.000000	42.780800
1825.000000	42.737600
1824.000000	42.739300
1823.000000	42.798500
1822.000000	42.828000
1821.000000	42.799900
1820.000000	42.749100
1819.000000	42.696300
1818.000000	42.666400
1817.000000	42.669800
1816.000000	42.674100
1815.000000	42.648800
1814.000000	42.637900
1813.000000	42.632000
1812.000000	42.618900
1811.000000	42.562800
1810.000000	42.503200
1809.000000	42.480800
1808.000000	42.457400
1807.000000	42.428900
1806.000000	42.384200
1805.000000	42.333500
1804.000000	42.304100
1803.000000	42.289800
1802.000000	42.277500
1801.000000	42.237600
1800.000000	42.164300
1799.000000	42.118000
1798.000000	42.090400
1797.000000	42.064300
1796.000000	42.052700
1795.000000	42.013500
1794.000000	41.966800
1793.000000	41.928000
1792.000000	41.898500
1791.000000	41.869600
1790.000000	41.832100
1789.000000	41.802000
1788.000000	41.796500
1787.000000	41.763000
1786.000000	41.726400
1785.000000	41.698800
1784.000000	41.638900
1783.000000	41.594700
1782.000000	41.559700
1781.000000	41.508600
1780.000000	41.452600
1779.000000	41.380100
1778.000000	41.304000
1777.000000	41.234700
1776.000000	41.128200
1775.000000	41.042200
1774.000000	40.966600
1773.000000	40.893400
1772.000000	40.789200
1771.000000	40.673500
1770.000000	40.587600
1769.000000	40.480000
1768.000000	40.408800
1767.000000	40.336900
1766.000000	40.267000
1765.000000	40.193500
1764.000000	40.160100
1763.000000	40.145900
1762.000000	40.134800
1761.000000	40.130000
1760.000000	40.139300
1759.000000	40.130200
1758.000000	40.137000
1757.000000	40.131900
1756.000000	40.121400
1755.000000	40.098400
1754.000000	40.075700
1753.000000	40.036900
1752.000000	39.999500
1751.000000	39.950900
1750.000000	39.901500
1749.000000	39.828600
1748.000000	39.730200
1747.000000	39.636300
1746.000000	39.517200
1745.000000	39.399200
1744.000000	39.251800
1743.000000	39.105000
1742.000000	38.951000
1741.000000	38.796100
1740.000000	38.625000
1739.000000	38.478600
1738.000000	38.352000
1737.000000	38.245100
1736.000000	38.164900
1735.000000	38.097100
1734.000000	38.085400
1733.000000	38.077800
1732.000000	38.076200
1731.000000	38.071100
1730.000000	38.102500
1729.000000	38.131300
1728.000000	38.162600
1727.000000	38.178700
1726.000000	38.184500
1725.000000	38.221600
1724.000000	38.234800
1723.000000	38.272200
1722.000000	38.330200
1721.000000	38.416300
1720.000000	38.525400
1719.000000	38.639500
1718.000000	38.766500
1717.000000	38.917100
1716.000000	39.049300
1715.000000	39.189100
1714.000000	39.313700
1713.000000	39.425900
1712.000000	39.510900
1711.000000	39.580600
1710.000000	39.630000
1709.000000	39.666400
1708.000000	39.683100
1707.000000	39.704200
1706.000000	39.683800
1705.000000	39.662300
1704.000000	39.629100
1703.000000	39.546800
1702.000000	39.477400
1701.000000	39.386800
1700.000000	39.268900
1699.000000	39.192500
1698.000000	39.095200
1697.000000	39.035400
1696.000000	39.024200
1695.000000	39.023500
1694.000000	39.019000
1693.000000	39.039700
1692.000000	39.071600
1691.000000	39.111600
1690.000000	39.152400
1689.000000	39.186300
1688.000000	39.245000
1687.000000	39.316200
1686.000000	39.422700
1685.000000	39.589400
1684.000000	39.787500
1683.000000	40.064800
1682.000000	40.398200
1681.000000	40.746800
1680.000000	41.100800
1679.000000	41.479100
1678.000000	41.818800
1677.000000	42.156600
1676.000000	42.464200
1675.000000	42.742900
1674.000000	42.988800
1673.000000	43.229600
1672.000000	43.457100
1671.000000	43.680300
1670.000000	43.861600
1669.000000	44.066400
1668.000000	44.228900
1667.000000	44.388100
1666.000000	44.518900
1665.000000	44.647700
1664.000000	44.766700
1663.000000	44.885600
1662.000000	44.995400
1661.000000	45.099800
1660.000000	45.161400
1659.000000	45.244000
1658.000000	45.301500
1657.000000	45.351200
1656.000000	45.402600
1655.000000	45.401100
1654.000000	45.437300
1653.000000	45.444700
1652.000000	45.461500
1651.000000	45.458900
1650.000000	45.440000
1649.000000	45.426300
1648.000000	45.409700
1647.000000	45.383800
1646.000000	45.356300
1645.000000	45.320600
1644.000000	45.284300
1643.000000	45.256100
1642.000000	45.220500
1641.000000	45.204600
1640.000000	45.185400
1639.000000	45.146100
1638.000000	45.120000
1637.000000	45.078300
1636.000000	45.037000
1635.000000	45.005100
1634.000000	44.958000
1633.000000	44.899100
1632.000000	44.844600
1631.000000	44.800200
1630.000000	44.735900
1629.000000	44.671700
1628.000000	44.632100
1627.000000	44.569800
1626.000000	44.506400
1625.000000	44.432800
1624.000000	44.386800
1623.000000	44.335700
1622.000000	44.289800
1621.000000	44.233400
1620.000000	44.177600
1619.000000	44.140700
1618.000000	44.080900
1617.000000	44.038300
1616.000000	43.995400
1615.000000	43.945100
1614.000000	43.894500
1613.000000	43.845300
1612.000000	43.776300
1611.000000	43.715300
1610.000000	43.665300
1609.000000	43.605400
1608.000000	43.542700
1607.000000	43.471300
1606.000000	43.405000
1605.000000	43.341100
1604.000000	43.264600
1603.000000	43.188700
1602.000000	43.121100
1601.000000	43.044500
1600.000000	42.962500
1599.000000	42.885300
1598.000000	42.820900
1597.000000	42.769600
1596.000000	42.711100
1595.000000	42.649300
1594.000000	42.574100
1593.000000	42.527300
1592.000000	42.483700
1591.000000	42.429100
1590.000000	42.386700
1589.000000	42.356600
1588.000000	42.314100
1587.000000	42.267700
1586.000000	42.220000
1585.000000	42.175500
1584.000000	42.142600
1583.000000	42.100400
1582.000000	42.068700
1581.000000	42.042300
1580.000000	42.008300
1579.000000	41.988400
1578.000000	41.986800
1577.000000	41.989300
1576.000000	41.984500
1575.000000	41.983300
1574.000000	41.981600
1573.000000	41.986200
1572.000000	42.005300
1571.000000	42.027300
1570.000000	42.056200
1569.000000	42.090600
1568.000000	42.117800
1567.000000	42.139700
1566.000000	42.166600
1565.000000	42.186400
1564.000000	42.221500
1563.000000	42.241000
1562.000000	42.240900
1561.000000	42.257900
1560.000000	42.262700
1559.000000	42.254600
1558.000000	42.246900
1557.000000	42.222000
1556.000000	42.179400
1555.000000	42.141700
1554.000000	42.108100
1553.000000	42.066000
1552.000000	42.017800
1551.000000	41.962600
1550.000000	41.897600
1549.000000	41.832400
1548.000000	41.775100
1547.000000	41.727800
1546.000000	41.687300
1545.000000	41.636800
1544.000000	41.590600
1543.000000	41.566700
1542.000000	41.538800
1541.000000	41.514300
1540.000000	41.505300
1539.000000	41.463700
1538.000000	41.435500
1537.000000	41.421300
1536.000000	41.398600
1535.000000	41.378000
1534.000000	41.337700
1533.000000	41.303200
1532.000000	41.276000
1531.000000	41.244800
1530.000000	41.215800
1529.000000	41.177700
1528.000000	41.129300
1527.000000	41.095400
1526.000000	41.057200
1525.000000	41.013500
1524.000000	40.970200
1523.000000	40.929700
1522.000000	40.887000
1521.000000	40.832400
1520.000000	40.787800
1519.000000	40.749000
1518.000000	40.686500
1517.000000	40.636700
1516.000000	40.595300
1515.000000	40.546700
1514.000000	40.495400
1513.000000	40.453300
1512.000000	40.400700
1511.000000	40.352700
1510.000000	40.311000
1509.000000	40.263500
1508.000000	40.209500
1507.000000	40.163100
1506.000000	40.120900
1505.000000	40.089700
1504.000000	40.034600
1503.000000	39.986200
1502.000000	39.948000
1501.000000	39.928500
1500.000000	39.898900
1499.000000	39.878900
1498.000000	39.860600
1497.000000	39.873000
1496.000000	39.868200
1495.000000	39.869700
1494.000000	39.866500
1493.000000	39.887100
1492.000000	39.901200
1491.000000	39.920800
1490.000000	39.937500
1489.000000	39.974000
1488.000000	40.002700
1487.000000	40.028800
1486.000000	40.048300
1485.000000	40.057200
1484.000000	40.111900
1483.000000	40.152000
1482.000000	40.197600
1481.000000	40.246800
1480.000000	40.289000
1479.000000	40.315900
1478.000000	40.366400
1477.000000	40.404100
1476.000000	40.471600
1475.000000	40.521000
1474.000000	40.594600
1473.000000	40.671000
1472.000000	40.752800
1471.000000	40.821800
1470.000000	40.870500
1469.000000	40.916800
1468.000000	41.002900
1467.000000	41.089600
1466.000000	41.138100
1465.000000	41.225100
1464.000000	41.302100
1463.000000	41.368800
1462.000000	41.459100
1461.000000	41.535400
1460.000000	41.619600
1459.000000	41.715600
1458.000000	41.844700
1457.000000	41.924500
1456.000000	42.037200
1455.000000	42.120600
1454.000000	42.215700
1453.000000	42.347200
1452.000000	42.484200
1451.000000	42.596600
1450.000000	42.673900
1449.000000	42.744800
1448.000000	42.860500
1447.000000	42.988100
1446.000000	43.133900
1445.000000	43.212800
1444.000000	43.305700
1443.000000	43.424100
1442.000000	43.551300
1441.000000	43.666800
1440.000000	43.812700
1439.000000	43.908200
1438.000000	44.053400
1437.000000	44.131000
1436.000000	44.269700
1435.000000	44.408700
1434.000000	44.557300
1433.000000	44.721100
1432.000000	44.846000
1431.000000	44.952800
1430.000000	45.130800
1429.000000	45.313700
1428.000000	45.467500
1427.000000	45.649500
1426.000000	45.841600
1425.000000	46.055100
1424.000000	46.271100
1423.000000	46.411300
1422.000000	46.613500
1421.000000	46.892200
1420.000000	47.127500
1419.000000	47.348200
1418.000000	47.489000
1417.000000	47.648900
1416.000000	47.942900
1415.000000	48.191900
1414.000000	48.369800
1413.000000	48.540300
1412.000000	48.719100
1411.000000	49.020500
1410.000000	49.274000
1409.000000	49.507900
1408.000000	49.728400
1407.000000	49.940000
1406.000000	50.159000
1405.000000	50.320100
1404.000000	50.431500
1403.000000	50.618900
1402.000000	50.857100
1401.000000	51.018700
1400.000000	51.008400
1399.000000	50.972400
1398.000000	51.036300
1397.000000	51.145700
1396.000000	51.207900
1395.000000	51.049800
1394.000000	50.990100
1393.000000	50.967900
1392.000000	50.895900
1391.000000	50.821000
1390.000000	50.846500
1389.000000	50.920100
1388.000000	50.942700
1387.000000	50.985600
1386.000000	51.122200
1385.000000	51.346900
1384.000000	51.520700
1383.000000	51.785100
1382.000000	52.054800
1381.000000	52.329000
1380.000000	52.650300
1379.000000	53.065100
1378.000000	53.533000
1377.000000	54.103000
1376.000000	54.684900
1375.000000	55.280700
1374.000000	55.879600
1373.000000	56.485900
1372.000000	57.050500
1371.000000	57.480400
1370.000000	57.817400
1369.000000	58.162000
1368.000000	58.420800
1367.000000	58.614400
1366.000000	58.812200
1365.000000	58.996500
1364.000000	59.158900
1363.000000	59.348300
1362.000000	59.452300
1361.000000	59.500600
1360.000000	59.525500
1359.000000	59.585500
1358.000000	59.683100
1357.000000	59.832500
1356.000000	60.030700
1355.000000	60.231300
1354.000000	60.412900
1353.000000	60.608500
1352.000000	60.910400
1351.000000	61.167500
1350.000000	61.429000
1349.000000	61.693100
1348.000000	61.934100
1347.000000	62.136400
1346.000000	62.299800
1345.000000	62.533300
1344.000000	62.735700
1343.000000	62.912200
1342.000000	63.083300
1341.000000	63.258700
1340.000000	63.417900
1339.000000	63.587200
1338.000000	63.741400
1337.000000	63.888200
1336.000000	64.021500
1335.000000	64.147700
1334.000000	64.258800
1333.000000	64.382100
1332.000000	64.492900
1331.000000	64.582300
1330.000000	64.682200
1329.000000	64.775800
1328.000000	64.855100
1327.000000	64.927700
1326.000000	65.009900
1325.000000	65.081300
1324.000000	65.147700
1323.000000	65.213300
1322.000000	65.274400
1321.000000	65.329000
1320.000000	65.378000
1319.000000	65.430000
1318.000000	65.477400
1317.000000	65.531900
1316.000000	65.585900
1315.000000	65.628400
1314.000000	65.668700
1313.000000	65.710100
1312.000000	65.748900
1311.000000	65.787500
1310.000000	65.829800
1309.000000	65.860300
1308.000000	65.890200
1307.000000	65.902200
1306.000000	65.917700
1305.000000	65.938200
1304.000000	65.951200
1303.000000	65.975900
1302.000000	65.989100
1301.000000	65.991900
1300.000000	65.993700
1299.000000	65.996300
1298.000000	66.002600
1297.000000	65.999800
1296.000000	65.983200
1295.000000	65.975600
1294.000000	65.957300
1293.000000	65.944200
1292.000000	65.927000
1291.000000	65.906000
1290.000000	65.891500
1289.000000	65.855200
1288.000000	65.822100
1287.000000	65.788600
1286.000000	65.756100
1285.000000	65.728900
1284.000000	65.691500
1283.000000	65.652600
1282.000000	65.616200
1281.000000	65.581900
1280.000000	65.553300
1279.000000	65.531700
1278.000000	65.498900
1277.000000	65.475700
1276.000000	65.463200
1275.000000	65.456900
1274.000000	65.449300
1273.000000	65.450200
1272.000000	65.437700
1271.000000	65.436500
1270.000000	65.438000
1269.000000	65.416100
1268.000000	65.420600
1267.000000	65.427700
1266.000000	65.426800
1265.000000	65.411200
1264.000000	65.388000
1263.000000	65.376500
1262.000000	65.364200
1261.000000	65.347900
1260.000000	65.317400
1259.000000	65.271700
1258.000000	65.246900
1257.000000	65.222900
1256.000000	65.201000
1255.000000	65.159000
1254.000000	65.118300
1253.000000	65.068700
1252.000000	65.024600
1251.000000	64.977000
1250.000000	64.911500
1249.000000	64.855100
1248.000000	64.786400
1247.000000	64.721700
1246.000000	64.660700
1245.000000	64.574800
1244.000000	64.525200
1243.000000	64.467100
1242.000000	64.403000
1241.000000	64.351300
1240.000000	64.310700
1239.000000	64.262500
1238.000000	64.230500
1237.000000	64.183000
1236.000000	64.131500
1235.000000	64.100100
1234.000000	64.055200
1233.000000	64.009600
1232.000000	63.956300
1231.000000	63.889900
1230.000000	63.842200
1229.000000	63.775000
1228.000000	63.696600
1227.000000	63.623400
1226.000000	63.564100
1225.000000	63.509600
1224.000000	63.451600
1223.000000	63.364700
1222.000000	63.295700
1221.000000	63.219200
1220.000000	63.160800
1219.000000	63.106900
1218.000000	63.044300
1217.000000	62.969600
1216.000000	62.898400
1215.000000	62.835000
1214.000000	62.770200
1213.000000	62.720400
1212.000000	62.650900
1211.000000	62.560900
1210.000000	62.490600
1209.000000	62.411100
1208.000000	62.358500
1207.000000	62.297000
1206.000000	62.221200
1205.000000	62.180000
1204.000000	62.117800
1203.000000	62.072600
1202.000000	62.026300
1201.000000	61.971600
1200.000000	61.880200
1199.000000	61.803400
1198.000000	61.740600
1197.000000	61.648200
1196.000000	61.521300
1195.000000	61.390800
1194.000000	61.213300
1193.000000	61.038300
1192.000000	60.880600
1191.000000	60.697700
1190.000000	60.561900
1189.000000	60.419900
1188.000000	60.341100
1187.000000	60.327900
1186.000000	60.349800
1185.000000	60.409100
1184.000000	60.519300
1183.000000	60.693800
1182.000000	60.886600
1181.000000	61.074200
1180.000000	61.293900
1179.000000	61.478800
1178.000000	61.654100
1177.000000	61.821900
1176.000000	61.962200
1175.000000	62.138500
1174.000000	62.271800
1173.000000	62.429100
1172.000000	62.575800
1171.000000	62.775500
1170.000000	62.960000
1169.000000	63.131900
1168.000000	63.318200
1167.000000	63.517000
1166.000000	63.694100
1165.000000	63.911800
1164.000000	64.111500
1163.000000	64.316000
1162.000000	64.494800
1161.000000	64.723700
1160.000000	64.883300
1159.000000	65.041900
1158.000000	65.206100
1157.000000	65.337800
1156.000000	65.472600
1155.000000	65.569100
1154.000000	65.627200
1153.000000	65.715500
1152.000000	65.733200
1151.000000	65.803100
1150.000000	65.812100
1149.000000	65.854600
1148.000000	65.892200
1147.000000	65.951800
1146.000000	66.019900
1145.000000	66.072300
1144.000000	66.175200
1143.000000	66.266100
1142.000000	66.405000
1141.000000	66.547500
1140.000000	66.682600
1139.000000	66.814100
1138.000000	66.988000
1137.000000	67.172900
1136.000000	67.346000
1135.000000	67.523200
1134.000000	67.635100
1133.000000	67.730600
1132.000000	67.874700
1131.000000	67.994800
1130.000000	68.116600
1129.000000	68.192000
1128.000000	68.260100
1127.000000	68.312300
1126.000000	68.379600
1125.000000	68.407600
1124.000000	68.485100
1123.000000	68.484900
1122.000000	68.500800
1121.000000	68.496600
1120.000000	68.493500
1119.000000	68.501600
1118.000000	68.515600
1117.000000	68.497800
1116.000000	68.480600
1115.000000	68.469500
1114.000000	68.462600
1113.000000	68.441300
1112.000000	68.427700
1111.000000	68.423800
1110.000000	68.423000
1109.000000	68.403000
1108.000000	68.395300
1107.000000	68.368300
1106.000000	68.352700
1105.000000	68.351600
1104.000000	68.342500
1103.000000	68.326300
1102.000000	68.329600
1101.000000	68.296400
1100.000000	68.290100
1099.000000	68.284700
1098.000000	68.245500
1097.000000	68.248000
1096.000000	68.218100
1095.000000	68.208700
1094.000000	68.184100
1093.000000	68.149600
1092.000000	68.137700
1091.000000	68.100400
1090.000000	68.086500
1089.000000	68.074100
1088.000000	68.070400
1087.000000	68.024900
1086.000000	67.999100
1085.000000	67.973600
1084.000000	67.958200
1083.000000	67.928400
1082.000000	67.907300
1081.000000	67.887700
1080.000000	67.861700
1079.000000	67.846300
1078.000000	67.812900
1077.000000	67.795200
1076.000000	67.772300
1075.000000	67.734600
1074.000000	67.726400
1073.000000	67.711400
1072.000000	67.676500
1071.000000	67.655100
1070.000000	67.635500
1069.000000	67.604700
1068.000000	67.568500
1067.000000	67.529500
1066.000000	67.505400
1065.000000	67.485300
1064.000000	67.457300
1063.000000	67.442400
1062.000000	67.418700
1061.000000	67.379900
1060.000000	67.343400
1059.000000	67.319400
1058.000000	67.288200
1057.000000	67.259800
1056.000000	67.234500
1055.000000	67.222600
1054.000000	67.192600
1053.000000	67.173200
1052.000000	67.146500
1051.000000	67.122300
1050.000000	67.101900
1049.000000	67.073500
1048.000000	67.047200
1047.000000	67.023800
1046.000000	67.012600
1045.000000	66.993200
1044.000000	66.965000
1043.000000	66.945800
1042.000000	66.921500
1041.000000	66.886900
1040.000000	66.873800
1039.000000	66.864800
1038.000000	66.832400
1037.000000	66.810600
1036.000000	66.789000
1035.000000	66.776900
1034.000000	66.774400
1033.000000	66.750200
1032.000000	66.722300
1031.000000	66.698800
1030.000000	66.676900
1029.000000	66.671200
1028.000000	66.659000
1027.000000	66.631800
1026.000000	66.603900
1025.000000	66.587600
1024.000000	66.573900
1023.000000	66.555300
1022.000000	66.544400
1021.000000	66.532900
1020.000000	66.518500
1019.000000	66.503600
1018.000000	66.494400
1017.000000	66.485500
1016.000000	66.490000
1015.000000	66.512800
1014.000000	66.522500
1013.000000	66.527700
1012.000000	66.541200
1011.000000	66.563700
1010.000000	66.571700
1009.000000	66.596100
1008.000000	66.641400
1007.000000	66.668200
1006.000000	66.691900
1005.000000	66.720600
1004.000000	66.743600
1003.000000	66.774900
1002.000000	66.813300
1001.000000	66.832100
1000.000000	66.846400
999.000000	66.875200
998.000000	66.896300
997.000000	66.917300
996.000000	66.953100
995.000000	66.977100
994.000000	66.997000
993.000000	67.026800
992.000000	67.048500
991.000000	67.075800
990.000000	67.109900
989.000000	67.130300
988.000000	67.147200
987.000000	67.169900
986.000000	67.207200
985.000000	67.240600
984.000000	67.260400
983.000000	67.277700
982.000000	67.320900
981.000000	67.362800
980.000000	67.382100
979.000000	67.413600
978.000000	67.472700
977.000000	67.509900
976.000000	67.522300
975.000000	67.562400
974.000000	67.604700
973.000000	67.619000
972.000000	67.637400
971.000000	67.665400
970.000000	67.692700
969.000000	67.704500
968.000000	67.736800
967.000000	67.757700
966.000000	67.767700
965.000000	67.801600
964.000000	67.807500
963.000000	67.801900
962.000000	67.820900
961.000000	67.839400
960.000000	67.875100
959.000000	67.887800
958.000000	67.916300
957.000000	67.941800
956.000000	67.959100
955.000000	67.985300
954.000000	68.031700
953.000000	68.055300
952.000000	68.057400
951.000000	68.089800
950.000000	68.107100
949.000000	68.125700
948.000000	68.144700
947.000000	68.161000
946.000000	68.195200
945.000000	68.200100
944.000000	68.212900
943.000000	68.238900
942.000000	68.250100
941.000000	68.276900
940.000000	68.306900
939.000000	68.319600
938.000000	68.343800
937.000000	68.388800
936.000000	68.391900
935.000000	68.420200
934.000000	68.449900
933.000000	68.454600
932.000000	68.458800
931.000000	68.468200
930.000000	68.463200
929.000000	68.476000
928.000000	68.486000
927.000000	68.512100
926.000000	68.517800
925.000000	68.520000
924.000000	68.536900
923.000000	68.576300
922.000000	68.536600
921.000000	68.535900
920.000000	68.537600
919.000000	68.541200
918.000000	68.558600
917.000000	68.560500
916.000000	68.570500
915.000000	68.547600
914.000000	68.553400
913.000000	68.517300
912.000000	68.525200
911.000000	68.531100
910.000000	68.536400
909.000000	68.528800
908.000000	68.490600
907.000000	68.521700
906.000000	68.486400
905.000000	68.513400
904.000000	68.516100
903.000000	68.532800
902.000000	68.552300
901.000000	68.556200
900.000000	68.558600
899.000000	68.581000
898.000000	68.574400
897.000000	68.593800
896.000000	68.605900
895.000000	68.615900
894.000000	68.614500
893.000000	68.620100
892.000000	68.610000
891.000000	68.600800
890.000000	68.579200
889.000000	68.607400
888.000000	68.559500
887.000000	68.561000
886.000000	68.537700
885.000000	68.507500
884.000000	68.503500
883.000000	68.449000
882.000000	68.443400
881.000000	68.411400
880.000000	68.401200
879.000000	68.361000
878.000000	68.343000
877.000000	68.306700
876.000000	68.259100
875.000000	68.249500
874.000000	68.249000
873.000000	68.204800
872.000000	68.163600
871.000000	68.144700
870.000000	68.138100
869.000000	68.086900
868.000000	68.061900
867.000000	68.015800
866.000000	67.978800
865.000000	67.908300
864.000000	67.814900
863.000000	67.694800
862.000000	67.553900
861.000000	67.372400
860.000000	67.245700
859.000000	67.146500
858.000000	67.735209
857.000000	65.783166
856.000000	65.871559
855.000000	65.941583
854.000000	65.816859
853.000000	65.437208
852.000000	65.324865
851.000000	65.616631
850.000000	65.337957
849.000000	65.085871
848.000000	65.204099
847.000000	65.047205
846.000000	64.963278
845.000000	64.737477
844.000000	64.543338
843.000000	64.582917
842.000000	64.505789
841.000000	64.196669
840.000000	64.214835
839.000000	63.995122
838.000000	63.908252
837.000000	63.894146
836.000000	63.751459
835.000000	63.674737
834.000000	63.395454
833.000000	63.303408
832.000000	63.161331
831.000000	62.856371
830.000000	62.772444
829.000000	62.629657
828.000000	62.490624
827.000000	62.333628
826.000000	62.210934
825.000000	62.166687
824.000000	61.891970
823.000000	61.827629
822.000000	61.636434
821.000000	61.554435
820.000000	61.330561
819.000000	61.256986
818.000000	61.033112
817.000000	60.966133
816.000000	60.844860
815.000000	60.737794
814.000000	60.734547
813.000000	60.665436
812.000000	60.532492
811.000000	60.372960
810.000000	60.220023
809.000000	60.217791
808.000000	60.154160
807.000000	60.041006
806.000000	59.917804
805.000000	59.699919
804.000000	59.593056
803.000000	59.541807
802.000000	59.372633
801.000000	59.194427
800.000000	59.104005
799.000000	58.989227
798.000000	58.874449
797.000000	58.761396
796.000000	58.732980
795.000000	58.594962
794.000000	58.507483
793.000000	58.437256
792.000000	58.254687
791.000000	58.061563
790.000000	57.923037
789.000000	57.860219
788.000000	57.738438
787.000000	57.691654
786.000000	57.575861
785.000000	57.443526
784.000000	57.264407
783.000000	57.069558
782.000000	56.979034
781.000000	56.857457
780.000000	56.785099
779.000000	56.529156
778.000000	56.346790
777.000000	56.254947
776.000000	56.099372
775.000000	55.960238
774.000000	55.813797
773.000000	55.673241
772.000000	55.437697
771.000000	55.199210
770.000000	55.088288
769.000000	54.992082
768.000000	54.804032
767.000000	54.580666
766.000000	54.428136
765.000000	54.297120
764.000000	54.143372
763.000000	54.012762
762.000000	53.860435
761.000000	53.660613
760.000000	53.487076
759.000000	53.330994
758.000000	53.184958
757.000000	53.045925
756.000000	52.907400
755.000000	52.791911
754.000000	52.643237
753.000000	52.493752
752.000000	52.308949
751.000000	52.108214
750.000000	51.956597
749.000000	51.789859
748.000000	51.573699
747.000000	51.354392
746.000000	51.173954
745.000000	50.987325
744.000000	50.798666
743.000000	50.624419
742.000000	50.382075
741.000000	50.091730
740.000000	49.866233
739.000000	49.622062
738.000000	49.355160
737.000000	49.114136
736.000000	48.839317
735.000000	48.604687
734.000000	48.391976
733.000000	48.173583
732.000000	47.998117
731.000000	47.772316
730.000000	47.514242
729.000000	47.310564
728.000000	47.131648
727.000000	46.950601
726.000000	46.776150
725.000000	46.596828
724.000000	46.420855
723.000000	46.193125
722.000000	45.990361
721.000000	45.827783
720.000000	45.673020
719.000000	45.517243
718.000000	45.366742
717.000000	45.177576
716.000000	44.979784
715.000000	44.804014
714.000000	44.580344
713.000000	44.432482
712.000000	44.280256
711.000000	44.097991
710.000000	43.937646
709.000000	43.796178
708.000000	43.636747
707.000000	43.480055
706.000000	43.371671
705.000000	43.267853
704.000000	43.227767
703.000000	43.156626
702.000000	43.057375
701.000000	43.025915
700.000000	43.008257
699.000000	42.951933
698.000000	42.928186
697.000000	42.905860
696.000000	42.811886
695.000000	42.749067
694.000000	42.684726
693.000000	42.598972
692.000000	42.519916
691.000000	42.455677
690.000000	42.314107
689.000000	42.232717
688.000000	42.143411
687.000000	41.992099
686.000000	41.878640
685.000000	41.754018
684.000000	41.633049
683.000000	41.503048
682.000000	41.406232
681.000000	41.284249
680.000000	41.123295
679.000000	40.982943
678.000000	40.860757
677.000000	40.771349
676.000000	40.616992
675.000000	40.452994
674.000000	40.323197
673.000000	40.134234
672.000000	39.969931
671.000000	39.757322
670.000000	39.514269
669.000000	39.245336
668.000000	38.987770
667.000000	38.698643
666.000000	38.404644
665.000000	38.110239
664.000000	37.809542
663.000000	37.451913
662.000000	37.140967
661.000000	36.845040
660.000000	36.579558
659.000000	36.324935
658.000000	36.102178
657.000000	35.911591
656.000000	35.799451
655.000000	35.724049
654.000000	35.719990
653.000000	35.808382
652.000000	35.893628
651.000000	36.084520
650.000000	36.363194
649.000000	36.683985
648.000000	37.037352
647.000000	37.466831
646.000000	37.892353
645.000000	38.368211
644.000000	38.845084
643.000000	39.368639
642.000000	39.876059
641.000000	40.369473
640.000000	40.846955
639.000000	41.283335
638.000000	41.756758
637.000000	42.198619
636.000000	42.632767
635.000000	43.038296
634.000000	43.504412
633.000000	43.934602
632.000000	44.414012
631.000000	44.847551
630.000000	45.300575
629.000000	45.793076
628.000000	46.294508
627.000000	46.785081
626.000000	47.296255
625.000000	47.777999
624.000000	48.297393
623.000000	48.794766
622.000000	49.313247
621.000000	49.786162
620.000000	50.214424
619.000000	50.601889
618.000000	50.987629
617.000000	51.238092
616.000000	51.508343
615.000000	51.674878
614.000000	51.905145
613.000000	52.019416
612.000000	52.135717
611.000000	52.229589
610.000000	52.307427
609.000000	52.374001
608.000000	52.462292
607.000000	52.548857
606.000000	52.718335
605.000000	52.828648
604.000000	52.989703
603.000000	53.147206
602.000000	53.401829
601.000000	53.617280
600.000000	53.882863
599.000000	54.151085
598.000000	54.418799
597.000000	54.645819
596.000000	54.881667
595.000000	55.109498
594.000000	55.320382
593.000000	55.484177
592.000000	55.598854
591.000000	55.689377
590.000000	55.741642
589.000000	55.777871
588.000000	55.739307
587.000000	55.634982
586.000000	55.596114
585.000000	55.512694
584.000000	55.427346
583.000000	55.207938
582.000000	55.084026
581.000000	54.987616
580.000000	54.889583
579.000000	54.846148
578.000000	54.819863
577.000000	54.787795
576.000000	54.768919
575.000000	54.749637
574.000000	54.719496
573.000000	54.673118
572.000000	54.646428
571.000000	54.573156
570.000000	54.503031
569.000000	54.390485
568.000000	54.261195
567.000000	54.091920
566.000000	53.916353
565.000000	53.662237
564.000000	53.411876
563.000000	53.118689
562.000000	52.841943
561.000000	52.499536
560.000000	52.146981
559.000000	51.682287
558.000000	51.331051
557.000000	50.926435
556.000000	50.503856
555.000000	50.075797
554.000000	49.582382
553.000000	49.067656
552.000000	48.503000
551.000000	47.881107
550.000000	47.215677
549.000000	46.480020
548.000000	45.739797
547.000000	44.964663
546.000000	44.160403
545.000000	43.290179
544.000000	42.393874
543.000000	41.510964
542.000000	40.601465
541.000000	39.715511
540.000000	38.805302
539.000000	37.932236
538.000000	37.116509
537.000000	36.302202
536.000000	35.516819
535.000000	34.781264
534.000000	34.050884
533.000000	33.387687
532.000000	32.749658
531.000000	32.158819
530.000000	31.569502
529.000000	31.048788
528.000000	30.544819
527.000000	30.093216
526.000000	29.648717
525.000000	29.215685
524.000000	28.800515
523.000000	28.396101
522.000000	27.988847
521.000000	27.603715
520.000000	27.200012
519.000000	26.789206
518.000000	26.403973
517.000000	26.029497
516.000000	25.657255
515.000000	25.286229
514.000000	24.884455
513.000000	24.471009
512.000000	24.073802
511.000000	23.671925
510.000000	23.270658
509.000000	22.875074
508.000000	22.486797
507.000000	22.098824
506.000000	21.682740
505.000000	21.268178
504.000000	20.857778
503.000000	20.434285
502.000000	20.021449
501.000000	19.597551
500.000000	19.187759
499.000000	18.779286
498.000000	18.383398
497.000000	18.011054
496.000000	17.651699
495.000000	17.332735
494.000000	17.032952
493.000000	16.755191
492.000000	16.511528
491.000000	16.313837
490.000000	16.137458
489.000000	16.012735
488.000000	15.906176
487.000000	15.835138
486.000000	15.782468
485.000000	15.748369
484.000000	15.747050
483.000000	15.766738
482.000000	15.788760
481.000000	15.814537
480.000000	15.848229
479.000000	15.875630
478.000000	15.907090
477.000000	15.917137
476.000000	15.919369
475.000000	15.922617
474.000000	15.923327
473.000000	15.919268
472.000000	15.890446
471.000000	15.842952
470.000000	15.806215
469.000000	15.759938
468.000000	15.702498
467.000000	15.645870
466.000000	15.574223
465.000000	15.492224
464.000000	15.403324
463.000000	15.305189
462.000000	15.215071
461.000000	15.105773
460.000000	14.998505
459.000000	14.898848
458.000000	14.780111
457.000000	14.654373
456.000000	14.524676
455.000000	14.385745
454.000000	14.239710
453.000000	14.095197
452.000000	13.944392
451.000000	13.778060
450.000000	13.607871
449.000000	13.458385
448.000000	13.287994
447.000000	13.099031
446.000000	12.915853
445.000000	12.723744
444.000000	12.539550
443.000000	12.337090
442.000000	12.121741
441.000000	11.915729
440.000000	11.720170
439.000000	11.507358
438.000000	11.289777
437.000000	11.083663
436.000000	10.881202
435.000000	10.681279
434.000000	10.467148
433.000000	10.249567
432.000000	10.050658
431.000000	9.853780
430.000000	9.644013
429.000000	9.445003
428.000000	9.248631
427.000000	9.055000
426.000000	8.866748
425.000000	8.686512
424.000000	8.502217
423.000000	8.323504
422.000000	8.147430
421.000000	7.962019
420.000000	7.787771
419.000000	7.623266
418.000000	7.475607
417.000000	7.320032
416.000000	7.172271
415.000000	7.035978
414.000000	6.882636
413.000000	6.747967
412.000000	6.630550
411.000000	6.503899
410.000000	6.377551
409.000000	6.276169
408.000000	6.185747
407.000000	6.086191
406.000000	5.987447
405.000000	5.896112
404.000000	5.814620
403.000000	5.738710
402.000000	5.671731
401.000000	5.599170
400.000000	5.524275
399.000000	5.485508
398.000000	5.433954
397.000000	5.391331
396.000000	5.357334
395.000000	5.313391
394.000000	5.259097
393.000000	5.233117
392.000000	5.212618
391.000000	5.176489
390.000000	5.141173
389.000000	5.117426
388.000000	5.092664
387.000000	5.070033
386.000000	5.033296
385.000000	5.018784
384.000000	5.016449
383.000000	5.000110
382.000000	4.978596
381.000000	4.975247
380.000000	4.951297
379.000000	4.936988
378.000000	4.920547
377.000000	4.912428
376.000000	5.034514
375.000000	4.860976
374.000000	4.772381
373.000000	4.764566
372.000000	4.926129
371.000000	4.958604
370.000000	4.921359
369.000000	4.874676
368.000000	4.875691
367.000000	4.967636
366.000000	4.979814
365.000000	4.852350
364.000000	4.953225
363.000000	4.946628
362.000000	4.992195
361.000000	4.940539
360.000000	4.885840
359.000000	4.916183
358.000000	4.994123
357.000000	4.937495
356.000000	4.954950
355.000000	4.881374
354.000000	4.931507
353.000000	4.926129
352.000000	5.074295
351.000000	4.978291
350.000000	4.923389
349.000000	4.942975
348.000000	5.033905
347.000000	4.996559
346.000000	4.960024
345.000000	5.008534
344.000000	4.959720
343.000000	4.832764
342.000000	4.845753
341.000000	4.883303
340.000000	5.041008
339.000000	4.870414
338.000000	4.881476
337.000000	5.052172
336.000000	4.982858
335.000000	5.011477
334.000000	5.060798
333.000000	4.942062
332.000000	5.108292
331.000000	4.875488
330.000000	4.905122
329.000000	4.926738
328.000000	4.941047
327.000000	5.135490
326.000000	5.009751
325.000000	5.260721
324.000000	5.005083
323.000000	5.000110
322.000000	4.878939
321.000000	4.866152
320.000000	5.351143
319.000000	5.384430
318.000000	5.123616
317.000000	4.906035
316.000000	4.864224
315.000000	4.890609
314.000000	4.958807
313.000000	4.950891
312.000000	4.957386
311.000000	4.845145
310.000000	4.884926
309.000000	4.874372
308.000000	4.943077
307.000000	4.943685
306.000000	4.919634
305.000000	4.979205
304.000000	4.943584
303.000000	4.928869
302.000000	4.969259
301.000000	5.016855
300.000000	4.982148
299.000000	4.979306
298.000000	5.017464
297.000000	5.009751
296.000000	4.983264
295.000000	4.989252
294.000000	5.009548
293.000000	5.021828
292.000000	5.014217
291.000000	4.959821
290.000000	5.039994
289.000000	5.093273
288.000000	5.089518
287.000000	5.113164
286.000000	5.163905
285.000000	5.142492
284.000000	5.097535
283.000000	5.114077
282.000000	5.136099
281.000000	5.146247
280.000000	5.215459
279.000000	5.227840
278.000000	5.258082
277.000000	5.150408
276.000000	5.226115
275.000000	5.251182
274.000000	5.266404
273.000000	5.282743
272.000000	5.306896
271.000000	5.307201
270.000000	5.293399
269.000000	5.302837
268.000000	5.371541
267.000000	5.335210
266.000000	5.370222
265.000000	5.341299
264.000000	5.366366
263.000000	5.391838
262.000000	5.466733
261.000000	5.493627
260.000000	5.495250
259.000000	5.526710
258.000000	5.533713
257.000000	5.561824
256.000000	5.559997
255.000000	5.554821
254.000000	5.590848
253.000000	5.590138
252.000000	5.589021
251.000000	5.591254
250.000000	5.565477
