PE UV       SUBTECH     SPECTRUM    ASCII       PEDS        4.00        
   -1
CICIMAUCR0013-1.Sample.ASC
24/04/04
13:29:52.00
24/04/04
13:29:52.00
Vinicio Soto Monge
C. resplendens
250,000000
1
Lambda 1050
1050L1511233
PerkinElmer UV WinLab 6.3.2.0749 / 2.02.05 Lambda 900 UV/VIS/NIR, Aug  7 2015 09:38:08

0
0
3350/servo 860,8/2
0
0
UV/VIS
1
1
1
DoubleDePol,CommonBeamDepol,RBeamAtt,SBeamAtt,60mm sphere, WB InGaAs Detector
0
0
0
0
Program
Program
3350/servo 860,8/2
3350/0,2 860,8/0,2
3350/0,2 860,8/0,2
0
15.00
 
 
 
0
 
860,8
319,2
860,8
Front
100
on
S:100 R:100
0
0
0
0
 
0
 
 
 
0
 
 
0
0
0
0
0
 
 
 
 
0
0


0
0
#HDR
-1
-1
#GR
nm
%R
1.0
0.0
2500,000000
-1,000000
2251
8
69,170400
4,972700
#DATA
2500.000000	6.444400
2499.000000	6.347300
2498.000000	6.327100
2497.000000	6.328500
2496.000000	6.352700
2495.000000	6.311300
2494.000000	6.372500
2493.000000	6.327700
2492.000000	6.229700
2491.000000	6.264900
2490.000000	6.306900
2489.000000	6.247300
2488.000000	6.294100
2487.000000	6.251700
2486.000000	6.236900
2485.000000	6.314800
2484.000000	6.243700
2483.000000	6.280700
2482.000000	6.263800
2481.000000	6.249300
2480.000000	6.301900
2479.000000	6.266800
2478.000000	6.302800
2477.000000	6.242700
2476.000000	6.261400
2475.000000	6.303100
2474.000000	6.285900
2473.000000	6.321000
2472.000000	6.300200
2471.000000	6.337600
2470.000000	6.317800
2469.000000	6.298000
2468.000000	6.323700
2467.000000	6.345700
2466.000000	6.334500
2465.000000	6.382300
2464.000000	6.401400
2463.000000	6.427500
2462.000000	6.442300
2461.000000	6.461300
2460.000000	6.489500
2459.000000	6.558300
2458.000000	6.618500
2457.000000	6.659800
2456.000000	6.671400
2455.000000	6.729400
2454.000000	6.758000
2453.000000	6.807300
2452.000000	6.879400
2451.000000	6.961500
2450.000000	6.999600
2449.000000	7.079300
2448.000000	7.126100
2447.000000	7.203600
2446.000000	7.245600
2445.000000	7.318200
2444.000000	7.382900
2443.000000	7.441200
2442.000000	7.496200
2441.000000	7.562500
2440.000000	7.631500
2439.000000	7.657700
2438.000000	7.735200
2437.000000	7.763500
2436.000000	7.823300
2435.000000	7.871100
2434.000000	7.931900
2433.000000	7.983900
2432.000000	8.024100
2431.000000	8.076300
2430.000000	8.127200
2429.000000	8.163400
2428.000000	8.197500
2427.000000	8.232200
2426.000000	8.265700
2425.000000	8.300300
2424.000000	8.350000
2423.000000	8.372000
2422.000000	8.402700
2421.000000	8.429500
2420.000000	8.480500
2419.000000	8.515000
2418.000000	8.538600
2417.000000	8.568200
2416.000000	8.593800
2415.000000	8.613700
2414.000000	8.634000
2413.000000	8.665300
2412.000000	8.704900
2411.000000	8.719300
2410.000000	8.738600
2409.000000	8.765200
2408.000000	8.781500
2407.000000	8.813700
2406.000000	8.825000
2405.000000	8.843900
2404.000000	8.890300
2403.000000	8.901800
2402.000000	8.927200
2401.000000	8.960300
2400.000000	8.956900
2399.000000	8.997900
2398.000000	9.036700
2397.000000	9.064300
2396.000000	9.104000
2395.000000	9.110800
2394.000000	9.122300
2393.000000	9.159000
2392.000000	9.187200
2391.000000	9.200500
2390.000000	9.208600
2389.000000	9.213800
2388.000000	9.227700
2387.000000	9.241400
2386.000000	9.243600
2385.000000	9.247600
2384.000000	9.261200
2383.000000	9.267600
2382.000000	9.248700
2381.000000	9.243000
2380.000000	9.236800
2379.000000	9.226300
2378.000000	9.219900
2377.000000	9.209500
2376.000000	9.197700
2375.000000	9.177600
2374.000000	9.143900
2373.000000	9.131100
2372.000000	9.111900
2371.000000	9.085900
2370.000000	9.065500
2369.000000	9.020100
2368.000000	8.975700
2367.000000	8.946300
2366.000000	8.897300
2365.000000	8.846100
2364.000000	8.793400
2363.000000	8.744400
2362.000000	8.691400
2361.000000	8.618500
2360.000000	8.554000
2359.000000	8.512100
2358.000000	8.479700
2357.000000	8.437500
2356.000000	8.393500
2355.000000	8.363200
2354.000000	8.339800
2353.000000	8.318800
2352.000000	8.310800
2351.000000	8.308200
2350.000000	8.328500
2349.000000	8.366000
2348.000000	8.377000
2347.000000	8.395900
2346.000000	8.434200
2345.000000	8.474700
2344.000000	8.518200
2343.000000	8.548600
2342.000000	8.574000
2341.000000	8.592300
2340.000000	8.608200
2339.000000	8.617100
2338.000000	8.622200
2337.000000	8.630800
2336.000000	8.630600
2335.000000	8.614300
2334.000000	8.587000
2333.000000	8.556400
2332.000000	8.511900
2331.000000	8.471900
2330.000000	8.428100
2329.000000	8.376000
2328.000000	8.319000
2327.000000	8.259700
2326.000000	8.212800
2325.000000	8.124800
2324.000000	8.026100
2323.000000	7.949800
2322.000000	7.891400
2321.000000	7.789700
2320.000000	7.705200
2319.000000	7.612600
2318.000000	7.522600
2317.000000	7.415700
2316.000000	7.331700
2315.000000	7.234300
2314.000000	7.131300
2313.000000	7.052400
2312.000000	6.975100
2311.000000	6.888700
2310.000000	6.822500
2309.000000	6.781300
2308.000000	6.745000
2307.000000	6.711900
2306.000000	6.694700
2305.000000	6.699500
2304.000000	6.726600
2303.000000	6.754400
2302.000000	6.777100
2301.000000	6.812400
2300.000000	6.856300
2299.000000	6.926700
2298.000000	6.978800
2297.000000	7.014800
2296.000000	7.062900
2295.000000	7.118300
2294.000000	7.159300
2293.000000	7.173300
2292.000000	7.178700
2291.000000	7.199700
2290.000000	7.194000
2289.000000	7.187600
2288.000000	7.176900
2287.000000	7.138500
2286.000000	7.097200
2285.000000	7.056700
2284.000000	7.019400
2283.000000	6.944300
2282.000000	6.901600
2281.000000	6.854600
2280.000000	6.800000
2279.000000	6.738300
2278.000000	6.671900
2277.000000	6.605300
2276.000000	6.565900
2275.000000	6.534000
2274.000000	6.499100
2273.000000	6.453400
2272.000000	6.414000
2271.000000	6.390900
2270.000000	6.396500
2269.000000	6.395200
2268.000000	6.400300
2267.000000	6.427200
2266.000000	6.464200
2265.000000	6.503400
2264.000000	6.569600
2263.000000	6.647600
2262.000000	6.734000
2261.000000	6.818200
2260.000000	6.941900
2259.000000	7.031400
2258.000000	7.156900
2257.000000	7.272500
2256.000000	7.410900
2255.000000	7.542600
2254.000000	7.664200
2253.000000	7.783200
2252.000000	7.885000
2251.000000	8.015700
2250.000000	8.086100
2249.000000	8.226000
2248.000000	8.301000
2247.000000	8.394200
2246.000000	8.447000
2245.000000	8.534500
2244.000000	8.592100
2243.000000	8.647700
2242.000000	8.738800
2241.000000	8.777200
2240.000000	8.832400
2239.000000	8.880500
2238.000000	8.913100
2237.000000	8.942900
2236.000000	8.990000
2235.000000	9.020200
2234.000000	9.047500
2233.000000	9.043200
2232.000000	9.061700
2231.000000	9.052700
2230.000000	9.053000
2229.000000	9.017600
2228.000000	9.011800
2227.000000	8.983000
2226.000000	8.951200
2225.000000	8.917700
2224.000000	8.881200
2223.000000	8.852000
2222.000000	8.775900
2221.000000	8.737400
2220.000000	8.671200
2219.000000	8.627600
2218.000000	8.567400
2217.000000	8.519300
2216.000000	8.469200
2215.000000	8.417000
2214.000000	8.372200
2213.000000	8.337200
2212.000000	8.337200
2211.000000	8.298000
2210.000000	8.304400
2209.000000	8.335500
2208.000000	8.368600
2207.000000	8.409100
2206.000000	8.473700
2205.000000	8.534700
2204.000000	8.632300
2203.000000	8.710800
2202.000000	8.854000
2201.000000	8.954800
2200.000000	9.093100
2199.000000	9.209300
2198.000000	9.359200
2197.000000	9.489700
2196.000000	9.629200
2195.000000	9.761500
2194.000000	9.885400
2193.000000	10.009900
2192.000000	10.113000
2191.000000	10.200700
2190.000000	10.325600
2189.000000	10.413900
2188.000000	10.495400
2187.000000	10.560400
2186.000000	10.625500
2185.000000	10.696400
2184.000000	10.724200
2183.000000	10.781100
2182.000000	10.806700
2181.000000	10.833700
2180.000000	10.870800
2179.000000	10.913500
2178.000000	10.931700
2177.000000	10.973400
2176.000000	11.004700
2175.000000	11.043200
2174.000000	11.059200
2173.000000	11.099100
2172.000000	11.126000
2171.000000	11.158300
2170.000000	11.185900
2169.000000	11.216500
2168.000000	11.235100
2167.000000	11.268600
2166.000000	11.317000
2165.000000	11.343700
2164.000000	11.374600
2163.000000	11.395200
2162.000000	11.422000
2161.000000	11.470800
2160.000000	11.511900
2159.000000	11.549200
2158.000000	11.595400
2157.000000	11.643000
2156.000000	11.686700
2155.000000	11.735100
2154.000000	11.763900
2153.000000	11.816900
2152.000000	11.862200
2151.000000	11.918500
2150.000000	11.956600
2149.000000	12.003600
2148.000000	12.054200
2147.000000	12.081900
2146.000000	12.125300
2145.000000	12.178600
2144.000000	12.218400
2143.000000	12.273500
2142.000000	12.317500
2141.000000	12.336000
2140.000000	12.363900
2139.000000	12.396600
2138.000000	12.416600
2137.000000	12.454000
2136.000000	12.485600
2135.000000	12.515900
2134.000000	12.556300
2133.000000	12.570500
2132.000000	12.566900
2131.000000	12.580400
2130.000000	12.618700
2129.000000	12.636700
2128.000000	12.645900
2127.000000	12.660100
2126.000000	12.658800
2125.000000	12.657900
2124.000000	12.661300
2123.000000	12.661700
2122.000000	12.654200
2121.000000	12.647700
2120.000000	12.623700
2119.000000	12.627500
2118.000000	12.637000
2117.000000	12.610000
2116.000000	12.591500
2115.000000	12.587000
2114.000000	12.576600
2113.000000	12.561200
2112.000000	12.548000
2111.000000	12.534400
2110.000000	12.519000
2109.000000	12.501700
2108.000000	12.484700
2107.000000	12.469000
2106.000000	12.453800
2105.000000	12.437800
2104.000000	12.430100
2103.000000	12.418900
2102.000000	12.395100
2101.000000	12.381800
2100.000000	12.369200
2099.000000	12.335900
2098.000000	12.310300
2097.000000	12.304600
2096.000000	12.305500
2095.000000	12.302100
2094.000000	12.280900
2093.000000	12.259700
2092.000000	12.249000
2091.000000	12.241400
2090.000000	12.236400
2089.000000	12.225800
2088.000000	12.222500
2087.000000	12.212400
2086.000000	12.200200
2085.000000	12.192800
2084.000000	12.176200
2083.000000	12.160000
2082.000000	12.154500
2081.000000	12.139600
2080.000000	12.138300
2079.000000	12.119500
2078.000000	12.100300
2077.000000	12.094300
2076.000000	12.071900
2075.000000	12.056200
2074.000000	12.030900
2073.000000	12.016800
2072.000000	11.997900
2071.000000	11.985400
2070.000000	11.972100
2069.000000	11.949200
2068.000000	11.929400
2067.000000	11.921500
2066.000000	11.916000
2065.000000	11.895700
2064.000000	11.886400
2063.000000	11.875200
2062.000000	11.854700
2061.000000	11.864200
2060.000000	11.857300
2059.000000	11.848600
2058.000000	11.868000
2057.000000	11.882400
2056.000000	11.898500
2055.000000	11.916200
2054.000000	11.963600
2053.000000	12.001800
2052.000000	12.050600
2051.000000	12.122500
2050.000000	12.188500
2049.000000	12.251200
2048.000000	12.326500
2047.000000	12.409200
2046.000000	12.519500
2045.000000	12.605400
2044.000000	12.701600
2043.000000	12.813600
2042.000000	12.911400
2041.000000	13.023200
2040.000000	13.125500
2039.000000	13.246700
2038.000000	13.358300
2037.000000	13.439700
2036.000000	13.519000
2035.000000	13.631500
2034.000000	13.727100
2033.000000	13.823100
2032.000000	13.906800
2031.000000	13.986100
2030.000000	14.057500
2029.000000	14.122200
2028.000000	14.205600
2027.000000	14.279500
2026.000000	14.352000
2025.000000	14.430600
2024.000000	14.469600
2023.000000	14.544700
2022.000000	14.621200
2021.000000	14.676600
2020.000000	14.732700
2019.000000	14.795400
2018.000000	14.848800
2017.000000	14.907500
2016.000000	14.957400
2015.000000	14.988800
2014.000000	15.021000
2013.000000	15.063200
2012.000000	15.128600
2011.000000	15.155400
2010.000000	15.182900
2009.000000	15.197400
2008.000000	15.240200
2007.000000	15.227700
2006.000000	15.259500
2005.000000	15.279800
2004.000000	15.281300
2003.000000	15.277400
2002.000000	15.262200
2001.000000	15.267100
2000.000000	15.273200
1999.000000	15.272600
1998.000000	15.249600
1997.000000	15.252900
1996.000000	15.222700
1995.000000	15.214100
1994.000000	15.185300
1993.000000	15.154600
1992.000000	15.121200
1991.000000	15.089500
1990.000000	15.055100
1989.000000	15.022300
1988.000000	14.984500
1987.000000	14.939400
1986.000000	14.910100
1985.000000	14.865600
1984.000000	14.803500
1983.000000	14.763100
1982.000000	14.725700
1981.000000	14.680600
1980.000000	14.619100
1979.000000	14.588700
1978.000000	14.536600
1977.000000	14.469900
1976.000000	14.443300
1975.000000	14.386200
1974.000000	14.351000
1973.000000	14.306900
1972.000000	14.253300
1971.000000	14.231200
1970.000000	14.161100
1969.000000	14.139000
1968.000000	14.091100
1967.000000	14.054200
1966.000000	14.025900
1965.000000	13.995900
1964.000000	13.966600
1963.000000	13.930400
1962.000000	13.874900
1961.000000	13.838400
1960.000000	13.811500
1959.000000	13.781000
1958.000000	13.737000
1957.000000	13.697500
1956.000000	13.650700
1955.000000	13.629300
1954.000000	13.603400
1953.000000	13.566400
1952.000000	13.528100
1951.000000	13.512900
1950.000000	13.461400
1949.000000	13.442900
1948.000000	13.418000
1947.000000	13.401200
1946.000000	13.382500
1945.000000	13.372700
1944.000000	13.346600
1943.000000	13.357700
1942.000000	13.340800
1941.000000	13.352700
1940.000000	13.400200
1939.000000	13.418700
1938.000000	13.424600
1937.000000	13.445200
1936.000000	13.491800
1935.000000	13.522500
1934.000000	13.554500
1933.000000	13.625200
1932.000000	13.682200
1931.000000	13.746800
1930.000000	13.817100
1929.000000	13.900600
1928.000000	13.976500
1927.000000	14.071600
1926.000000	14.162800
1925.000000	14.263600
1924.000000	14.365600
1923.000000	14.493600
1922.000000	14.603100
1921.000000	14.743600
1920.000000	14.882100
1919.000000	15.003300
1918.000000	15.151700
1917.000000	15.278700
1916.000000	15.419100
1915.000000	15.568000
1914.000000	15.755700
1913.000000	15.934500
1912.000000	16.115600
1911.000000	16.273000
1910.000000	16.429500
1909.000000	16.601200
1908.000000	16.771400
1907.000000	16.962000
1906.000000	17.168300
1905.000000	17.369700
1904.000000	17.568100
1903.000000	17.750500
1902.000000	17.931700
1901.000000	18.118200
1900.000000	18.318700
1899.000000	18.503500
1898.000000	18.706400
1897.000000	18.913200
1896.000000	19.088300
1895.000000	19.263000
1894.000000	19.439100
1893.000000	19.625000
1892.000000	19.799800
1891.000000	20.005800
1890.000000	20.200000
1889.000000	20.362500
1888.000000	20.557000
1887.000000	20.765700
1886.000000	21.009800
1885.000000	21.274600
1884.000000	21.574300
1883.000000	21.895800
1882.000000	22.239200
1881.000000	22.568000
1880.000000	22.905600
1879.000000	23.227100
1878.000000	23.553100
1877.000000	23.851000
1876.000000	24.132800
1875.000000	24.393100
1874.000000	24.607200
1873.000000	24.806600
1872.000000	24.988700
1871.000000	25.142700
1870.000000	25.240600
1869.000000	25.339700
1868.000000	25.419100
1867.000000	25.451000
1866.000000	25.468600
1865.000000	25.475100
1864.000000	25.502600
1863.000000	25.524100
1862.000000	25.533000
1861.000000	25.528400
1860.000000	25.531700
1859.000000	25.498400
1858.000000	25.450500
1857.000000	25.400100
1856.000000	25.339800
1855.000000	25.279500
1854.000000	25.203100
1853.000000	25.098700
1852.000000	25.012700
1851.000000	24.958900
1850.000000	24.911200
1849.000000	24.854200
1848.000000	24.752400
1847.000000	24.635500
1846.000000	24.531700
1845.000000	24.443200
1844.000000	24.393400
1843.000000	24.380600
1842.000000	24.358200
1841.000000	24.310900
1840.000000	24.236900
1839.000000	24.188000
1838.000000	24.151500
1837.000000	24.084500
1836.000000	24.008100
1835.000000	23.913700
1834.000000	23.818100
1833.000000	23.756400
1832.000000	23.683400
1831.000000	23.603600
1830.000000	23.533400
1829.000000	23.430600
1828.000000	23.339000
1827.000000	23.278400
1826.000000	23.194300
1825.000000	23.118400
1824.000000	23.088500
1823.000000	23.091800
1822.000000	23.114200
1821.000000	23.101600
1820.000000	23.031900
1819.000000	22.991500
1818.000000	22.986000
1817.000000	22.979900
1816.000000	22.986900
1815.000000	22.989400
1814.000000	22.994500
1813.000000	22.997600
1812.000000	22.987300
1811.000000	22.964000
1810.000000	22.928100
1809.000000	22.905900
1808.000000	22.886000
1807.000000	22.876200
1806.000000	22.836300
1805.000000	22.782400
1804.000000	22.733800
1803.000000	22.706300
1802.000000	22.681500
1801.000000	22.641300
1800.000000	22.601100
1799.000000	22.563000
1798.000000	22.537100
1797.000000	22.512500
1796.000000	22.479300
1795.000000	22.439000
1794.000000	22.411900
1793.000000	22.378700
1792.000000	22.331400
1791.000000	22.284300
1790.000000	22.246700
1789.000000	22.184000
1788.000000	22.146100
1787.000000	22.096200
1786.000000	22.026000
1785.000000	21.959400
1784.000000	21.897000
1783.000000	21.841900
1782.000000	21.768800
1781.000000	21.688300
1780.000000	21.611500
1779.000000	21.550900
1778.000000	21.469700
1777.000000	21.387100
1776.000000	21.274700
1775.000000	21.163300
1774.000000	21.043800
1773.000000	20.925400
1772.000000	20.808600
1771.000000	20.669200
1770.000000	20.546200
1769.000000	20.444400
1768.000000	20.339800
1767.000000	20.241800
1766.000000	20.154800
1765.000000	20.091500
1764.000000	20.038000
1763.000000	20.023600
1762.000000	20.032400
1761.000000	20.066200
1760.000000	20.123200
1759.000000	20.182500
1758.000000	20.251900
1757.000000	20.293700
1756.000000	20.335800
1755.000000	20.375200
1754.000000	20.374900
1753.000000	20.361000
1752.000000	20.331800
1751.000000	20.294600
1750.000000	20.226200
1749.000000	20.164700
1748.000000	20.093800
1747.000000	19.993300
1746.000000	19.874100
1745.000000	19.741400
1744.000000	19.567900
1743.000000	19.384700
1742.000000	19.199700
1741.000000	18.985900
1740.000000	18.772100
1739.000000	18.545800
1738.000000	18.355700
1737.000000	18.181700
1736.000000	18.050700
1735.000000	17.965300
1734.000000	17.924700
1733.000000	17.916900
1732.000000	17.942900
1731.000000	18.000800
1730.000000	18.080000
1729.000000	18.170300
1728.000000	18.281400
1727.000000	18.371900
1726.000000	18.438500
1725.000000	18.502800
1724.000000	18.535300
1723.000000	18.550300
1722.000000	18.544600
1721.000000	18.525400
1720.000000	18.518800
1719.000000	18.536100
1718.000000	18.528500
1717.000000	18.540300
1716.000000	18.562800
1715.000000	18.608100
1714.000000	18.634200
1713.000000	18.680400
1712.000000	18.701100
1711.000000	18.716900
1710.000000	18.730300
1709.000000	18.715800
1708.000000	18.678200
1707.000000	18.656200
1706.000000	18.626700
1705.000000	18.573200
1704.000000	18.547400
1703.000000	18.447800
1702.000000	18.349800
1701.000000	18.227300
1700.000000	18.092300
1699.000000	17.948500
1698.000000	17.816600
1697.000000	17.698600
1696.000000	17.639600
1695.000000	17.623500
1694.000000	17.663100
1693.000000	17.787800
1692.000000	17.924500
1691.000000	18.072100
1690.000000	18.217500
1689.000000	18.306000
1688.000000	18.374900
1687.000000	18.374800
1686.000000	18.377400
1685.000000	18.388000
1684.000000	18.461100
1683.000000	18.652400
1682.000000	18.924400
1681.000000	19.315400
1680.000000	19.785900
1679.000000	20.328000
1678.000000	20.818900
1677.000000	21.314700
1676.000000	21.739800
1675.000000	22.115800
1674.000000	22.459300
1673.000000	22.754700
1672.000000	22.995900
1671.000000	23.233100
1670.000000	23.427600
1669.000000	23.581900
1668.000000	23.732300
1667.000000	23.839900
1666.000000	23.946900
1665.000000	24.044500
1664.000000	24.119900
1663.000000	24.213400
1662.000000	24.282300
1661.000000	24.347700
1660.000000	24.401200
1659.000000	24.421100
1658.000000	24.457600
1657.000000	24.477200
1656.000000	24.508700
1655.000000	24.513600
1654.000000	24.519300
1653.000000	24.530900
1652.000000	24.513700
1651.000000	24.507100
1650.000000	24.472300
1649.000000	24.460500
1648.000000	24.448500
1647.000000	24.408800
1646.000000	24.380100
1645.000000	24.334800
1644.000000	24.276100
1643.000000	24.234800
1642.000000	24.189300
1641.000000	24.157100
1640.000000	24.103200
1639.000000	24.040400
1638.000000	23.984600
1637.000000	23.922400
1636.000000	23.861200
1635.000000	23.815700
1634.000000	23.754000
1633.000000	23.689500
1632.000000	23.622700
1631.000000	23.557000
1630.000000	23.490600
1629.000000	23.405300
1628.000000	23.332700
1627.000000	23.253200
1626.000000	23.171500
1625.000000	23.075100
1624.000000	23.003600
1623.000000	22.940500
1622.000000	22.873000
1621.000000	22.784800
1620.000000	22.709400
1619.000000	22.634200
1618.000000	22.553200
1617.000000	22.461700
1616.000000	22.393400
1615.000000	22.324400
1614.000000	22.256200
1613.000000	22.174000
1612.000000	22.106800
1611.000000	22.030200
1610.000000	21.948000
1609.000000	21.892800
1608.000000	21.825300
1607.000000	21.742100
1606.000000	21.672400
1605.000000	21.588100
1604.000000	21.525300
1603.000000	21.461600
1602.000000	21.383000
1601.000000	21.308900
1600.000000	21.248400
1599.000000	21.180100
1598.000000	21.123900
1597.000000	21.060200
1596.000000	20.992700
1595.000000	20.930900
1594.000000	20.877400
1593.000000	20.827400
1592.000000	20.778300
1591.000000	20.738100
1590.000000	20.683900
1589.000000	20.645500
1588.000000	20.622300
1587.000000	20.582800
1586.000000	20.545500
1585.000000	20.507200
1584.000000	20.481000
1583.000000	20.458200
1582.000000	20.436800
1581.000000	20.413100
1580.000000	20.386400
1579.000000	20.379600
1578.000000	20.380400
1577.000000	20.388400
1576.000000	20.387100
1575.000000	20.385100
1574.000000	20.399100
1573.000000	20.407900
1572.000000	20.417900
1571.000000	20.447900
1570.000000	20.463100
1569.000000	20.488900
1568.000000	20.525000
1567.000000	20.539500
1566.000000	20.573500
1565.000000	20.619800
1564.000000	20.649400
1563.000000	20.666000
1562.000000	20.693000
1561.000000	20.740100
1560.000000	20.782100
1559.000000	20.813000
1558.000000	20.836100
1557.000000	20.852100
1556.000000	20.878800
1555.000000	20.898300
1554.000000	20.910500
1553.000000	20.928700
1552.000000	20.935700
1551.000000	20.945100
1550.000000	20.962300
1549.000000	20.963500
1548.000000	20.969600
1547.000000	20.982200
1546.000000	20.990500
1545.000000	21.010700
1544.000000	21.016000
1543.000000	21.039800
1542.000000	21.056900
1541.000000	21.066500
1540.000000	21.089400
1539.000000	21.119500
1538.000000	21.138200
1537.000000	21.157900
1536.000000	21.160100
1535.000000	21.169100
1534.000000	21.184000
1533.000000	21.201300
1532.000000	21.210600
1531.000000	21.220200
1530.000000	21.219700
1529.000000	21.220000
1528.000000	21.222200
1527.000000	21.225400
1526.000000	21.221400
1525.000000	21.226000
1524.000000	21.209400
1523.000000	21.196400
1522.000000	21.208500
1521.000000	21.200900
1520.000000	21.194100
1519.000000	21.178500
1518.000000	21.182400
1517.000000	21.163600
1516.000000	21.144900
1515.000000	21.141400
1514.000000	21.120000
1513.000000	21.114900
1512.000000	21.104200
1511.000000	21.083700
1510.000000	21.059400
1509.000000	21.044600
1508.000000	21.025400
1507.000000	20.997300
1506.000000	20.980000
1505.000000	20.958800
1504.000000	20.931800
1503.000000	20.908800
1502.000000	20.902800
1501.000000	20.900500
1500.000000	20.879400
1499.000000	20.874500
1498.000000	20.867200
1497.000000	20.851100
1496.000000	20.840000
1495.000000	20.835900
1494.000000	20.828200
1493.000000	20.842200
1492.000000	20.835400
1491.000000	20.845300
1490.000000	20.852300
1489.000000	20.855600
1488.000000	20.854200
1487.000000	20.888300
1486.000000	20.887000
1485.000000	20.882000
1484.000000	20.903100
1483.000000	20.921000
1482.000000	20.938700
1481.000000	20.963900
1480.000000	20.995200
1479.000000	21.003900
1478.000000	21.058700
1477.000000	21.090900
1476.000000	21.113800
1475.000000	21.141700
1474.000000	21.197600
1473.000000	21.241300
1472.000000	21.283400
1471.000000	21.332300
1470.000000	21.356200
1469.000000	21.377900
1468.000000	21.421000
1467.000000	21.490700
1466.000000	21.528300
1465.000000	21.571000
1464.000000	21.619400
1463.000000	21.676700
1462.000000	21.771500
1461.000000	21.835900
1460.000000	21.887800
1459.000000	21.978500
1458.000000	22.083400
1457.000000	22.180600
1456.000000	22.300100
1455.000000	22.378200
1454.000000	22.504300
1453.000000	22.611900
1452.000000	22.730900
1451.000000	22.841700
1450.000000	22.926700
1449.000000	23.032400
1448.000000	23.151500
1447.000000	23.298800
1446.000000	23.445900
1445.000000	23.562500
1444.000000	23.679300
1443.000000	23.788700
1442.000000	23.953900
1441.000000	24.071300
1440.000000	24.201300
1439.000000	24.304900
1438.000000	24.444600
1437.000000	24.548900
1436.000000	24.680600
1435.000000	24.768800
1434.000000	24.896200
1433.000000	25.020100
1432.000000	25.130000
1431.000000	25.242000
1430.000000	25.356300
1429.000000	25.505400
1428.000000	25.664500
1427.000000	25.816200
1426.000000	25.962600
1425.000000	26.174700
1424.000000	26.349000
1423.000000	26.511700
1422.000000	26.661600
1421.000000	26.854100
1420.000000	27.060200
1419.000000	27.233600
1418.000000	27.362400
1417.000000	27.460200
1416.000000	27.622600
1415.000000	27.794300
1414.000000	27.931500
1413.000000	28.012400
1412.000000	28.087600
1411.000000	28.225400
1410.000000	28.381200
1409.000000	28.611800
1408.000000	28.803300
1407.000000	29.058800
1406.000000	29.258500
1405.000000	29.534500
1404.000000	29.782300
1403.000000	30.002700
1402.000000	30.229500
1401.000000	30.501100
1400.000000	30.673600
1399.000000	30.760800
1398.000000	30.797400
1397.000000	30.906500
1396.000000	30.940700
1395.000000	30.916000
1394.000000	30.823900
1393.000000	30.759400
1392.000000	30.736800
1391.000000	30.649100
1390.000000	30.661600
1389.000000	30.696300
1388.000000	30.773100
1387.000000	30.814500
1386.000000	30.942700
1385.000000	31.129900
1384.000000	31.424800
1383.000000	31.656200
1382.000000	31.951400
1381.000000	32.180100
1380.000000	32.366200
1379.000000	32.630300
1378.000000	32.888600
1377.000000	33.217300
1376.000000	33.608000
1375.000000	34.061700
1374.000000	34.615100
1373.000000	35.202500
1372.000000	35.804800
1371.000000	36.375100
1370.000000	36.844400
1369.000000	37.270500
1368.000000	37.669600
1367.000000	37.990800
1366.000000	38.262500
1365.000000	38.518700
1364.000000	38.731200
1363.000000	38.936700
1362.000000	39.134400
1361.000000	39.239600
1360.000000	39.304300
1359.000000	39.378900
1358.000000	39.491900
1357.000000	39.688600
1356.000000	40.006800
1355.000000	40.464800
1354.000000	41.056900
1353.000000	41.664600
1352.000000	42.303600
1351.000000	42.930000
1350.000000	43.511900
1349.000000	44.033400
1348.000000	44.506800
1347.000000	44.957400
1346.000000	45.342700
1345.000000	45.725900
1344.000000	46.126500
1343.000000	46.471100
1342.000000	46.787000
1341.000000	47.098900
1340.000000	47.409100
1339.000000	47.684600
1338.000000	47.943600
1337.000000	48.197900
1336.000000	48.441600
1335.000000	48.671500
1334.000000	48.889200
1333.000000	49.092600
1332.000000	49.283500
1331.000000	49.463100
1330.000000	49.638700
1329.000000	49.804000
1328.000000	49.944300
1327.000000	50.068500
1326.000000	50.195900
1325.000000	50.315000
1324.000000	50.432800
1323.000000	50.546100
1322.000000	50.636600
1321.000000	50.722500
1320.000000	50.816800
1319.000000	50.898300
1318.000000	50.980800
1317.000000	51.056500
1316.000000	51.119300
1315.000000	51.185200
1314.000000	51.247600
1313.000000	51.296700
1312.000000	51.342300
1311.000000	51.391200
1310.000000	51.430700
1309.000000	51.462000
1308.000000	51.487700
1307.000000	51.512100
1306.000000	51.526000
1305.000000	51.530600
1304.000000	51.530800
1303.000000	51.541800
1302.000000	51.536300
1301.000000	51.512900
1300.000000	51.497300
1299.000000	51.488200
1298.000000	51.464200
1297.000000	51.444000
1296.000000	51.430700
1295.000000	51.397500
1294.000000	51.357300
1293.000000	51.325200
1292.000000	51.297000
1291.000000	51.267100
1290.000000	51.218400
1289.000000	51.160200
1288.000000	51.110400
1287.000000	51.040100
1286.000000	50.964600
1285.000000	50.889500
1284.000000	50.815700
1283.000000	50.742400
1282.000000	50.673300
1281.000000	50.601400
1280.000000	50.520700
1279.000000	50.442800
1278.000000	50.375000
1277.000000	50.319300
1276.000000	50.257500
1275.000000	50.195800
1274.000000	50.143000
1273.000000	50.102600
1272.000000	50.062400
1271.000000	50.002800
1270.000000	49.956200
1269.000000	49.902100
1268.000000	49.850000
1267.000000	49.796600
1266.000000	49.740200
1265.000000	49.689900
1264.000000	49.631000
1263.000000	49.576900
1262.000000	49.518500
1261.000000	49.463600
1260.000000	49.409100
1259.000000	49.347700
1258.000000	49.287300
1257.000000	49.224800
1256.000000	49.122500
1255.000000	49.044200
1254.000000	48.973100
1253.000000	48.875600
1252.000000	48.800000
1251.000000	48.698400
1250.000000	48.588200
1249.000000	48.485800
1248.000000	48.350900
1247.000000	48.234300
1246.000000	48.095300
1245.000000	47.976800
1244.000000	47.831700
1243.000000	47.659200
1242.000000	47.513900
1241.000000	47.353300
1240.000000	47.184300
1239.000000	47.028900
1238.000000	46.845700
1237.000000	46.660700
1236.000000	46.479100
1235.000000	46.313900
1234.000000	46.125200
1233.000000	45.932000
1232.000000	45.751800
1231.000000	45.557900
1230.000000	45.348800
1229.000000	45.150600
1228.000000	44.955100
1227.000000	44.732700
1226.000000	44.554900
1225.000000	44.363800
1224.000000	44.165000
1223.000000	43.965500
1222.000000	43.794500
1221.000000	43.614800
1220.000000	43.450300
1219.000000	43.302500
1218.000000	43.156300
1217.000000	43.009500
1216.000000	42.877900
1215.000000	42.759000
1214.000000	42.642700
1213.000000	42.537600
1212.000000	42.412100
1211.000000	42.339500
1210.000000	42.250000
1209.000000	42.155100
1208.000000	42.082600
1207.000000	42.041500
1206.000000	41.997600
1205.000000	41.993000
1204.000000	41.994400
1203.000000	41.992700
1202.000000	41.969300
1201.000000	41.948700
1200.000000	41.931500
1199.000000	41.856100
1198.000000	41.755000
1197.000000	41.594500
1196.000000	41.407700
1195.000000	41.140000
1194.000000	40.813400
1193.000000	40.383100
1192.000000	39.903600
1191.000000	39.392300
1190.000000	38.891100
1189.000000	38.452600
1188.000000	38.117000
1187.000000	37.921000
1186.000000	37.881700
1185.000000	37.944200
1184.000000	38.163900
1183.000000	38.520100
1182.000000	38.987900
1181.000000	39.523600
1180.000000	40.063100
1179.000000	40.578100
1178.000000	41.048000
1177.000000	41.433700
1176.000000	41.768400
1175.000000	42.068200
1174.000000	42.379100
1173.000000	42.740700
1172.000000	43.079700
1171.000000	43.440700
1170.000000	43.821300
1169.000000	44.192200
1168.000000	44.582300
1167.000000	44.963800
1166.000000	45.336300
1165.000000	45.762400
1164.000000	46.201600
1163.000000	46.597400
1162.000000	47.015300
1161.000000	47.396200
1160.000000	47.788400
1159.000000	48.167000
1158.000000	48.536400
1157.000000	48.835300
1156.000000	49.119200
1155.000000	49.335700
1154.000000	49.475300
1153.000000	49.552200
1152.000000	49.575900
1151.000000	49.569600
1150.000000	49.539800
1149.000000	49.530200
1148.000000	49.504800
1147.000000	49.538600
1146.000000	49.639600
1145.000000	49.834000
1144.000000	50.106200
1143.000000	50.425700
1142.000000	50.789000
1141.000000	51.178900
1140.000000	51.554400
1139.000000	51.935100
1138.000000	52.364000
1137.000000	52.752900
1136.000000	53.164000
1135.000000	53.573700
1134.000000	53.954400
1133.000000	54.235200
1132.000000	54.533600
1131.000000	54.846500
1130.000000	55.074500
1129.000000	55.283600
1128.000000	55.449400
1127.000000	55.604600
1126.000000	55.712400
1125.000000	55.786200
1124.000000	55.862500
1123.000000	55.929100
1122.000000	55.991700
1121.000000	56.032500
1120.000000	56.078400
1119.000000	56.101500
1118.000000	56.113700
1117.000000	56.111900
1116.000000	56.112100
1115.000000	56.094000
1114.000000	56.083500
1113.000000	56.084300
1112.000000	56.058900
1111.000000	56.058900
1110.000000	56.038800
1109.000000	56.044400
1108.000000	56.028100
1107.000000	56.012600
1106.000000	56.009800
1105.000000	55.998900
1104.000000	55.969200
1103.000000	55.961800
1102.000000	55.961900
1101.000000	55.935300
1100.000000	55.904200
1099.000000	55.864900
1098.000000	55.847000
1097.000000	55.810200
1096.000000	55.779900
1095.000000	55.753700
1094.000000	55.699900
1093.000000	55.652900
1092.000000	55.628200
1091.000000	55.579700
1090.000000	55.524400
1089.000000	55.472200
1088.000000	55.423200
1087.000000	55.363100
1086.000000	55.298800
1085.000000	55.231300
1084.000000	55.194200
1083.000000	55.140100
1082.000000	55.085900
1081.000000	55.015300
1080.000000	54.953300
1079.000000	54.913200
1078.000000	54.868700
1077.000000	54.815200
1076.000000	54.775700
1075.000000	54.738200
1074.000000	54.688300
1073.000000	54.639000
1072.000000	54.603400
1071.000000	54.542600
1070.000000	54.498400
1069.000000	54.461100
1068.000000	54.417100
1067.000000	54.375400
1066.000000	54.332900
1065.000000	54.288000
1064.000000	54.241500
1063.000000	54.191000
1062.000000	54.145900
1061.000000	54.107200
1060.000000	54.065200
1059.000000	54.010300
1058.000000	53.964800
1057.000000	53.909300
1056.000000	53.855400
1055.000000	53.798900
1054.000000	53.748500
1053.000000	53.689600
1052.000000	53.633000
1051.000000	53.592100
1050.000000	53.544700
1049.000000	53.503100
1048.000000	53.459900
1047.000000	53.416600
1046.000000	53.369000
1045.000000	53.333600
1044.000000	53.303600
1043.000000	53.269900
1042.000000	53.227000
1041.000000	53.175200
1040.000000	53.143900
1039.000000	53.118800
1038.000000	53.078100
1037.000000	53.024500
1036.000000	52.978900
1035.000000	52.941600
1034.000000	52.898000
1033.000000	52.852800
1032.000000	52.801100
1031.000000	52.754500
1030.000000	52.708300
1029.000000	52.667200
1028.000000	52.617400
1027.000000	52.573600
1026.000000	52.544400
1025.000000	52.495000
1024.000000	52.443600
1023.000000	52.402500
1022.000000	52.361300
1021.000000	52.326300
1020.000000	52.301400
1019.000000	52.270800
1018.000000	52.234400
1017.000000	52.211000
1016.000000	52.195200
1015.000000	52.177000
1014.000000	52.171500
1013.000000	52.175200
1012.000000	52.172600
1011.000000	52.185300
1010.000000	52.214700
1009.000000	52.241800
1008.000000	52.266300
1007.000000	52.300800
1006.000000	52.335300
1005.000000	52.366100
1004.000000	52.399000
1003.000000	52.430100
1002.000000	52.458400
1001.000000	52.496500
1000.000000	52.540300
999.000000	52.576500
998.000000	52.614200
997.000000	52.663200
996.000000	52.711400
995.000000	52.778800
994.000000	52.835200
993.000000	52.907700
992.000000	52.979500
991.000000	53.048600
990.000000	53.122100
989.000000	53.210200
988.000000	53.298500
987.000000	53.380600
986.000000	53.482800
985.000000	53.579200
984.000000	53.662700
983.000000	53.757400
982.000000	53.853600
981.000000	53.946800
980.000000	54.028900
979.000000	54.122700
978.000000	54.217000
977.000000	54.275500
976.000000	54.335500
975.000000	54.405300
974.000000	54.469900
973.000000	54.503800
972.000000	54.547100
971.000000	54.591400
970.000000	54.627000
969.000000	54.633300
968.000000	54.642300
967.000000	54.630100
966.000000	54.647500
965.000000	54.659800
964.000000	54.666400
963.000000	54.666600
962.000000	54.689400
961.000000	54.721000
960.000000	54.759600
959.000000	54.787700
958.000000	54.829500
957.000000	54.873900
956.000000	54.916600
955.000000	54.964600
954.000000	55.030300
953.000000	55.069500
952.000000	55.114300
951.000000	55.174200
950.000000	55.237100
949.000000	55.291500
948.000000	55.334700
947.000000	55.392300
946.000000	55.440800
945.000000	55.514500
944.000000	55.573800
943.000000	55.644700
942.000000	55.698200
941.000000	55.768100
940.000000	55.823100
939.000000	55.879800
938.000000	55.937900
937.000000	56.024600
936.000000	56.116300
935.000000	56.158300
934.000000	56.231400
933.000000	56.277400
932.000000	56.327300
931.000000	56.380300
930.000000	56.392600
929.000000	56.434000
928.000000	56.458600
927.000000	56.465300
926.000000	56.497200
925.000000	56.539800
924.000000	56.540500
923.000000	56.585100
922.000000	56.597600
921.000000	56.641700
920.000000	56.668100
919.000000	56.706900
918.000000	56.770400
917.000000	56.774000
916.000000	56.825800
915.000000	56.847800
914.000000	56.905700
913.000000	56.943800
912.000000	57.008900
911.000000	57.049400
910.000000	57.112700
909.000000	57.199400
908.000000	57.265300
907.000000	57.348400
906.000000	57.461300
905.000000	57.553100
904.000000	57.653600
903.000000	57.767500
902.000000	57.879100
901.000000	57.991700
900.000000	58.110000
899.000000	58.224000
898.000000	58.345000
897.000000	58.439800
896.000000	58.538800
895.000000	58.651100
894.000000	58.735900
893.000000	58.853200
892.000000	58.920200
891.000000	59.025300
890.000000	59.106900
889.000000	59.185600
888.000000	59.244500
887.000000	59.359700
886.000000	59.430000
885.000000	59.508400
884.000000	59.586100
883.000000	59.682600
882.000000	59.758800
881.000000	59.829100
880.000000	59.920400
879.000000	60.008000
878.000000	60.096500
877.000000	60.176400
876.000000	60.268500
875.000000	60.328900
874.000000	60.418600
873.000000	60.529600
872.000000	60.626300
871.000000	60.706500
870.000000	60.813200
869.000000	60.911700
868.000000	61.009500
867.000000	61.117100
866.000000	61.216200
865.000000	61.307700
864.000000	61.386400
863.000000	61.463000
862.000000	61.546800
861.000000	61.583500
860.000000	61.586500
859.000000	61.644900
858.000000	60.767442
857.000000	60.386424
856.000000	60.053181
855.000000	60.066184
854.000000	59.979598
853.000000	60.442769
852.000000	60.524627
851.000000	60.763896
850.000000	61.155946
849.000000	61.328330
848.000000	61.411173
847.000000	61.530857
846.000000	61.653003
845.000000	62.107703
844.000000	62.172815
843.000000	62.503793
842.000000	62.672138
841.000000	62.618847
840.000000	62.886190
839.000000	63.366501
838.000000	63.497119
837.000000	63.457815
836.000000	63.950341
835.000000	64.062538
834.000000	64.321016
833.000000	64.532999
832.000000	64.530044
831.000000	64.769510
830.000000	65.113194
829.000000	65.225293
828.000000	65.559226
827.000000	65.534501
826.000000	65.711909
825.000000	66.046826
824.000000	66.291809
823.000000	66.464882
822.000000	66.749168
821.000000	66.897714
820.000000	66.980655
819.000000	67.216674
818.000000	67.387876
817.000000	67.643102
816.000000	67.743873
815.000000	67.830459
814.000000	67.957925
813.000000	68.033872
812.000000	68.080170
811.000000	68.014467
810.000000	68.069827
809.000000	68.136416
808.000000	68.087459
807.000000	68.091596
806.000000	68.011216
805.000000	67.850653
804.000000	67.661917
803.000000	67.544794
802.000000	67.509234
801.000000	67.259523
800.000000	67.070196
799.000000	66.978488
798.000000	66.865897
797.000000	66.798322
796.000000	66.749267
795.000000	66.694596
794.000000	66.611655
793.000000	66.552552
792.000000	66.604760
791.000000	66.686519
790.000000	66.687208
789.000000	66.641896
788.000000	66.714494
787.000000	66.880081
786.000000	66.852402
785.000000	66.868359
784.000000	66.940958
783.000000	67.088420
782.000000	67.145947
781.000000	67.250559
780.000000	67.310254
779.000000	67.351133
778.000000	67.414275
777.000000	67.416639
776.000000	67.310943
775.000000	67.345912
774.000000	67.252924
773.000000	67.162200
772.000000	67.059853
771.000000	66.930024
770.000000	66.805021
769.000000	66.719223
768.000000	66.630469
767.000000	66.480446
766.000000	66.278313
765.000000	66.109870
764.000000	65.967037
763.000000	65.906850
762.000000	65.826667
761.000000	65.740574
760.000000	65.637143
759.000000	65.528098
758.000000	65.475299
757.000000	65.464661
756.000000	65.465941
755.000000	65.416984
754.000000	65.327148
753.000000	65.277599
752.000000	65.248146
751.000000	65.164220
750.000000	65.105314
749.000000	65.036951
748.000000	64.962383
747.000000	64.851762
746.000000	64.694350
745.000000	64.566885
744.000000	64.395092
743.000000	64.217782
742.000000	64.006587
741.000000	63.724961
740.000000	63.508250
739.000000	63.298532
738.000000	63.047935
737.000000	62.762861
736.000000	62.431194
735.000000	62.090563
734.000000	61.713683
733.000000	61.332271
732.000000	60.923179
731.000000	60.520490
730.000000	60.158188
729.000000	59.747914
728.000000	59.309763
727.000000	58.896730
726.000000	58.506256
725.000000	58.113910
724.000000	57.735256
723.000000	57.301144
722.000000	56.852650
721.000000	56.490939
720.000000	56.163015
719.000000	55.772836
718.000000	55.444715
717.000000	55.144373
716.000000	54.895352
715.000000	54.645247
714.000000	54.404501
713.000000	54.210544
712.000000	54.012943
711.000000	53.889319
710.000000	53.831496
709.000000	53.791208
708.000000	53.805786
707.000000	53.888531
706.000000	53.941724
705.000000	54.066136
704.000000	54.278217
703.000000	54.457398
702.000000	54.605156
701.000000	54.810638
700.000000	55.064781
699.000000	55.286221
698.000000	55.530021
697.000000	55.738162
696.000000	55.933695
695.000000	56.112186
694.000000	56.283487
693.000000	56.457250
692.000000	56.603333
691.000000	56.808913
690.000000	56.940418
689.000000	57.044538
688.000000	57.119993
687.000000	57.140876
686.000000	57.157523
685.000000	57.217907
684.000000	57.198994
683.000000	57.132010
682.000000	57.063057
681.000000	56.920815
680.000000	56.771580
679.000000	56.627861
678.000000	56.440898
677.000000	56.250094
676.000000	55.988956
675.000000	55.821695
674.000000	55.593261
673.000000	55.366995
672.000000	55.121914
671.000000	54.892692
670.000000	54.660220
669.000000	54.398788
668.000000	54.149865
667.000000	53.872179
666.000000	53.646110
665.000000	53.400832
664.000000	53.110931
663.000000	52.775028
662.000000	52.452227
661.000000	52.113468
660.000000	51.697185
659.000000	51.263959
658.000000	50.808767
657.000000	50.323826
656.000000	49.831596
655.000000	49.311488
654.000000	48.787145
653.000000	48.248815
652.000000	47.652464
651.000000	47.062024
650.000000	46.520739
649.000000	45.989993
648.000000	45.458459
647.000000	44.934313
646.000000	44.440999
645.000000	44.002651
644.000000	43.561151
643.000000	43.175208
642.000000	42.885307
641.000000	42.605651
640.000000	42.406572
639.000000	42.276250
638.000000	42.199021
637.000000	42.242856
636.000000	42.284524
635.000000	42.497098
634.000000	42.771139
633.000000	43.120439
632.000000	43.563712
631.000000	44.102831
630.000000	44.715139
629.000000	45.310110
628.000000	45.969208
627.000000	46.691251
626.000000	47.373596
625.000000	48.109725
624.000000	48.808915
623.000000	49.531352
622.000000	50.203354
621.000000	50.910129
620.000000	51.536425
619.000000	52.157303
618.000000	52.768232
617.000000	53.366946
616.000000	53.943989
615.000000	54.531179
614.000000	55.159050
613.000000	55.720628
612.000000	56.323677
611.000000	56.916777
610.000000	57.564350
609.000000	58.133906
608.000000	58.611262
607.000000	59.188601
606.000000	59.631382
605.000000	60.079482
604.000000	60.540782
603.000000	60.912934
602.000000	61.250314
601.000000	61.571540
600.000000	61.889317
599.000000	62.161586
598.000000	62.478772
597.000000	62.796648
596.000000	63.122208
595.000000	63.466976
594.000000	63.776972
593.000000	64.150011
592.000000	64.511525
591.000000	64.849792
590.000000	65.168554
589.000000	65.529576
588.000000	65.774558
587.000000	66.082781
586.000000	66.306683
585.000000	66.555113
584.000000	66.790245
583.000000	66.953369
582.000000	67.090193
581.000000	67.213423
580.000000	67.335175
579.000000	67.434469
578.000000	67.495640
577.000000	67.556615
576.000000	67.609709
575.000000	67.688119
574.000000	67.725354
573.000000	67.727817
572.000000	67.719247
571.000000	67.721020
570.000000	67.693242
569.000000	67.680042
568.000000	67.645171
567.000000	67.637783
566.000000	67.557501
565.000000	67.465695
564.000000	67.404326
563.000000	67.364924
562.000000	67.248392
561.000000	67.116001
560.000000	67.017890
559.000000	66.970509
558.000000	66.857228
557.000000	66.708288
556.000000	66.536692
555.000000	66.360171
554.000000	66.144445
553.000000	65.941032
552.000000	65.725108
551.000000	65.416098
550.000000	65.149543
549.000000	64.875600
548.000000	64.557527
547.000000	64.237188
546.000000	63.927389
545.000000	63.542628
544.000000	63.152055
543.000000	62.742274
542.000000	62.292400
541.000000	61.834942
540.000000	61.356207
539.000000	60.846837
538.000000	60.303680
537.000000	59.732842
536.000000	59.119155
535.000000	58.522115
534.000000	57.839868
533.000000	57.110536
532.000000	56.331557
531.000000	55.528937
530.000000	54.718535
529.000000	53.824108
528.000000	52.893333
527.000000	51.908281
526.000000	50.891708
525.000000	49.847258
524.000000	48.798966
523.000000	47.730382
522.000000	46.653228
521.000000	45.550463
520.000000	44.477347
519.000000	43.422948
518.000000	42.367662
517.000000	41.335131
516.000000	40.336880
515.000000	39.374583
514.000000	38.406770
513.000000	37.472350
512.000000	36.582848
511.000000	35.716988
510.000000	34.885210
509.000000	34.119825
508.000000	33.373451
507.000000	32.660274
506.000000	31.992409
505.000000	31.320702
504.000000	30.705931
503.000000	30.095199
502.000000	29.510768
501.000000	28.959238
500.000000	28.437160
499.000000	27.925032
498.000000	27.459004
497.000000	27.002925
496.000000	26.557485
495.000000	26.146029
494.000000	25.765503
493.000000	25.410392
492.000000	25.040702
491.000000	24.737799
490.000000	24.453218
489.000000	24.199074
488.000000	23.986303
487.000000	23.818647
486.000000	23.683892
485.000000	23.568050
484.000000	23.454868
483.000000	23.376458
482.000000	23.321295
481.000000	23.242491
480.000000	23.159648
479.000000	23.098082
478.000000	23.006866
477.000000	22.920477
476.000000	22.806408
475.000000	22.691551
474.000000	22.543596
473.000000	22.373380
472.000000	22.173414
471.000000	21.952762
470.000000	21.717532
469.000000	21.430193
468.000000	21.141769
467.000000	20.830690
466.000000	20.503062
465.000000	20.166667
464.000000	19.806926
463.000000	19.444722
462.000000	19.100151
461.000000	18.748488
460.000000	18.400469
459.000000	18.065650
458.000000	17.758413
457.000000	17.468315
456.000000	17.202942
455.000000	16.975198
454.000000	16.765185
453.000000	16.599302
452.000000	16.482672
451.000000	16.400322
450.000000	16.360329
449.000000	16.353729
448.000000	16.375597
447.000000	16.408892
446.000000	16.482574
445.000000	16.585709
444.000000	16.693769
443.000000	16.805671
442.000000	16.905062
441.000000	17.019427
440.000000	17.133200
439.000000	17.235449
438.000000	17.335727
437.000000	17.431277
436.000000	17.501314
435.000000	17.578247
434.000000	17.635478
433.000000	17.650648
432.000000	17.675274
431.000000	17.685322
430.000000	17.679116
429.000000	17.658922
428.000000	17.627598
427.000000	17.586324
426.000000	17.524660
425.000000	17.454130
424.000000	17.352177
423.000000	17.255445
422.000000	17.146104
421.000000	17.026716
420.000000	16.900334
419.000000	16.749720
418.000000	16.605804
417.000000	16.444452
416.000000	16.269113
415.000000	16.091311
414.000000	15.883761
413.000000	15.683106
412.000000	15.475260
411.000000	15.252934
410.000000	15.032479
409.000000	14.806213
408.000000	14.572559
407.000000	14.305117
406.000000	14.046836
405.000000	13.789639
404.000000	13.488903
403.000000	13.192698
402.000000	12.896296
401.000000	12.605016
400.000000	12.289898
399.000000	11.985714
398.000000	11.668134
397.000000	11.360404
396.000000	11.057599
395.000000	10.748884
394.000000	10.450413
393.000000	10.146327
392.000000	9.831209
391.000000	9.536975
390.000000	9.247862
389.000000	8.988399
388.000000	8.726573
387.000000	8.467405
386.000000	8.206367
385.000000	7.984927
384.000000	7.753933
383.000000	7.549436
382.000000	7.371732
381.000000	7.179647
380.000000	6.988646
379.000000	6.841972
378.000000	6.697957
377.000000	6.565960
376.000000	6.546949
375.000000	6.251827
374.000000	6.176569
373.000000	6.129188
372.000000	6.086339
371.000000	5.968723
370.000000	5.936808
369.000000	5.895830
368.000000	5.802151
367.000000	5.739699
366.000000	5.661683
365.000000	5.586917
364.000000	5.585932
363.000000	5.583568
362.000000	5.555888
361.000000	5.531163
360.000000	5.545545
359.000000	5.542295
358.000000	5.415420
357.000000	5.429605
356.000000	5.351786
355.000000	5.235352
354.000000	5.202649
353.000000	5.251212
352.000000	5.201565
351.000000	5.128179
350.000000	5.154578
349.000000	5.183933
348.000000	5.191419
347.000000	5.068977
346.000000	5.176840
345.000000	5.151623
344.000000	5.039327
343.000000	5.023566
342.000000	5.092421
341.000000	4.996871
340.000000	5.083852
339.000000	5.127588
338.000000	5.038441
337.000000	5.021202
336.000000	5.144629
335.000000	5.075479
334.000000	4.931760
333.000000	5.156450
332.000000	5.157730
331.000000	5.188661
330.000000	5.098824
329.000000	5.197724
328.000000	5.182652
327.000000	5.244710
326.000000	5.208953
325.000000	4.947126
324.000000	5.113009
323.000000	4.993916
322.000000	5.198216
321.000000	4.987316
320.000000	5.076070
319.000000	5.059324
318.000000	4.968305
317.000000	5.088383
316.000000	4.932548
315.000000	4.937768
314.000000	4.914817
313.000000	4.941709
312.000000	4.951362
311.000000	4.898366
310.000000	4.959932
309.000000	4.979239
308.000000	4.902504
307.000000	4.938556
306.000000	5.025536
305.000000	4.973329
304.000000	4.955696
303.000000	4.989484
302.000000	4.960228
301.000000	5.028886
300.000000	5.040312
299.000000	4.954219
298.000000	4.992045
297.000000	5.021596
296.000000	4.947323
295.000000	5.051542
294.000000	4.979141
293.000000	5.005441
292.000000	5.028886
291.000000	4.984558
290.000000	5.006229
289.000000	5.019823
288.000000	5.025339
287.000000	5.032530
286.000000	5.019823
285.000000	5.011155
284.000000	5.005343
283.000000	5.043563
282.000000	5.059521
281.000000	5.073706
280.000000	5.146796
279.000000	5.067894
278.000000	5.125027
277.000000	5.137832
276.000000	5.107394
275.000000	5.064840
274.000000	5.099809
273.000000	5.088777
272.000000	5.122466
271.000000	5.133794
270.000000	5.131824
269.000000	5.165611
268.000000	5.189351
267.000000	5.105030
266.000000	5.147387
265.000000	5.205013
264.000000	5.252295
263.000000	5.236338
262.000000	5.260767
261.000000	5.285787
260.000000	5.255349
259.000000	5.351096
258.000000	5.320953
257.000000	5.394241
256.000000	5.327258
255.000000	5.326174
254.000000	5.378382
253.000000	5.349914
252.000000	5.355036
251.000000	5.396605
250.000000	5.379367
