PE UV       SUBTECH     SPECTRUM    ASCII       PEDS        4.00        
   -1
CICIMAUCR0001-3.Sample.ASC
24/04/04
15:45:00.00
24/04/04
15:45:00.00
Vinicio Soto Monge
C. kalinini
250,000000
1
Lambda 1050
1050L1511233
PerkinElmer UV WinLab 6.3.2.0749 / 2.02.05 Lambda 900 UV/VIS/NIR, Aug  7 2015 09:38:08

0
0
3350/servo 860,8/2
0
0
UV/VIS
1
1
1
DoubleDePol,CommonBeamDepol,RBeamAtt,SBeamAtt,60mm sphere, WB InGaAs Detector
0
0
0
0
Program
Program
3350/servo 860,8/2
3350/0,2 860,8/0,2
3350/0,2 860,8/0,2
0
15.00
 
 
 
0
 
860,8
319,2
860,8
Front
100
on
S:100 R:100
0
0
0
0
 
0
 
 
 
0
 
 
0
0
0
0
0
 
 
 
 
0
0


0
0
#HDR
-1
-1
#GR
nm
%R
1.0
0.0
2500,000000
-1,000000
2251
8
73,921900
4,917300
#DATA
2500.000000	8.556100
2499.000000	8.439000
2498.000000	8.475100
2497.000000	8.537000
2496.000000	8.504700
2495.000000	8.571800
2494.000000	8.477300
2493.000000	8.566700
2492.000000	8.593700
2491.000000	8.574200
2490.000000	8.582600
2489.000000	8.608700
2488.000000	8.526600
2487.000000	8.626500
2486.000000	8.643000
2485.000000	8.616500
2484.000000	8.626300
2483.000000	8.688000
2482.000000	8.694200
2481.000000	8.698100
2480.000000	8.769300
2479.000000	8.747000
2478.000000	8.814900
2477.000000	8.774700
2476.000000	8.861300
2475.000000	8.869600
2474.000000	8.907400
2473.000000	8.923300
2472.000000	8.986400
2471.000000	9.000300
2470.000000	8.996500
2469.000000	9.087800
2468.000000	9.057600
2467.000000	9.170300
2466.000000	9.197500
2465.000000	9.191500
2464.000000	9.266800
2463.000000	9.317100
2462.000000	9.363400
2461.000000	9.409200
2460.000000	9.459100
2459.000000	9.478800
2458.000000	9.560700
2457.000000	9.624900
2456.000000	9.650500
2455.000000	9.721900
2454.000000	9.812400
2453.000000	9.866000
2452.000000	9.939100
2451.000000	9.981500
2450.000000	10.057000
2449.000000	10.128800
2448.000000	10.201100
2447.000000	10.271900
2446.000000	10.338100
2445.000000	10.432300
2444.000000	10.496700
2443.000000	10.565200
2442.000000	10.666400
2441.000000	10.731500
2440.000000	10.796000
2439.000000	10.883900
2438.000000	10.951900
2437.000000	11.045000
2436.000000	11.113600
2435.000000	11.192800
2434.000000	11.273900
2433.000000	11.350300
2432.000000	11.420300
2431.000000	11.498500
2430.000000	11.566900
2429.000000	11.652600
2428.000000	11.724700
2427.000000	11.791600
2426.000000	11.856400
2425.000000	11.924000
2424.000000	11.996400
2423.000000	12.067200
2422.000000	12.118600
2421.000000	12.182500
2420.000000	12.255900
2419.000000	12.318600
2418.000000	12.396200
2417.000000	12.451700
2416.000000	12.502200
2415.000000	12.561000
2414.000000	12.611600
2413.000000	12.676000
2412.000000	12.710500
2411.000000	12.752300
2410.000000	12.804200
2409.000000	12.856800
2408.000000	12.902100
2407.000000	12.943100
2406.000000	12.952600
2405.000000	12.992100
2404.000000	13.048500
2403.000000	13.091500
2402.000000	13.110400
2401.000000	13.139700
2400.000000	13.169700
2399.000000	13.191000
2398.000000	13.212300
2397.000000	13.245000
2396.000000	13.266700
2395.000000	13.291200
2394.000000	13.310000
2393.000000	13.335000
2392.000000	13.358900
2391.000000	13.372500
2390.000000	13.381800
2389.000000	13.397600
2388.000000	13.415300
2387.000000	13.426900
2386.000000	13.427300
2385.000000	13.421000
2384.000000	13.430500
2383.000000	13.435300
2382.000000	13.440900
2381.000000	13.450500
2380.000000	13.430900
2379.000000	13.418800
2378.000000	13.413200
2377.000000	13.413900
2376.000000	13.403300
2375.000000	13.395500
2374.000000	13.382300
2373.000000	13.369800
2372.000000	13.373600
2371.000000	13.366200
2370.000000	13.357500
2369.000000	13.361500
2368.000000	13.365100
2367.000000	13.345000
2366.000000	13.328100
2365.000000	13.337000
2364.000000	13.337400
2363.000000	13.325900
2362.000000	13.325700
2361.000000	13.315700
2360.000000	13.307500
2359.000000	13.306800
2358.000000	13.301800
2357.000000	13.290400
2356.000000	13.280800
2355.000000	13.269800
2354.000000	13.248600
2353.000000	13.236800
2352.000000	13.236300
2351.000000	13.230300
2350.000000	13.210900
2349.000000	13.197700
2348.000000	13.175500
2347.000000	13.150700
2346.000000	13.150400
2345.000000	13.136700
2344.000000	13.129000
2343.000000	13.120600
2342.000000	13.108500
2341.000000	13.108600
2340.000000	13.097300
2339.000000	13.085200
2338.000000	13.071400
2337.000000	13.067100
2336.000000	13.059200
2335.000000	13.060700
2334.000000	13.060700
2333.000000	13.052900
2332.000000	13.051100
2331.000000	13.056300
2330.000000	13.075200
2329.000000	13.077500
2328.000000	13.081600
2327.000000	13.092900
2326.000000	13.100900
2325.000000	13.107600
2324.000000	13.110900
2323.000000	13.109900
2322.000000	13.113500
2321.000000	13.114400
2320.000000	13.104000
2319.000000	13.101000
2318.000000	13.090200
2317.000000	13.070200
2316.000000	13.051100
2315.000000	13.027200
2314.000000	13.015500
2313.000000	12.974100
2312.000000	12.944300
2311.000000	12.900700
2310.000000	12.852500
2309.000000	12.827700
2308.000000	12.791300
2307.000000	12.754500
2306.000000	12.718600
2305.000000	12.686000
2304.000000	12.646000
2303.000000	12.614700
2302.000000	12.576000
2301.000000	12.539800
2300.000000	12.507800
2299.000000	12.475600
2298.000000	12.442000
2297.000000	12.433600
2296.000000	12.413800
2295.000000	12.415000
2294.000000	12.385000
2293.000000	12.360600
2292.000000	12.347400
2291.000000	12.316100
2290.000000	12.320200
2289.000000	12.298300
2288.000000	12.303900
2287.000000	12.283300
2286.000000	12.275100
2285.000000	12.278900
2284.000000	12.264900
2283.000000	12.255800
2282.000000	12.232000
2281.000000	12.216700
2280.000000	12.213700
2279.000000	12.191700
2278.000000	12.178500
2277.000000	12.161100
2276.000000	12.134900
2275.000000	12.120700
2274.000000	12.089700
2273.000000	12.062500
2272.000000	12.046300
2271.000000	12.020000
2270.000000	11.987600
2269.000000	11.963100
2268.000000	11.967900
2267.000000	11.939100
2266.000000	11.926800
2265.000000	11.907800
2264.000000	11.898800
2263.000000	11.891300
2262.000000	11.909500
2261.000000	11.932900
2260.000000	11.951200
2259.000000	11.975800
2258.000000	11.985500
2257.000000	12.057100
2256.000000	12.090500
2255.000000	12.139300
2254.000000	12.192600
2253.000000	12.235000
2252.000000	12.299500
2251.000000	12.355900
2250.000000	12.426600
2249.000000	12.470400
2248.000000	12.534900
2247.000000	12.580800
2246.000000	12.637100
2245.000000	12.676300
2244.000000	12.731200
2243.000000	12.777700
2242.000000	12.819200
2241.000000	12.844500
2240.000000	12.884100
2239.000000	12.881100
2238.000000	12.899000
2237.000000	12.925300
2236.000000	12.923300
2235.000000	12.908300
2234.000000	12.891800
2233.000000	12.877900
2232.000000	12.836000
2231.000000	12.803800
2230.000000	12.728300
2229.000000	12.692400
2228.000000	12.623800
2227.000000	12.574100
2226.000000	12.459100
2225.000000	12.389600
2224.000000	12.308500
2223.000000	12.206700
2222.000000	12.107400
2221.000000	11.988700
2220.000000	11.886300
2219.000000	11.765300
2218.000000	11.664400
2217.000000	11.575300
2216.000000	11.462300
2215.000000	11.398200
2214.000000	11.294300
2213.000000	11.218000
2212.000000	11.192900
2211.000000	11.155100
2210.000000	11.131000
2209.000000	11.116800
2208.000000	11.132500
2207.000000	11.163300
2206.000000	11.242400
2205.000000	11.317500
2204.000000	11.435600
2203.000000	11.550100
2202.000000	11.650500
2201.000000	11.808000
2200.000000	11.953600
2199.000000	12.110700
2198.000000	12.281700
2197.000000	12.436700
2196.000000	12.606700
2195.000000	12.771500
2194.000000	12.906200
2193.000000	13.076900
2192.000000	13.206300
2191.000000	13.352600
2190.000000	13.460100
2189.000000	13.568100
2188.000000	13.653200
2187.000000	13.756600
2186.000000	13.832500
2185.000000	13.887400
2184.000000	13.964300
2183.000000	13.996100
2182.000000	14.041400
2181.000000	14.089700
2180.000000	14.125300
2179.000000	14.150200
2178.000000	14.195800
2177.000000	14.209300
2176.000000	14.249300
2175.000000	14.275300
2174.000000	14.307900
2173.000000	14.321500
2172.000000	14.363600
2171.000000	14.398800
2170.000000	14.415000
2169.000000	14.453800
2168.000000	14.483600
2167.000000	14.534300
2166.000000	14.560300
2165.000000	14.601000
2164.000000	14.639600
2163.000000	14.685400
2162.000000	14.734500
2161.000000	14.791200
2160.000000	14.831100
2159.000000	14.921700
2158.000000	14.989100
2157.000000	15.036800
2156.000000	15.104900
2155.000000	15.199900
2154.000000	15.271200
2153.000000	15.355900
2152.000000	15.437900
2151.000000	15.524900
2150.000000	15.619100
2149.000000	15.704400
2148.000000	15.805300
2147.000000	15.910000
2146.000000	15.992400
2145.000000	16.065100
2144.000000	16.162700
2143.000000	16.270200
2142.000000	16.358800
2141.000000	16.419000
2140.000000	16.495900
2139.000000	16.596500
2138.000000	16.682700
2137.000000	16.755900
2136.000000	16.839900
2135.000000	16.922700
2134.000000	16.986500
2133.000000	17.063100
2132.000000	17.131800
2131.000000	17.191300
2130.000000	17.250700
2129.000000	17.295800
2128.000000	17.336800
2127.000000	17.396700
2126.000000	17.445700
2125.000000	17.483700
2124.000000	17.524800
2123.000000	17.566300
2122.000000	17.601700
2121.000000	17.643100
2120.000000	17.670600
2119.000000	17.704000
2118.000000	17.731700
2117.000000	17.745800
2116.000000	17.766700
2115.000000	17.796200
2114.000000	17.808600
2113.000000	17.821800
2112.000000	17.840300
2111.000000	17.857000
2110.000000	17.869500
2109.000000	17.863800
2108.000000	17.858900
2107.000000	17.871900
2106.000000	17.891800
2105.000000	17.902300
2104.000000	17.905700
2103.000000	17.909400
2102.000000	17.914000
2101.000000	17.911000
2100.000000	17.911200
2099.000000	17.915800
2098.000000	17.914500
2097.000000	17.918000
2096.000000	17.933700
2095.000000	17.949400
2094.000000	17.954000
2093.000000	17.956100
2092.000000	17.962700
2091.000000	17.968700
2090.000000	17.974500
2089.000000	17.995900
2088.000000	18.002700
2087.000000	17.988800
2086.000000	17.969500
2085.000000	17.960800
2084.000000	17.967600
2083.000000	17.961800
2082.000000	17.941000
2081.000000	17.905800
2080.000000	17.869500
2079.000000	17.832500
2078.000000	17.796100
2077.000000	17.733300
2076.000000	17.682700
2075.000000	17.643900
2074.000000	17.578100
2073.000000	17.501600
2072.000000	17.414200
2071.000000	17.345100
2070.000000	17.264800
2069.000000	17.184500
2068.000000	17.104500
2067.000000	17.015400
2066.000000	16.934600
2065.000000	16.855200
2064.000000	16.768500
2063.000000	16.675300
2062.000000	16.589800
2061.000000	16.515100
2060.000000	16.449800
2059.000000	16.404300
2058.000000	16.343800
2057.000000	16.284100
2056.000000	16.258000
2055.000000	16.229900
2054.000000	16.220800
2053.000000	16.216500
2052.000000	16.239300
2051.000000	16.269200
2050.000000	16.313400
2049.000000	16.358100
2048.000000	16.427300
2047.000000	16.493000
2046.000000	16.580500
2045.000000	16.665500
2044.000000	16.756400
2043.000000	16.847200
2042.000000	16.946500
2041.000000	17.029300
2040.000000	17.116300
2039.000000	17.209300
2038.000000	17.295300
2037.000000	17.368900
2036.000000	17.444200
2035.000000	17.529300
2034.000000	17.583200
2033.000000	17.630500
2032.000000	17.696500
2031.000000	17.756300
2030.000000	17.810700
2029.000000	17.852900
2028.000000	17.893600
2027.000000	17.917300
2026.000000	17.953200
2025.000000	17.991000
2024.000000	18.024500
2023.000000	18.041100
2022.000000	18.054300
2021.000000	18.063400
2020.000000	18.075200
2019.000000	18.080900
2018.000000	18.088700
2017.000000	18.093000
2016.000000	18.077200
2015.000000	18.083900
2014.000000	18.045600
2013.000000	18.051900
2012.000000	18.021900
2011.000000	17.979200
2010.000000	17.954200
2009.000000	17.940800
2008.000000	17.888100
2007.000000	17.856500
2006.000000	17.805800
2005.000000	17.755100
2004.000000	17.692800
2003.000000	17.629100
2002.000000	17.558600
2001.000000	17.494300
2000.000000	17.441300
1999.000000	17.353600
1998.000000	17.285800
1997.000000	17.225100
1996.000000	17.146000
1995.000000	17.050300
1994.000000	16.974200
1993.000000	16.895600
1992.000000	16.803300
1991.000000	16.725800
1990.000000	16.618300
1989.000000	16.550800
1988.000000	16.444700
1987.000000	16.347200
1986.000000	16.268300
1985.000000	16.187800
1984.000000	16.074700
1983.000000	15.993900
1982.000000	15.902000
1981.000000	15.810000
1980.000000	15.733100
1979.000000	15.647500
1978.000000	15.563800
1977.000000	15.466700
1976.000000	15.375700
1975.000000	15.323800
1974.000000	15.222500
1973.000000	15.135100
1972.000000	15.062800
1971.000000	14.984100
1970.000000	14.915800
1969.000000	14.836600
1968.000000	14.764400
1967.000000	14.692600
1966.000000	14.614800
1965.000000	14.549300
1964.000000	14.477100
1963.000000	14.387400
1962.000000	14.351400
1961.000000	14.253100
1960.000000	14.192400
1959.000000	14.123600
1958.000000	14.068600
1957.000000	13.987600
1956.000000	13.912200
1955.000000	13.847200
1954.000000	13.783700
1953.000000	13.713400
1952.000000	13.661000
1951.000000	13.599700
1950.000000	13.538100
1949.000000	13.496100
1948.000000	13.432300
1947.000000	13.392500
1946.000000	13.348300
1945.000000	13.319300
1944.000000	13.267600
1943.000000	13.221900
1942.000000	13.212300
1941.000000	13.205800
1940.000000	13.199100
1939.000000	13.167900
1938.000000	13.177600
1937.000000	13.155600
1936.000000	13.148400
1935.000000	13.158600
1934.000000	13.199900
1933.000000	13.219400
1932.000000	13.242500
1931.000000	13.293300
1930.000000	13.339300
1929.000000	13.398700
1928.000000	13.454100
1927.000000	13.512100
1926.000000	13.590700
1925.000000	13.687400
1924.000000	13.787200
1923.000000	13.888600
1922.000000	14.019200
1921.000000	14.136100
1920.000000	14.265000
1919.000000	14.392700
1918.000000	14.551000
1917.000000	14.705800
1916.000000	14.860100
1915.000000	15.029800
1914.000000	15.237800
1913.000000	15.475800
1912.000000	15.706900
1911.000000	15.934600
1910.000000	16.173900
1909.000000	16.412900
1908.000000	16.667100
1907.000000	16.966600
1906.000000	17.309000
1905.000000	17.672600
1904.000000	18.037100
1903.000000	18.391000
1902.000000	18.770800
1901.000000	19.161700
1900.000000	19.624900
1899.000000	20.102000
1898.000000	20.552600
1897.000000	21.044300
1896.000000	21.483800
1895.000000	21.924500
1894.000000	22.424200
1893.000000	22.924400
1892.000000	23.457900
1891.000000	24.047700
1890.000000	24.565500
1889.000000	25.055000
1888.000000	25.603900
1887.000000	26.087800
1886.000000	26.562700
1885.000000	27.067600
1884.000000	27.576500
1883.000000	28.018600
1882.000000	28.436600
1881.000000	28.852200
1880.000000	29.254200
1879.000000	29.640200
1878.000000	30.022300
1877.000000	30.373200
1876.000000	30.720200
1875.000000	31.039900
1874.000000	31.344600
1873.000000	31.654100
1872.000000	31.920800
1871.000000	32.148900
1870.000000	32.329200
1869.000000	32.493300
1868.000000	32.670400
1867.000000	32.822100
1866.000000	32.930000
1865.000000	33.054900
1864.000000	33.200300
1863.000000	33.335400
1862.000000	33.469100
1861.000000	33.609100
1860.000000	33.707300
1859.000000	33.784800
1858.000000	33.856000
1857.000000	33.923500
1856.000000	33.988000
1855.000000	34.049300
1854.000000	34.095000
1853.000000	34.093400
1852.000000	34.108500
1851.000000	34.177200
1850.000000	34.270400
1849.000000	34.334300
1848.000000	34.312600
1847.000000	34.257900
1846.000000	34.176500
1845.000000	34.139200
1844.000000	34.191900
1843.000000	34.239900
1842.000000	34.270900
1841.000000	34.239800
1840.000000	34.184600
1839.000000	34.144500
1838.000000	34.111900
1837.000000	34.064000
1836.000000	33.986800
1835.000000	33.916500
1834.000000	33.865800
1833.000000	33.850700
1832.000000	33.831000
1831.000000	33.816300
1830.000000	33.781300
1829.000000	33.731000
1828.000000	33.688300
1827.000000	33.655600
1826.000000	33.624000
1825.000000	33.573800
1824.000000	33.554200
1823.000000	33.612600
1822.000000	33.654900
1821.000000	33.633400
1820.000000	33.588800
1819.000000	33.539900
1818.000000	33.516100
1817.000000	33.517800
1816.000000	33.533400
1815.000000	33.517800
1814.000000	33.491600
1813.000000	33.490000
1812.000000	33.474900
1811.000000	33.434500
1810.000000	33.392100
1809.000000	33.360500
1808.000000	33.347200
1807.000000	33.344300
1806.000000	33.318900
1805.000000	33.291500
1804.000000	33.265100
1803.000000	33.256200
1802.000000	33.247600
1801.000000	33.230400
1800.000000	33.202600
1799.000000	33.164400
1798.000000	33.131100
1797.000000	33.124800
1796.000000	33.124100
1795.000000	33.098300
1794.000000	33.084700
1793.000000	33.070900
1792.000000	33.045800
1791.000000	33.039900
1790.000000	33.040000
1789.000000	33.045900
1788.000000	33.038600
1787.000000	33.043300
1786.000000	33.067800
1785.000000	33.057100
1784.000000	33.064300
1783.000000	33.065300
1782.000000	33.059600
1781.000000	33.064700
1780.000000	33.045600
1779.000000	33.043300
1778.000000	33.025000
1777.000000	32.987400
1776.000000	32.964200
1775.000000	32.944400
1774.000000	32.902900
1773.000000	32.885800
1772.000000	32.862600
1771.000000	32.825100
1770.000000	32.810400
1769.000000	32.772000
1768.000000	32.740700
1767.000000	32.708700
1766.000000	32.688000
1765.000000	32.646700
1764.000000	32.631100
1763.000000	32.631300
1762.000000	32.609200
1761.000000	32.593700
1760.000000	32.588900
1759.000000	32.575700
1758.000000	32.571100
1757.000000	32.561200
1756.000000	32.550500
1755.000000	32.552100
1754.000000	32.535100
1753.000000	32.544100
1752.000000	32.534300
1751.000000	32.516000
1750.000000	32.484000
1749.000000	32.466100
1748.000000	32.429000
1747.000000	32.375900
1746.000000	32.323900
1745.000000	32.258200
1744.000000	32.190400
1743.000000	32.146200
1742.000000	32.081100
1741.000000	32.020400
1740.000000	31.931300
1739.000000	31.875900
1738.000000	31.810300
1737.000000	31.750900
1736.000000	31.713400
1735.000000	31.659200
1734.000000	31.623600
1733.000000	31.573200
1732.000000	31.542000
1731.000000	31.494800
1730.000000	31.443200
1729.000000	31.420300
1728.000000	31.378000
1727.000000	31.342100
1726.000000	31.318300
1725.000000	31.298900
1724.000000	31.292700
1723.000000	31.297300
1722.000000	31.350600
1721.000000	31.435700
1720.000000	31.559000
1719.000000	31.725500
1718.000000	31.881500
1717.000000	32.058700
1716.000000	32.214200
1715.000000	32.404100
1714.000000	32.578600
1713.000000	32.728500
1712.000000	32.852100
1711.000000	32.978900
1710.000000	33.089300
1709.000000	33.191900
1708.000000	33.307300
1707.000000	33.333300
1706.000000	33.426500
1705.000000	33.453500
1704.000000	33.485300
1703.000000	33.501600
1702.000000	33.524500
1701.000000	33.512700
1700.000000	33.521900
1699.000000	33.529500
1698.000000	33.520200
1697.000000	33.513600
1696.000000	33.476200
1695.000000	33.453100
1694.000000	33.408300
1693.000000	33.357000
1692.000000	33.292400
1691.000000	33.210000
1690.000000	33.172300
1689.000000	33.137700
1688.000000	33.147500
1687.000000	33.202700
1686.000000	33.302400
1685.000000	33.417600
1684.000000	33.571200
1683.000000	33.757200
1682.000000	33.953700
1681.000000	34.140500
1680.000000	34.346600
1679.000000	34.553900
1678.000000	34.732600
1677.000000	34.898100
1676.000000	35.071400
1675.000000	35.232600
1674.000000	35.398000
1673.000000	35.558500
1672.000000	35.724700
1671.000000	35.891300
1670.000000	36.056900
1669.000000	36.226300
1668.000000	36.386300
1667.000000	36.544700
1666.000000	36.674000
1665.000000	36.804600
1664.000000	36.939000
1663.000000	37.072700
1662.000000	37.197500
1661.000000	37.292400
1660.000000	37.419400
1659.000000	37.490700
1658.000000	37.594200
1657.000000	37.660300
1656.000000	37.728900
1655.000000	37.772400
1654.000000	37.821600
1653.000000	37.841400
1652.000000	37.878000
1651.000000	37.915200
1650.000000	37.923800
1649.000000	37.922300
1648.000000	37.919800
1647.000000	37.903100
1646.000000	37.911300
1645.000000	37.890000
1644.000000	37.877900
1643.000000	37.874200
1642.000000	37.858500
1641.000000	37.839400
1640.000000	37.821700
1639.000000	37.815800
1638.000000	37.795300
1637.000000	37.771000
1636.000000	37.749600
1635.000000	37.724000
1634.000000	37.682600
1633.000000	37.655900
1632.000000	37.620300
1631.000000	37.572800
1630.000000	37.534200
1629.000000	37.498500
1628.000000	37.442800
1627.000000	37.390000
1626.000000	37.340300
1625.000000	37.294300
1624.000000	37.249900
1623.000000	37.203400
1622.000000	37.159600
1621.000000	37.114100
1620.000000	37.056300
1619.000000	37.019400
1618.000000	36.968600
1617.000000	36.924700
1616.000000	36.891100
1615.000000	36.851300
1614.000000	36.792100
1613.000000	36.733200
1612.000000	36.671700
1611.000000	36.616000
1610.000000	36.558200
1609.000000	36.491800
1608.000000	36.417900
1607.000000	36.357300
1606.000000	36.277800
1605.000000	36.200500
1604.000000	36.132000
1603.000000	36.051900
1602.000000	35.968600
1601.000000	35.887400
1600.000000	35.810600
1599.000000	35.728100
1598.000000	35.658300
1597.000000	35.580200
1596.000000	35.506300
1595.000000	35.440300
1594.000000	35.368400
1593.000000	35.308700
1592.000000	35.251300
1591.000000	35.196400
1590.000000	35.133800
1589.000000	35.081400
1588.000000	35.033500
1587.000000	34.976600
1586.000000	34.929100
1585.000000	34.873100
1584.000000	34.837000
1583.000000	34.794800
1582.000000	34.745800
1581.000000	34.698200
1580.000000	34.640800
1579.000000	34.616600
1578.000000	34.595800
1577.000000	34.566400
1576.000000	34.550300
1575.000000	34.525700
1574.000000	34.510600
1573.000000	34.503900
1572.000000	34.485800
1571.000000	34.473400
1570.000000	34.477800
1569.000000	34.488100
1568.000000	34.499300
1567.000000	34.504200
1566.000000	34.518300
1565.000000	34.526400
1564.000000	34.527800
1563.000000	34.533300
1562.000000	34.529900
1561.000000	34.523200
1560.000000	34.505500
1559.000000	34.477500
1558.000000	34.434700
1557.000000	34.403400
1556.000000	34.365900
1555.000000	34.308300
1554.000000	34.257900
1553.000000	34.205100
1552.000000	34.137300
1551.000000	34.078000
1550.000000	34.003600
1549.000000	33.926500
1548.000000	33.846700
1547.000000	33.784100
1546.000000	33.721700
1545.000000	33.644500
1544.000000	33.583500
1543.000000	33.541300
1542.000000	33.504900
1541.000000	33.457600
1540.000000	33.404200
1539.000000	33.374300
1538.000000	33.349600
1537.000000	33.303400
1536.000000	33.251600
1535.000000	33.191100
1534.000000	33.148600
1533.000000	33.116500
1532.000000	33.051700
1531.000000	32.989100
1530.000000	32.945500
1529.000000	32.884500
1528.000000	32.824800
1527.000000	32.761000
1526.000000	32.700200
1525.000000	32.642800
1524.000000	32.583900
1523.000000	32.495200
1522.000000	32.440800
1521.000000	32.347000
1520.000000	32.280100
1519.000000	32.228600
1518.000000	32.161700
1517.000000	32.080600
1516.000000	32.007800
1515.000000	31.931200
1514.000000	31.855500
1513.000000	31.781200
1512.000000	31.692100
1511.000000	31.618900
1510.000000	31.548100
1509.000000	31.471500
1508.000000	31.408700
1507.000000	31.323500
1506.000000	31.243100
1505.000000	31.186100
1504.000000	31.113500
1503.000000	31.045200
1502.000000	30.986500
1501.000000	30.912200
1500.000000	30.852700
1499.000000	30.795100
1498.000000	30.752000
1497.000000	30.707500
1496.000000	30.666500
1495.000000	30.643700
1494.000000	30.610100
1493.000000	30.587300
1492.000000	30.576900
1491.000000	30.557200
1490.000000	30.537900
1489.000000	30.529800
1488.000000	30.541500
1487.000000	30.527400
1486.000000	30.535800
1485.000000	30.525000
1484.000000	30.518400
1483.000000	30.536800
1482.000000	30.527400
1481.000000	30.534700
1480.000000	30.539900
1479.000000	30.533300
1478.000000	30.561600
1477.000000	30.576700
1476.000000	30.573800
1475.000000	30.603200
1474.000000	30.634600
1473.000000	30.692700
1472.000000	30.716600
1471.000000	30.762400
1470.000000	30.798300
1469.000000	30.816400
1468.000000	30.878900
1467.000000	30.930600
1466.000000	30.961900
1465.000000	31.038400
1464.000000	31.062200
1463.000000	31.133600
1462.000000	31.189700
1461.000000	31.250300
1460.000000	31.328800
1459.000000	31.386000
1458.000000	31.465700
1457.000000	31.554800
1456.000000	31.614700
1455.000000	31.672100
1454.000000	31.753300
1453.000000	31.820100
1452.000000	31.921200
1451.000000	31.990400
1450.000000	32.048200
1449.000000	32.105500
1448.000000	32.159700
1447.000000	32.255400
1446.000000	32.328900
1445.000000	32.362100
1444.000000	32.438300
1443.000000	32.494200
1442.000000	32.589200
1441.000000	32.673300
1440.000000	32.752800
1439.000000	32.844100
1438.000000	32.920600
1437.000000	32.988600
1436.000000	33.062400
1435.000000	33.164500
1434.000000	33.293900
1433.000000	33.386300
1432.000000	33.519900
1431.000000	33.592100
1430.000000	33.716700
1429.000000	33.849700
1428.000000	34.025000
1427.000000	34.133100
1426.000000	34.273300
1425.000000	34.460800
1424.000000	34.643700
1423.000000	34.797900
1422.000000	34.966500
1421.000000	35.175400
1420.000000	35.435600
1419.000000	35.649900
1418.000000	35.823800
1417.000000	36.050600
1416.000000	36.282200
1415.000000	36.580800
1414.000000	36.859400
1413.000000	37.102800
1412.000000	37.361500
1411.000000	37.679700
1410.000000	38.019200
1409.000000	38.364900
1408.000000	38.674900
1407.000000	38.987800
1406.000000	39.297100
1405.000000	39.605500
1404.000000	39.925900
1403.000000	40.215200
1402.000000	40.549500
1401.000000	40.982400
1400.000000	41.198400
1399.000000	41.394400
1398.000000	41.549800
1397.000000	41.888400
1396.000000	42.185800
1395.000000	42.379800
1394.000000	42.515300
1393.000000	42.675500
1392.000000	42.864100
1391.000000	42.983300
1390.000000	43.158100
1389.000000	43.374100
1388.000000	43.577800
1387.000000	43.691600
1386.000000	43.878700
1385.000000	44.104500
1384.000000	44.397800
1383.000000	44.648000
1382.000000	44.953400
1381.000000	45.238400
1380.000000	45.569800
1379.000000	46.042300
1378.000000	46.528700
1377.000000	47.068300
1376.000000	47.655100
1375.000000	48.214800
1374.000000	48.744500
1373.000000	49.321400
1372.000000	49.812900
1371.000000	50.224500
1370.000000	50.569400
1369.000000	50.862500
1368.000000	51.134400
1367.000000	51.318600
1366.000000	51.517000
1365.000000	51.714400
1364.000000	51.861700
1363.000000	52.007400
1362.000000	52.155300
1361.000000	52.239800
1360.000000	52.286900
1359.000000	52.351100
1358.000000	52.451700
1357.000000	52.556800
1356.000000	52.676800
1355.000000	52.811700
1354.000000	52.929800
1353.000000	53.036700
1352.000000	53.193600
1351.000000	53.377200
1350.000000	53.561100
1349.000000	53.746100
1348.000000	53.952100
1347.000000	54.147400
1346.000000	54.307100
1345.000000	54.482300
1344.000000	54.686800
1343.000000	54.850500
1342.000000	55.008600
1341.000000	55.193900
1340.000000	55.365700
1339.000000	55.523200
1338.000000	55.675300
1337.000000	55.822600
1336.000000	55.959700
1335.000000	56.102000
1334.000000	56.237600
1333.000000	56.370000
1332.000000	56.480200
1331.000000	56.579900
1330.000000	56.690600
1329.000000	56.802400
1328.000000	56.908300
1327.000000	57.005300
1326.000000	57.097900
1325.000000	57.183000
1324.000000	57.274800
1323.000000	57.358700
1322.000000	57.429800
1321.000000	57.505000
1320.000000	57.574200
1319.000000	57.643600
1318.000000	57.713600
1317.000000	57.780600
1316.000000	57.848300
1315.000000	57.907900
1314.000000	57.960700
1313.000000	58.024500
1312.000000	58.092600
1311.000000	58.147800
1310.000000	58.204200
1309.000000	58.241000
1308.000000	58.282900
1307.000000	58.327700
1306.000000	58.361100
1305.000000	58.392200
1304.000000	58.421600
1303.000000	58.449200
1302.000000	58.471200
1301.000000	58.504900
1300.000000	58.533000
1299.000000	58.557600
1298.000000	58.577400
1297.000000	58.587200
1296.000000	58.579200
1295.000000	58.574800
1294.000000	58.586700
1293.000000	58.592000
1292.000000	58.586800
1291.000000	58.578800
1290.000000	58.571700
1289.000000	58.555500
1288.000000	58.540400
1287.000000	58.524700
1286.000000	58.511400
1285.000000	58.494300
1284.000000	58.451700
1283.000000	58.423700
1282.000000	58.408400
1281.000000	58.380000
1280.000000	58.347400
1279.000000	58.317300
1278.000000	58.296600
1277.000000	58.291100
1276.000000	58.289300
1275.000000	58.278300
1274.000000	58.262100
1273.000000	58.255600
1272.000000	58.249700
1271.000000	58.255600
1270.000000	58.270700
1269.000000	58.263700
1268.000000	58.261800
1267.000000	58.266400
1266.000000	58.261200
1265.000000	58.266200
1264.000000	58.250500
1263.000000	58.232400
1262.000000	58.219900
1261.000000	58.221400
1260.000000	58.214300
1259.000000	58.200700
1258.000000	58.183400
1257.000000	58.164100
1256.000000	58.126000
1255.000000	58.117300
1254.000000	58.101100
1253.000000	58.059800
1252.000000	58.004600
1251.000000	57.978800
1250.000000	57.936700
1249.000000	57.913400
1248.000000	57.863100
1247.000000	57.810700
1246.000000	57.769600
1245.000000	57.745400
1244.000000	57.690400
1243.000000	57.655300
1242.000000	57.629300
1241.000000	57.592600
1240.000000	57.585500
1239.000000	57.567600
1238.000000	57.542100
1237.000000	57.534800
1236.000000	57.537300
1235.000000	57.518100
1234.000000	57.501500
1233.000000	57.494200
1232.000000	57.487700
1231.000000	57.465700
1230.000000	57.442200
1229.000000	57.417800
1228.000000	57.389100
1227.000000	57.378500
1226.000000	57.349100
1225.000000	57.310300
1224.000000	57.291000
1223.000000	57.248700
1222.000000	57.226900
1221.000000	57.200200
1220.000000	57.161100
1219.000000	57.111200
1218.000000	57.071000
1217.000000	57.045800
1216.000000	56.997300
1215.000000	56.949400
1214.000000	56.913800
1213.000000	56.869400
1212.000000	56.806000
1211.000000	56.732100
1210.000000	56.679100
1209.000000	56.604500
1208.000000	56.550900
1207.000000	56.484800
1206.000000	56.404700
1205.000000	56.344800
1204.000000	56.275300
1203.000000	56.209600
1202.000000	56.116400
1201.000000	56.057600
1200.000000	55.987900
1199.000000	55.922500
1198.000000	55.852100
1197.000000	55.778500
1196.000000	55.711000
1195.000000	55.628200
1194.000000	55.558700
1193.000000	55.483700
1192.000000	55.404400
1191.000000	55.354600
1190.000000	55.287700
1189.000000	55.238500
1188.000000	55.195400
1187.000000	55.204700
1186.000000	55.201600
1185.000000	55.199800
1184.000000	55.229400
1183.000000	55.261800
1182.000000	55.295600
1181.000000	55.353900
1180.000000	55.433400
1179.000000	55.507700
1178.000000	55.574700
1177.000000	55.653900
1176.000000	55.720600
1175.000000	55.796900
1174.000000	55.879800
1173.000000	55.963000
1172.000000	56.047800
1171.000000	56.150500
1170.000000	56.254800
1169.000000	56.355300
1168.000000	56.461100
1167.000000	56.583100
1166.000000	56.720900
1165.000000	56.854800
1164.000000	56.990900
1163.000000	57.120200
1162.000000	57.250100
1161.000000	57.397700
1160.000000	57.525200
1159.000000	57.669500
1158.000000	57.787100
1157.000000	57.915800
1156.000000	58.006700
1155.000000	58.122400
1154.000000	58.224300
1153.000000	58.322900
1152.000000	58.410700
1151.000000	58.490700
1150.000000	58.578500
1149.000000	58.648300
1148.000000	58.726500
1147.000000	58.813000
1146.000000	58.882800
1145.000000	58.973300
1144.000000	59.027800
1143.000000	59.086600
1142.000000	59.183000
1141.000000	59.289600
1140.000000	59.375900
1139.000000	59.474100
1138.000000	59.588100
1137.000000	59.714200
1136.000000	59.875600
1135.000000	59.993400
1134.000000	60.100900
1133.000000	60.160400
1132.000000	60.230900
1131.000000	60.338000
1130.000000	60.436100
1129.000000	60.499300
1128.000000	60.568700
1127.000000	60.639300
1126.000000	60.683800
1125.000000	60.750000
1124.000000	60.781400
1123.000000	60.798900
1122.000000	60.818600
1121.000000	60.818900
1120.000000	60.822800
1119.000000	60.825300
1118.000000	60.828700
1117.000000	60.824100
1116.000000	60.820100
1115.000000	60.832700
1114.000000	60.826900
1113.000000	60.812600
1112.000000	60.816300
1111.000000	60.800400
1110.000000	60.778900
1109.000000	60.770600
1108.000000	60.764700
1107.000000	60.761100
1106.000000	60.728200
1105.000000	60.717100
1104.000000	60.705500
1103.000000	60.683200
1102.000000	60.671700
1101.000000	60.648300
1100.000000	60.633800
1099.000000	60.612200
1098.000000	60.586100
1097.000000	60.585600
1096.000000	60.574300
1095.000000	60.532200
1094.000000	60.511600
1093.000000	60.503200
1092.000000	60.475700
1091.000000	60.449000
1090.000000	60.427500
1089.000000	60.402500
1088.000000	60.374300
1087.000000	60.361000
1086.000000	60.330700
1085.000000	60.301200
1084.000000	60.277700
1083.000000	60.258500
1082.000000	60.222500
1081.000000	60.214200
1080.000000	60.197000
1079.000000	60.162000
1078.000000	60.128500
1077.000000	60.116100
1076.000000	60.092800
1075.000000	60.066100
1074.000000	60.049000
1073.000000	60.024900
1072.000000	60.007600
1071.000000	59.967600
1070.000000	59.952600
1069.000000	59.929600
1068.000000	59.883100
1067.000000	59.852700
1066.000000	59.824100
1065.000000	59.794500
1064.000000	59.765900
1063.000000	59.731300
1062.000000	59.688800
1061.000000	59.669000
1060.000000	59.637600
1059.000000	59.607200
1058.000000	59.583000
1057.000000	59.541800
1056.000000	59.506100
1055.000000	59.470100
1054.000000	59.429500
1053.000000	59.387500
1052.000000	59.367100
1051.000000	59.342700
1050.000000	59.300000
1049.000000	59.265300
1048.000000	59.248600
1047.000000	59.229400
1046.000000	59.197100
1045.000000	59.173500
1044.000000	59.159200
1043.000000	59.138100
1042.000000	59.105000
1041.000000	59.076900
1040.000000	59.051600
1039.000000	59.034700
1038.000000	59.020300
1037.000000	58.994500
1036.000000	58.963100
1035.000000	58.937700
1034.000000	58.918500
1033.000000	58.904100
1032.000000	58.886100
1031.000000	58.862900
1030.000000	58.847500
1029.000000	58.840700
1028.000000	58.823900
1027.000000	58.795300
1026.000000	58.784000
1025.000000	58.776400
1024.000000	58.753600
1023.000000	58.729900
1022.000000	58.715200
1021.000000	58.685300
1020.000000	58.662100
1019.000000	58.650500
1018.000000	58.631100
1017.000000	58.617900
1016.000000	58.603300
1015.000000	58.575900
1014.000000	58.557900
1013.000000	58.545700
1012.000000	58.540900
1011.000000	58.537100
1010.000000	58.508100
1009.000000	58.479100
1008.000000	58.466300
1007.000000	58.455500
1006.000000	58.446200
1005.000000	58.434400
1004.000000	58.421200
1003.000000	58.404500
1002.000000	58.400900
1001.000000	58.383800
1000.000000	58.363200
999.000000	58.348400
998.000000	58.326600
997.000000	58.325700
996.000000	58.303800
995.000000	58.274300
994.000000	58.252200
993.000000	58.248200
992.000000	58.244300
991.000000	58.216800
990.000000	58.187700
989.000000	58.176700
988.000000	58.147400
987.000000	58.139700
986.000000	58.153400
985.000000	58.150400
984.000000	58.130100
983.000000	58.105300
982.000000	58.124300
981.000000	58.119400
980.000000	58.097500
979.000000	58.098400
978.000000	58.106200
977.000000	58.087800
976.000000	58.071600
975.000000	58.064500
974.000000	58.074900
973.000000	58.054500
972.000000	58.031400
971.000000	58.025100
970.000000	58.029000
969.000000	58.017800
968.000000	58.013600
967.000000	57.994900
966.000000	57.986400
965.000000	57.986200
964.000000	57.984200
963.000000	57.964600
962.000000	57.958700
961.000000	57.952300
960.000000	57.935900
959.000000	57.948600
958.000000	57.921100
957.000000	57.909400
956.000000	57.906000
955.000000	57.910000
954.000000	57.878000
953.000000	57.878900
952.000000	57.872600
951.000000	57.856600
950.000000	57.853700
949.000000	57.803200
948.000000	57.785200
947.000000	57.775600
946.000000	57.747300
945.000000	57.745300
944.000000	57.703400
943.000000	57.706900
942.000000	57.692700
941.000000	57.699300
940.000000	57.675700
939.000000	57.668900
938.000000	57.674900
937.000000	57.683800
936.000000	57.688100
935.000000	57.668700
934.000000	57.672900
933.000000	57.646500
932.000000	57.648600
931.000000	57.617500
930.000000	57.617000
929.000000	57.624400
928.000000	57.606300
927.000000	57.605100
926.000000	57.599400
925.000000	57.587800
924.000000	57.599400
923.000000	57.601500
922.000000	57.611600
921.000000	57.609200
920.000000	57.629000
919.000000	57.614400
918.000000	57.639300
917.000000	57.649400
916.000000	57.663300
915.000000	57.674100
914.000000	57.686500
913.000000	57.711600
912.000000	57.721400
911.000000	57.746200
910.000000	57.767000
909.000000	57.806600
908.000000	57.797600
907.000000	57.844500
906.000000	57.874200
905.000000	57.903000
904.000000	57.958600
903.000000	57.972700
902.000000	58.000700
901.000000	58.029400
900.000000	58.082600
899.000000	58.114600
898.000000	58.155400
897.000000	58.207300
896.000000	58.245200
895.000000	58.285200
894.000000	58.347700
893.000000	58.390100
892.000000	58.441500
891.000000	58.495400
890.000000	58.547500
889.000000	58.606000
888.000000	58.661900
887.000000	58.738200
886.000000	58.785600
885.000000	58.857900
884.000000	58.906900
883.000000	58.974400
882.000000	59.038500
881.000000	59.098400
880.000000	59.134400
879.000000	59.185500
878.000000	59.233700
877.000000	59.294400
876.000000	59.326000
875.000000	59.337500
874.000000	59.373800
873.000000	59.425700
872.000000	59.468600
871.000000	59.488300
870.000000	59.515000
869.000000	59.547900
868.000000	59.588500
867.000000	59.604800
866.000000	59.623200
865.000000	59.647700
864.000000	59.683000
863.000000	59.671300
862.000000	59.677100
861.000000	59.618500
860.000000	59.558000
859.000000	59.492700
858.000000	58.322636
857.000000	58.341850
856.000000	57.860630
855.000000	58.335282
854.000000	58.520261
853.000000	58.639954
852.000000	58.913942
851.000000	58.656618
850.000000	58.706417
849.000000	58.928352
848.000000	59.394280
847.000000	59.190676
846.000000	59.121566
845.000000	59.484760
844.000000	59.501523
843.000000	59.600826
842.000000	59.782374
841.000000	59.984606
840.000000	60.240949
839.000000	60.385051
838.000000	60.551895
837.000000	60.915677
836.000000	60.858625
835.000000	61.271814
834.000000	61.652751
833.000000	61.859296
832.000000	62.149656
831.000000	62.419135
830.000000	62.674793
829.000000	62.859478
828.000000	63.277176
827.000000	63.574985
826.000000	63.919848
825.000000	64.276475
824.000000	64.576931
823.000000	64.710347
822.000000	64.991492
821.000000	65.432717
820.000000	65.765914
819.000000	65.953932
818.000000	66.358397
817.000000	66.494166
816.000000	66.955192
815.000000	67.127231
814.000000	67.439647
813.000000	67.671778
812.000000	67.784510
811.000000	68.230636
810.000000	68.461199
809.000000	68.672645
808.000000	68.835862
807.000000	69.106224
806.000000	69.434716
805.000000	69.748112
804.000000	69.896625
803.000000	69.979263
802.000000	70.110326
801.000000	70.358240
800.000000	70.681831
799.000000	70.818384
798.000000	70.899649
797.000000	71.094137
796.000000	71.224514
795.000000	71.353225
794.000000	71.536048
793.000000	71.647800
792.000000	71.732496
791.000000	71.931101
790.000000	72.027169
789.000000	72.036090
788.000000	72.020993
787.000000	72.066184
786.000000	72.130295
785.000000	72.191464
784.000000	72.180583
783.000000	72.255378
782.000000	72.325763
781.000000	72.342820
780.000000	72.382423
779.000000	72.385560
778.000000	72.464276
777.000000	72.444573
776.000000	72.385854
775.000000	72.438005
774.000000	72.377816
773.000000	72.345368
772.000000	72.405067
771.000000	72.405852
770.000000	72.420262
769.000000	72.379188
768.000000	72.363896
767.000000	72.330762
766.000000	72.241753
765.000000	72.248713
764.000000	72.312823
763.000000	72.190190
762.000000	72.066772
761.000000	71.991389
760.000000	71.930121
759.000000	71.913652
758.000000	71.820624
757.000000	71.687207
756.000000	71.606040
755.000000	71.574867
754.000000	71.416650
753.000000	71.230592
752.000000	71.136387
751.000000	71.019636
750.000000	70.887592
749.000000	70.711533
748.000000	70.559001
747.000000	70.451464
746.000000	70.302364
745.000000	70.215216
744.000000	70.076409
743.000000	69.856041
742.000000	69.777717
741.000000	69.642830
740.000000	69.426286
739.000000	69.213957
738.000000	69.047897
737.000000	68.953202
736.000000	68.740677
735.000000	68.553051
734.000000	68.362778
733.000000	68.127217
732.000000	67.928122
731.000000	67.680110
730.000000	67.480525
729.000000	67.306917
728.000000	67.111743
727.000000	66.833147
726.000000	66.593566
725.000000	66.293894
724.000000	66.013240
723.000000	65.758660
722.000000	65.495161
721.000000	65.194312
720.000000	64.864938
719.000000	64.573500
718.000000	64.308236
717.000000	64.053363
716.000000	63.776041
715.000000	63.453626
714.000000	63.138074
713.000000	62.807719
712.000000	62.475893
711.000000	62.214256
710.000000	61.938503
709.000000	61.621088
708.000000	61.336806
707.000000	61.012823
706.000000	60.730796
705.000000	60.393775
704.000000	60.105377
703.000000	59.773943
702.000000	59.428590
701.000000	59.169698
700.000000	58.870712
699.000000	58.541729
698.000000	58.295973
697.000000	58.039923
696.000000	57.738389
695.000000	57.439109
694.000000	57.184039
693.000000	56.945047
692.000000	56.637827
691.000000	56.307276
690.000000	56.015250
689.000000	55.752632
688.000000	55.461587
687.000000	55.167110
686.000000	54.834991
685.000000	54.531790
684.000000	54.206434
683.000000	53.944405
682.000000	53.608266
681.000000	53.240661
680.000000	52.905993
679.000000	52.570932
678.000000	52.186760
677.000000	51.797588
676.000000	51.390673
675.000000	51.056201
674.000000	50.666637
673.000000	50.253939
672.000000	49.881824
671.000000	49.473047
670.000000	49.031332
669.000000	48.627064
668.000000	48.220835
667.000000	47.817057
666.000000	47.404750
665.000000	47.012246
664.000000	46.575040
663.000000	46.170380
662.000000	45.783659
661.000000	45.447324
660.000000	45.106970
659.000000	44.768577
658.000000	44.478806
657.000000	44.252361
656.000000	44.048756
655.000000	43.858288
654.000000	43.708991
653.000000	43.636940
652.000000	43.544696
651.000000	43.508327
650.000000	43.536559
649.000000	43.558714
648.000000	43.556851
647.000000	43.618609
646.000000	43.646155
645.000000	43.715461
644.000000	43.721342
643.000000	43.695561
642.000000	43.673701
641.000000	43.647919
640.000000	43.524502
639.000000	43.409613
638.000000	43.232868
637.000000	43.060633
636.000000	42.790271
635.000000	42.520399
634.000000	42.163871
633.000000	41.857533
632.000000	41.497280
631.000000	41.153397
630.000000	40.821179
629.000000	40.536506
628.000000	40.248695
627.000000	40.020681
626.000000	39.789237
625.000000	39.666212
624.000000	39.530737
623.000000	39.478292
622.000000	39.537991
621.000000	39.618962
620.000000	39.741791
619.000000	39.957061
618.000000	40.205072
617.000000	40.526997
616.000000	40.881173
615.000000	41.295440
614.000000	41.734704
613.000000	42.235628
612.000000	42.761059
611.000000	43.276001
610.000000	43.885540
609.000000	44.464494
608.000000	45.039919
607.000000	45.640342
606.000000	46.191554
605.000000	46.831384
604.000000	47.418376
603.000000	47.951944
602.000000	48.543838
601.000000	49.052212
600.000000	49.581760
599.000000	50.096015
598.000000	50.568413
597.000000	50.985719
596.000000	51.363127
595.000000	51.796706
594.000000	52.152450
593.000000	52.536623
592.000000	52.852371
591.000000	53.188020
590.000000	53.493377
589.000000	53.780404
588.000000	53.998026
587.000000	54.221138
586.000000	54.406314
585.000000	54.588352
584.000000	54.770978
583.000000	54.863713
582.000000	55.002913
581.000000	55.086531
580.000000	55.167110
579.000000	55.217889
578.000000	55.272882
577.000000	55.266707
576.000000	55.281901
575.000000	55.305428
574.000000	55.211321
573.000000	55.217202
572.000000	55.116724
571.000000	55.027714
570.000000	54.941841
569.000000	54.862537
568.000000	54.749510
567.000000	54.663049
566.000000	54.549435
565.000000	54.442388
564.000000	54.320833
563.000000	54.191240
562.000000	54.017044
561.000000	53.826771
560.000000	53.624637
559.000000	53.122243
558.000000	52.975887
557.000000	52.761597
556.000000	52.548092
555.000000	52.333802
554.000000	52.078537
553.000000	51.810136
552.000000	51.491740
551.000000	51.157562
550.000000	50.809562
549.000000	50.433134
548.000000	50.076704
547.000000	49.688414
546.000000	49.292283
545.000000	48.855077
544.000000	48.416009
543.000000	47.958512
542.000000	47.469351
541.000000	46.939803
540.000000	46.410353
539.000000	45.864042
538.000000	45.262051
537.000000	44.676039
536.000000	44.052089
535.000000	43.381577
534.000000	42.666854
533.000000	41.975069
532.000000	41.209567
531.000000	40.446026
530.000000	39.644645
529.000000	38.859538
528.000000	38.050708
527.000000	37.259620
526.000000	36.466377
525.000000	35.694503
524.000000	34.910964
523.000000	34.155265
522.000000	33.423190
521.000000	32.733170
520.000000	32.077950
519.000000	31.448609
518.000000	30.845540
517.000000	30.274330
516.000000	29.714099
515.000000	29.154750
514.000000	28.656081
513.000000	28.186134
512.000000	27.735989
511.000000	27.301234
510.000000	26.905102
509.000000	26.522302
508.000000	26.183909
507.000000	25.870317
506.000000	25.598877
505.000000	25.340867
504.000000	25.122656
503.000000	24.901505
502.000000	24.729269
501.000000	24.552034
500.000000	24.388229
499.000000	24.239422
498.000000	24.119044
497.000000	24.017291
496.000000	23.899853
495.000000	23.818392
494.000000	23.709874
493.000000	23.624492
492.000000	23.544795
491.000000	23.446375
490.000000	23.352268
489.000000	23.263258
488.000000	23.160329
487.000000	23.060634
486.000000	22.969468
485.000000	22.887810
484.000000	22.797526
483.000000	22.690872
482.000000	22.565004
481.000000	22.435214
480.000000	22.307288
479.000000	22.146423
478.000000	21.993695
477.000000	21.838811
476.000000	21.688044
475.000000	21.538943
474.000000	21.366119
473.000000	21.184963
472.000000	21.010865
471.000000	20.833434
470.000000	20.641397
469.000000	20.449556
468.000000	20.271537
467.000000	20.076951
466.000000	19.866582
465.000000	19.645725
464.000000	19.431730
463.000000	19.212343
462.000000	18.971781
461.000000	18.729554
460.000000	18.479092
459.000000	18.206476
458.000000	17.938761
457.000000	17.677712
456.000000	17.400390
455.000000	17.103757
454.000000	16.798105
453.000000	16.486670
452.000000	16.175136
451.000000	15.851839
450.000000	15.507270
449.000000	15.165544
448.000000	14.831758
447.000000	14.490914
446.000000	14.140072
445.000000	13.793052
444.000000	13.433092
443.000000	13.065291
442.000000	12.708174
441.000000	12.356547
440.000000	12.012468
439.000000	11.671919
438.000000	11.328820
437.000000	10.999838
436.000000	10.699773
435.000000	10.395494
434.000000	10.088666
433.000000	9.799679
432.000000	9.529023
431.000000	9.267778
430.000000	9.009768
429.000000	8.766560
428.000000	8.546879
427.000000	8.345431
426.000000	8.148493
425.000000	7.965474
424.000000	7.798140
423.000000	7.633159
422.000000	7.488077
421.000000	7.354170
420.000000	7.223009
419.000000	7.103708
418.000000	6.992839
417.000000	6.900496
416.000000	6.817564
415.000000	6.722183
414.000000	6.636604
413.000000	6.560534
412.000000	6.481426
411.000000	6.423785
410.000000	6.370164
409.000000	6.322816
408.000000	6.269881
407.000000	6.229787
406.000000	6.196948
405.000000	6.146169
404.000000	6.102253
403.000000	6.073923
402.000000	6.052356
401.000000	6.029222
400.000000	6.000205
399.000000	5.987070
398.000000	5.961386
397.000000	5.929037
396.000000	5.913941
395.000000	5.891100
394.000000	5.876298
393.000000	5.855614
392.000000	5.827088
391.000000	5.807188
390.000000	5.797973
389.000000	5.779642
388.000000	5.756507
387.000000	5.738176
386.000000	5.709748
385.000000	5.701024
384.000000	5.678281
383.000000	5.657401
382.000000	5.627208
381.000000	5.599858
380.000000	5.601525
379.000000	5.560647
378.000000	5.549766
377.000000	5.521142
376.000000	5.534670
375.000000	5.352043
374.000000	5.287737
373.000000	5.401842
372.000000	5.415075
371.000000	5.383510
370.000000	5.391451
369.000000	5.359297
368.000000	5.342535
367.000000	5.376550
366.000000	5.329889
365.000000	5.311754
364.000000	5.314499
363.000000	5.431446
362.000000	5.390470
361.000000	5.347730
360.000000	5.360866
359.000000	5.313616
358.000000	5.287443
357.000000	5.244114
356.000000	5.261563
355.000000	5.286757
354.000000	5.294207
353.000000	5.232645
352.000000	5.261857
351.000000	5.247349
350.000000	5.129519
349.000000	5.203825
348.000000	5.111678
347.000000	5.147753
346.000000	5.123638
345.000000	5.228038
344.000000	5.188434
343.000000	5.144224
342.000000	5.161182
341.000000	5.148439
340.000000	5.177651
339.000000	5.146086
338.000000	5.150595
337.000000	5.298814
336.000000	5.186082
335.000000	5.126873
334.000000	5.129323
333.000000	5.119717
332.000000	5.121971
331.000000	5.162555
330.000000	5.224803
329.000000	5.016689
328.000000	5.247937
327.000000	5.191375
326.000000	5.196571
325.000000	5.267641
324.000000	5.208922
323.000000	5.175495
322.000000	5.183533
321.000000	5.242938
320.000000	5.376060
319.000000	5.338025
318.000000	5.235978
317.000000	5.438602
316.000000	4.935816
315.000000	4.871999
314.000000	4.835239
313.000000	4.858177
312.000000	4.873960
311.000000	4.852296
310.000000	4.836317
309.000000	4.869647
308.000000	4.878175
307.000000	4.909054
306.000000	4.895134
305.000000	4.882586
304.000000	4.937286
303.000000	4.892781
302.000000	4.869255
301.000000	4.929444
300.000000	4.870725
299.000000	4.820339
298.000000	4.893566
297.000000	4.865824
296.000000	4.931993
295.000000	4.862981
294.000000	4.892781
293.000000	4.890429
292.000000	4.898271
291.000000	4.901800
290.000000	4.897291
289.000000	4.891213
288.000000	4.863765
287.000000	4.857001
286.000000	4.861804
285.000000	4.859648
284.000000	4.905917
283.000000	4.883273
282.000000	4.860530
281.000000	4.840336
280.000000	4.863471
279.000000	4.889644
278.000000	4.879155
277.000000	4.905329
276.000000	4.912387
275.000000	4.887096
274.000000	4.936992
273.000000	4.941501
272.000000	4.956402
271.000000	4.953853
270.000000	5.000122
269.000000	5.009925
268.000000	4.995711
267.000000	5.019434
266.000000	5.041000
265.000000	5.116776
264.000000	5.099033
263.000000	5.112364
262.000000	5.132656
261.000000	5.171573
260.000000	5.172358
259.000000	5.205589
258.000000	5.197453
257.000000	5.239017
256.000000	5.216078
255.000000	5.224215
254.000000	5.283326
253.000000	5.235390
252.000000	5.249800
251.000000	5.291266
250.000000	5.248133
