PE UV       SUBTECH     SPECTRUM    ASCII       PEDS        4.00        
   -1
CICIMAUCR0020-1.Sample.ASC
24/03/08
12:01:00.00
24/03/08
12:01:00.00
Vinicio Soto Monge
C. resplendens
250,000000
1
Lambda 1050
1050L1511233
PerkinElmer UV WinLab 6.3.2.0749 / 2.02.05 Lambda 900 UV/VIS/NIR, Aug  7 2015 09:38:08

0
0
3350/servo 860,8/2
0
0
UV/VIS
1
1
1
DoubleDePol,CommonBeamDepol,RBeamAtt,SBeamAtt,60mm sphere, WB InGaAs Detector
0
0
0
0
Program
Program
3350/servo 860,8/2
3350/0,2 860,8/0,2
3350/0,2 860,8/0,2
0
15.00
 
 
 
0
 
860,8
319,2
860,8
Front
100
on
S:100 R:100
0
0
0
0
 
0
 
 
 
0
 
 
0
0
0
0
0
 
 
 
 
0
0


0
0
#HDR
-1
-1
#GR
nm
%R
1.0
0.0
2500,000000
-1,000000
2251
8
26,391500
2,064300
#DATA
2500.000000	2.294900
2499.000000	2.284600
2498.000000	2.361600
2497.000000	2.341600
2496.000000	2.365700
2495.000000	2.273900
2494.000000	2.337400
2493.000000	2.273900
2492.000000	2.241800
2491.000000	2.206000
2490.000000	2.218900
2489.000000	2.327100
2488.000000	2.285100
2487.000000	2.258600
2486.000000	2.262500
2485.000000	2.223400
2484.000000	2.231900
2483.000000	2.108600
2482.000000	2.163300
2481.000000	2.181400
2480.000000	2.207900
2479.000000	2.220300
2478.000000	2.245300
2477.000000	2.220100
2476.000000	2.196600
2475.000000	2.179800
2474.000000	2.226600
2473.000000	2.196900
2472.000000	2.214700
2471.000000	2.188000
2470.000000	2.168000
2469.000000	2.177900
2468.000000	2.195700
2467.000000	2.214900
2466.000000	2.223300
2465.000000	2.199300
2464.000000	2.221100
2463.000000	2.237200
2462.000000	2.212200
2461.000000	2.196700
2460.000000	2.233600
2459.000000	2.263600
2458.000000	2.260900
2457.000000	2.283100
2456.000000	2.318600
2455.000000	2.300600
2454.000000	2.310800
2453.000000	2.330400
2452.000000	2.372800
2451.000000	2.364400
2450.000000	2.368900
2449.000000	2.424000
2448.000000	2.444600
2447.000000	2.453200
2446.000000	2.457600
2445.000000	2.484200
2444.000000	2.476000
2443.000000	2.518900
2442.000000	2.538800
2441.000000	2.555300
2440.000000	2.565800
2439.000000	2.602800
2438.000000	2.612700
2437.000000	2.623700
2436.000000	2.641800
2435.000000	2.656200
2434.000000	2.681900
2433.000000	2.691700
2432.000000	2.716500
2431.000000	2.753100
2430.000000	2.756800
2429.000000	2.770500
2428.000000	2.766700
2427.000000	2.789400
2426.000000	2.816500
2425.000000	2.839000
2424.000000	2.850800
2423.000000	2.863800
2422.000000	2.901600
2421.000000	2.926200
2420.000000	2.931000
2419.000000	2.926900
2418.000000	2.934700
2417.000000	2.952400
2416.000000	2.972800
2415.000000	2.985400
2414.000000	2.978700
2413.000000	3.000900
2412.000000	3.005200
2411.000000	3.015900
2410.000000	3.027200
2409.000000	3.030300
2408.000000	3.059800
2407.000000	3.053300
2406.000000	3.066200
2405.000000	3.079900
2404.000000	3.093800
2403.000000	3.101900
2402.000000	3.115200
2401.000000	3.108900
2400.000000	3.114100
2399.000000	3.123600
2398.000000	3.143200
2397.000000	3.142900
2396.000000	3.144600
2395.000000	3.156200
2394.000000	3.185700
2393.000000	3.199200
2392.000000	3.187100
2391.000000	3.196400
2390.000000	3.208900
2389.000000	3.209300
2388.000000	3.224400
2387.000000	3.231500
2386.000000	3.229200
2385.000000	3.220900
2384.000000	3.225200
2383.000000	3.247000
2382.000000	3.259600
2381.000000	3.246300
2380.000000	3.234300
2379.000000	3.232600
2378.000000	3.237100
2377.000000	3.251700
2376.000000	3.228800
2375.000000	3.219400
2374.000000	3.221400
2373.000000	3.209300
2372.000000	3.210900
2371.000000	3.206900
2370.000000	3.202800
2369.000000	3.198400
2368.000000	3.185100
2367.000000	3.187000
2366.000000	3.176400
2365.000000	3.150200
2364.000000	3.126800
2363.000000	3.124300
2362.000000	3.108200
2361.000000	3.088400
2360.000000	3.087600
2359.000000	3.068500
2358.000000	3.057100
2357.000000	3.040900
2356.000000	3.020000
2355.000000	3.015100
2354.000000	3.001500
2353.000000	2.989000
2352.000000	2.968800
2351.000000	2.967400
2350.000000	2.972300
2349.000000	2.984500
2348.000000	3.005100
2347.000000	3.010200
2346.000000	3.004700
2345.000000	3.006300
2344.000000	3.022700
2343.000000	3.034200
2342.000000	3.049000
2341.000000	3.050100
2340.000000	3.060400
2339.000000	3.063800
2338.000000	3.068200
2337.000000	3.075600
2336.000000	3.081200
2335.000000	3.079800
2334.000000	3.066500
2333.000000	3.061700
2332.000000	3.060600
2331.000000	3.040500
2330.000000	3.036400
2329.000000	3.017000
2328.000000	3.004200
2327.000000	2.979100
2326.000000	2.970300
2325.000000	2.958900
2324.000000	2.947900
2323.000000	2.927800
2322.000000	2.905300
2321.000000	2.867900
2320.000000	2.869100
2319.000000	2.835900
2318.000000	2.813500
2317.000000	2.783800
2316.000000	2.755600
2315.000000	2.733300
2314.000000	2.701300
2313.000000	2.686900
2312.000000	2.645000
2311.000000	2.626800
2310.000000	2.603900
2309.000000	2.588000
2308.000000	2.568400
2307.000000	2.556700
2306.000000	2.569600
2305.000000	2.563900
2304.000000	2.551400
2303.000000	2.557500
2302.000000	2.565400
2301.000000	2.574300
2300.000000	2.595500
2299.000000	2.606100
2298.000000	2.621400
2297.000000	2.638400
2296.000000	2.646900
2295.000000	2.654900
2294.000000	2.668800
2293.000000	2.683200
2292.000000	2.694100
2291.000000	2.692300
2290.000000	2.693600
2289.000000	2.698000
2288.000000	2.698200
2287.000000	2.682100
2286.000000	2.674700
2285.000000	2.662600
2284.000000	2.650200
2283.000000	2.610700
2282.000000	2.622700
2281.000000	2.605800
2280.000000	2.596900
2279.000000	2.576800
2278.000000	2.567000
2277.000000	2.553500
2276.000000	2.527600
2275.000000	2.502000
2274.000000	2.500600
2273.000000	2.475400
2272.000000	2.467000
2271.000000	2.465400
2270.000000	2.461900
2269.000000	2.454900
2268.000000	2.454700
2267.000000	2.475900
2266.000000	2.479700
2265.000000	2.484300
2264.000000	2.479400
2263.000000	2.514400
2262.000000	2.550900
2261.000000	2.581700
2260.000000	2.612800
2259.000000	2.635500
2258.000000	2.674200
2257.000000	2.714500
2256.000000	2.768200
2255.000000	2.831200
2254.000000	2.848700
2253.000000	2.894200
2252.000000	2.947500
2251.000000	2.981700
2250.000000	3.015500
2249.000000	3.039600
2248.000000	3.091100
2247.000000	3.130200
2246.000000	3.147800
2245.000000	3.174100
2244.000000	3.223000
2243.000000	3.218600
2242.000000	3.241100
2241.000000	3.277600
2240.000000	3.300100
2239.000000	3.321700
2238.000000	3.326600
2237.000000	3.355500
2236.000000	3.370800
2235.000000	3.368200
2234.000000	3.384100
2233.000000	3.388000
2232.000000	3.391900
2231.000000	3.410300
2230.000000	3.387400
2229.000000	3.395500
2228.000000	3.386400
2227.000000	3.377600
2226.000000	3.365200
2225.000000	3.354800
2224.000000	3.342200
2223.000000	3.339200
2222.000000	3.314200
2221.000000	3.304800
2220.000000	3.266400
2219.000000	3.244600
2218.000000	3.213900
2217.000000	3.196200
2216.000000	3.188200
2215.000000	3.159400
2214.000000	3.153300
2213.000000	3.135700
2212.000000	3.108800
2211.000000	3.081600
2210.000000	3.112100
2209.000000	3.131600
2208.000000	3.125100
2207.000000	3.129600
2206.000000	3.170700
2205.000000	3.185300
2204.000000	3.228800
2203.000000	3.258100
2202.000000	3.299800
2201.000000	3.348500
2200.000000	3.383400
2199.000000	3.413400
2198.000000	3.454200
2197.000000	3.524800
2196.000000	3.563200
2195.000000	3.609800
2194.000000	3.660400
2193.000000	3.712000
2192.000000	3.746300
2191.000000	3.775200
2190.000000	3.818900
2189.000000	3.835600
2188.000000	3.899300
2187.000000	3.914800
2186.000000	3.921700
2185.000000	3.938400
2184.000000	3.976300
2183.000000	3.979100
2182.000000	3.983000
2181.000000	4.009300
2180.000000	4.020900
2179.000000	4.031700
2178.000000	4.023200
2177.000000	4.028300
2176.000000	4.031500
2175.000000	4.022400
2174.000000	4.027600
2173.000000	4.065900
2172.000000	4.066400
2171.000000	4.078900
2170.000000	4.081400
2169.000000	4.088000
2168.000000	4.096200
2167.000000	4.117100
2166.000000	4.122800
2165.000000	4.135300
2164.000000	4.138600
2163.000000	4.149000
2162.000000	4.156400
2161.000000	4.155300
2160.000000	4.170100
2159.000000	4.187300
2158.000000	4.187000
2157.000000	4.212200
2156.000000	4.255000
2155.000000	4.238900
2154.000000	4.251200
2153.000000	4.275800
2152.000000	4.279100
2151.000000	4.303800
2150.000000	4.310600
2149.000000	4.338500
2148.000000	4.357400
2147.000000	4.381700
2146.000000	4.376700
2145.000000	4.394500
2144.000000	4.418100
2143.000000	4.436000
2142.000000	4.437100
2141.000000	4.448300
2140.000000	4.479400
2139.000000	4.489600
2138.000000	4.486100
2137.000000	4.500600
2136.000000	4.518000
2135.000000	4.545100
2134.000000	4.536900
2133.000000	4.536500
2132.000000	4.570400
2131.000000	4.572900
2130.000000	4.553800
2129.000000	4.566200
2128.000000	4.573400
2127.000000	4.563300
2126.000000	4.570900
2125.000000	4.571600
2124.000000	4.559600
2123.000000	4.562500
2122.000000	4.576300
2121.000000	4.571000
2120.000000	4.558700
2119.000000	4.555300
2118.000000	4.558100
2117.000000	4.549500
2116.000000	4.540600
2115.000000	4.540900
2114.000000	4.549400
2113.000000	4.541900
2112.000000	4.528300
2111.000000	4.524800
2110.000000	4.533300
2109.000000	4.535200
2108.000000	4.512700
2107.000000	4.498200
2106.000000	4.495300
2105.000000	4.488200
2104.000000	4.488700
2103.000000	4.473800
2102.000000	4.457600
2101.000000	4.461900
2100.000000	4.469000
2099.000000	4.472000
2098.000000	4.456800
2097.000000	4.441500
2096.000000	4.435500
2095.000000	4.431500
2094.000000	4.437000
2093.000000	4.441100
2092.000000	4.428600
2091.000000	4.420600
2090.000000	4.429000
2089.000000	4.438000
2088.000000	4.428900
2087.000000	4.443400
2086.000000	4.435700
2085.000000	4.422600
2084.000000	4.425800
2083.000000	4.420000
2082.000000	4.430800
2081.000000	4.420400
2080.000000	4.405000
2079.000000	4.408300
2078.000000	4.406800
2077.000000	4.397300
2076.000000	4.395800
2075.000000	4.386500
2074.000000	4.390400
2073.000000	4.377900
2072.000000	4.365500
2071.000000	4.365500
2070.000000	4.349800
2069.000000	4.340200
2068.000000	4.343400
2067.000000	4.331000
2066.000000	4.340200
2065.000000	4.327400
2064.000000	4.309700
2063.000000	4.306500
2062.000000	4.301100
2061.000000	4.289900
2060.000000	4.298200
2059.000000	4.300300
2058.000000	4.297400
2057.000000	4.304500
2056.000000	4.320500
2055.000000	4.326400
2054.000000	4.321200
2053.000000	4.335300
2052.000000	4.371500
2051.000000	4.389900
2050.000000	4.417900
2049.000000	4.452000
2048.000000	4.490100
2047.000000	4.523200
2046.000000	4.554100
2045.000000	4.590300
2044.000000	4.648600
2043.000000	4.692700
2042.000000	4.741400
2041.000000	4.792800
2040.000000	4.826900
2039.000000	4.872800
2038.000000	4.935100
2037.000000	4.969500
2036.000000	5.012100
2035.000000	5.065100
2034.000000	5.100900
2033.000000	5.132200
2032.000000	5.163000
2031.000000	5.187200
2030.000000	5.266800
2029.000000	5.291500
2028.000000	5.321900
2027.000000	5.356200
2026.000000	5.382800
2025.000000	5.413300
2024.000000	5.454300
2023.000000	5.488400
2022.000000	5.522300
2021.000000	5.542700
2020.000000	5.581200
2019.000000	5.594100
2018.000000	5.621000
2017.000000	5.647000
2016.000000	5.670800
2015.000000	5.687400
2014.000000	5.708500
2013.000000	5.723900
2012.000000	5.760300
2011.000000	5.765600
2010.000000	5.764900
2009.000000	5.776000
2008.000000	5.795200
2007.000000	5.791800
2006.000000	5.820000
2005.000000	5.813400
2004.000000	5.816900
2003.000000	5.831600
2002.000000	5.825000
2001.000000	5.812700
2000.000000	5.816100
1999.000000	5.811300
1998.000000	5.797800
1997.000000	5.790800
1996.000000	5.790500
1995.000000	5.773900
1994.000000	5.782400
1993.000000	5.760300
1992.000000	5.737700
1991.000000	5.739700
1990.000000	5.715400
1989.000000	5.707000
1988.000000	5.675800
1987.000000	5.677600
1986.000000	5.649300
1985.000000	5.625000
1984.000000	5.610800
1983.000000	5.594200
1982.000000	5.581100
1981.000000	5.544900
1980.000000	5.508300
1979.000000	5.495100
1978.000000	5.469000
1977.000000	5.443200
1976.000000	5.424800
1975.000000	5.407900
1974.000000	5.387900
1973.000000	5.371000
1972.000000	5.331900
1971.000000	5.316900
1970.000000	5.302300
1969.000000	5.280900
1968.000000	5.266300
1967.000000	5.233400
1966.000000	5.255200
1965.000000	5.214900
1964.000000	5.212300
1963.000000	5.172600
1962.000000	5.154200
1961.000000	5.131000
1960.000000	5.109700
1959.000000	5.090200
1958.000000	5.050700
1957.000000	5.042400
1956.000000	5.047000
1955.000000	4.998900
1954.000000	4.995900
1953.000000	4.980100
1952.000000	4.965800
1951.000000	4.948700
1950.000000	4.933600
1949.000000	4.937600
1948.000000	4.911400
1947.000000	4.900800
1946.000000	4.901900
1945.000000	4.858700
1944.000000	4.853400
1943.000000	4.870500
1942.000000	4.878000
1941.000000	4.865500
1940.000000	4.855000
1939.000000	4.875100
1938.000000	4.849500
1937.000000	4.849400
1936.000000	4.870600
1935.000000	4.884200
1934.000000	4.919900
1933.000000	4.941900
1932.000000	4.968000
1931.000000	4.975500
1930.000000	5.007200
1929.000000	5.015100
1928.000000	5.046500
1927.000000	5.065900
1926.000000	5.097200
1925.000000	5.127100
1924.000000	5.194100
1923.000000	5.259600
1922.000000	5.292400
1921.000000	5.333200
1920.000000	5.345600
1919.000000	5.400300
1918.000000	5.471500
1917.000000	5.549300
1916.000000	5.615000
1915.000000	5.689400
1914.000000	5.772300
1913.000000	5.809400
1912.000000	5.856500
1911.000000	5.919500
1910.000000	6.021200
1909.000000	6.124900
1908.000000	6.220100
1907.000000	6.326100
1906.000000	6.387200
1905.000000	6.432600
1904.000000	6.501800
1903.000000	6.608300
1902.000000	6.719400
1901.000000	6.794200
1900.000000	6.873900
1899.000000	6.953800
1898.000000	7.051200
1897.000000	7.146900
1896.000000	7.262900
1895.000000	7.378800
1894.000000	7.488700
1893.000000	7.581100
1892.000000	7.658300
1891.000000	7.740500
1890.000000	7.826400
1889.000000	7.911800
1888.000000	8.032700
1887.000000	8.152200
1886.000000	8.268700
1885.000000	8.397900
1884.000000	8.531000
1883.000000	8.660600
1882.000000	8.817600
1881.000000	8.986600
1880.000000	9.166000
1879.000000	9.329000
1878.000000	9.478200
1877.000000	9.606400
1876.000000	9.717000
1875.000000	9.830000
1874.000000	9.909500
1873.000000	9.973000
1872.000000	10.026300
1871.000000	10.065500
1870.000000	10.064800
1869.000000	10.083200
1868.000000	10.128000
1867.000000	10.161800
1866.000000	10.214600
1865.000000	10.263100
1864.000000	10.295200
1863.000000	10.340900
1862.000000	10.378700
1861.000000	10.369400
1860.000000	10.353600
1859.000000	10.311400
1858.000000	10.280000
1857.000000	10.282900
1856.000000	10.295200
1855.000000	10.262500
1854.000000	10.215300
1853.000000	10.166800
1852.000000	10.132200
1851.000000	10.168900
1850.000000	10.189700
1849.000000	10.139400
1848.000000	10.039600
1847.000000	9.923300
1846.000000	9.855600
1845.000000	9.882500
1844.000000	9.957300
1843.000000	9.986400
1842.000000	9.943400
1841.000000	9.859600
1840.000000	9.809700
1839.000000	9.800500
1838.000000	9.776100
1837.000000	9.728100
1836.000000	9.667600
1835.000000	9.621600
1834.000000	9.609300
1833.000000	9.615100
1832.000000	9.612600
1831.000000	9.571500
1830.000000	9.505400
1829.000000	9.458500
1828.000000	9.435200
1827.000000	9.400400
1826.000000	9.345300
1825.000000	9.315400
1824.000000	9.330100
1823.000000	9.362200
1822.000000	9.352800
1821.000000	9.312200
1820.000000	9.247100
1819.000000	9.208300
1818.000000	9.227700
1817.000000	9.244600
1816.000000	9.238500
1815.000000	9.223900
1814.000000	9.221300
1813.000000	9.229000
1812.000000	9.215300
1811.000000	9.190300
1810.000000	9.171800
1809.000000	9.175400
1808.000000	9.171500
1807.000000	9.140800
1806.000000	9.097900
1805.000000	9.068200
1804.000000	9.057600
1803.000000	9.054400
1802.000000	9.040800
1801.000000	9.002500
1800.000000	8.962800
1799.000000	8.930200
1798.000000	8.918100
1797.000000	8.909000
1796.000000	8.901700
1795.000000	8.874800
1794.000000	8.850600
1793.000000	8.820300
1792.000000	8.800500
1791.000000	8.788100
1790.000000	8.766000
1789.000000	8.734000
1788.000000	8.719600
1787.000000	8.690000
1786.000000	8.648500
1785.000000	8.604000
1784.000000	8.575500
1783.000000	8.542200
1782.000000	8.499800
1781.000000	8.482000
1780.000000	8.445200
1779.000000	8.400000
1778.000000	8.375100
1777.000000	8.329700
1776.000000	8.272900
1775.000000	8.222000
1774.000000	8.163200
1773.000000	8.098800
1772.000000	8.063000
1771.000000	8.009200
1770.000000	7.952500
1769.000000	7.897000
1768.000000	7.840700
1767.000000	7.817500
1766.000000	7.788600
1765.000000	7.758700
1764.000000	7.741400
1763.000000	7.733200
1762.000000	7.746300
1761.000000	7.759700
1760.000000	7.782400
1759.000000	7.812300
1758.000000	7.854700
1757.000000	7.877700
1756.000000	7.897800
1755.000000	7.912700
1754.000000	7.914500
1753.000000	7.910300
1752.000000	7.902200
1751.000000	7.889600
1750.000000	7.846200
1749.000000	7.844100
1748.000000	7.812900
1747.000000	7.757700
1746.000000	7.713600
1745.000000	7.660600
1744.000000	7.610600
1743.000000	7.507800
1742.000000	7.428200
1741.000000	7.336900
1740.000000	7.240600
1739.000000	7.174200
1738.000000	7.103400
1737.000000	7.060100
1736.000000	6.986500
1735.000000	6.972500
1734.000000	6.946600
1733.000000	6.950000
1732.000000	6.990000
1731.000000	7.018100
1730.000000	7.053000
1729.000000	7.087300
1728.000000	7.140300
1727.000000	7.168300
1726.000000	7.195900
1725.000000	7.226000
1724.000000	7.222800
1723.000000	7.253500
1722.000000	7.259900
1721.000000	7.276100
1720.000000	7.288400
1719.000000	7.292700
1718.000000	7.294100
1717.000000	7.335000
1716.000000	7.362900
1715.000000	7.368700
1714.000000	7.430500
1713.000000	7.472300
1712.000000	7.465300
1711.000000	7.495700
1710.000000	7.490300
1709.000000	7.493900
1708.000000	7.495200
1707.000000	7.467800
1706.000000	7.469800
1705.000000	7.452300
1704.000000	7.460800
1703.000000	7.411100
1702.000000	7.360900
1701.000000	7.292300
1700.000000	7.231700
1699.000000	7.174700
1698.000000	7.137400
1697.000000	7.064000
1696.000000	7.068700
1695.000000	7.060800
1694.000000	7.080500
1693.000000	7.101900
1692.000000	7.151400
1691.000000	7.202800
1690.000000	7.247800
1689.000000	7.277800
1688.000000	7.283000
1687.000000	7.294200
1686.000000	7.285800
1685.000000	7.271600
1684.000000	7.324200
1683.000000	7.397200
1682.000000	7.516200
1681.000000	7.688300
1680.000000	7.901600
1679.000000	8.125400
1678.000000	8.326600
1677.000000	8.502700
1676.000000	8.669600
1675.000000	8.817800
1674.000000	8.946300
1673.000000	9.039100
1672.000000	9.132700
1671.000000	9.207300
1670.000000	9.285800
1669.000000	9.354600
1668.000000	9.399800
1667.000000	9.465100
1666.000000	9.497600
1665.000000	9.549800
1664.000000	9.570000
1663.000000	9.608700
1662.000000	9.632900
1661.000000	9.635600
1660.000000	9.663700
1659.000000	9.676500
1658.000000	9.690500
1657.000000	9.692500
1656.000000	9.688400
1655.000000	9.698600
1654.000000	9.679400
1653.000000	9.679100
1652.000000	9.676100
1651.000000	9.645400
1650.000000	9.630600
1649.000000	9.636800
1648.000000	9.618100
1647.000000	9.589600
1646.000000	9.571900
1645.000000	9.540300
1644.000000	9.526200
1643.000000	9.491500
1642.000000	9.466300
1641.000000	9.446800
1640.000000	9.425000
1639.000000	9.396500
1638.000000	9.390000
1637.000000	9.348300
1636.000000	9.305400
1635.000000	9.284500
1634.000000	9.262900
1633.000000	9.231600
1632.000000	9.210000
1631.000000	9.168600
1630.000000	9.154100
1629.000000	9.117000
1628.000000	9.072900
1627.000000	9.050200
1626.000000	9.015500
1625.000000	8.984600
1624.000000	8.970300
1623.000000	8.937300
1622.000000	8.924500
1621.000000	8.882600
1620.000000	8.837700
1619.000000	8.804300
1618.000000	8.786200
1617.000000	8.769100
1616.000000	8.757200
1615.000000	8.733800
1614.000000	8.707600
1613.000000	8.683200
1612.000000	8.646800
1611.000000	8.625500
1610.000000	8.606200
1609.000000	8.585400
1608.000000	8.562100
1607.000000	8.534200
1606.000000	8.507700
1605.000000	8.491700
1604.000000	8.474100
1603.000000	8.454000
1602.000000	8.431800
1601.000000	8.407600
1600.000000	8.395300
1599.000000	8.374100
1598.000000	8.363900
1597.000000	8.333900
1596.000000	8.313600
1595.000000	8.307900
1594.000000	8.294200
1593.000000	8.268300
1592.000000	8.258100
1591.000000	8.254600
1590.000000	8.238500
1589.000000	8.225500
1588.000000	8.207500
1587.000000	8.198400
1586.000000	8.196900
1585.000000	8.193900
1584.000000	8.190700
1583.000000	8.182900
1582.000000	8.168800
1581.000000	8.178200
1580.000000	8.176500
1579.000000	8.176900
1578.000000	8.180200
1577.000000	8.181600
1576.000000	8.195700
1575.000000	8.197300
1574.000000	8.187700
1573.000000	8.194200
1572.000000	8.208100
1571.000000	8.215000
1570.000000	8.234700
1569.000000	8.245100
1568.000000	8.237000
1567.000000	8.257100
1566.000000	8.268400
1565.000000	8.267300
1564.000000	8.286800
1563.000000	8.297700
1562.000000	8.303200
1561.000000	8.306300
1560.000000	8.309400
1559.000000	8.323100
1558.000000	8.330600
1557.000000	8.337700
1556.000000	8.327500
1555.000000	8.308600
1554.000000	8.309500
1553.000000	8.317800
1552.000000	8.325600
1551.000000	8.317500
1550.000000	8.314400
1549.000000	8.302100
1548.000000	8.299100
1547.000000	8.300000
1546.000000	8.285200
1545.000000	8.273500
1544.000000	8.268100
1543.000000	8.257000
1542.000000	8.265500
1541.000000	8.267200
1540.000000	8.254500
1539.000000	8.260200
1538.000000	8.265000
1537.000000	8.263700
1536.000000	8.248600
1535.000000	8.253600
1534.000000	8.253700
1533.000000	8.245300
1532.000000	8.228000
1531.000000	8.237500
1530.000000	8.233700
1529.000000	8.217600
1528.000000	8.190000
1527.000000	8.187300
1526.000000	8.188600
1525.000000	8.179500
1524.000000	8.173800
1523.000000	8.156400
1522.000000	8.151100
1521.000000	8.149200
1520.000000	8.160400
1519.000000	8.129500
1518.000000	8.134000
1517.000000	8.134600
1516.000000	8.123300
1515.000000	8.119800
1514.000000	8.106300
1513.000000	8.101500
1512.000000	8.084500
1511.000000	8.074200
1510.000000	8.066700
1509.000000	8.070800
1508.000000	8.066800
1507.000000	8.065300
1506.000000	8.054200
1505.000000	8.053900
1504.000000	8.063700
1503.000000	8.056500
1502.000000	8.048300
1501.000000	8.048800
1500.000000	8.060100
1499.000000	8.060200
1498.000000	8.085500
1497.000000	8.096200
1496.000000	8.088600
1495.000000	8.082200
1494.000000	8.089600
1493.000000	8.114100
1492.000000	8.137900
1491.000000	8.123400
1490.000000	8.165700
1489.000000	8.170200
1488.000000	8.199400
1487.000000	8.208500
1486.000000	8.229300
1485.000000	8.250200
1484.000000	8.230800
1483.000000	8.265700
1482.000000	8.305400
1481.000000	8.315200
1480.000000	8.333800
1479.000000	8.366100
1478.000000	8.383000
1477.000000	8.395200
1476.000000	8.406000
1475.000000	8.453000
1474.000000	8.487300
1473.000000	8.510900
1472.000000	8.528100
1471.000000	8.544000
1470.000000	8.566700
1469.000000	8.571600
1468.000000	8.606900
1467.000000	8.619100
1466.000000	8.644600
1465.000000	8.675800
1464.000000	8.708000
1463.000000	8.745000
1462.000000	8.747000
1461.000000	8.791300
1460.000000	8.818300
1459.000000	8.824200
1458.000000	8.885100
1457.000000	8.929700
1456.000000	8.964700
1455.000000	8.986500
1454.000000	9.021900
1453.000000	9.070500
1452.000000	9.095300
1451.000000	9.151100
1450.000000	9.165600
1449.000000	9.196600
1448.000000	9.248800
1447.000000	9.316300
1446.000000	9.345900
1445.000000	9.388300
1444.000000	9.444300
1443.000000	9.471200
1442.000000	9.536500
1441.000000	9.567200
1440.000000	9.610400
1439.000000	9.667600
1438.000000	9.700400
1437.000000	9.733700
1436.000000	9.767400
1435.000000	9.827300
1434.000000	9.869000
1433.000000	9.910500
1432.000000	9.957300
1431.000000	10.001300
1430.000000	10.068700
1429.000000	10.108600
1428.000000	10.190300
1427.000000	10.232100
1426.000000	10.315900
1425.000000	10.441000
1424.000000	10.507000
1423.000000	10.566700
1422.000000	10.635700
1421.000000	10.740900
1420.000000	10.828200
1419.000000	10.877200
1418.000000	10.937500
1417.000000	11.010300
1416.000000	11.116200
1415.000000	11.212800
1414.000000	11.245000
1413.000000	11.295700
1412.000000	11.361200
1411.000000	11.459500
1410.000000	11.540800
1409.000000	11.641400
1408.000000	11.743400
1407.000000	11.858700
1406.000000	11.983700
1405.000000	12.119900
1404.000000	12.201100
1403.000000	12.341000
1402.000000	12.483700
1401.000000	12.584300
1400.000000	12.592500
1399.000000	12.642000
1398.000000	12.730300
1397.000000	12.820100
1396.000000	12.827800
1395.000000	12.757200
1394.000000	12.753200
1393.000000	12.745000
1392.000000	12.740600
1391.000000	12.721900
1390.000000	12.792300
1389.000000	12.819400
1388.000000	12.841900
1387.000000	12.873400
1386.000000	12.971400
1385.000000	13.088600
1384.000000	13.228300
1383.000000	13.337800
1382.000000	13.419500
1381.000000	13.498000
1380.000000	13.592400
1379.000000	13.710500
1378.000000	13.869100
1377.000000	14.017500
1376.000000	14.203500
1375.000000	14.388200
1374.000000	14.642900
1373.000000	14.906100
1372.000000	15.169100
1371.000000	15.375900
1370.000000	15.575600
1369.000000	15.753400
1368.000000	15.897700
1367.000000	16.034500
1366.000000	16.146200
1365.000000	16.227800
1364.000000	16.308800
1363.000000	16.415300
1362.000000	16.474800
1361.000000	16.448600
1360.000000	16.472000
1359.000000	16.519900
1358.000000	16.575100
1357.000000	16.677200
1356.000000	16.804300
1355.000000	16.994000
1354.000000	17.228400
1353.000000	17.474300
1352.000000	17.775900
1351.000000	18.050200
1350.000000	18.286000
1349.000000	18.494700
1348.000000	18.692100
1347.000000	18.863300
1346.000000	19.026900
1345.000000	19.184700
1344.000000	19.351000
1343.000000	19.511100
1342.000000	19.621300
1341.000000	19.751800
1340.000000	19.891800
1339.000000	20.012900
1338.000000	20.132700
1337.000000	20.230600
1336.000000	20.322200
1335.000000	20.418600
1334.000000	20.500300
1333.000000	20.581100
1332.000000	20.668400
1331.000000	20.748700
1330.000000	20.830900
1329.000000	20.913200
1328.000000	20.975900
1327.000000	21.041600
1326.000000	21.101200
1325.000000	21.159700
1324.000000	21.216400
1323.000000	21.262100
1322.000000	21.321200
1321.000000	21.366000
1320.000000	21.410800
1319.000000	21.451500
1318.000000	21.499400
1317.000000	21.545500
1316.000000	21.587500
1315.000000	21.625400
1314.000000	21.648300
1313.000000	21.675700
1312.000000	21.706100
1311.000000	21.741200
1310.000000	21.769300
1309.000000	21.793700
1308.000000	21.813600
1307.000000	21.842600
1306.000000	21.852300
1305.000000	21.851800
1304.000000	21.854700
1303.000000	21.859800
1302.000000	21.861400
1301.000000	21.852300
1300.000000	21.851700
1299.000000	21.852800
1298.000000	21.839900
1297.000000	21.824000
1296.000000	21.821500
1295.000000	21.812600
1294.000000	21.791800
1293.000000	21.767100
1292.000000	21.759300
1291.000000	21.741500
1290.000000	21.718600
1289.000000	21.707400
1288.000000	21.673500
1287.000000	21.645800
1286.000000	21.625300
1285.000000	21.592700
1284.000000	21.553000
1283.000000	21.521100
1282.000000	21.491100
1281.000000	21.449200
1280.000000	21.399400
1279.000000	21.367700
1278.000000	21.344600
1277.000000	21.298500
1276.000000	21.272000
1275.000000	21.242100
1274.000000	21.218900
1273.000000	21.196000
1272.000000	21.184000
1271.000000	21.169400
1270.000000	21.121900
1269.000000	21.076200
1268.000000	21.056000
1267.000000	21.028600
1266.000000	20.988100
1265.000000	20.953800
1264.000000	20.924800
1263.000000	20.894700
1262.000000	20.866500
1261.000000	20.841700
1260.000000	20.799000
1259.000000	20.753400
1258.000000	20.712100
1257.000000	20.680700
1256.000000	20.635700
1255.000000	20.603200
1254.000000	20.560000
1253.000000	20.522100
1252.000000	20.469800
1251.000000	20.439400
1250.000000	20.409800
1249.000000	20.359700
1248.000000	20.314100
1247.000000	20.271900
1246.000000	20.213900
1245.000000	20.162000
1244.000000	20.112500
1243.000000	20.035000
1242.000000	19.953100
1241.000000	19.907500
1240.000000	19.850100
1239.000000	19.774100
1238.000000	19.717900
1237.000000	19.652900
1236.000000	19.587400
1235.000000	19.542700
1234.000000	19.446600
1233.000000	19.371300
1232.000000	19.288200
1231.000000	19.220800
1230.000000	19.146500
1229.000000	19.086100
1228.000000	18.998900
1227.000000	18.911500
1226.000000	18.833800
1225.000000	18.762800
1224.000000	18.672000
1223.000000	18.595300
1222.000000	18.504000
1221.000000	18.432200
1220.000000	18.370300
1219.000000	18.291600
1218.000000	18.244300
1217.000000	18.175000
1216.000000	18.096300
1215.000000	18.053900
1214.000000	17.994800
1213.000000	17.954600
1212.000000	17.901700
1211.000000	17.838000
1210.000000	17.810300
1209.000000	17.738100
1208.000000	17.706200
1207.000000	17.689000
1206.000000	17.669400
1205.000000	17.644400
1204.000000	17.638700
1203.000000	17.631600
1202.000000	17.639500
1201.000000	17.618100
1200.000000	17.605100
1199.000000	17.547800
1198.000000	17.495200
1197.000000	17.416200
1196.000000	17.317700
1195.000000	17.180900
1194.000000	17.015300
1193.000000	16.830500
1192.000000	16.621900
1191.000000	16.410800
1190.000000	16.186000
1189.000000	16.011300
1188.000000	15.887300
1187.000000	15.827200
1186.000000	15.828800
1185.000000	15.893800
1184.000000	16.020700
1183.000000	16.194700
1182.000000	16.400100
1181.000000	16.645300
1180.000000	16.898500
1179.000000	17.126700
1178.000000	17.327000
1177.000000	17.502500
1176.000000	17.664800
1175.000000	17.820000
1174.000000	17.975200
1173.000000	18.137900
1172.000000	18.287200
1171.000000	18.465100
1170.000000	18.670900
1169.000000	18.832900
1168.000000	19.024700
1167.000000	19.227100
1166.000000	19.429000
1165.000000	19.623800
1164.000000	19.823700
1163.000000	20.025300
1162.000000	20.208500
1161.000000	20.396200
1160.000000	20.595500
1159.000000	20.762100
1158.000000	20.943200
1157.000000	21.092000
1156.000000	21.229100
1155.000000	21.329400
1154.000000	21.370600
1153.000000	21.393600
1152.000000	21.410100
1151.000000	21.398800
1150.000000	21.412900
1149.000000	21.404800
1148.000000	21.386500
1147.000000	21.414200
1146.000000	21.469400
1145.000000	21.562400
1144.000000	21.708400
1143.000000	21.852900
1142.000000	22.019100
1141.000000	22.207000
1140.000000	22.378100
1139.000000	22.557600
1138.000000	22.763400
1137.000000	22.976600
1136.000000	23.155000
1135.000000	23.319000
1134.000000	23.457500
1133.000000	23.593100
1132.000000	23.748200
1131.000000	23.877500
1130.000000	23.995700
1129.000000	24.076100
1128.000000	24.141800
1127.000000	24.234000
1126.000000	24.271900
1125.000000	24.304600
1124.000000	24.356900
1123.000000	24.359300
1122.000000	24.389800
1121.000000	24.393300
1120.000000	24.423300
1119.000000	24.445200
1118.000000	24.422600
1117.000000	24.438600
1116.000000	24.443100
1115.000000	24.416500
1114.000000	24.425300
1113.000000	24.437600
1112.000000	24.423700
1111.000000	24.423400
1110.000000	24.409100
1109.000000	24.419100
1108.000000	24.427400
1107.000000	24.414300
1106.000000	24.407200
1105.000000	24.410300
1104.000000	24.408700
1103.000000	24.408800
1102.000000	24.386600
1101.000000	24.381300
1100.000000	24.385400
1099.000000	24.384700
1098.000000	24.379800
1097.000000	24.379100
1096.000000	24.383000
1095.000000	24.381900
1094.000000	24.361800
1093.000000	24.355000
1092.000000	24.335300
1091.000000	24.345200
1090.000000	24.358300
1089.000000	24.349700
1088.000000	24.323700
1087.000000	24.285100
1086.000000	24.287400
1085.000000	24.283300
1084.000000	24.271900
1083.000000	24.266300
1082.000000	24.254300
1081.000000	24.241900
1080.000000	24.233900
1079.000000	24.217300
1078.000000	24.200200
1077.000000	24.193400
1076.000000	24.202700
1075.000000	24.205400
1074.000000	24.189100
1073.000000	24.177900
1072.000000	24.175700
1071.000000	24.167900
1070.000000	24.155600
1069.000000	24.131800
1068.000000	24.139100
1067.000000	24.130300
1066.000000	24.123000
1065.000000	24.121300
1064.000000	24.104700
1063.000000	24.088100
1062.000000	24.087500
1061.000000	24.070200
1060.000000	24.046100
1059.000000	24.019800
1058.000000	24.014400
1057.000000	24.012600
1056.000000	23.990600
1055.000000	23.959800
1054.000000	23.940600
1053.000000	23.938400
1052.000000	23.925600
1051.000000	23.900800
1050.000000	23.876100
1049.000000	23.871700
1048.000000	23.862900
1047.000000	23.846400
1046.000000	23.831900
1045.000000	23.820200
1044.000000	23.817700
1043.000000	23.806700
1042.000000	23.796500
1041.000000	23.794100
1040.000000	23.794400
1039.000000	23.787700
1038.000000	23.765600
1037.000000	23.741000
1036.000000	23.720200
1035.000000	23.703800
1034.000000	23.686100
1033.000000	23.666700
1032.000000	23.647300
1031.000000	23.629300
1030.000000	23.601300
1029.000000	23.576300
1028.000000	23.551700
1027.000000	23.536000
1026.000000	23.520500
1025.000000	23.499600
1024.000000	23.496000
1023.000000	23.484400
1022.000000	23.472900
1021.000000	23.466900
1020.000000	23.465000
1019.000000	23.453200
1018.000000	23.453000
1017.000000	23.473300
1016.000000	23.503300
1015.000000	23.516600
1014.000000	23.530700
1013.000000	23.557000
1012.000000	23.585300
1011.000000	23.618700
1010.000000	23.653100
1009.000000	23.683800
1008.000000	23.709900
1007.000000	23.753200
1006.000000	23.784200
1005.000000	23.806000
1004.000000	23.831200
1003.000000	23.864200
1002.000000	23.891300
1001.000000	23.921200
1000.000000	23.948000
999.000000	23.966000
998.000000	23.989100
997.000000	24.012000
996.000000	24.047300
995.000000	24.090400
994.000000	24.121000
993.000000	24.147100
992.000000	24.172400
991.000000	24.198200
990.000000	24.244100
989.000000	24.288800
988.000000	24.309500
987.000000	24.341500
986.000000	24.368300
985.000000	24.386200
984.000000	24.419500
983.000000	24.449900
982.000000	24.465700
981.000000	24.478300
980.000000	24.497400
979.000000	24.527300
978.000000	24.534900
977.000000	24.522400
976.000000	24.559500
975.000000	24.603200
974.000000	24.625400
973.000000	24.662800
972.000000	24.695400
971.000000	24.754800
970.000000	24.788600
969.000000	24.815700
968.000000	24.860300
967.000000	24.886400
966.000000	24.930500
965.000000	24.952300
964.000000	24.972100
963.000000	25.010100
962.000000	25.010200
961.000000	25.019000
960.000000	25.052100
959.000000	25.051000
958.000000	25.070500
957.000000	25.062200
956.000000	25.051400
955.000000	25.040600
954.000000	25.027500
953.000000	25.031200
952.000000	25.021900
951.000000	25.014800
950.000000	25.020100
949.000000	25.025800
948.000000	25.027900
947.000000	25.064300
946.000000	25.100900
945.000000	25.135300
944.000000	25.169900
943.000000	25.205500
942.000000	25.231000
941.000000	25.276100
940.000000	25.338300
939.000000	25.407800
938.000000	25.411000
937.000000	25.444500
936.000000	25.467000
935.000000	25.485100
934.000000	25.502000
933.000000	25.503700
932.000000	25.499700
931.000000	25.538000
930.000000	25.552900
929.000000	25.598000
928.000000	25.659200
927.000000	25.696700
926.000000	25.724200
925.000000	25.758500
924.000000	25.784900
923.000000	25.839900
922.000000	25.867800
921.000000	25.924500
920.000000	25.964700
919.000000	26.009500
918.000000	26.041500
917.000000	26.046400
916.000000	26.064900
915.000000	26.061800
914.000000	26.067600
913.000000	26.051000
912.000000	26.029500
911.000000	26.024700
910.000000	26.013700
909.000000	26.038400
908.000000	25.982700
907.000000	25.986500
906.000000	26.000400
905.000000	26.014200
904.000000	26.080200
903.000000	26.087000
902.000000	26.115300
901.000000	26.183200
900.000000	26.220500
899.000000	26.230500
898.000000	26.258500
897.000000	26.300700
896.000000	26.323900
895.000000	26.358900
894.000000	26.355200
893.000000	26.361900
892.000000	26.358600
891.000000	26.340500
890.000000	26.344800
889.000000	26.333800
888.000000	26.309200
887.000000	26.289400
886.000000	26.296500
885.000000	26.268700
884.000000	26.267300
883.000000	26.254600
882.000000	26.232000
881.000000	26.237900
880.000000	26.265300
879.000000	26.275600
878.000000	26.275600
877.000000	26.271100
876.000000	26.282400
875.000000	26.292800
874.000000	26.296600
873.000000	26.280900
872.000000	26.275900
871.000000	26.320700
870.000000	26.328200
869.000000	26.341000
868.000000	26.366300
867.000000	26.365500
866.000000	26.359900
865.000000	26.371600
864.000000	26.391500
863.000000	26.377700
862.000000	26.353400
861.000000	26.331700
860.000000	26.304300
859.000000	26.295000
858.000000	27.690607
857.000000	25.723942
856.000000	25.382232
855.000000	25.688207
854.000000	25.862306
853.000000	25.823062
852.000000	25.821467
851.000000	25.626417
850.000000	25.744574
849.000000	25.643858
848.000000	25.878152
847.000000	25.729897
846.000000	25.765738
845.000000	25.866135
844.000000	25.710329
843.000000	25.735747
842.000000	25.713732
841.000000	25.763611
840.000000	25.886448
839.000000	25.846459
838.000000	25.791688
837.000000	25.943346
836.000000	26.024918
835.000000	26.032469
834.000000	26.026620
833.000000	26.086709
832.000000	26.098620
831.000000	25.996629
830.000000	25.997799
829.000000	25.962490
828.000000	26.033427
827.000000	26.092239
826.000000	26.045232
825.000000	25.972061
824.000000	25.942070
823.000000	25.957172
822.000000	25.846885
821.000000	25.824657
820.000000	25.883257
819.000000	25.948345
818.000000	25.955789
817.000000	25.902401
816.000000	25.922076
815.000000	25.924309
814.000000	25.891978
813.000000	25.920055
812.000000	25.893361
811.000000	25.883470
810.000000	25.824870
809.000000	25.811363
808.000000	25.724048
807.000000	25.590257
806.000000	25.482097
805.000000	25.507515
804.000000	25.519745
803.000000	25.445405
802.000000	25.416690
801.000000	25.417328
800.000000	25.413287
799.000000	25.321186
798.000000	25.405310
797.000000	25.353623
796.000000	25.352347
795.000000	25.424560
794.000000	25.460082
793.000000	25.536336
792.000000	25.538144
791.000000	25.538463
790.000000	25.619078
789.000000	25.630245
788.000000	25.688420
787.000000	25.681294
786.000000	25.682145
785.000000	25.615781
784.000000	25.570050
783.000000	25.582706
782.000000	25.564732
781.000000	25.548141
780.000000	25.472844
779.000000	25.483479
778.000000	25.466357
777.000000	25.413819
776.000000	25.394781
775.000000	25.394143
774.000000	25.385529
773.000000	25.363089
772.000000	25.372448
771.000000	25.387975
770.000000	25.355538
769.000000	25.339266
768.000000	25.329800
767.000000	25.316506
766.000000	25.306828
765.000000	25.281729
764.000000	25.198668
763.000000	25.114012
762.000000	25.097846
761.000000	25.064877
760.000000	24.983092
759.000000	24.899393
758.000000	24.797295
757.000000	24.697324
756.000000	24.615752
755.000000	24.554280
754.000000	24.512484
753.000000	24.409854
752.000000	24.316370
751.000000	24.318391
750.000000	24.269043
749.000000	24.225971
748.000000	24.197575
747.000000	24.152907
746.000000	24.069208
745.000000	23.966471
744.000000	23.894684
743.000000	23.832467
742.000000	23.759404
741.000000	23.666558
740.000000	23.559780
739.000000	23.492779
738.000000	23.425777
737.000000	23.323040
736.000000	23.241575
735.000000	23.196588
734.000000	23.164257
733.000000	23.132670
732.000000	23.135222
731.000000	23.158833
730.000000	23.160002
729.000000	23.180741
728.000000	23.232641
727.000000	23.265291
726.000000	23.310704
725.000000	23.376855
724.000000	23.411206
723.000000	23.448961
722.000000	23.479484
721.000000	23.508306
720.000000	23.519154
719.000000	23.502988
718.000000	23.451301
717.000000	23.415673
716.000000	23.382066
715.000000	23.335590
714.000000	23.314532
713.000000	23.323253
712.000000	23.316340
711.000000	23.301132
710.000000	23.315170
709.000000	23.337292
708.000000	23.371537
707.000000	23.366751
706.000000	23.412270
705.000000	23.445345
704.000000	23.483420
703.000000	23.467573
702.000000	23.437582
701.000000	23.421310
700.000000	23.424819
699.000000	23.408441
698.000000	23.309853
697.000000	23.207861
696.000000	23.104806
695.000000	22.988988
694.000000	22.852857
693.000000	22.686310
692.000000	22.505511
691.000000	22.338113
690.000000	22.150826
689.000000	21.967581
688.000000	21.805820
687.000000	21.583225
686.000000	21.381049
685.000000	21.233751
684.000000	21.075605
683.000000	20.902783
682.000000	20.739851
681.000000	20.533209
680.000000	20.328800
679.000000	20.096102
678.000000	19.885311
677.000000	19.654846
676.000000	19.409811
675.000000	19.141803
674.000000	18.854120
673.000000	18.558568
672.000000	18.224409
671.000000	17.909181
670.000000	17.601291
669.000000	17.287552
668.000000	16.997636
667.000000	16.705274
666.000000	16.460983
665.000000	16.250086
664.000000	16.081625
663.000000	15.971975
662.000000	15.916566
661.000000	15.913694
660.000000	15.937730
659.000000	16.015473
658.000000	16.165005
657.000000	16.358140
656.000000	16.568292
655.000000	16.827366
654.000000	17.115368
653.000000	17.432298
652.000000	17.710090
651.000000	18.014470
650.000000	18.307470
649.000000	18.605788
648.000000	18.893258
647.000000	19.181685
646.000000	19.434484
645.000000	19.680264
644.000000	19.960928
643.000000	20.183948
642.000000	20.456210
641.000000	20.697842
640.000000	20.978187
639.000000	21.271400
638.000000	21.578013
637.000000	21.838789
636.000000	22.165290
635.000000	22.438615
634.000000	22.718641
633.000000	22.996752
632.000000	23.271779
631.000000	23.523833
630.000000	23.731114
629.000000	23.956261
628.000000	24.178006
627.000000	24.338279
626.000000	24.483237
625.000000	24.638830
624.000000	24.748905
623.000000	24.835901
622.000000	24.932575
621.000000	25.011701
620.000000	25.068387
619.000000	25.136133
618.000000	25.184310
617.000000	25.209622
616.000000	25.248866
615.000000	25.264075
614.000000	25.321718
613.000000	25.363727
612.000000	25.377871
611.000000	25.427538
610.000000	25.505813
609.000000	25.555692
608.000000	25.632479
607.000000	25.667681
606.000000	25.725750
605.000000	25.787008
604.000000	25.845928
603.000000	25.894531
602.000000	25.914631
601.000000	25.947069
600.000000	25.965787
599.000000	25.994289
598.000000	26.011518
597.000000	26.000883
596.000000	26.020771
595.000000	26.025769
594.000000	25.972806
593.000000	25.965467
592.000000	25.906336
591.000000	25.880067
590.000000	25.839227
589.000000	25.744468
588.000000	25.688101
587.000000	25.600786
586.000000	25.490818
585.000000	25.396909
584.000000	25.298958
583.000000	25.181864
582.000000	25.080192
581.000000	24.957780
580.000000	24.873868
579.000000	24.789850
578.000000	24.674245
577.000000	24.582144
576.000000	24.501210
575.000000	24.439739
574.000000	24.317327
573.000000	24.237244
572.000000	24.165456
571.000000	24.133232
570.000000	24.072611
569.000000	23.970725
568.000000	23.875327
567.000000	23.797903
566.000000	23.707610
565.000000	23.572011
564.000000	23.433328
563.000000	23.285604
562.000000	23.144900
561.000000	22.966441
560.000000	22.826482
559.000000	23.095978
558.000000	22.858388
557.000000	22.586870
556.000000	22.277704
555.000000	21.962051
554.000000	21.645228
553.000000	21.314685
552.000000	20.950323
551.000000	20.564902
550.000000	20.202666
549.000000	19.795657
548.000000	19.391199
547.000000	18.997802
546.000000	18.603448
545.000000	18.187398
544.000000	17.773688
543.000000	17.336368
542.000000	16.923934
541.000000	16.513946
540.000000	16.095450
539.000000	15.696310
538.000000	15.322589
537.000000	14.950462
536.000000	14.602159
535.000000	14.267788
534.000000	13.941499
533.000000	13.634141
532.000000	13.336248
531.000000	13.045056
530.000000	12.772794
529.000000	12.529886
528.000000	12.295273
527.000000	12.085759
526.000000	11.865610
525.000000	11.662796
524.000000	11.472001
523.000000	11.285778
522.000000	11.118592
521.000000	10.958532
520.000000	10.807193
519.000000	10.681910
518.000000	10.538334
517.000000	10.403374
516.000000	10.278941
515.000000	10.175035
514.000000	10.064748
513.000000	9.950632
512.000000	9.831518
511.000000	9.707617
510.000000	9.579676
509.000000	9.442162
508.000000	9.299331
507.000000	9.164689
506.000000	9.030792
505.000000	8.900936
504.000000	8.754489
503.000000	8.610488
502.000000	8.490310
501.000000	8.368749
500.000000	8.251336
499.000000	8.157534
498.000000	8.073197
497.000000	7.999707
496.000000	7.932599
495.000000	7.886548
494.000000	7.849219
493.000000	7.824758
492.000000	7.811570
491.000000	7.810400
490.000000	7.802530
489.000000	7.832309
488.000000	7.867618
487.000000	7.908244
486.000000	7.946318
485.000000	7.997367
484.000000	8.037888
483.000000	8.087341
482.000000	8.156151
481.000000	8.244424
480.000000	8.336418
479.000000	8.392466
478.000000	8.425541
477.000000	8.464679
476.000000	8.502434
475.000000	8.529022
474.000000	8.551781
473.000000	8.580390
472.000000	8.601767
471.000000	8.605277
470.000000	8.609850
469.000000	8.616018
468.000000	8.611020
467.000000	8.591557
466.000000	8.568798
465.000000	8.547421
464.000000	8.522535
463.000000	8.486375
462.000000	8.452768
461.000000	8.409376
460.000000	8.363113
459.000000	8.321104
458.000000	8.268246
457.000000	8.215070
456.000000	8.166042
455.000000	8.098296
454.000000	8.029486
453.000000	7.954295
452.000000	7.870276
451.000000	7.790087
450.000000	7.709685
449.000000	7.623220
448.000000	7.524738
447.000000	7.420300
446.000000	7.311289
445.000000	7.186113
444.000000	7.070401
443.000000	6.963730
442.000000	6.850146
441.000000	6.720290
440.000000	6.581926
439.000000	6.444944
438.000000	6.309770
437.000000	6.168641
436.000000	6.019323
435.000000	5.868196
434.000000	5.720154
433.000000	5.570942
432.000000	5.424176
431.000000	5.278473
430.000000	5.122135
429.000000	4.980261
428.000000	4.838175
427.000000	4.688325
426.000000	4.549960
425.000000	4.407767
424.000000	4.271211
423.000000	4.148374
422.000000	4.023836
421.000000	3.909401
420.000000	3.796987
419.000000	3.690209
418.000000	3.595768
417.000000	3.504944
416.000000	3.418692
415.000000	3.333185
414.000000	3.253633
413.000000	3.179825
412.000000	3.116758
411.000000	3.054967
410.000000	2.992751
409.000000	2.948721
408.000000	2.906606
407.000000	2.850452
406.000000	2.802274
405.000000	2.772602
404.000000	2.741335
403.000000	2.713577
402.000000	2.683054
401.000000	2.655615
400.000000	2.631154
399.000000	2.605842
398.000000	2.587975
397.000000	2.568193
396.000000	2.547136
395.000000	2.533841
394.000000	2.508849
393.000000	2.489386
392.000000	2.483218
391.000000	2.478326
390.000000	2.468329
389.000000	2.453227
388.000000	2.435253
387.000000	2.426426
386.000000	2.411324
385.000000	2.409516
384.000000	2.404092
383.000000	2.391117
382.000000	2.372292
381.000000	2.366549
380.000000	2.364103
379.000000	2.358892
378.000000	2.348044
377.000000	2.330921
376.000000	2.505871
375.000000	2.416322
374.000000	2.517144
373.000000	2.549582
372.000000	2.522781
371.000000	2.561280
370.000000	2.588400
369.000000	2.556069
368.000000	2.649765
367.000000	2.642002
366.000000	2.618817
365.000000	2.643065
364.000000	2.582338
363.000000	2.515549
362.000000	2.539265
361.000000	2.597546
360.000000	2.573405
359.000000	2.512465
358.000000	2.528418
357.000000	2.501404
356.000000	2.479708
355.000000	2.523206
354.000000	2.482473
353.000000	2.450461
352.000000	2.452269
351.000000	2.493109
350.000000	2.531714
349.000000	2.470668
348.000000	2.497150
347.000000	2.491407
346.000000	2.527460
345.000000	2.518527
344.000000	2.484069
343.000000	2.595526
342.000000	2.506084
341.000000	2.464393
340.000000	2.454715
339.000000	2.450993
338.000000	2.432169
337.000000	2.516931
336.000000	2.559472
335.000000	2.576063
334.000000	2.499064
333.000000	2.451312
332.000000	2.499702
331.000000	2.482899
330.000000	2.598610
329.000000	2.588613
328.000000	2.576595
327.000000	2.506296
326.000000	2.454184
325.000000	2.783982
324.000000	2.711556
323.000000	2.624241
322.000000	2.603183
321.000000	2.900650
320.000000	2.900438
319.000000	2.611479
318.000000	2.789512
317.000000	2.961484
316.000000	2.340919
315.000000	2.274555
314.000000	2.290720
313.000000	2.277320
312.000000	2.256794
311.000000	2.217125
310.000000	2.258177
309.000000	2.264770
308.000000	2.256900
307.000000	2.205639
306.000000	2.258496
305.000000	2.278064
304.000000	2.249456
303.000000	2.241373
302.000000	2.242862
301.000000	2.245733
300.000000	2.195429
299.000000	2.223612
298.000000	2.214359
297.000000	2.268599
296.000000	2.222655
295.000000	2.271683
294.000000	2.274874
293.000000	2.278171
292.000000	2.252008
291.000000	2.287317
290.000000	2.242543
289.000000	2.268067
288.000000	2.257219
287.000000	2.255305
286.000000	2.281787
285.000000	2.295719
284.000000	2.268705
283.000000	2.275406
282.000000	2.286466
281.000000	2.292635
280.000000	2.287636
279.000000	2.260516
278.000000	2.252434
277.000000	2.331028
276.000000	2.279447
275.000000	2.254454
274.000000	2.277107
273.000000	2.318691
272.000000	2.268705
271.000000	2.277107
270.000000	2.257645
269.000000	2.252434
268.000000	2.278596
267.000000	2.313267
266.000000	2.306992
265.000000	2.333687
264.000000	2.340706
263.000000	2.339855
262.000000	2.315500
261.000000	2.338792
260.000000	2.335920
259.000000	2.367826
258.000000	2.311672
257.000000	2.364529
256.000000	2.403135
255.000000	2.380375
254.000000	2.335388
253.000000	2.358892
252.000000	2.346236
251.000000	2.393031
250.000000	2.383353
