PE UV       SUBTECH     SPECTRUM    ASCII       PEDS        4.00        
   -1
CICIMAUCR0012-3.Sample.ASC
24/04/04
15:58:33.00
24/04/04
15:58:33.00
Vinicio Soto Monge
C. cupreomarginata
250,000000
1
Lambda 1050
1050L1511233
PerkinElmer UV WinLab 6.3.2.0749 / 2.02.05 Lambda 900 UV/VIS/NIR, Aug  7 2015 09:38:08

0
0
3350/servo 860,8/2
0
0
UV/VIS
1
1
1
DoubleDePol,CommonBeamDepol,RBeamAtt,SBeamAtt,60mm sphere, WB InGaAs Detector
0
0
0
0
Program
Program
3350/servo 860,8/2
3350/0,2 860,8/0,2
3350/0,2 860,8/0,2
0
15.00
 
 
 
0
 
860,8
319,2
860,8
Front
100
on
S:100 R:100
0
0
0
0
 
0
 
 
 
0
 
 
0
0
0
0
0
 
 
 
 
0
0


0
0
#HDR
-1
-1
#GR
nm
%R
1.0
0.0
2500,000000
-1,000000
2251
8
59,015000
5,370900
#DATA
2500.000000	7.544200
2499.000000	7.529700
2498.000000	7.497400
2497.000000	7.481500
2496.000000	7.418600
2495.000000	7.485800
2494.000000	7.391400
2493.000000	7.473700
2492.000000	7.396800
2491.000000	7.483300
2490.000000	7.428700
2489.000000	7.435200
2488.000000	7.440700
2487.000000	7.454900
2486.000000	7.464200
2485.000000	7.431100
2484.000000	7.499000
2483.000000	7.450900
2482.000000	7.418900
2481.000000	7.461500
2480.000000	7.539900
2479.000000	7.528000
2478.000000	7.536200
2477.000000	7.532800
2476.000000	7.513100
2475.000000	7.549400
2474.000000	7.563400
2473.000000	7.567800
2472.000000	7.597100
2471.000000	7.592600
2470.000000	7.612000
2469.000000	7.614900
2468.000000	7.654400
2467.000000	7.667600
2466.000000	7.671800
2465.000000	7.711500
2464.000000	7.731200
2463.000000	7.786000
2462.000000	7.807700
2461.000000	7.851000
2460.000000	7.896900
2459.000000	7.970600
2458.000000	7.990000
2457.000000	8.064000
2456.000000	8.118700
2455.000000	8.223000
2454.000000	8.241300
2453.000000	8.320800
2452.000000	8.367600
2451.000000	8.471900
2450.000000	8.535400
2449.000000	8.595200
2448.000000	8.669200
2447.000000	8.779300
2446.000000	8.819400
2445.000000	8.916000
2444.000000	9.006700
2443.000000	9.072800
2442.000000	9.142300
2441.000000	9.216100
2440.000000	9.286900
2439.000000	9.358000
2438.000000	9.428200
2437.000000	9.503700
2436.000000	9.565100
2435.000000	9.628100
2434.000000	9.694100
2433.000000	9.762300
2432.000000	9.821300
2431.000000	9.893500
2430.000000	9.945900
2429.000000	9.999300
2428.000000	10.063900
2427.000000	10.105600
2426.000000	10.160800
2425.000000	10.198300
2424.000000	10.251400
2423.000000	10.320800
2422.000000	10.345300
2421.000000	10.404500
2420.000000	10.495400
2419.000000	10.545300
2418.000000	10.593700
2417.000000	10.637000
2416.000000	10.662300
2415.000000	10.690300
2414.000000	10.731500
2413.000000	10.783300
2412.000000	10.822900
2411.000000	10.845600
2410.000000	10.893100
2409.000000	10.927200
2408.000000	10.961800
2407.000000	10.994100
2406.000000	11.021000
2405.000000	11.054400
2404.000000	11.091500
2403.000000	11.131300
2402.000000	11.171200
2401.000000	11.195800
2400.000000	11.223800
2399.000000	11.261000
2398.000000	11.296800
2397.000000	11.310200
2396.000000	11.334900
2395.000000	11.367100
2394.000000	11.403200
2393.000000	11.431700
2392.000000	11.455800
2391.000000	11.489600
2390.000000	11.496600
2389.000000	11.515400
2388.000000	11.525300
2387.000000	11.535800
2386.000000	11.556400
2385.000000	11.570100
2384.000000	11.558800
2383.000000	11.550900
2382.000000	11.550400
2381.000000	11.546600
2380.000000	11.538900
2379.000000	11.518200
2378.000000	11.505800
2377.000000	11.508000
2376.000000	11.490400
2375.000000	11.473000
2374.000000	11.450300
2373.000000	11.422000
2372.000000	11.400300
2371.000000	11.368300
2370.000000	11.334400
2369.000000	11.300500
2368.000000	11.242800
2367.000000	11.192500
2366.000000	11.161500
2365.000000	11.113000
2364.000000	11.061700
2363.000000	10.999600
2362.000000	10.949100
2361.000000	10.898700
2360.000000	10.836100
2359.000000	10.777300
2358.000000	10.721400
2357.000000	10.673000
2356.000000	10.629500
2355.000000	10.581200
2354.000000	10.540700
2353.000000	10.520400
2352.000000	10.528100
2351.000000	10.531000
2350.000000	10.525200
2349.000000	10.530300
2348.000000	10.542400
2347.000000	10.573700
2346.000000	10.609600
2345.000000	10.639200
2344.000000	10.682200
2343.000000	10.705000
2342.000000	10.725300
2341.000000	10.759100
2340.000000	10.770400
2339.000000	10.781000
2338.000000	10.778700
2337.000000	10.767800
2336.000000	10.767400
2335.000000	10.755200
2334.000000	10.735300
2333.000000	10.711100
2332.000000	10.664000
2331.000000	10.640600
2330.000000	10.585300
2329.000000	10.514100
2328.000000	10.467100
2327.000000	10.416900
2326.000000	10.336300
2325.000000	10.254100
2324.000000	10.189900
2323.000000	10.115200
2322.000000	10.033500
2321.000000	9.934600
2320.000000	9.850000
2319.000000	9.733500
2318.000000	9.639100
2317.000000	9.524200
2316.000000	9.428400
2315.000000	9.317700
2314.000000	9.216200
2313.000000	9.116700
2312.000000	9.008800
2311.000000	8.921000
2310.000000	8.837900
2309.000000	8.777500
2308.000000	8.713200
2307.000000	8.671700
2306.000000	8.637500
2305.000000	8.635600
2304.000000	8.641500
2303.000000	8.647700
2302.000000	8.686900
2301.000000	8.725500
2300.000000	8.765000
2299.000000	8.814400
2298.000000	8.871200
2297.000000	8.911700
2296.000000	8.965300
2295.000000	8.999900
2294.000000	9.038300
2293.000000	9.070400
2292.000000	9.115500
2291.000000	9.115200
2290.000000	9.122100
2289.000000	9.102400
2288.000000	9.092700
2287.000000	9.063000
2286.000000	8.999700
2285.000000	8.962800
2284.000000	8.914600
2283.000000	8.853900
2282.000000	8.807400
2281.000000	8.736800
2280.000000	8.665000
2279.000000	8.598800
2278.000000	8.531000
2277.000000	8.490700
2276.000000	8.416800
2275.000000	8.370100
2274.000000	8.319500
2273.000000	8.267600
2272.000000	8.229400
2271.000000	8.200200
2270.000000	8.186000
2269.000000	8.185700
2268.000000	8.188300
2267.000000	8.210700
2266.000000	8.237000
2265.000000	8.294800
2264.000000	8.398000
2263.000000	8.451500
2262.000000	8.546700
2261.000000	8.648200
2260.000000	8.778400
2259.000000	8.891800
2258.000000	9.046600
2257.000000	9.173600
2256.000000	9.319100
2255.000000	9.503100
2254.000000	9.635200
2253.000000	9.780000
2252.000000	9.926100
2251.000000	10.071500
2250.000000	10.174500
2249.000000	10.286200
2248.000000	10.421100
2247.000000	10.516900
2246.000000	10.643000
2245.000000	10.730200
2244.000000	10.792400
2243.000000	10.888100
2242.000000	10.931500
2241.000000	11.045900
2240.000000	11.089900
2239.000000	11.132300
2238.000000	11.201800
2237.000000	11.227500
2236.000000	11.281600
2235.000000	11.308200
2234.000000	11.307900
2233.000000	11.361800
2232.000000	11.317000
2231.000000	11.353200
2230.000000	11.325600
2229.000000	11.293100
2228.000000	11.280400
2227.000000	11.238000
2226.000000	11.188800
2225.000000	11.136800
2224.000000	11.077500
2223.000000	11.013400
2222.000000	10.961700
2221.000000	10.886600
2220.000000	10.804400
2219.000000	10.711800
2218.000000	10.645900
2217.000000	10.569000
2216.000000	10.481200
2215.000000	10.452200
2214.000000	10.379700
2213.000000	10.344400
2212.000000	10.332800
2211.000000	10.312900
2210.000000	10.274000
2209.000000	10.330700
2208.000000	10.369500
2207.000000	10.420600
2206.000000	10.488500
2205.000000	10.581500
2204.000000	10.691700
2203.000000	10.818500
2202.000000	10.940700
2201.000000	11.101100
2200.000000	11.249100
2199.000000	11.417600
2198.000000	11.566500
2197.000000	11.771400
2196.000000	11.910700
2195.000000	12.068900
2194.000000	12.234800
2193.000000	12.393600
2192.000000	12.539000
2191.000000	12.663300
2190.000000	12.769800
2189.000000	12.896900
2188.000000	12.979700
2187.000000	13.065700
2186.000000	13.147600
2185.000000	13.235900
2184.000000	13.274800
2183.000000	13.333200
2182.000000	13.395600
2181.000000	13.448900
2180.000000	13.480600
2179.000000	13.518900
2178.000000	13.548300
2177.000000	13.584400
2176.000000	13.600700
2175.000000	13.642600
2174.000000	13.703700
2173.000000	13.721300
2172.000000	13.756900
2171.000000	13.788100
2170.000000	13.831200
2169.000000	13.863200
2168.000000	13.906900
2167.000000	13.946300
2166.000000	13.957100
2165.000000	14.018500
2164.000000	14.087300
2163.000000	14.113100
2162.000000	14.152000
2161.000000	14.198100
2160.000000	14.241200
2159.000000	14.299000
2158.000000	14.354200
2157.000000	14.424900
2156.000000	14.491400
2155.000000	14.560400
2154.000000	14.621800
2153.000000	14.687700
2152.000000	14.747200
2151.000000	14.822800
2150.000000	14.874400
2149.000000	14.936000
2148.000000	15.009500
2147.000000	15.082200
2146.000000	15.137900
2145.000000	15.194800
2144.000000	15.273900
2143.000000	15.343000
2142.000000	15.392100
2141.000000	15.446500
2140.000000	15.506900
2139.000000	15.565300
2138.000000	15.625800
2137.000000	15.652500
2136.000000	15.699300
2135.000000	15.754300
2134.000000	15.784000
2133.000000	15.825900
2132.000000	15.867800
2131.000000	15.879400
2130.000000	15.903600
2129.000000	15.943500
2128.000000	15.957700
2127.000000	15.957600
2126.000000	15.972000
2125.000000	15.990400
2124.000000	15.993400
2123.000000	15.997200
2122.000000	15.997300
2121.000000	15.995300
2120.000000	15.990600
2119.000000	15.990300
2118.000000	15.978000
2117.000000	15.975800
2116.000000	15.978700
2115.000000	15.970500
2114.000000	15.942100
2113.000000	15.913400
2112.000000	15.901500
2111.000000	15.884900
2110.000000	15.869000
2109.000000	15.856700
2108.000000	15.827900
2107.000000	15.813600
2106.000000	15.801700
2105.000000	15.791000
2104.000000	15.770800
2103.000000	15.739800
2102.000000	15.718600
2101.000000	15.696700
2100.000000	15.689000
2099.000000	15.670000
2098.000000	15.639600
2097.000000	15.628700
2096.000000	15.615300
2095.000000	15.591800
2094.000000	15.579400
2093.000000	15.579200
2092.000000	15.563800
2091.000000	15.542100
2090.000000	15.530300
2089.000000	15.519000
2088.000000	15.506400
2087.000000	15.504000
2086.000000	15.501100
2085.000000	15.485700
2084.000000	15.456300
2083.000000	15.435900
2082.000000	15.422600
2081.000000	15.414700
2080.000000	15.387000
2079.000000	15.360400
2078.000000	15.337700
2077.000000	15.292100
2076.000000	15.259200
2075.000000	15.230600
2074.000000	15.196500
2073.000000	15.168000
2072.000000	15.133300
2071.000000	15.103400
2070.000000	15.059600
2069.000000	15.007000
2068.000000	14.973400
2067.000000	14.929000
2066.000000	14.893300
2065.000000	14.857200
2064.000000	14.803100
2063.000000	14.791200
2062.000000	14.753700
2061.000000	14.729500
2060.000000	14.700800
2059.000000	14.691000
2058.000000	14.678300
2057.000000	14.680700
2056.000000	14.694200
2055.000000	14.706700
2054.000000	14.725100
2053.000000	14.756600
2052.000000	14.817400
2051.000000	14.872200
2050.000000	14.962200
2049.000000	15.052800
2048.000000	15.147100
2047.000000	15.241600
2046.000000	15.362000
2045.000000	15.464200
2044.000000	15.586700
2043.000000	15.710900
2042.000000	15.841900
2041.000000	15.951100
2040.000000	16.081700
2039.000000	16.212600
2038.000000	16.320700
2037.000000	16.429400
2036.000000	16.536300
2035.000000	16.649800
2034.000000	16.754700
2033.000000	16.856100
2032.000000	16.944600
2031.000000	17.036600
2030.000000	17.126900
2029.000000	17.208800
2028.000000	17.304900
2027.000000	17.375300
2026.000000	17.435600
2025.000000	17.507300
2024.000000	17.568600
2023.000000	17.611900
2022.000000	17.662700
2021.000000	17.738000
2020.000000	17.789900
2019.000000	17.838400
2018.000000	17.892100
2017.000000	17.941400
2016.000000	17.969500
2015.000000	18.016400
2014.000000	18.040300
2013.000000	18.088400
2012.000000	18.119600
2011.000000	18.125700
2010.000000	18.130100
2009.000000	18.153600
2008.000000	18.153900
2007.000000	18.165400
2006.000000	18.155600
2005.000000	18.141200
2004.000000	18.145800
2003.000000	18.123700
2002.000000	18.098500
2001.000000	18.079100
2000.000000	18.045000
1999.000000	18.014000
1998.000000	17.982700
1997.000000	17.938300
1996.000000	17.898200
1995.000000	17.868700
1994.000000	17.803700
1993.000000	17.758600
1992.000000	17.695100
1991.000000	17.647400
1990.000000	17.589400
1989.000000	17.512300
1988.000000	17.449200
1987.000000	17.392100
1986.000000	17.316400
1985.000000	17.244000
1984.000000	17.182500
1983.000000	17.101700
1982.000000	17.016100
1981.000000	16.961100
1980.000000	16.869200
1979.000000	16.816400
1978.000000	16.734600
1977.000000	16.657800
1976.000000	16.576300
1975.000000	16.496600
1974.000000	16.436500
1973.000000	16.368800
1972.000000	16.294600
1971.000000	16.211000
1970.000000	16.146300
1969.000000	16.086400
1968.000000	16.026000
1967.000000	15.970900
1966.000000	15.906200
1965.000000	15.820900
1964.000000	15.758900
1963.000000	15.686900
1962.000000	15.630600
1961.000000	15.537300
1960.000000	15.500000
1959.000000	15.435300
1958.000000	15.354500
1957.000000	15.284900
1956.000000	15.212900
1955.000000	15.172800
1954.000000	15.084600
1953.000000	15.021100
1952.000000	14.954700
1951.000000	14.924900
1950.000000	14.845700
1949.000000	14.799500
1948.000000	14.756500
1947.000000	14.699300
1946.000000	14.641100
1945.000000	14.613500
1944.000000	14.583000
1943.000000	14.537200
1942.000000	14.521100
1941.000000	14.518600
1940.000000	14.482900
1939.000000	14.502600
1938.000000	14.500500
1937.000000	14.500300
1936.000000	14.505500
1935.000000	14.530300
1934.000000	14.542500
1933.000000	14.571400
1932.000000	14.652200
1931.000000	14.696400
1930.000000	14.758400
1929.000000	14.826300
1928.000000	14.903500
1927.000000	14.988900
1926.000000	15.059700
1925.000000	15.180500
1924.000000	15.288900
1923.000000	15.393400
1922.000000	15.523500
1921.000000	15.677100
1920.000000	15.842800
1919.000000	15.958100
1918.000000	16.111700
1917.000000	16.293700
1916.000000	16.440600
1915.000000	16.600400
1914.000000	16.815900
1913.000000	17.047800
1912.000000	17.228700
1911.000000	17.417800
1910.000000	17.642500
1909.000000	17.813100
1908.000000	18.025400
1907.000000	18.260100
1906.000000	18.515300
1905.000000	18.781600
1904.000000	19.028700
1903.000000	19.266300
1902.000000	19.520600
1901.000000	19.771200
1900.000000	20.030200
1899.000000	20.343700
1898.000000	20.598500
1897.000000	20.876700
1896.000000	21.132500
1895.000000	21.373100
1894.000000	21.629800
1893.000000	21.895400
1892.000000	22.180900
1891.000000	22.492400
1890.000000	22.758100
1889.000000	23.017300
1888.000000	23.332800
1887.000000	23.618500
1886.000000	23.934300
1885.000000	24.290000
1884.000000	24.677300
1883.000000	25.072000
1882.000000	25.454300
1881.000000	25.883300
1880.000000	26.294300
1879.000000	26.685300
1878.000000	27.065200
1877.000000	27.425500
1876.000000	27.771500
1875.000000	28.089200
1874.000000	28.369400
1873.000000	28.624300
1872.000000	28.863200
1871.000000	29.084300
1870.000000	29.234300
1869.000000	29.367000
1868.000000	29.511600
1867.000000	29.604500
1866.000000	29.671200
1865.000000	29.742700
1864.000000	29.803200
1863.000000	29.871600
1862.000000	29.935600
1861.000000	29.980800
1860.000000	30.019100
1859.000000	30.045200
1858.000000	30.038000
1857.000000	30.040300
1856.000000	30.028500
1855.000000	30.010000
1854.000000	29.978600
1853.000000	29.932500
1852.000000	29.876200
1851.000000	29.846200
1850.000000	29.835400
1849.000000	29.836300
1848.000000	29.779500
1847.000000	29.679800
1846.000000	29.566100
1845.000000	29.498700
1844.000000	29.486200
1843.000000	29.498400
1842.000000	29.494500
1841.000000	29.460800
1840.000000	29.425700
1839.000000	29.391000
1838.000000	29.340000
1837.000000	29.273400
1836.000000	29.212500
1835.000000	29.138000
1834.000000	29.047800
1833.000000	28.968500
1832.000000	28.917000
1831.000000	28.868300
1830.000000	28.796800
1829.000000	28.732500
1828.000000	28.643600
1827.000000	28.558800
1826.000000	28.500600
1825.000000	28.444900
1824.000000	28.397600
1823.000000	28.395600
1822.000000	28.429600
1821.000000	28.407600
1820.000000	28.348600
1819.000000	28.303500
1818.000000	28.276000
1817.000000	28.278600
1816.000000	28.283700
1815.000000	28.270800
1814.000000	28.251900
1813.000000	28.249500
1812.000000	28.240500
1811.000000	28.207400
1810.000000	28.169300
1809.000000	28.131200
1808.000000	28.118400
1807.000000	28.092700
1806.000000	28.032400
1805.000000	27.980900
1804.000000	27.933800
1803.000000	27.906700
1802.000000	27.880500
1801.000000	27.831600
1800.000000	27.772700
1799.000000	27.733500
1798.000000	27.690000
1797.000000	27.655000
1796.000000	27.618000
1795.000000	27.575300
1794.000000	27.520800
1793.000000	27.468100
1792.000000	27.412100
1791.000000	27.369600
1790.000000	27.325100
1789.000000	27.269900
1788.000000	27.231400
1787.000000	27.168800
1786.000000	27.096200
1785.000000	27.040400
1784.000000	26.958600
1783.000000	26.889100
1782.000000	26.814800
1781.000000	26.738900
1780.000000	26.676600
1779.000000	26.598900
1778.000000	26.504100
1777.000000	26.424700
1776.000000	26.318300
1775.000000	26.203700
1774.000000	26.085600
1773.000000	25.977600
1772.000000	25.852800
1771.000000	25.738500
1770.000000	25.627700
1769.000000	25.509800
1768.000000	25.389600
1767.000000	25.282700
1766.000000	25.192300
1765.000000	25.105500
1764.000000	25.043100
1763.000000	25.033900
1762.000000	25.031700
1761.000000	25.061400
1760.000000	25.107300
1759.000000	25.137600
1758.000000	25.186000
1757.000000	25.247100
1756.000000	25.278700
1755.000000	25.288600
1754.000000	25.307100
1753.000000	25.282700
1752.000000	25.260100
1751.000000	25.230900
1750.000000	25.189800
1749.000000	25.120700
1748.000000	25.039500
1747.000000	24.940400
1746.000000	24.834700
1745.000000	24.716500
1744.000000	24.565600
1743.000000	24.404700
1742.000000	24.208000
1741.000000	23.996200
1740.000000	23.784200
1739.000000	23.577500
1738.000000	23.390800
1737.000000	23.216400
1736.000000	23.083200
1735.000000	22.996300
1734.000000	22.950200
1733.000000	22.910500
1732.000000	22.945400
1731.000000	22.987400
1730.000000	23.061600
1729.000000	23.163300
1728.000000	23.240100
1727.000000	23.319500
1726.000000	23.405900
1725.000000	23.463300
1724.000000	23.499500
1723.000000	23.536500
1722.000000	23.549200
1721.000000	23.591600
1720.000000	23.601300
1719.000000	23.649200
1718.000000	23.657300
1717.000000	23.730400
1716.000000	23.794100
1715.000000	23.879000
1714.000000	23.936800
1713.000000	23.989000
1712.000000	24.037500
1711.000000	24.067300
1710.000000	24.102600
1709.000000	24.104600
1708.000000	24.096700
1707.000000	24.074600
1706.000000	24.059300
1705.000000	24.020200
1704.000000	23.956800
1703.000000	23.901600
1702.000000	23.815500
1701.000000	23.681100
1700.000000	23.573000
1699.000000	23.394600
1698.000000	23.273100
1697.000000	23.151400
1696.000000	23.076300
1695.000000	23.062000
1694.000000	23.080900
1693.000000	23.162000
1692.000000	23.268600
1691.000000	23.398600
1690.000000	23.502000
1689.000000	23.614900
1688.000000	23.686900
1687.000000	23.718600
1686.000000	23.735300
1685.000000	23.750400
1684.000000	23.846600
1683.000000	23.990800
1682.000000	24.260800
1681.000000	24.641600
1680.000000	25.102600
1679.000000	25.583200
1678.000000	26.054900
1677.000000	26.534000
1676.000000	26.962700
1675.000000	27.292200
1674.000000	27.612100
1673.000000	27.888300
1672.000000	28.140100
1671.000000	28.345100
1670.000000	28.542800
1669.000000	28.709000
1668.000000	28.892100
1667.000000	28.996500
1666.000000	29.105000
1665.000000	29.202000
1664.000000	29.311600
1663.000000	29.407700
1662.000000	29.457000
1661.000000	29.524900
1660.000000	29.574200
1659.000000	29.622800
1658.000000	29.648900
1657.000000	29.664100
1656.000000	29.716500
1655.000000	29.690300
1654.000000	29.705900
1653.000000	29.709600
1652.000000	29.704900
1651.000000	29.687500
1650.000000	29.658700
1649.000000	29.614500
1648.000000	29.584200
1647.000000	29.548200
1646.000000	29.500400
1645.000000	29.462300
1644.000000	29.413700
1643.000000	29.361000
1642.000000	29.310900
1641.000000	29.264500
1640.000000	29.220700
1639.000000	29.175500
1638.000000	29.139300
1637.000000	29.093500
1636.000000	29.026400
1635.000000	28.958000
1634.000000	28.884300
1633.000000	28.822800
1632.000000	28.772900
1631.000000	28.723300
1630.000000	28.636200
1629.000000	28.559700
1628.000000	28.501300
1627.000000	28.431400
1626.000000	28.333000
1625.000000	28.271700
1624.000000	28.211300
1623.000000	28.132200
1622.000000	28.074600
1621.000000	28.016300
1620.000000	27.952400
1619.000000	27.864200
1618.000000	27.809400
1617.000000	27.745400
1616.000000	27.682500
1615.000000	27.633100
1614.000000	27.561500
1613.000000	27.500500
1612.000000	27.440700
1611.000000	27.376900
1610.000000	27.316200
1609.000000	27.255700
1608.000000	27.192000
1607.000000	27.148200
1606.000000	27.086100
1605.000000	27.009900
1604.000000	26.953000
1603.000000	26.892900
1602.000000	26.831200
1601.000000	26.771200
1600.000000	26.694600
1599.000000	26.644200
1598.000000	26.591100
1597.000000	26.525400
1596.000000	26.456300
1595.000000	26.406000
1594.000000	26.372200
1593.000000	26.329800
1592.000000	26.282700
1591.000000	26.234300
1590.000000	26.190700
1589.000000	26.148500
1588.000000	26.123800
1587.000000	26.101200
1586.000000	26.053900
1585.000000	26.014200
1584.000000	25.986600
1583.000000	25.959300
1582.000000	25.943000
1581.000000	25.926900
1580.000000	25.907900
1579.000000	25.897300
1578.000000	25.877600
1577.000000	25.880000
1576.000000	25.881200
1575.000000	25.881400
1574.000000	25.885700
1573.000000	25.886300
1572.000000	25.902700
1571.000000	25.919700
1570.000000	25.936100
1569.000000	25.951200
1568.000000	25.968200
1567.000000	26.005300
1566.000000	26.028300
1565.000000	26.043500
1564.000000	26.078800
1563.000000	26.092600
1562.000000	26.094700
1561.000000	26.116100
1560.000000	26.141300
1559.000000	26.149100
1558.000000	26.162200
1557.000000	26.168600
1556.000000	26.180200
1555.000000	26.179200
1554.000000	26.165800
1553.000000	26.139900
1552.000000	26.120400
1551.000000	26.109500
1550.000000	26.082900
1549.000000	26.066900
1548.000000	26.052900
1547.000000	26.025400
1546.000000	26.013700
1545.000000	26.011400
1544.000000	26.000400
1543.000000	25.984000
1542.000000	25.975900
1541.000000	25.968400
1540.000000	25.963900
1539.000000	25.963800
1538.000000	25.943200
1537.000000	25.947800
1536.000000	25.935700
1535.000000	25.915000
1534.000000	25.901700
1533.000000	25.884800
1532.000000	25.869700
1531.000000	25.861200
1530.000000	25.837200
1529.000000	25.821100
1528.000000	25.795300
1527.000000	25.770800
1526.000000	25.754800
1525.000000	25.735900
1524.000000	25.714500
1523.000000	25.687600
1522.000000	25.660400
1521.000000	25.636500
1520.000000	25.602500
1519.000000	25.563000
1518.000000	25.535500
1517.000000	25.514800
1516.000000	25.484600
1515.000000	25.445800
1514.000000	25.425500
1513.000000	25.405000
1512.000000	25.367700
1511.000000	25.338000
1510.000000	25.304300
1509.000000	25.285800
1508.000000	25.247900
1507.000000	25.198700
1506.000000	25.186500
1505.000000	25.169200
1504.000000	25.136400
1503.000000	25.105100
1502.000000	25.091100
1501.000000	25.048900
1500.000000	25.019500
1499.000000	25.015300
1498.000000	25.006100
1497.000000	25.001300
1496.000000	25.014900
1495.000000	24.977700
1494.000000	24.991400
1493.000000	25.002800
1492.000000	25.015100
1491.000000	25.013800
1490.000000	25.006600
1489.000000	25.019100
1488.000000	25.047000
1487.000000	25.076600
1486.000000	25.082200
1485.000000	25.079600
1484.000000	25.081400
1483.000000	25.107700
1482.000000	25.127700
1481.000000	25.158300
1480.000000	25.186000
1479.000000	25.215100
1478.000000	25.263900
1477.000000	25.299100
1476.000000	25.333400
1475.000000	25.354800
1474.000000	25.401300
1473.000000	25.441900
1472.000000	25.513200
1471.000000	25.535600
1470.000000	25.574600
1469.000000	25.593300
1468.000000	25.643700
1467.000000	25.685800
1466.000000	25.745000
1465.000000	25.790200
1464.000000	25.834700
1463.000000	25.900000
1462.000000	25.964300
1461.000000	26.011700
1460.000000	26.076400
1459.000000	26.147700
1458.000000	26.239000
1457.000000	26.316000
1456.000000	26.404100
1455.000000	26.483300
1454.000000	26.561100
1453.000000	26.656200
1452.000000	26.776600
1451.000000	26.876800
1450.000000	26.959000
1449.000000	27.035900
1448.000000	27.125300
1447.000000	27.250300
1446.000000	27.391300
1445.000000	27.459500
1444.000000	27.550500
1443.000000	27.664800
1442.000000	27.778000
1441.000000	27.880100
1440.000000	27.987100
1439.000000	28.095600
1438.000000	28.212200
1437.000000	28.289600
1436.000000	28.389200
1435.000000	28.499400
1434.000000	28.624800
1433.000000	28.726800
1432.000000	28.827300
1431.000000	28.933300
1430.000000	29.021400
1429.000000	29.183200
1428.000000	29.317800
1427.000000	29.460400
1426.000000	29.588700
1425.000000	29.782700
1424.000000	29.977600
1423.000000	30.130600
1422.000000	30.264700
1421.000000	30.438000
1420.000000	30.652700
1419.000000	30.831100
1418.000000	30.970900
1417.000000	31.089000
1416.000000	31.247400
1415.000000	31.444400
1414.000000	31.615300
1413.000000	31.744100
1412.000000	31.859000
1411.000000	32.051200
1410.000000	32.233600
1409.000000	32.491800
1408.000000	32.689000
1407.000000	32.912500
1406.000000	33.149000
1405.000000	33.401300
1404.000000	33.574000
1403.000000	33.787000
1402.000000	34.042300
1401.000000	34.285600
1400.000000	34.432500
1399.000000	34.505900
1398.000000	34.552700
1397.000000	34.680500
1396.000000	34.767700
1395.000000	34.752000
1394.000000	34.662200
1393.000000	34.649200
1392.000000	34.631700
1391.000000	34.598200
1390.000000	34.594200
1389.000000	34.655800
1388.000000	34.771200
1387.000000	34.819800
1386.000000	34.959600
1385.000000	35.173700
1384.000000	35.463700
1383.000000	35.741000
1382.000000	36.035400
1381.000000	36.297800
1380.000000	36.524800
1379.000000	36.863800
1378.000000	37.203900
1377.000000	37.591500
1376.000000	38.019100
1375.000000	38.525600
1374.000000	39.036100
1373.000000	39.614200
1372.000000	40.166400
1371.000000	40.657000
1370.000000	41.079900
1369.000000	41.448700
1368.000000	41.789600
1367.000000	42.059700
1366.000000	42.294200
1365.000000	42.521800
1364.000000	42.723300
1363.000000	42.861800
1362.000000	43.029600
1361.000000	43.135800
1360.000000	43.169100
1359.000000	43.239900
1358.000000	43.339500
1357.000000	43.484600
1356.000000	43.703500
1355.000000	44.014800
1354.000000	44.391700
1353.000000	44.779200
1352.000000	45.239200
1351.000000	45.673100
1350.000000	46.074600
1349.000000	46.440100
1348.000000	46.805000
1347.000000	47.116400
1346.000000	47.410200
1345.000000	47.709700
1344.000000	47.996500
1343.000000	48.243100
1342.000000	48.494400
1341.000000	48.740800
1340.000000	48.967500
1339.000000	49.169500
1338.000000	49.375900
1337.000000	49.584400
1336.000000	49.773200
1335.000000	49.939300
1334.000000	50.120600
1333.000000	50.293300
1332.000000	50.442000
1331.000000	50.590800
1330.000000	50.732500
1329.000000	50.861000
1328.000000	50.984100
1327.000000	51.101100
1326.000000	51.218100
1325.000000	51.321300
1324.000000	51.410200
1323.000000	51.501900
1322.000000	51.591700
1321.000000	51.679600
1320.000000	51.753800
1319.000000	51.814200
1318.000000	51.893900
1317.000000	51.965700
1316.000000	52.024400
1315.000000	52.090400
1314.000000	52.167400
1313.000000	52.217000
1312.000000	52.267100
1311.000000	52.325100
1310.000000	52.356900
1309.000000	52.397600
1308.000000	52.454100
1307.000000	52.483200
1306.000000	52.514600
1305.000000	52.537000
1304.000000	52.546700
1303.000000	52.553100
1302.000000	52.571200
1301.000000	52.580900
1300.000000	52.574600
1299.000000	52.573800
1298.000000	52.572300
1297.000000	52.562700
1296.000000	52.547100
1295.000000	52.539500
1294.000000	52.529900
1293.000000	52.507800
1292.000000	52.481300
1291.000000	52.463400
1290.000000	52.440700
1289.000000	52.398800
1288.000000	52.357800
1287.000000	52.298800
1286.000000	52.239800
1285.000000	52.194800
1284.000000	52.148200
1283.000000	52.079100
1282.000000	52.017500
1281.000000	51.975400
1280.000000	51.923800
1279.000000	51.871100
1278.000000	51.816100
1277.000000	51.774900
1276.000000	51.735900
1275.000000	51.698800
1274.000000	51.674400
1273.000000	51.637900
1272.000000	51.605700
1271.000000	51.580600
1270.000000	51.553100
1269.000000	51.520800
1268.000000	51.479900
1267.000000	51.442400
1266.000000	51.414400
1265.000000	51.369600
1264.000000	51.328300
1263.000000	51.291500
1262.000000	51.245600
1261.000000	51.208500
1260.000000	51.170900
1259.000000	51.116300
1258.000000	51.066500
1257.000000	51.023300
1256.000000	50.975100
1255.000000	50.921800
1254.000000	50.870500
1253.000000	50.808600
1252.000000	50.741800
1251.000000	50.658800
1250.000000	50.591200
1249.000000	50.513300
1248.000000	50.428900
1247.000000	50.338300
1246.000000	50.252300
1245.000000	50.166000
1244.000000	50.076800
1243.000000	49.982700
1242.000000	49.864200
1241.000000	49.766100
1240.000000	49.660300
1239.000000	49.560500
1238.000000	49.465400
1237.000000	49.349000
1236.000000	49.252600
1235.000000	49.146200
1234.000000	49.023600
1233.000000	48.902200
1232.000000	48.790400
1231.000000	48.663500
1230.000000	48.530200
1229.000000	48.398600
1228.000000	48.277500
1227.000000	48.141400
1226.000000	48.008100
1225.000000	47.878700
1224.000000	47.740200
1223.000000	47.608000
1222.000000	47.477800
1221.000000	47.360300
1220.000000	47.230400
1219.000000	47.100100
1218.000000	46.999600
1217.000000	46.891400
1216.000000	46.787900
1215.000000	46.680200
1214.000000	46.591100
1213.000000	46.492800
1212.000000	46.410600
1211.000000	46.318000
1210.000000	46.215700
1209.000000	46.142900
1208.000000	46.078700
1207.000000	46.024600
1206.000000	45.974400
1205.000000	45.934900
1204.000000	45.897000
1203.000000	45.875800
1202.000000	45.854900
1201.000000	45.813300
1200.000000	45.761700
1199.000000	45.699500
1198.000000	45.614100
1197.000000	45.499800
1196.000000	45.362300
1195.000000	45.170700
1194.000000	44.940400
1193.000000	44.655700
1192.000000	44.283800
1191.000000	43.905900
1190.000000	43.558800
1189.000000	43.249900
1188.000000	43.007300
1187.000000	42.861800
1186.000000	42.832400
1185.000000	42.853700
1184.000000	43.018400
1183.000000	43.276700
1182.000000	43.626000
1181.000000	44.019200
1180.000000	44.408300
1179.000000	44.809400
1178.000000	45.155900
1177.000000	45.484600
1176.000000	45.754900
1175.000000	46.014900
1174.000000	46.247800
1173.000000	46.493200
1172.000000	46.766300
1171.000000	47.025500
1170.000000	47.321200
1169.000000	47.601600
1168.000000	47.903800
1167.000000	48.204200
1166.000000	48.484300
1165.000000	48.780800
1164.000000	49.083400
1163.000000	49.385000
1162.000000	49.672100
1161.000000	49.974800
1160.000000	50.237000
1159.000000	50.517900
1158.000000	50.779700
1157.000000	51.003400
1156.000000	51.194700
1155.000000	51.364900
1154.000000	51.476400
1153.000000	51.563600
1152.000000	51.615300
1151.000000	51.623100
1150.000000	51.621800
1149.000000	51.631600
1148.000000	51.638700
1147.000000	51.685100
1146.000000	51.766600
1145.000000	51.886700
1144.000000	52.051700
1143.000000	52.286900
1142.000000	52.521900
1141.000000	52.768200
1140.000000	53.030500
1139.000000	53.302100
1138.000000	53.555900
1137.000000	53.853500
1136.000000	54.180100
1135.000000	54.458700
1134.000000	54.718700
1133.000000	54.948100
1132.000000	55.134600
1131.000000	55.367900
1130.000000	55.554600
1129.000000	55.723700
1128.000000	55.854700
1127.000000	55.963800
1126.000000	56.057500
1125.000000	56.143700
1124.000000	56.213700
1123.000000	56.267800
1122.000000	56.330300
1121.000000	56.332300
1120.000000	56.376700
1119.000000	56.397000
1118.000000	56.413800
1117.000000	56.420000
1116.000000	56.420800
1115.000000	56.415800
1114.000000	56.414300
1113.000000	56.413600
1112.000000	56.397400
1111.000000	56.395200
1110.000000	56.379900
1109.000000	56.372500
1108.000000	56.372500
1107.000000	56.361900
1106.000000	56.366800
1105.000000	56.346900
1104.000000	56.338700
1103.000000	56.310900
1102.000000	56.297200
1101.000000	56.290700
1100.000000	56.272800
1099.000000	56.254300
1098.000000	56.223900
1097.000000	56.194400
1096.000000	56.186200
1095.000000	56.155300
1094.000000	56.127300
1093.000000	56.080000
1092.000000	56.034600
1091.000000	56.030200
1090.000000	55.991500
1089.000000	55.949300
1088.000000	55.908600
1087.000000	55.864600
1086.000000	55.823300
1085.000000	55.782600
1084.000000	55.733300
1083.000000	55.683400
1082.000000	55.655400
1081.000000	55.615800
1080.000000	55.568300
1079.000000	55.540200
1078.000000	55.497400
1077.000000	55.466100
1076.000000	55.425100
1075.000000	55.383500
1074.000000	55.334900
1073.000000	55.296500
1072.000000	55.266800
1071.000000	55.239400
1070.000000	55.192800
1069.000000	55.146600
1068.000000	55.100900
1067.000000	55.059700
1066.000000	55.026400
1065.000000	54.985300
1064.000000	54.952000
1063.000000	54.916500
1062.000000	54.867000
1061.000000	54.818600
1060.000000	54.776300
1059.000000	54.747400
1058.000000	54.718400
1057.000000	54.674600
1056.000000	54.630200
1055.000000	54.580500
1054.000000	54.548000
1053.000000	54.506300
1052.000000	54.481500
1051.000000	54.449200
1050.000000	54.417500
1049.000000	54.391300
1048.000000	54.364500
1047.000000	54.343800
1046.000000	54.307200
1045.000000	54.276100
1044.000000	54.252400
1043.000000	54.220200
1042.000000	54.206800
1041.000000	54.193200
1040.000000	54.158600
1039.000000	54.125200
1038.000000	54.092500
1037.000000	54.060200
1036.000000	54.023500
1035.000000	53.983200
1034.000000	53.936800
1033.000000	53.889100
1032.000000	53.843800
1031.000000	53.808000
1030.000000	53.771000
1029.000000	53.728000
1028.000000	53.676500
1027.000000	53.618400
1026.000000	53.554600
1025.000000	53.498600
1024.000000	53.451000
1023.000000	53.389000
1022.000000	53.334500
1021.000000	53.286400
1020.000000	53.218500
1019.000000	53.156900
1018.000000	53.104800
1017.000000	53.052000
1016.000000	52.992500
1015.000000	52.940300
1014.000000	52.887800
1013.000000	52.850000
1012.000000	52.823500
1011.000000	52.789700
1010.000000	52.759200
1009.000000	52.742400
1008.000000	52.718300
1007.000000	52.703100
1006.000000	52.697600
1005.000000	52.676100
1004.000000	52.638300
1003.000000	52.622600
1002.000000	52.591600
1001.000000	52.565300
1000.000000	52.548500
999.000000	52.533200
998.000000	52.516700
997.000000	52.493400
996.000000	52.462700
995.000000	52.421600
994.000000	52.394000
993.000000	52.372300
992.000000	52.377600
991.000000	52.351800
990.000000	52.325200
989.000000	52.323900
988.000000	52.306300
987.000000	52.287900
986.000000	52.281500
985.000000	52.261300
984.000000	52.257000
983.000000	52.270800
982.000000	52.263100
981.000000	52.251200
980.000000	52.247000
979.000000	52.241200
978.000000	52.243000
977.000000	52.235100
976.000000	52.243300
975.000000	52.241000
974.000000	52.248300
973.000000	52.229400
972.000000	52.236000
971.000000	52.241500
970.000000	52.249900
969.000000	52.233300
968.000000	52.229700
967.000000	52.243700
966.000000	52.241400
965.000000	52.253500
964.000000	52.250500
963.000000	52.271500
962.000000	52.308200
961.000000	52.325300
960.000000	52.343700
959.000000	52.357700
958.000000	52.359400
957.000000	52.400100
956.000000	52.397900
955.000000	52.398900
954.000000	52.411700
953.000000	52.407500
952.000000	52.410000
951.000000	52.420700
950.000000	52.421200
949.000000	52.435500
948.000000	52.431000
947.000000	52.413100
946.000000	52.411300
945.000000	52.425500
944.000000	52.437200
943.000000	52.444200
942.000000	52.430000
941.000000	52.449100
940.000000	52.469400
939.000000	52.490300
938.000000	52.510200
937.000000	52.542700
936.000000	52.557100
935.000000	52.626200
934.000000	52.630000
933.000000	52.638500
932.000000	52.665300
931.000000	52.712500
930.000000	52.737400
929.000000	52.752300
928.000000	52.800800
927.000000	52.813400
926.000000	52.844900
925.000000	52.874700
924.000000	52.931000
923.000000	52.997000
922.000000	53.010800
921.000000	53.062600
920.000000	53.111100
919.000000	53.160500
918.000000	53.206000
917.000000	53.262500
916.000000	53.304100
915.000000	53.341000
914.000000	53.404500
913.000000	53.457100
912.000000	53.519800
911.000000	53.582600
910.000000	53.659100
909.000000	53.740400
908.000000	53.851300
907.000000	53.962200
906.000000	54.083400
905.000000	54.203300
904.000000	54.335200
903.000000	54.477500
902.000000	54.615800
901.000000	54.774100
900.000000	54.922000
899.000000	55.071400
898.000000	55.206800
897.000000	55.358400
896.000000	55.510000
895.000000	55.635100
894.000000	55.796100
893.000000	55.946300
892.000000	56.074800
891.000000	56.219000
890.000000	56.342200
889.000000	56.467100
888.000000	56.595400
887.000000	56.720100
886.000000	56.853800
885.000000	56.950800
884.000000	57.043500
883.000000	57.154100
882.000000	57.261500
881.000000	57.336500
880.000000	57.412700
879.000000	57.502900
878.000000	57.591900
877.000000	57.651400
876.000000	57.728200
875.000000	57.803600
874.000000	57.867000
873.000000	57.937200
872.000000	57.977300
871.000000	58.058100
870.000000	58.122500
869.000000	58.175000
868.000000	58.234000
867.000000	58.272300
866.000000	58.301500
865.000000	58.345400
864.000000	58.375600
863.000000	58.377600
862.000000	58.384000
861.000000	58.355700
860.000000	58.315900
859.000000	58.238300
858.000000	57.042451
857.000000	57.113302
856.000000	57.310472
855.000000	57.315470
854.000000	57.367996
853.000000	57.600445
852.000000	57.421503
851.000000	57.473343
850.000000	57.485985
849.000000	57.600151
848.000000	57.572516
847.000000	57.765570
846.000000	57.612891
845.000000	57.705694
844.000000	57.780662
843.000000	57.742345
842.000000	57.830640
841.000000	57.832894
840.000000	57.608285
839.000000	57.549487
838.000000	57.346829
837.000000	57.399453
836.000000	57.571830
835.000000	57.613969
834.000000	57.546547
833.000000	57.359961
832.000000	57.322918
831.000000	57.345163
830.000000	57.404549
829.000000	57.213357
828.000000	57.338401
827.000000	57.314000
826.000000	57.070576
825.000000	56.966209
824.000000	56.861058
823.000000	56.825289
822.000000	56.755614
821.000000	56.612048
820.000000	56.556386
819.000000	56.389399
818.000000	56.418014
817.000000	56.315999
816.000000	56.213201
815.000000	56.025732
814.000000	55.955273
813.000000	55.830914
812.000000	55.757515
811.000000	55.692935
810.000000	55.551917
809.000000	55.481163
808.000000	55.327896
807.000000	55.221471
806.000000	55.147778
805.000000	55.005976
804.000000	54.846927
803.000000	54.682978
802.000000	54.521773
801.000000	54.395455
800.000000	54.162811
799.000000	54.040412
798.000000	53.964661
797.000000	53.776997
796.000000	53.621573
795.000000	53.497313
794.000000	53.346790
793.000000	53.127865
792.000000	52.921483
791.000000	52.725685
790.000000	52.653364
789.000000	52.518814
788.000000	52.369761
787.000000	52.178471
786.000000	52.055974
785.000000	51.954254
784.000000	51.705439
783.000000	51.561286
782.000000	51.453979
781.000000	51.286992
780.000000	51.148327
779.000000	51.011229
778.000000	50.835814
777.000000	50.719002
776.000000	50.593076
775.000000	50.454018
774.000000	50.365723
773.000000	50.269392
772.000000	50.244893
771.000000	50.186193
770.000000	50.113871
769.000000	50.043607
768.000000	49.907587
767.000000	49.865841
766.000000	49.884950
765.000000	49.847907
764.000000	49.819782
763.000000	49.785483
762.000000	49.674061
761.000000	49.619672
760.000000	49.603405
759.000000	49.515208
758.000000	49.447100
757.000000	49.434360
756.000000	49.397807
755.000000	49.264336
754.000000	49.213867
753.000000	49.149679
752.000000	49.063344
751.000000	49.070204
750.000000	49.011307
749.000000	48.916446
748.000000	48.835893
747.000000	48.767785
746.000000	48.679098
745.000000	48.588255
744.000000	48.498195
743.000000	48.458703
742.000000	48.378443
741.000000	48.299556
740.000000	48.224000
739.000000	48.155402
738.000000	48.099544
737.000000	47.969110
736.000000	47.896690
735.000000	47.818587
734.000000	47.705302
733.000000	47.668455
732.000000	47.627101
731.000000	47.573594
730.000000	47.523910
729.000000	47.452372
728.000000	47.398670
727.000000	47.318900
726.000000	47.273234
725.000000	47.236289
724.000000	47.165241
723.000000	47.081160
722.000000	47.039707
721.000000	46.974049
720.000000	46.903491
719.000000	46.787855
718.000000	46.695738
717.000000	46.667907
716.000000	46.595095
715.000000	46.500528
714.000000	46.396749
713.000000	46.244168
712.000000	46.098838
711.000000	45.963015
710.000000	45.819645
709.000000	45.710379
708.000000	45.582395
707.000000	45.437849
706.000000	45.322115
705.000000	45.171787
704.000000	45.006270
703.000000	44.854767
702.000000	44.708066
701.000000	44.589881
700.000000	44.460722
699.000000	44.353905
698.000000	44.236995
697.000000	44.116164
696.000000	44.014541
695.000000	43.885773
694.000000	43.752204
693.000000	43.608932
692.000000	43.478204
691.000000	43.399121
690.000000	43.301418
689.000000	43.196463
688.000000	43.082983
687.000000	43.017423
686.000000	42.945199
685.000000	42.865233
684.000000	42.806435
683.000000	42.746755
682.000000	42.645132
681.000000	42.600740
680.000000	42.573104
679.000000	42.516952
678.000000	42.433361
677.000000	42.349181
676.000000	42.267942
675.000000	42.193758
674.000000	42.136234
673.000000	42.032357
672.000000	41.953568
671.000000	41.845575
670.000000	41.737191
669.000000	41.632040
668.000000	41.516207
667.000000	41.401257
666.000000	41.239464
665.000000	41.102072
664.000000	40.971247
663.000000	40.787992
662.000000	40.587686
661.000000	40.426188
660.000000	40.243913
659.000000	40.071537
658.000000	39.902394
657.000000	39.696404
656.000000	39.468953
655.000000	39.210437
654.000000	38.994550
653.000000	38.758280
652.000000	38.470953
651.000000	38.161674
650.000000	37.843968
649.000000	37.536062
648.000000	37.229331
647.000000	36.891242
646.000000	36.564716
645.000000	36.287581
644.000000	35.941750
643.000000	35.694013
642.000000	35.420896
641.000000	35.192661
640.000000	35.038610
639.000000	34.893084
638.000000	34.775880
637.000000	34.705126
636.000000	34.687487
635.000000	34.727861
634.000000	34.774410
633.000000	34.906118
632.000000	35.048213
631.000000	35.208046
630.000000	35.424914
629.000000	35.663046
628.000000	35.924992
627.000000	36.213201
626.000000	36.541883
625.000000	36.822252
624.000000	37.262846
623.000000	37.671102
622.000000	38.126395
621.000000	38.607266
620.000000	39.136450
619.000000	39.704930
618.000000	40.284386
617.000000	40.819351
616.000000	41.392927
615.000000	41.900943
614.000000	42.426501
613.000000	42.867585
612.000000	43.323565
611.000000	43.780035
610.000000	44.167515
609.000000	44.554015
608.000000	44.961388
607.000000	45.367193
606.000000	45.705675
605.000000	46.073751
604.000000	46.480438
603.000000	46.868996
602.000000	47.239229
601.000000	47.616027
600.000000	47.998117
599.000000	48.402550
598.000000	48.766021
597.000000	49.167515
596.000000	49.553622
595.000000	49.858001
594.000000	50.208732
593.000000	50.479302
592.000000	50.737622
591.000000	50.938123
590.000000	51.098250
589.000000	51.227116
588.000000	51.389987
587.000000	51.491022
586.000000	51.540902
585.000000	51.594605
584.000000	51.733662
583.000000	51.836461
582.000000	51.908587
581.000000	52.041373
580.000000	52.179940
579.000000	52.342909
578.000000	52.478439
577.000000	52.636410
576.000000	52.773998
575.000000	52.942847
574.000000	53.058483
573.000000	53.151874
572.000000	53.241345
571.000000	53.312295
570.000000	53.313667
569.000000	53.284660
568.000000	53.257613
567.000000	53.175197
566.000000	52.998705
565.000000	52.857981
564.000000	52.681489
563.000000	52.484417
562.000000	52.303319
561.000000	52.130452
560.000000	51.926030
559.000000	51.686624
558.000000	51.547664
557.000000	51.399885
556.000000	51.316881
555.000000	51.215063
554.000000	51.084531
553.000000	50.987514
552.000000	50.836500
551.000000	50.653834
550.000000	50.484397
549.000000	50.252145
548.000000	49.961682
547.000000	49.651913
546.000000	49.294127
545.000000	48.872544
544.000000	48.414702
543.000000	47.925403
542.000000	47.411115
541.000000	46.892614
540.000000	46.327269
539.000000	45.707831
538.000000	45.051839
537.000000	44.381442
536.000000	43.658421
535.000000	42.921386
534.000000	42.078416
533.000000	41.219865
532.000000	40.341028
531.000000	39.446512
530.000000	38.547488
529.000000	37.666986
528.000000	36.791187
527.000000	35.957429
526.000000	35.152776
525.000000	34.383990
524.000000	33.606972
523.000000	32.902178
522.000000	32.215710
521.000000	31.567754
520.000000	30.983398
519.000000	30.419426
518.000000	29.887695
517.000000	29.377033
516.000000	28.878326
515.000000	28.371388
514.000000	27.880619
513.000000	27.383677
512.000000	26.894084
511.000000	26.423013
510.000000	25.991728
509.000000	25.556524
508.000000	25.133079
507.000000	24.717768
506.000000	24.303927
505.000000	23.917133
504.000000	23.551898
503.000000	23.232722
502.000000	22.936380
501.000000	22.656500
500.000000	22.409842
499.000000	22.173768
498.000000	21.943573
497.000000	21.735819
496.000000	21.524930
495.000000	21.322370
494.000000	21.166065
493.000000	21.026223
492.000000	20.841989
491.000000	20.656383
490.000000	20.469111
489.000000	20.267825
488.000000	20.052820
487.000000	19.843302
486.000000	19.630943
485.000000	19.382619
484.000000	19.122731
483.000000	18.846673
482.000000	18.542589
481.000000	18.212633
480.000000	17.878464
479.000000	17.563600
478.000000	17.248441
477.000000	16.920250
476.000000	16.608325
475.000000	16.307475
474.000000	16.017502
473.000000	15.749872
472.000000	15.504390
471.000000	15.271157
470.000000	15.058896
469.000000	14.864372
468.000000	14.696503
467.000000	14.570087
466.000000	14.456999
465.000000	14.372133
464.000000	14.308729
463.000000	14.273352
462.000000	14.264043
461.000000	14.278742
460.000000	14.321077
459.000000	14.381737
458.000000	14.435929
457.000000	14.502175
456.000000	14.593018
455.000000	14.674356
454.000000	14.743934
453.000000	14.809983
452.000000	14.891909
451.000000	14.966583
450.000000	15.026459
449.000000	15.054584
448.000000	15.069577
447.000000	15.084277
446.000000	15.079181
445.000000	15.062032
444.000000	15.014111
443.000000	14.935322
442.000000	14.864960
441.000000	14.808808
440.000000	14.715220
439.000000	14.620163
438.000000	14.530202
437.000000	14.402904
436.000000	14.283936
435.000000	14.160754
434.000000	14.019638
433.000000	13.890674
432.000000	13.740347
431.000000	13.574242
430.000000	13.411665
429.000000	13.252812
428.000000	13.083669
427.000000	12.905021
426.000000	12.712065
425.000000	12.516169
424.000000	12.331837
423.000000	12.140351
422.000000	11.941319
421.000000	11.727882
420.000000	11.521108
419.000000	11.301497
418.000000	11.087962
417.000000	10.869429
416.000000	10.647661
415.000000	10.421975
414.000000	10.191388
413.000000	9.954039
412.000000	9.727764
411.000000	9.484242
410.000000	9.240131
409.000000	9.016698
408.000000	8.788072
407.000000	8.575908
406.000000	8.376778
405.000000	8.166967
404.000000	7.973815
403.000000	7.768315
402.000000	7.588687
401.000000	7.417878
400.000000	7.249912
399.000000	7.103406
398.000000	6.958763
397.000000	6.830093
396.000000	6.696621
395.000000	6.575497
394.000000	6.472992
393.000000	6.368723
392.000000	6.282878
391.000000	6.197718
390.000000	6.128533
389.000000	6.051213
388.000000	5.993199
387.000000	5.933715
386.000000	5.882658
385.000000	5.818568
384.000000	5.781329
383.000000	5.744679
382.000000	5.723315
381.000000	5.698914
380.000000	5.650308
379.000000	5.616107
378.000000	5.598173
377.000000	5.590627
376.000000	5.564168
375.000000	5.467739
374.000000	5.473521
373.000000	5.505174
372.000000	5.453922
371.000000	5.471561
370.000000	5.474697
369.000000	5.463427
368.000000	5.543295
367.000000	5.414919
366.000000	5.475677
365.000000	5.452648
364.000000	5.412763
363.000000	5.363079
362.000000	5.415409
361.000000	5.335443
360.000000	5.395026
359.000000	5.453334
358.000000	5.425797
357.000000	5.396887
356.000000	5.455882
355.000000	5.478813
354.000000	5.397475
353.000000	5.299087
352.000000	5.329172
351.000000	5.354553
350.000000	5.403159
349.000000	5.331230
348.000000	5.404237
347.000000	5.404237
346.000000	5.413057
345.000000	5.410313
344.000000	5.419427
343.000000	5.529477
342.000000	5.389440
341.000000	5.320058
340.000000	5.327310
339.000000	5.302124
338.000000	5.371310
337.000000	5.362687
336.000000	5.400905
335.000000	5.305652
334.000000	5.482439
333.000000	5.379640
332.000000	5.343185
331.000000	5.263318
330.000000	5.274587
329.000000	5.470287
328.000000	5.282525
327.000000	5.336423
326.000000	5.356513
325.000000	5.623750
324.000000	5.671475
323.000000	5.560738
322.000000	5.587590
321.000000	5.301242
320.000000	5.412861
319.000000	5.669613
318.000000	5.609737
317.000000	5.898044
316.000000	5.423445
315.000000	5.348673
314.000000	5.411685
313.000000	5.361511
312.000000	5.351123
311.000000	5.376406
310.000000	5.399729
309.000000	5.446768
308.000000	5.426385
307.000000	5.465779
306.000000	5.460977
305.000000	5.455000
304.000000	5.443338
303.000000	5.411097
302.000000	5.447356
301.000000	5.453432
300.000000	5.463525
299.000000	5.526243
298.000000	5.533985
297.000000	5.525361
296.000000	5.496158
295.000000	5.512034
294.000000	5.533887
293.000000	5.519286
292.000000	5.607189
291.000000	5.558778
290.000000	5.574262
289.000000	5.569460
288.000000	5.557896
287.000000	5.645016
286.000000	5.621692
285.000000	5.566324
284.000000	5.609541
283.000000	5.572008
282.000000	5.633158
281.000000	5.606503
280.000000	5.627180
279.000000	5.703814
278.000000	5.671573
277.000000	5.618949
276.000000	5.681373
275.000000	5.723413
274.000000	5.731743
273.000000	5.765846
272.000000	5.771040
271.000000	5.726255
270.000000	5.755556
269.000000	5.784465
268.000000	5.798185
267.000000	5.880110
266.000000	5.937635
265.000000	5.907256
264.000000	5.897260
263.000000	5.964094
262.000000	5.973795
261.000000	5.963702
260.000000	6.058857
259.000000	6.051801
258.000000	6.081396
257.000000	6.106091
256.000000	6.137646
255.000000	6.174101
254.000000	6.184587
253.000000	6.167241
252.000000	6.204088
251.000000	6.213594
250.000000	6.191447
