PE UV       SUBTECH     SPECTRUM    ASCII       PEDS        4.00        
   -1
CICIMAUCR0001-1.Sample.ASC
24/03/08
10:42:50.00
24/03/08
10:42:50.00
Vinicio Soto Monge
C. kalinini
250,000000
1
Lambda 1050
1050L1511233
PerkinElmer UV WinLab 6.3.2.0749 / 2.02.05 Lambda 900 UV/VIS/NIR, Aug  7 2015 09:38:08

0
0
3350/servo 860,8/2
0
0
UV/VIS
1
1
1
DoubleDePol,CommonBeamDepol,RBeamAtt,SBeamAtt,60mm sphere, WB InGaAs Detector
0
0
0
0
Program
Program
3350/servo 860,8/2
3350/0,2 860,8/0,2
3350/0,2 860,8/0,2
0
15.00
 
 
 
0
 
860,8
319,2
860,8
Front
100
on
S:100 R:100
0
0
0
0
 
0
 
 
 
0
 
 
0
0
0
0
0
 
 
 
 
0
0


0
0
#HDR
-1
-1
#GR
nm
%R
1.0
0.0
2500,000000
-1,000000
2251
8
36,425100
2,679800
#DATA
2500.000000	3.463500
2499.000000	3.416200
2498.000000	3.524100
2497.000000	3.399600
2496.000000	3.417400
2495.000000	3.518100
2494.000000	3.499800
2493.000000	3.519300
2492.000000	3.504600
2491.000000	3.465000
2490.000000	3.492000
2489.000000	3.455200
2488.000000	3.486200
2487.000000	3.453200
2486.000000	3.505100
2485.000000	3.518400
2484.000000	3.451200
2483.000000	3.508100
2482.000000	3.450200
2481.000000	3.481900
2480.000000	3.500800
2479.000000	3.507300
2478.000000	3.539100
2477.000000	3.535900
2476.000000	3.547000
2475.000000	3.555000
2474.000000	3.584200
2473.000000	3.607700
2472.000000	3.561200
2471.000000	3.563700
2470.000000	3.572400
2469.000000	3.588600
2468.000000	3.630300
2467.000000	3.637600
2466.000000	3.666600
2465.000000	3.676000
2464.000000	3.713000
2463.000000	3.751700
2462.000000	3.762600
2461.000000	3.772900
2460.000000	3.820100
2459.000000	3.807800
2458.000000	3.837800
2457.000000	3.851400
2456.000000	3.906800
2455.000000	3.934700
2454.000000	3.943700
2453.000000	3.983700
2452.000000	3.989400
2451.000000	4.024600
2450.000000	4.043500
2449.000000	4.097600
2448.000000	4.127400
2447.000000	4.156000
2446.000000	4.195200
2445.000000	4.226700
2444.000000	4.271800
2443.000000	4.295600
2442.000000	4.322700
2441.000000	4.367200
2440.000000	4.398800
2439.000000	4.446300
2438.000000	4.462600
2437.000000	4.503700
2436.000000	4.543700
2435.000000	4.567300
2434.000000	4.616200
2433.000000	4.641100
2432.000000	4.683600
2431.000000	4.713600
2430.000000	4.746700
2429.000000	4.782200
2428.000000	4.825000
2427.000000	4.886700
2426.000000	4.957900
2425.000000	5.027200
2424.000000	5.095900
2423.000000	5.145300
2422.000000	5.171900
2421.000000	5.197700
2420.000000	5.226300
2419.000000	5.279800
2418.000000	5.313800
2417.000000	5.346600
2416.000000	5.371000
2415.000000	5.405800
2414.000000	5.465400
2413.000000	5.481900
2412.000000	5.508900
2411.000000	5.559800
2410.000000	5.582000
2409.000000	5.599000
2408.000000	5.619000
2407.000000	5.649400
2406.000000	5.687100
2405.000000	5.714600
2404.000000	5.752700
2403.000000	5.762800
2402.000000	5.782600
2401.000000	5.823000
2400.000000	5.835900
2399.000000	5.844700
2398.000000	5.885200
2397.000000	5.894800
2396.000000	5.921100
2395.000000	5.939800
2394.000000	5.953900
2393.000000	5.982400
2392.000000	6.002400
2391.000000	6.015600
2390.000000	6.036500
2389.000000	6.064400
2388.000000	6.080200
2387.000000	6.090000
2386.000000	6.080500
2385.000000	6.101900
2384.000000	6.118500
2383.000000	6.124800
2382.000000	6.138500
2381.000000	6.149200
2380.000000	6.144800
2379.000000	6.150900
2378.000000	6.180300
2377.000000	6.188300
2376.000000	6.171200
2375.000000	6.178900
2374.000000	6.199900
2373.000000	6.208200
2372.000000	6.207300
2371.000000	6.216900
2370.000000	6.219400
2369.000000	6.217600
2368.000000	6.219300
2367.000000	6.237400
2366.000000	6.257500
2365.000000	6.262100
2364.000000	6.284500
2363.000000	6.287900
2362.000000	6.278400
2361.000000	6.286100
2360.000000	6.297000
2359.000000	6.298100
2358.000000	6.309400
2357.000000	6.306600
2356.000000	6.316400
2355.000000	6.333000
2354.000000	6.340000
2353.000000	6.335700
2352.000000	6.333900
2351.000000	6.332500
2350.000000	6.332900
2349.000000	6.333200
2348.000000	6.338400
2347.000000	6.325500
2346.000000	6.309000
2345.000000	6.310700
2344.000000	6.315000
2343.000000	6.331800
2342.000000	6.335700
2341.000000	6.349700
2340.000000	6.343300
2339.000000	6.323100
2338.000000	6.339500
2337.000000	6.331800
2336.000000	6.343300
2335.000000	6.361800
2334.000000	6.349500
2333.000000	6.344000
2332.000000	6.351100
2331.000000	6.379100
2330.000000	6.387300
2329.000000	6.395800
2328.000000	6.404900
2327.000000	6.398700
2326.000000	6.414800
2325.000000	6.416800
2324.000000	6.433500
2323.000000	6.446100
2322.000000	6.448100
2321.000000	6.462200
2320.000000	6.458300
2319.000000	6.454000
2318.000000	6.462000
2317.000000	6.441800
2316.000000	6.423100
2315.000000	6.400400
2314.000000	6.396100
2313.000000	6.387700
2312.000000	6.383800
2311.000000	6.365900
2310.000000	6.362200
2309.000000	6.335300
2308.000000	6.315200
2307.000000	6.289300
2306.000000	6.262700
2305.000000	6.245300
2304.000000	6.236200
2303.000000	6.231500
2302.000000	6.209800
2301.000000	6.178800
2300.000000	6.174200
2299.000000	6.177000
2298.000000	6.144600
2297.000000	6.133800
2296.000000	6.115800
2295.000000	6.113900
2294.000000	6.105600
2293.000000	6.098300
2292.000000	6.085000
2291.000000	6.070500
2290.000000	6.069900
2289.000000	6.064400
2288.000000	6.062600
2287.000000	6.031400
2286.000000	6.050200
2285.000000	6.024800
2284.000000	6.011700
2283.000000	6.018700
2282.000000	6.021100
2281.000000	6.016200
2280.000000	6.015600
2279.000000	5.980500
2278.000000	5.967200
2277.000000	5.964700
2276.000000	5.946900
2275.000000	5.945600
2274.000000	5.927200
2273.000000	5.928400
2272.000000	5.890600
2271.000000	5.881500
2270.000000	5.866500
2269.000000	5.878700
2268.000000	5.860700
2267.000000	5.830000
2266.000000	5.832000
2265.000000	5.810800
2264.000000	5.813200
2263.000000	5.829900
2262.000000	5.827700
2261.000000	5.841300
2260.000000	5.834200
2259.000000	5.864200
2258.000000	5.872900
2257.000000	5.885900
2256.000000	5.893400
2255.000000	5.914100
2254.000000	5.959900
2253.000000	5.981700
2252.000000	6.020300
2251.000000	6.018100
2250.000000	6.050900
2249.000000	6.078000
2248.000000	6.126100
2247.000000	6.148000
2246.000000	6.140400
2245.000000	6.177100
2244.000000	6.218800
2243.000000	6.225300
2242.000000	6.256700
2241.000000	6.250200
2240.000000	6.262700
2239.000000	6.293500
2238.000000	6.277200
2237.000000	6.281000
2236.000000	6.283700
2235.000000	6.268300
2234.000000	6.271000
2233.000000	6.253500
2232.000000	6.251100
2231.000000	6.217600
2230.000000	6.189700
2229.000000	6.160100
2228.000000	6.131100
2227.000000	6.090700
2226.000000	6.074300
2225.000000	6.030700
2224.000000	5.961600
2223.000000	5.927600
2222.000000	5.876400
2221.000000	5.845200
2220.000000	5.777500
2219.000000	5.726700
2218.000000	5.684500
2217.000000	5.646700
2216.000000	5.598900
2215.000000	5.554300
2214.000000	5.525700
2213.000000	5.511500
2212.000000	5.469800
2211.000000	5.482700
2210.000000	5.450900
2209.000000	5.472800
2208.000000	5.487000
2207.000000	5.508800
2206.000000	5.563600
2205.000000	5.599600
2204.000000	5.651700
2203.000000	5.723900
2202.000000	5.787400
2201.000000	5.869100
2200.000000	5.945200
2199.000000	6.030500
2198.000000	6.135200
2197.000000	6.203400
2196.000000	6.280700
2195.000000	6.371300
2194.000000	6.433100
2193.000000	6.503600
2192.000000	6.585000
2191.000000	6.654600
2190.000000	6.731600
2189.000000	6.785500
2188.000000	6.826000
2187.000000	6.871500
2186.000000	6.916200
2185.000000	6.939300
2184.000000	6.969800
2183.000000	6.997000
2182.000000	7.033200
2181.000000	7.050000
2180.000000	7.078600
2179.000000	7.112500
2178.000000	7.125600
2177.000000	7.139300
2176.000000	7.153900
2175.000000	7.156100
2174.000000	7.184600
2173.000000	7.203500
2172.000000	7.228300
2171.000000	7.243100
2170.000000	7.262100
2169.000000	7.281900
2168.000000	7.307000
2167.000000	7.325500
2166.000000	7.347900
2165.000000	7.357300
2164.000000	7.380900
2163.000000	7.400900
2162.000000	7.422200
2161.000000	7.464600
2160.000000	7.486000
2159.000000	7.514200
2158.000000	7.540000
2157.000000	7.573100
2156.000000	7.619700
2155.000000	7.652000
2154.000000	7.697000
2153.000000	7.715400
2152.000000	7.747600
2151.000000	7.808500
2150.000000	7.853200
2149.000000	7.879700
2148.000000	7.917000
2147.000000	7.970200
2146.000000	8.024500
2145.000000	8.054200
2144.000000	8.093900
2143.000000	8.138200
2142.000000	8.187300
2141.000000	8.220900
2140.000000	8.251300
2139.000000	8.279700
2138.000000	8.327100
2137.000000	8.371900
2136.000000	8.400500
2135.000000	8.425100
2134.000000	8.459100
2133.000000	8.490800
2132.000000	8.498600
2131.000000	8.535100
2130.000000	8.568100
2129.000000	8.577400
2128.000000	8.611600
2127.000000	8.623600
2126.000000	8.636000
2125.000000	8.661500
2124.000000	8.678600
2123.000000	8.691900
2122.000000	8.703400
2121.000000	8.717400
2120.000000	8.737600
2119.000000	8.744400
2118.000000	8.747200
2117.000000	8.751600
2116.000000	8.759700
2115.000000	8.766200
2114.000000	8.772800
2113.000000	8.776000
2112.000000	8.767500
2111.000000	8.767600
2110.000000	8.782700
2109.000000	8.787900
2108.000000	8.779900
2107.000000	8.782500
2106.000000	8.775200
2105.000000	8.772800
2104.000000	8.775200
2103.000000	8.769100
2102.000000	8.768200
2101.000000	8.769100
2100.000000	8.777400
2099.000000	8.768200
2098.000000	8.760800
2097.000000	8.763100
2096.000000	8.775100
2095.000000	8.766500
2094.000000	8.753500
2093.000000	8.756900
2092.000000	8.765700
2091.000000	8.783000
2090.000000	8.773900
2089.000000	8.768600
2088.000000	8.769500
2087.000000	8.770800
2086.000000	8.764400
2085.000000	8.745000
2084.000000	8.740900
2083.000000	8.728500
2082.000000	8.706100
2081.000000	8.690200
2080.000000	8.677500
2079.000000	8.661000
2078.000000	8.641800
2077.000000	8.624200
2076.000000	8.592900
2075.000000	8.573100
2074.000000	8.535500
2073.000000	8.494200
2072.000000	8.460600
2071.000000	8.431900
2070.000000	8.382500
2069.000000	8.342500
2068.000000	8.302300
2067.000000	8.267300
2066.000000	8.233000
2065.000000	8.179500
2064.000000	8.128200
2063.000000	8.088000
2062.000000	8.058700
2061.000000	8.028000
2060.000000	7.991200
2059.000000	7.963700
2058.000000	7.942200
2057.000000	7.910900
2056.000000	7.898000
2055.000000	7.891400
2054.000000	7.883700
2053.000000	7.885800
2052.000000	7.891100
2051.000000	7.906500
2050.000000	7.926600
2049.000000	7.940000
2048.000000	7.972900
2047.000000	8.000800
2046.000000	8.049200
2045.000000	8.095500
2044.000000	8.137800
2043.000000	8.172800
2042.000000	8.201600
2041.000000	8.250400
2040.000000	8.298700
2039.000000	8.337400
2038.000000	8.373900
2037.000000	8.413800
2036.000000	8.445200
2035.000000	8.486400
2034.000000	8.518400
2033.000000	8.531600
2032.000000	8.547000
2031.000000	8.572500
2030.000000	8.606000
2029.000000	8.626800
2028.000000	8.639000
2027.000000	8.664500
2026.000000	8.665400
2025.000000	8.697700
2024.000000	8.706600
2023.000000	8.717500
2022.000000	8.726600
2021.000000	8.734100
2020.000000	8.734100
2019.000000	8.744300
2018.000000	8.740000
2017.000000	8.756600
2016.000000	8.748200
2015.000000	8.743400
2014.000000	8.734700
2013.000000	8.757900
2012.000000	8.729200
2011.000000	8.712200
2010.000000	8.710100
2009.000000	8.693800
2008.000000	8.699900
2007.000000	8.675200
2006.000000	8.656600
2005.000000	8.633600
2004.000000	8.623400
2003.000000	8.618300
2002.000000	8.570400
2001.000000	8.534100
2000.000000	8.529900
1999.000000	8.483800
1998.000000	8.460800
1997.000000	8.418600
1996.000000	8.396700
1995.000000	8.374300
1994.000000	8.333000
1993.000000	8.296800
1992.000000	8.258400
1991.000000	8.215000
1990.000000	8.201100
1989.000000	8.164300
1988.000000	8.119700
1987.000000	8.076100
1986.000000	8.040900
1985.000000	8.011000
1984.000000	7.972500
1983.000000	7.941000
1982.000000	7.884700
1981.000000	7.853100
1980.000000	7.831300
1979.000000	7.771600
1978.000000	7.737900
1977.000000	7.720200
1976.000000	7.662300
1975.000000	7.626300
1974.000000	7.594500
1973.000000	7.541900
1972.000000	7.507200
1971.000000	7.474100
1970.000000	7.435500
1969.000000	7.391700
1968.000000	7.380600
1967.000000	7.363200
1966.000000	7.312000
1965.000000	7.274500
1964.000000	7.200600
1963.000000	7.199500
1962.000000	7.171800
1961.000000	7.127900
1960.000000	7.077400
1959.000000	7.055700
1958.000000	7.025300
1957.000000	6.979600
1956.000000	6.952600
1955.000000	6.919000
1954.000000	6.870100
1953.000000	6.826000
1952.000000	6.804400
1951.000000	6.776400
1950.000000	6.747900
1949.000000	6.738800
1948.000000	6.687500
1947.000000	6.660800
1946.000000	6.643100
1945.000000	6.613400
1944.000000	6.592600
1943.000000	6.583400
1942.000000	6.581700
1941.000000	6.545500
1940.000000	6.526600
1939.000000	6.499900
1938.000000	6.511900
1937.000000	6.502100
1936.000000	6.477900
1935.000000	6.484500
1934.000000	6.487300
1933.000000	6.515500
1932.000000	6.500200
1931.000000	6.515000
1930.000000	6.538200
1929.000000	6.561100
1928.000000	6.577800
1927.000000	6.617600
1926.000000	6.635100
1925.000000	6.684800
1924.000000	6.739600
1923.000000	6.785800
1922.000000	6.806600
1921.000000	6.859000
1920.000000	6.921600
1919.000000	6.983000
1918.000000	7.065100
1917.000000	7.118300
1916.000000	7.207300
1915.000000	7.290200
1914.000000	7.400400
1913.000000	7.479600
1912.000000	7.575100
1911.000000	7.661900
1910.000000	7.778100
1909.000000	7.926400
1908.000000	8.074200
1907.000000	8.233300
1906.000000	8.364600
1905.000000	8.510000
1904.000000	8.671300
1903.000000	8.862200
1902.000000	9.029500
1901.000000	9.220600
1900.000000	9.407500
1899.000000	9.603700
1898.000000	9.817200
1897.000000	10.029500
1896.000000	10.249700
1895.000000	10.490200
1894.000000	10.719800
1893.000000	10.948600
1892.000000	11.181000
1891.000000	11.381000
1890.000000	11.589000
1889.000000	11.843200
1888.000000	12.071700
1887.000000	12.294300
1886.000000	12.511800
1885.000000	12.733400
1884.000000	12.928100
1883.000000	13.086900
1882.000000	13.269300
1881.000000	13.469700
1880.000000	13.660000
1879.000000	13.834000
1878.000000	13.982200
1877.000000	14.135200
1876.000000	14.292800
1875.000000	14.417900
1874.000000	14.544700
1873.000000	14.662000
1872.000000	14.748900
1871.000000	14.807900
1870.000000	14.849100
1869.000000	14.920700
1868.000000	14.987600
1867.000000	15.056800
1866.000000	15.131200
1865.000000	15.220600
1864.000000	15.321500
1863.000000	15.400000
1862.000000	15.455300
1861.000000	15.507500
1860.000000	15.549100
1859.000000	15.569300
1858.000000	15.585700
1857.000000	15.636800
1856.000000	15.680900
1855.000000	15.702100
1854.000000	15.719200
1853.000000	15.727000
1852.000000	15.762400
1851.000000	15.828300
1850.000000	15.913100
1849.000000	15.898500
1848.000000	15.808900
1847.000000	15.739000
1846.000000	15.723700
1845.000000	15.800100
1844.000000	15.894200
1843.000000	15.932800
1842.000000	15.906600
1841.000000	15.856900
1840.000000	15.823600
1839.000000	15.830000
1838.000000	15.821000
1837.000000	15.780200
1836.000000	15.729500
1835.000000	15.715600
1834.000000	15.731200
1833.000000	15.743400
1832.000000	15.748100
1831.000000	15.726000
1830.000000	15.716800
1829.000000	15.696900
1828.000000	15.666200
1827.000000	15.641100
1826.000000	15.613900
1825.000000	15.621300
1824.000000	15.682200
1823.000000	15.727300
1822.000000	15.711600
1821.000000	15.659500
1820.000000	15.620400
1819.000000	15.613900
1818.000000	15.625700
1817.000000	15.629100
1816.000000	15.632800
1815.000000	15.625500
1814.000000	15.610300
1813.000000	15.602800
1812.000000	15.599100
1811.000000	15.578900
1810.000000	15.563000
1809.000000	15.554700
1808.000000	15.567200
1807.000000	15.555000
1806.000000	15.536000
1805.000000	15.515300
1804.000000	15.503600
1803.000000	15.523900
1802.000000	15.499800
1801.000000	15.472300
1800.000000	15.455400
1799.000000	15.442300
1798.000000	15.435900
1797.000000	15.428200
1796.000000	15.417300
1795.000000	15.409400
1794.000000	15.393500
1793.000000	15.383400
1792.000000	15.378900
1791.000000	15.362300
1790.000000	15.356400
1789.000000	15.373000
1788.000000	15.367400
1787.000000	15.362600
1786.000000	15.349700
1785.000000	15.340800
1784.000000	15.334300
1783.000000	15.327700
1782.000000	15.333100
1781.000000	15.330900
1780.000000	15.323700
1779.000000	15.305500
1778.000000	15.297700
1777.000000	15.278400
1776.000000	15.260200
1775.000000	15.243200
1774.000000	15.215900
1773.000000	15.200800
1772.000000	15.185200
1771.000000	15.185600
1770.000000	15.157600
1769.000000	15.146500
1768.000000	15.131600
1767.000000	15.118800
1766.000000	15.095200
1765.000000	15.101100
1764.000000	15.107000
1763.000000	15.104900
1762.000000	15.099900
1761.000000	15.075200
1760.000000	15.085400
1759.000000	15.102400
1758.000000	15.096000
1757.000000	15.066500
1756.000000	15.073800
1755.000000	15.074200
1754.000000	15.080100
1753.000000	15.079300
1752.000000	15.081500
1751.000000	15.090200
1750.000000	15.095100
1749.000000	15.067600
1748.000000	15.061300
1747.000000	15.047900
1746.000000	15.017600
1745.000000	15.012700
1744.000000	14.986200
1743.000000	14.953800
1742.000000	14.947000
1741.000000	14.923500
1740.000000	14.894400
1739.000000	14.868400
1738.000000	14.861800
1737.000000	14.832800
1736.000000	14.826900
1735.000000	14.809600
1734.000000	14.796600
1733.000000	14.801300
1732.000000	14.771000
1731.000000	14.749900
1730.000000	14.746500
1729.000000	14.725600
1728.000000	14.719500
1727.000000	14.687600
1726.000000	14.701200
1725.000000	14.707200
1724.000000	14.729700
1723.000000	14.731900
1722.000000	14.766700
1721.000000	14.821500
1720.000000	14.904800
1719.000000	14.959900
1718.000000	15.075900
1717.000000	15.129000
1716.000000	15.203700
1715.000000	15.278800
1714.000000	15.349600
1713.000000	15.414200
1712.000000	15.480700
1711.000000	15.518500
1710.000000	15.561800
1709.000000	15.622700
1708.000000	15.663000
1707.000000	15.688100
1706.000000	15.714600
1705.000000	15.722400
1704.000000	15.753500
1703.000000	15.735600
1702.000000	15.750500
1701.000000	15.778100
1700.000000	15.756100
1699.000000	15.769200
1698.000000	15.766600
1697.000000	15.742600
1696.000000	15.751700
1695.000000	15.728500
1694.000000	15.685900
1693.000000	15.678400
1692.000000	15.639600
1691.000000	15.620200
1690.000000	15.592000
1689.000000	15.614000
1688.000000	15.608400
1687.000000	15.652200
1686.000000	15.693900
1685.000000	15.743400
1684.000000	15.832400
1683.000000	15.885700
1682.000000	15.962600
1681.000000	16.036400
1680.000000	16.100700
1679.000000	16.187100
1678.000000	16.243900
1677.000000	16.311300
1676.000000	16.371800
1675.000000	16.417200
1674.000000	16.487600
1673.000000	16.541100
1672.000000	16.593200
1671.000000	16.665500
1670.000000	16.716500
1669.000000	16.775400
1668.000000	16.845900
1667.000000	16.964700
1666.000000	17.008000
1665.000000	17.038000
1664.000000	17.089700
1663.000000	17.154200
1662.000000	17.164500
1661.000000	17.202000
1660.000000	17.224700
1659.000000	17.254600
1658.000000	17.300900
1657.000000	17.312900
1656.000000	17.335300
1655.000000	17.350700
1654.000000	17.356800
1653.000000	17.356500
1652.000000	17.376100
1651.000000	17.378100
1650.000000	17.354500
1649.000000	17.342800
1648.000000	17.351800
1647.000000	17.356000
1646.000000	17.336500
1645.000000	17.316100
1644.000000	17.316500
1643.000000	17.315200
1642.000000	17.315200
1641.000000	17.291000
1640.000000	17.299100
1639.000000	17.280700
1638.000000	17.279100
1637.000000	17.270200
1636.000000	17.258600
1635.000000	17.246400
1634.000000	17.239200
1633.000000	17.240900
1632.000000	17.226900
1631.000000	17.205500
1630.000000	17.196700
1629.000000	17.172000
1628.000000	17.158000
1627.000000	17.136300
1626.000000	17.135400
1625.000000	17.133900
1624.000000	17.103100
1623.000000	17.079300
1622.000000	17.080900
1621.000000	17.060500
1620.000000	17.046200
1619.000000	17.040500
1618.000000	17.026900
1617.000000	17.015900
1616.000000	17.008400
1615.000000	16.987500
1614.000000	16.966200
1613.000000	16.943400
1612.000000	16.944100
1611.000000	16.925900
1610.000000	16.915000
1609.000000	16.878700
1608.000000	16.841700
1607.000000	16.825700
1606.000000	16.809100
1605.000000	16.778400
1604.000000	16.752800
1603.000000	16.732000
1602.000000	16.708200
1601.000000	16.686200
1600.000000	16.662000
1599.000000	16.630000
1598.000000	16.595300
1597.000000	16.560500
1596.000000	16.544100
1595.000000	16.530800
1594.000000	16.506100
1593.000000	16.467300
1592.000000	16.429000
1591.000000	16.417600
1590.000000	16.418000
1589.000000	16.396800
1588.000000	16.361600
1587.000000	16.326100
1586.000000	16.316500
1585.000000	16.290200
1584.000000	16.277200
1583.000000	16.272800
1582.000000	16.243200
1581.000000	16.231600
1580.000000	16.208400
1579.000000	16.188800
1578.000000	16.184700
1577.000000	16.163600
1576.000000	16.140700
1575.000000	16.127500
1574.000000	16.114900
1573.000000	16.116700
1572.000000	16.123400
1571.000000	16.134400
1570.000000	16.131800
1569.000000	16.109100
1568.000000	16.101400
1567.000000	16.105500
1566.000000	16.100100
1565.000000	16.095600
1564.000000	16.104700
1563.000000	16.099100
1562.000000	16.080200
1561.000000	16.076000
1560.000000	16.066400
1559.000000	16.047000
1558.000000	16.026700
1557.000000	16.014400
1556.000000	15.990600
1555.000000	15.954400
1554.000000	15.923300
1553.000000	15.893900
1552.000000	15.867300
1551.000000	15.830500
1550.000000	15.792200
1549.000000	15.760800
1548.000000	15.731400
1547.000000	15.702000
1546.000000	15.682600
1545.000000	15.641300
1544.000000	15.613300
1543.000000	15.597100
1542.000000	15.587200
1541.000000	15.581400
1540.000000	15.560800
1539.000000	15.535800
1538.000000	15.517000
1537.000000	15.493500
1536.000000	15.488000
1535.000000	15.481400
1534.000000	15.457700
1533.000000	15.435400
1532.000000	15.403600
1531.000000	15.364500
1530.000000	15.350600
1529.000000	15.342400
1528.000000	15.316600
1527.000000	15.297200
1526.000000	15.267500
1525.000000	15.236100
1524.000000	15.215500
1523.000000	15.195800
1522.000000	15.174800
1521.000000	15.143100
1520.000000	15.124800
1519.000000	15.099100
1518.000000	15.061100
1517.000000	15.036700
1516.000000	15.015200
1515.000000	14.975000
1514.000000	14.953600
1513.000000	14.946600
1512.000000	14.895600
1511.000000	14.867200
1510.000000	14.845700
1509.000000	14.814300
1508.000000	14.789000
1507.000000	14.753300
1506.000000	14.710500
1505.000000	14.691400
1504.000000	14.675900
1503.000000	14.636500
1502.000000	14.615400
1501.000000	14.592200
1500.000000	14.566200
1499.000000	14.552700
1498.000000	14.538900
1497.000000	14.524000
1496.000000	14.515000
1495.000000	14.510100
1494.000000	14.494400
1493.000000	14.472400
1492.000000	14.479500
1491.000000	14.471000
1490.000000	14.468600
1489.000000	14.476000
1488.000000	14.458100
1487.000000	14.436000
1486.000000	14.441300
1485.000000	14.426600
1484.000000	14.424100
1483.000000	14.425500
1482.000000	14.412900
1481.000000	14.413400
1480.000000	14.419800
1479.000000	14.415700
1478.000000	14.425900
1477.000000	14.400800
1476.000000	14.402200
1475.000000	14.419800
1474.000000	14.411100
1473.000000	14.438200
1472.000000	14.432100
1471.000000	14.432000
1470.000000	14.443300
1469.000000	14.458600
1468.000000	14.480000
1467.000000	14.490800
1466.000000	14.503900
1465.000000	14.524700
1464.000000	14.540400
1463.000000	14.551700
1462.000000	14.563700
1461.000000	14.605800
1460.000000	14.621800
1459.000000	14.639500
1458.000000	14.672700
1457.000000	14.683600
1456.000000	14.703300
1455.000000	14.725600
1454.000000	14.752300
1453.000000	14.783900
1452.000000	14.823700
1451.000000	14.838700
1450.000000	14.851900
1449.000000	14.871500
1448.000000	14.914800
1447.000000	14.967200
1446.000000	14.974200
1445.000000	14.999000
1444.000000	15.035200
1443.000000	15.058700
1442.000000	15.101900
1441.000000	15.146000
1440.000000	15.173500
1439.000000	15.212800
1438.000000	15.268100
1437.000000	15.299600
1436.000000	15.343100
1435.000000	15.394200
1434.000000	15.428400
1433.000000	15.523400
1432.000000	15.560300
1431.000000	15.602400
1430.000000	15.681900
1429.000000	15.744200
1428.000000	15.811900
1427.000000	15.875700
1426.000000	15.959500
1425.000000	16.028900
1424.000000	16.128900
1423.000000	16.192900
1422.000000	16.274100
1421.000000	16.407800
1420.000000	16.505000
1419.000000	16.580700
1418.000000	16.671000
1417.000000	16.778100
1416.000000	16.914000
1415.000000	17.043500
1414.000000	17.116200
1413.000000	17.205100
1412.000000	17.369300
1411.000000	17.513300
1410.000000	17.667700
1409.000000	17.783000
1408.000000	17.895400
1407.000000	18.029200
1406.000000	18.150500
1405.000000	18.256200
1404.000000	18.352700
1403.000000	18.511500
1402.000000	18.675900
1401.000000	18.796800
1400.000000	18.819700
1399.000000	18.896300
1398.000000	19.045700
1397.000000	19.169900
1396.000000	19.242700
1395.000000	19.270400
1394.000000	19.360000
1393.000000	19.419900
1392.000000	19.457400
1391.000000	19.515000
1390.000000	19.595700
1389.000000	19.711000
1388.000000	19.729500
1387.000000	19.802800
1386.000000	19.895400
1385.000000	20.016700
1384.000000	20.110900
1383.000000	20.225100
1382.000000	20.334800
1381.000000	20.464000
1380.000000	20.654600
1379.000000	20.851300
1378.000000	21.086100
1377.000000	21.354900
1376.000000	21.624400
1375.000000	21.857800
1374.000000	22.106300
1373.000000	22.350600
1372.000000	22.534000
1371.000000	22.671600
1370.000000	22.820700
1369.000000	22.934800
1368.000000	23.019900
1367.000000	23.115900
1366.000000	23.187300
1365.000000	23.230400
1364.000000	23.304000
1363.000000	23.393800
1362.000000	23.401600
1361.000000	23.396500
1360.000000	23.427900
1359.000000	23.494400
1358.000000	23.540000
1357.000000	23.586300
1356.000000	23.645400
1355.000000	23.697800
1354.000000	23.731400
1353.000000	23.778700
1352.000000	23.851700
1351.000000	23.935100
1350.000000	24.024000
1349.000000	24.119000
1348.000000	24.187900
1347.000000	24.247000
1346.000000	24.323800
1345.000000	24.410900
1344.000000	24.488800
1343.000000	24.551100
1342.000000	24.617500
1341.000000	24.686000
1340.000000	24.760300
1339.000000	24.830500
1338.000000	24.900200
1337.000000	24.958200
1336.000000	25.013300
1335.000000	25.063900
1334.000000	25.135500
1333.000000	25.199600
1332.000000	25.246900
1331.000000	25.289200
1330.000000	25.343500
1329.000000	25.380600
1328.000000	25.423900
1327.000000	25.470000
1326.000000	25.530400
1325.000000	25.579300
1324.000000	25.619100
1323.000000	25.649200
1322.000000	25.670700
1321.000000	25.715500
1320.000000	25.748300
1319.000000	25.768100
1318.000000	25.799000
1317.000000	25.835100
1316.000000	25.882100
1315.000000	25.903300
1314.000000	25.911600
1313.000000	25.939600
1312.000000	25.972900
1311.000000	25.998600
1310.000000	26.017300
1309.000000	26.029800
1308.000000	26.026100
1307.000000	26.033500
1306.000000	26.053000
1305.000000	26.065000
1304.000000	26.066100
1303.000000	26.079800
1302.000000	26.097000
1301.000000	26.101100
1300.000000	26.090800
1299.000000	26.081300
1298.000000	26.088400
1297.000000	26.092000
1296.000000	26.093400
1295.000000	26.094400
1294.000000	26.096500
1293.000000	26.085400
1292.000000	26.073400
1291.000000	26.076600
1290.000000	26.064500
1289.000000	26.060500
1288.000000	26.065700
1287.000000	26.060100
1286.000000	26.055200
1285.000000	26.044300
1284.000000	26.052900
1283.000000	26.050300
1282.000000	26.030600
1281.000000	26.020200
1280.000000	26.020000
1279.000000	26.030700
1278.000000	26.022700
1277.000000	26.011800
1276.000000	26.015800
1275.000000	26.041200
1274.000000	26.060500
1273.000000	26.063800
1272.000000	26.068000
1271.000000	26.071300
1270.000000	26.075800
1269.000000	26.082300
1268.000000	26.070100
1267.000000	26.059500
1266.000000	26.068100
1265.000000	26.066400
1264.000000	26.063100
1263.000000	26.061500
1262.000000	26.027400
1261.000000	26.026800
1260.000000	26.038900
1259.000000	26.009400
1258.000000	25.986500
1257.000000	25.994500
1256.000000	25.977300
1255.000000	25.948400
1254.000000	25.934200
1253.000000	25.927200
1252.000000	25.924600
1251.000000	25.901000
1250.000000	25.877800
1249.000000	25.857600
1248.000000	25.850000
1247.000000	25.830000
1246.000000	25.815200
1245.000000	25.796800
1244.000000	25.774900
1243.000000	25.763900
1242.000000	25.756700
1241.000000	25.749800
1240.000000	25.746900
1239.000000	25.749700
1238.000000	25.743000
1237.000000	25.742900
1236.000000	25.756700
1235.000000	25.762000
1234.000000	25.764900
1233.000000	25.770400
1232.000000	25.773800
1231.000000	25.763600
1230.000000	25.762500
1229.000000	25.765500
1228.000000	25.764100
1227.000000	25.754900
1226.000000	25.732700
1225.000000	25.716300
1224.000000	25.718500
1223.000000	25.708100
1222.000000	25.702300
1221.000000	25.690800
1220.000000	25.663400
1219.000000	25.663500
1218.000000	25.638700
1217.000000	25.614000
1216.000000	25.609400
1215.000000	25.572700
1214.000000	25.550600
1213.000000	25.525000
1212.000000	25.499000
1211.000000	25.481600
1210.000000	25.441400
1209.000000	25.418400
1208.000000	25.402200
1207.000000	25.374200
1206.000000	25.346100
1205.000000	25.325500
1204.000000	25.296400
1203.000000	25.270400
1202.000000	25.258300
1201.000000	25.235900
1200.000000	25.216200
1199.000000	25.176600
1198.000000	25.170500
1197.000000	25.139700
1196.000000	25.122500
1195.000000	25.113100
1194.000000	25.076600
1193.000000	25.072400
1192.000000	25.045700
1191.000000	25.021900
1190.000000	25.011900
1189.000000	25.011700
1188.000000	24.999100
1187.000000	24.997100
1186.000000	25.032700
1185.000000	25.033600
1184.000000	25.035200
1183.000000	25.046000
1182.000000	25.067500
1181.000000	25.104300
1180.000000	25.113700
1179.000000	25.133400
1178.000000	25.185700
1177.000000	25.214400
1176.000000	25.222300
1175.000000	25.273500
1174.000000	25.311800
1173.000000	25.349300
1172.000000	25.382800
1171.000000	25.413100
1170.000000	25.475300
1169.000000	25.530700
1168.000000	25.576700
1167.000000	25.630700
1166.000000	25.694200
1165.000000	25.756900
1164.000000	25.799700
1163.000000	25.900100
1162.000000	25.935600
1161.000000	26.015200
1160.000000	26.077600
1159.000000	26.100200
1158.000000	26.177300
1157.000000	26.232600
1156.000000	26.257700
1155.000000	26.315900
1154.000000	26.366900
1153.000000	26.359600
1152.000000	26.410100
1151.000000	26.444000
1150.000000	26.481300
1149.000000	26.524200
1148.000000	26.562300
1147.000000	26.570100
1146.000000	26.608900
1145.000000	26.639700
1144.000000	26.637800
1143.000000	26.691700
1142.000000	26.729800
1141.000000	26.773600
1140.000000	26.811100
1139.000000	26.840900
1138.000000	26.895500
1137.000000	26.970200
1136.000000	27.033900
1135.000000	27.075100
1134.000000	27.089900
1133.000000	27.102800
1132.000000	27.159400
1131.000000	27.198600
1130.000000	27.235500
1129.000000	27.264800
1128.000000	27.308100
1127.000000	27.342000
1126.000000	27.339100
1125.000000	27.367700
1124.000000	27.364300
1123.000000	27.388200
1122.000000	27.396600
1121.000000	27.397400
1120.000000	27.393100
1119.000000	27.398900
1118.000000	27.394200
1117.000000	27.395400
1116.000000	27.379400
1115.000000	27.386700
1114.000000	27.394400
1113.000000	27.403900
1112.000000	27.404200
1111.000000	27.392700
1110.000000	27.408500
1109.000000	27.398000
1108.000000	27.399800
1107.000000	27.400500
1106.000000	27.404700
1105.000000	27.392500
1104.000000	27.393600
1103.000000	27.402200
1102.000000	27.400200
1101.000000	27.396500
1100.000000	27.396200
1099.000000	27.379500
1098.000000	27.367500
1097.000000	27.375200
1096.000000	27.387800
1095.000000	27.370500
1094.000000	27.374100
1093.000000	27.381600
1092.000000	27.371400
1091.000000	27.355600
1090.000000	27.355400
1089.000000	27.357700
1088.000000	27.352900
1087.000000	27.355800
1086.000000	27.339200
1085.000000	27.317000
1084.000000	27.316100
1083.000000	27.323300
1082.000000	27.313100
1081.000000	27.316600
1080.000000	27.319000
1079.000000	27.316400
1078.000000	27.301100
1077.000000	27.289300
1076.000000	27.292300
1075.000000	27.296200
1074.000000	27.282500
1073.000000	27.280300
1072.000000	27.271600
1071.000000	27.260800
1070.000000	27.261000
1069.000000	27.252300
1068.000000	27.240600
1067.000000	27.241400
1066.000000	27.240900
1065.000000	27.224700
1064.000000	27.214900
1063.000000	27.205800
1062.000000	27.206500
1061.000000	27.220400
1060.000000	27.220300
1059.000000	27.220600
1058.000000	27.210900
1057.000000	27.209900
1056.000000	27.207100
1055.000000	27.196000
1054.000000	27.189200
1053.000000	27.184000
1052.000000	27.175200
1051.000000	27.168600
1050.000000	27.157300
1049.000000	27.151300
1048.000000	27.157600
1047.000000	27.154600
1046.000000	27.146200
1045.000000	27.141900
1044.000000	27.162100
1043.000000	27.155200
1042.000000	27.147200
1041.000000	27.153000
1040.000000	27.147300
1039.000000	27.143400
1038.000000	27.145900
1037.000000	27.149200
1036.000000	27.155000
1035.000000	27.156800
1034.000000	27.162400
1033.000000	27.158500
1032.000000	27.136100
1031.000000	27.134500
1030.000000	27.148600
1029.000000	27.145100
1028.000000	27.126200
1027.000000	27.124200
1026.000000	27.121900
1025.000000	27.123000
1024.000000	27.133300
1023.000000	27.141100
1022.000000	27.133900
1021.000000	27.132900
1020.000000	27.132200
1019.000000	27.137700
1018.000000	27.150300
1017.000000	27.159400
1016.000000	27.164600
1015.000000	27.143500
1014.000000	27.141700
1013.000000	27.155200
1012.000000	27.163400
1011.000000	27.165200
1010.000000	27.164400
1009.000000	27.168000
1008.000000	27.175800
1007.000000	27.191700
1006.000000	27.189500
1005.000000	27.190000
1004.000000	27.206900
1003.000000	27.222600
1002.000000	27.210500
1001.000000	27.194900
1000.000000	27.191200
999.000000	27.186800
998.000000	27.197500
997.000000	27.207400
996.000000	27.216400
995.000000	27.208800
994.000000	27.210700
993.000000	27.196800
992.000000	27.198000
991.000000	27.201600
990.000000	27.196300
989.000000	27.206700
988.000000	27.198900
987.000000	27.207300
986.000000	27.220300
985.000000	27.216700
984.000000	27.234700
983.000000	27.225900
982.000000	27.221700
981.000000	27.219800
980.000000	27.215100
979.000000	27.227900
978.000000	27.231300
977.000000	27.223500
976.000000	27.235300
975.000000	27.253000
974.000000	27.261100
973.000000	27.257500
972.000000	27.256000
971.000000	27.266100
970.000000	27.272600
969.000000	27.275200
968.000000	27.267000
967.000000	27.282000
966.000000	27.298600
965.000000	27.293300
964.000000	27.304100
963.000000	27.305500
962.000000	27.313900
961.000000	27.315900
960.000000	27.326800
959.000000	27.333400
958.000000	27.344900
957.000000	27.356000
956.000000	27.361300
955.000000	27.377900
954.000000	27.389000
953.000000	27.388500
952.000000	27.391000
951.000000	27.419700
950.000000	27.415600
949.000000	27.423000
948.000000	27.425000
947.000000	27.418200
946.000000	27.424400
945.000000	27.439600
944.000000	27.430700
943.000000	27.433600
942.000000	27.486700
941.000000	27.474000
940.000000	27.476700
939.000000	27.478900
938.000000	27.519500
937.000000	27.488900
936.000000	27.493100
935.000000	27.494400
934.000000	27.478100
933.000000	27.502400
932.000000	27.499500
931.000000	27.499500
930.000000	27.501900
929.000000	27.518800
928.000000	27.503600
927.000000	27.533100
926.000000	27.546900
925.000000	27.559600
924.000000	27.603700
923.000000	27.607000
922.000000	27.616600
921.000000	27.622300
920.000000	27.663600
919.000000	27.681500
918.000000	27.734100
917.000000	27.756100
916.000000	27.768100
915.000000	27.791900
914.000000	27.839100
913.000000	27.859600
912.000000	27.871200
911.000000	27.900000
910.000000	27.925000
909.000000	27.951600
908.000000	27.990400
907.000000	28.026900
906.000000	28.053500
905.000000	28.062500
904.000000	28.099600
903.000000	28.137900
902.000000	28.170400
901.000000	28.195200
900.000000	28.245300
899.000000	28.248600
898.000000	28.262300
897.000000	28.314200
896.000000	28.329200
895.000000	28.358400
894.000000	28.357300
893.000000	28.390200
892.000000	28.419200
891.000000	28.403000
890.000000	28.425800
889.000000	28.430800
888.000000	28.448200
887.000000	28.436700
886.000000	28.432500
885.000000	28.371800
884.000000	28.361000
883.000000	28.283400
882.000000	28.276700
881.000000	28.251900
880.000000	28.226500
879.000000	28.212600
878.000000	28.123900
877.000000	28.050000
876.000000	27.971100
875.000000	27.901100
874.000000	27.808500
873.000000	27.751100
872.000000	27.669500
871.000000	27.603700
870.000000	27.538200
869.000000	27.496600
868.000000	27.425800
867.000000	27.375300
866.000000	27.235700
865.000000	27.105600
864.000000	26.981500
863.000000	26.892800
862.000000	26.758100
861.000000	26.723900
860.000000	26.783500
859.000000	26.849000
858.000000	25.615224
857.000000	26.314862
856.000000	25.925995
855.000000	25.894189
854.000000	26.104620
853.000000	26.336823
852.000000	26.463101
851.000000	26.448428
850.000000	26.731370
849.000000	26.827545
848.000000	27.146931
847.000000	27.169271
846.000000	27.050377
845.000000	27.212152
844.000000	27.402894
843.000000	27.347138
842.000000	27.633677
841.000000	27.894846
840.000000	28.060029
839.000000	28.182520
838.000000	28.382539
837.000000	28.425704
836.000000	28.636798
835.000000	28.884904
834.000000	29.013927
833.000000	29.141529
832.000000	29.252093
831.000000	29.549234
830.000000	29.728427
829.000000	29.905537
828.000000	30.167653
827.000000	30.404589
826.000000	30.580090
825.000000	30.747072
824.000000	30.876095
823.000000	31.103281
822.000000	31.282568
821.000000	31.424276
820.000000	31.716399
819.000000	31.914808
818.000000	32.026035
817.000000	32.213274
816.000000	32.351195
815.000000	32.508332
814.000000	32.668308
813.000000	32.741671
812.000000	32.900038
811.000000	33.027073
810.000000	33.136312
809.000000	33.220276
808.000000	33.345796
807.000000	33.384796
806.000000	33.470370
805.000000	33.519025
804.000000	33.609237
803.000000	33.641800
802.000000	33.731160
801.000000	33.832447
800.000000	33.916885
799.000000	33.923984
798.000000	33.950395
797.000000	33.964310
796.000000	34.013723
795.000000	34.042784
794.000000	34.029531
793.000000	34.137539
792.000000	34.229550
791.000000	34.239868
790.000000	34.188088
789.000000	34.173794
788.000000	34.247914
787.000000	34.308781
786.000000	34.374097
785.000000	34.398046
784.000000	34.375895
783.000000	34.360371
782.000000	34.304710
781.000000	34.323169
780.000000	34.359046
779.000000	34.364441
778.000000	34.396153
777.000000	34.421238
776.000000	34.383563
775.000000	34.408648
774.000000	34.451340
773.000000	34.475195
772.000000	34.460711
771.000000	34.455410
770.000000	34.448973
769.000000	34.426350
768.000000	34.450015
767.000000	34.480306
766.000000	34.478318
765.000000	34.414990
764.000000	34.398330
763.000000	34.382806
762.000000	34.340776
761.000000	34.268455
760.000000	34.203045
759.000000	34.153821
758.000000	34.094090
757.000000	33.985609
756.000000	33.934208
755.000000	33.863023
754.000000	33.818248
753.000000	33.794015
752.000000	33.725859
751.000000	33.690267
750.000000	33.617851
749.000000	33.503406
748.000000	33.412721
747.000000	33.335667
746.000000	33.300169
745.000000	33.234664
744.000000	33.170863
743.000000	33.077149
742.000000	32.978323
741.000000	32.952670
740.000000	32.920106
739.000000	32.814465
738.000000	32.719899
737.000000	32.649471
736.000000	32.562383
735.000000	32.448601
734.000000	32.334156
733.000000	32.213842
732.000000	32.096841
731.000000	31.977284
730.000000	31.849208
729.000000	31.743661
728.000000	31.599871
727.000000	31.471417
726.000000	31.370887
725.000000	31.232777
724.000000	31.088798
723.000000	30.986469
722.000000	30.899476
721.000000	30.772252
720.000000	30.617765
719.000000	30.466308
718.000000	30.392946
717.000000	30.278690
716.000000	30.154684
715.000000	30.019793
714.000000	29.943875
713.000000	29.837097
712.000000	29.697946
711.000000	29.557090
710.000000	29.426269
709.000000	29.294501
708.000000	29.136891
707.000000	28.935074
706.000000	28.758626
705.000000	28.591929
704.000000	28.420592
703.000000	28.282104
702.000000	28.103952
701.000000	27.902892
700.000000	27.745187
699.000000	27.629890
698.000000	27.498880
697.000000	27.313155
696.000000	27.192747
695.000000	27.111338
694.000000	27.012891
693.000000	26.890116
692.000000	26.722472
691.000000	26.602158
690.000000	26.490269
689.000000	26.319500
688.000000	26.175616
687.000000	26.002671
686.000000	25.811550
685.000000	25.643338
684.000000	25.471245
683.000000	25.235918
682.000000	24.968690
681.000000	24.701463
680.000000	24.419657
679.000000	24.131510
678.000000	23.824430
677.000000	23.565627
676.000000	23.309948
675.000000	23.019718
674.000000	22.788083
673.000000	22.562317
672.000000	22.332575
671.000000	22.118926
670.000000	21.965480
669.000000	21.805693
668.000000	21.708381
667.000000	21.608609
666.000000	21.544240
665.000000	21.475326
664.000000	21.435569
663.000000	21.406697
662.000000	21.384168
661.000000	21.340340
660.000000	21.327372
659.000000	21.275971
658.000000	21.271995
657.000000	21.238485
656.000000	21.201378
655.000000	21.179606
654.000000	21.172601
653.000000	21.134737
652.000000	21.076520
651.000000	21.052666
650.000000	21.036668
649.000000	21.017641
648.000000	20.987066
647.000000	20.988864
646.000000	20.999845
645.000000	21.003158
644.000000	21.000792
643.000000	20.998047
642.000000	20.970027
641.000000	20.929228
640.000000	20.891742
639.000000	20.798785
638.000000	20.705166
637.000000	20.602554
636.000000	20.483565
635.000000	20.359275
634.000000	20.226561
633.000000	20.086652
632.000000	19.914559
631.000000	19.777679
630.000000	19.644680
629.000000	19.520391
628.000000	19.419009
627.000000	19.342239
626.000000	19.256571
625.000000	19.248430
624.000000	19.272001
623.000000	19.336181
622.000000	19.424878
621.000000	19.564597
620.000000	19.739815
619.000000	19.899791
618.000000	20.070276
617.000000	20.276542
616.000000	20.483943
615.000000	20.702894
614.000000	20.938032
613.000000	21.176482
612.000000	21.382654
611.000000	21.621483
610.000000	21.846208
609.000000	22.108513
608.000000	22.362015
607.000000	22.613055
606.000000	22.890222
605.000000	23.176003
604.000000	23.488195
603.000000	23.769432
602.000000	24.083138
601.000000	24.383781
600.000000	24.675336
599.000000	24.948527
598.000000	25.215282
597.000000	25.445781
596.000000	25.654224
595.000000	25.883019
594.000000	26.072530
593.000000	26.261568
592.000000	26.454676
591.000000	26.624214
590.000000	26.729950
589.000000	26.851873
588.000000	26.953065
587.000000	27.027658
586.000000	27.087768
585.000000	27.149203
584.000000	27.169176
583.000000	27.182523
582.000000	27.259767
581.000000	27.270369
580.000000	27.267907
579.000000	27.288259
578.000000	27.285609
577.000000	27.252194
576.000000	27.219630
575.000000	27.198616
574.000000	27.151759
573.000000	27.103197
572.000000	27.069877
571.000000	27.067132
570.000000	27.017908
569.000000	26.979381
568.000000	26.945303
567.000000	26.888033
566.000000	26.808329
565.000000	26.730896
564.000000	26.626391
563.000000	26.562021
562.000000	26.470863
561.000000	26.374120
560.000000	26.362855
559.000000	26.972471
558.000000	26.877715
557.000000	26.751627
556.000000	26.622320
555.000000	26.469916
554.000000	26.304071
553.000000	26.163215
552.000000	26.014030
551.000000	25.852254
550.000000	25.693887
549.000000	25.524349
548.000000	25.331241
547.000000	25.133400
546.000000	24.912367
545.000000	24.688589
544.000000	24.449097
543.000000	24.186318
542.000000	23.913222
541.000000	23.626967
540.000000	23.331247
539.000000	22.987628
538.000000	22.635016
537.000000	22.253439
536.000000	21.844504
535.000000	21.441627
534.000000	20.993503
533.000000	20.531085
532.000000	20.066489
531.000000	19.594037
530.000000	19.112497
529.000000	18.630106
528.000000	18.172610
527.000000	17.721929
526.000000	17.288288
525.000000	16.878217
524.000000	16.497207
523.000000	16.110613
522.000000	15.750901
521.000000	15.444958
520.000000	15.159650
519.000000	14.913626
518.000000	14.700261
517.000000	14.502136
516.000000	14.318778
515.000000	14.157002
514.000000	14.022110
513.000000	13.899619
512.000000	13.772774
511.000000	13.648105
510.000000	13.542843
509.000000	13.445153
508.000000	13.341120
507.000000	13.231598
506.000000	13.150947
505.000000	13.059315
504.000000	12.967210
503.000000	12.878418
502.000000	12.768044
501.000000	12.680293
500.000000	12.595193
499.000000	12.488794
498.000000	12.409090
497.000000	12.340650
496.000000	12.261892
495.000000	12.182093
494.000000	12.098507
493.000000	12.016721
492.000000	11.945914
491.000000	11.871132
490.000000	11.785653
489.000000	11.701405
488.000000	11.624730
487.000000	11.549380
486.000000	11.463807
485.000000	11.391486
484.000000	11.317934
483.000000	11.236337
482.000000	11.171210
481.000000	11.118200
480.000000	11.070207
479.000000	11.023444
478.000000	10.962672
477.000000	10.898776
476.000000	10.828064
475.000000	10.757731
474.000000	10.693551
473.000000	10.623692
472.000000	10.547016
471.000000	10.463620
470.000000	10.377289
469.000000	10.290296
468.000000	10.189388
467.000000	10.081001
466.000000	9.972993
465.000000	9.864985
464.000000	9.744008
463.000000	9.611673
462.000000	9.480378
461.000000	9.342930
460.000000	9.205010
459.000000	9.069834
458.000000	8.926612
457.000000	8.775817
456.000000	8.605617
455.000000	8.438635
454.000000	8.277712
453.000000	8.098519
452.000000	7.915634
451.000000	7.739565
450.000000	7.552610
449.000000	7.351172
448.000000	7.161093
447.000000	6.969120
446.000000	6.771753
445.000000	6.571545
444.000000	6.367551
443.000000	6.163273
442.000000	5.970733
441.000000	5.785387
440.000000	5.599378
439.000000	5.414789
438.000000	5.226604
437.000000	5.055078
436.000000	4.891220
435.000000	4.725659
434.000000	4.576662
433.000000	4.424732
432.000000	4.285959
431.000000	4.154475
430.000000	4.029049
429.000000	3.916403
428.000000	3.817293
427.000000	3.719982
426.000000	3.628066
425.000000	3.545049
424.000000	3.470456
423.000000	3.398324
422.000000	3.333008
421.000000	3.280093
420.000000	3.228787
419.000000	3.178806
418.000000	3.139995
417.000000	3.103740
416.000000	3.063225
415.000000	3.031513
414.000000	2.996016
413.000000	2.973865
412.000000	2.955879
411.000000	2.930037
410.000000	2.910821
409.000000	2.890942
408.000000	2.878636
407.000000	2.859041
406.000000	2.835376
405.000000	2.828182
404.000000	2.814740
403.000000	2.793252
402.000000	2.785869
401.000000	2.781325
400.000000	2.763150
399.000000	2.756524
398.000000	2.752832
397.000000	2.752548
396.000000	2.741283
395.000000	2.726611
394.000000	2.719038
393.000000	2.709667
392.000000	2.709004
391.000000	2.694142
390.000000	2.670761
389.000000	2.662147
388.000000	2.655237
387.000000	2.647285
386.000000	2.635169
385.000000	2.628921
384.000000	2.621253
383.000000	2.604120
382.000000	2.581117
381.000000	2.581969
380.000000	2.573166
379.000000	2.556032
378.000000	2.557925
377.000000	2.553855
376.000000	2.775835
375.000000	2.685055
374.000000	2.588595
373.000000	2.619265
372.000000	2.717429
371.000000	2.833104
370.000000	2.820136
369.000000	2.725286
368.000000	2.818148
367.000000	2.823449
366.000000	2.717902
365.000000	2.755577
364.000000	2.798932
363.000000	2.749519
362.000000	2.826194
361.000000	2.829318
360.000000	2.796660
359.000000	2.859041
358.000000	2.828845
357.000000	2.837743
356.000000	2.794956
355.000000	2.856675
354.000000	2.823544
353.000000	2.834619
352.000000	2.811238
351.000000	2.828561
350.000000	2.826099
349.000000	2.790318
348.000000	2.759364
347.000000	2.796755
346.000000	2.820514
345.000000	2.846452
344.000000	2.743839
343.000000	2.669246
342.000000	2.697834
341.000000	2.794483
340.000000	2.838405
339.000000	2.873525
338.000000	2.723298
337.000000	2.748951
336.000000	2.661674
335.000000	2.818337
334.000000	2.945183
333.000000	2.856012
332.000000	2.790128
331.000000	2.669246
330.000000	2.819284
329.000000	2.897095
328.000000	2.831400
327.000000	3.005766
326.000000	3.123429
325.000000	2.761825
324.000000	2.870969
323.000000	2.971877
322.000000	3.116424
321.000000	2.957205
320.000000	3.205500
319.000000	3.136398
318.000000	3.131381
317.000000	2.832063
316.000000	2.597588
315.000000	2.614532
314.000000	2.632423
313.000000	2.622768
312.000000	2.628164
311.000000	2.583768
310.000000	2.598156
309.000000	2.613775
308.000000	2.620117
307.000000	2.536721
306.000000	2.565877
305.000000	2.544010
304.000000	2.587081
303.000000	2.609894
302.000000	2.578561
301.000000	2.570515
300.000000	2.627406
299.000000	2.623715
298.000000	2.630814
297.000000	2.608663
296.000000	2.607906
295.000000	2.571462
294.000000	2.667732
293.000000	2.618414
292.000000	2.641132
291.000000	2.613491
290.000000	2.613586
289.000000	2.608947
288.000000	2.631761
287.000000	2.625513
286.000000	2.659212
285.000000	2.617656
284.000000	2.623715
283.000000	2.632423
282.000000	2.591909
281.000000	2.660443
280.000000	2.677198
279.000000	2.655047
278.000000	2.640375
277.000000	2.567581
276.000000	2.623715
275.000000	2.640943
274.000000	2.662052
273.000000	2.671897
272.000000	2.668868
271.000000	2.673128
270.000000	2.690924
269.000000	2.650693
268.000000	2.707205
267.000000	2.689409
266.000000	2.723960
265.000000	2.720079
264.000000	2.736361
263.000000	2.750465
262.000000	2.739390
261.000000	2.762771
260.000000	2.798742
259.000000	2.826573
258.000000	2.790128
257.000000	2.791832
256.000000	2.803192
255.000000	2.828939
254.000000	2.792968
253.000000	2.788330
252.000000	2.826005
251.000000	2.800257
250.000000	2.810764
