PE UV       SUBTECH     SPECTRUM    ASCII       PEDS        4.00        
   -1
CICIMAUCR0071-1.ASC
24/04/03
15:28:35.00
24/04/03
15:28:35.00
Vinicio Soto Monge
C. resplendens
250,000000
1
Lambda 1050
1050L1511233
PerkinElmer UV WinLab 6.3.2.0749 / 2.02.05 Lambda 900 UV/VIS/NIR, Aug  7 2015 09:38:08

0
0
3350/servo 860,8/2
0
0
UV/VIS
1
1
1
DoubleDePol,CommonBeamDepol,RBeamAtt,SBeamAtt,60mm sphere, WB InGaAs Detector
0
0
0
0
Program
Program
3350/servo 860,8/2
3350/0,2 860,8/0,2
3350/0,2 860,8/0,2
0
15.00
 
 
 
0
 
860,8
319,2
860,8
Front
100
on
S:100 R:100
0
0
0
0
 
0
 
 
 
0
 
 
0
0
0
0
0
 
 
 
 
0
0


0
0
#HDR
-1
-1
#GR
nm
%R
1.0
0.0
2500,000000
-1,000000
2251
8
72,736100
5,101300
#DATA
2500.000000	8.107500
2499.000000	7.884900
2498.000000	8.054600
2497.000000	7.951000
2496.000000	8.033100
2495.000000	8.090500
2494.000000	8.108200
2493.000000	7.994500
2492.000000	8.003800
2491.000000	8.025600
2490.000000	8.049200
2489.000000	8.089600
2488.000000	8.072400
2487.000000	8.045000
2486.000000	8.051200
2485.000000	8.068100
2484.000000	8.088600
2483.000000	8.093400
2482.000000	8.059900
2481.000000	8.133700
2480.000000	8.142400
2479.000000	8.151400
2478.000000	8.184700
2477.000000	8.168600
2476.000000	8.225100
2475.000000	8.234400
2474.000000	8.204400
2473.000000	8.296000
2472.000000	8.280700
2471.000000	8.315200
2470.000000	8.387800
2469.000000	8.407500
2468.000000	8.416700
2467.000000	8.459200
2466.000000	8.495600
2465.000000	8.524100
2464.000000	8.514100
2463.000000	8.581500
2462.000000	8.583900
2461.000000	8.650500
2460.000000	8.707700
2459.000000	8.739800
2458.000000	8.772200
2457.000000	8.829700
2456.000000	8.881400
2455.000000	8.930500
2454.000000	8.992800
2453.000000	9.022000
2452.000000	9.060900
2451.000000	9.172200
2450.000000	9.219400
2449.000000	9.244600
2448.000000	9.319300
2447.000000	9.396800
2446.000000	9.457300
2445.000000	9.538400
2444.000000	9.621600
2443.000000	9.658200
2442.000000	9.734500
2441.000000	9.810100
2440.000000	9.878100
2439.000000	9.944800
2438.000000	10.030200
2437.000000	10.083100
2436.000000	10.132100
2435.000000	10.211200
2434.000000	10.279000
2433.000000	10.364100
2432.000000	10.421900
2431.000000	10.502000
2430.000000	10.566000
2429.000000	10.620800
2428.000000	10.693800
2427.000000	10.753200
2426.000000	10.796700
2425.000000	10.874600
2424.000000	10.949500
2423.000000	11.015500
2422.000000	11.077700
2421.000000	11.120200
2420.000000	11.151600
2419.000000	11.160000
2418.000000	11.163800
2417.000000	11.184400
2416.000000	11.206800
2415.000000	11.249600
2414.000000	11.307800
2413.000000	11.340100
2412.000000	11.362100
2411.000000	11.401700
2410.000000	11.439800
2409.000000	11.470900
2408.000000	11.496300
2407.000000	11.524200
2406.000000	11.548000
2405.000000	11.545300
2404.000000	11.561900
2403.000000	11.603600
2402.000000	11.637800
2401.000000	11.650200
2400.000000	11.639500
2399.000000	11.665900
2398.000000	11.696100
2397.000000	11.726400
2396.000000	11.747100
2395.000000	11.734600
2394.000000	11.753400
2393.000000	11.776000
2392.000000	11.790900
2391.000000	11.812300
2390.000000	11.821000
2389.000000	11.826500
2388.000000	11.853400
2387.000000	11.865500
2386.000000	11.856200
2385.000000	11.864500
2384.000000	11.877500
2383.000000	11.879300
2382.000000	11.867000
2381.000000	11.867600
2380.000000	11.871000
2379.000000	11.869200
2378.000000	11.870900
2377.000000	11.871600
2376.000000	11.861700
2375.000000	11.856700
2374.000000	11.859500
2373.000000	11.852200
2372.000000	11.855900
2371.000000	11.848200
2370.000000	11.846700
2369.000000	11.839700
2368.000000	11.818300
2367.000000	11.817800
2366.000000	11.821900
2365.000000	11.818200
2364.000000	11.817900
2363.000000	11.817900
2362.000000	11.812500
2361.000000	11.802700
2360.000000	11.788200
2359.000000	11.784500
2358.000000	11.769900
2357.000000	11.735800
2356.000000	11.730000
2355.000000	11.739100
2354.000000	11.719100
2353.000000	11.691000
2352.000000	11.678600
2351.000000	11.660100
2350.000000	11.635600
2349.000000	11.618100
2348.000000	11.607300
2347.000000	11.585200
2346.000000	11.579900
2345.000000	11.566400
2344.000000	11.536600
2343.000000	11.524800
2342.000000	11.506600
2341.000000	11.490000
2340.000000	11.481300
2339.000000	11.471600
2338.000000	11.461800
2337.000000	11.440100
2336.000000	11.414600
2335.000000	11.399600
2334.000000	11.399300
2333.000000	11.395600
2332.000000	11.404200
2331.000000	11.380600
2330.000000	11.363000
2329.000000	11.366600
2328.000000	11.361600
2327.000000	11.335100
2326.000000	11.319400
2325.000000	11.327200
2324.000000	11.311400
2323.000000	11.296800
2322.000000	11.301500
2321.000000	11.277100
2320.000000	11.260100
2319.000000	11.223500
2318.000000	11.195000
2317.000000	11.175500
2316.000000	11.145800
2315.000000	11.093200
2314.000000	11.052400
2313.000000	11.005300
2312.000000	10.970200
2311.000000	10.944200
2310.000000	10.903900
2309.000000	10.851800
2308.000000	10.810700
2307.000000	10.768800
2306.000000	10.733200
2305.000000	10.707900
2304.000000	10.668300
2303.000000	10.620500
2302.000000	10.606200
2301.000000	10.584300
2300.000000	10.551500
2299.000000	10.521100
2298.000000	10.501800
2297.000000	10.462200
2296.000000	10.441800
2295.000000	10.412500
2294.000000	10.404000
2293.000000	10.382500
2292.000000	10.362400
2291.000000	10.342300
2290.000000	10.325800
2289.000000	10.296600
2288.000000	10.280300
2287.000000	10.275800
2286.000000	10.261800
2285.000000	10.241100
2284.000000	10.226000
2283.000000	10.226500
2282.000000	10.174300
2281.000000	10.172400
2280.000000	10.152600
2279.000000	10.112400
2278.000000	10.090100
2277.000000	10.077900
2276.000000	10.044400
2275.000000	10.001600
2274.000000	9.985300
2273.000000	9.946300
2272.000000	9.923400
2271.000000	9.895200
2270.000000	9.840100
2269.000000	9.835800
2268.000000	9.821000
2267.000000	9.787500
2266.000000	9.746100
2265.000000	9.761200
2264.000000	9.742000
2263.000000	9.752300
2262.000000	9.751300
2261.000000	9.767600
2260.000000	9.792000
2259.000000	9.807000
2258.000000	9.813800
2257.000000	9.846300
2256.000000	9.889200
2255.000000	9.914100
2254.000000	9.968900
2253.000000	10.009700
2252.000000	10.041000
2251.000000	10.109500
2250.000000	10.146900
2249.000000	10.203500
2248.000000	10.228000
2247.000000	10.280600
2246.000000	10.333600
2245.000000	10.355000
2244.000000	10.396900
2243.000000	10.422700
2242.000000	10.471700
2241.000000	10.495200
2240.000000	10.524700
2239.000000	10.536400
2238.000000	10.548700
2237.000000	10.569700
2236.000000	10.574000
2235.000000	10.569000
2234.000000	10.558900
2233.000000	10.539000
2232.000000	10.516300
2231.000000	10.498200
2230.000000	10.442200
2229.000000	10.384800
2228.000000	10.343000
2227.000000	10.273000
2226.000000	10.213000
2225.000000	10.170700
2224.000000	10.110100
2223.000000	10.013200
2222.000000	9.918200
2221.000000	9.822200
2220.000000	9.751400
2219.000000	9.680300
2218.000000	9.585300
2217.000000	9.524800
2216.000000	9.443800
2215.000000	9.405000
2214.000000	9.338100
2213.000000	9.300000
2212.000000	9.244600
2211.000000	9.242500
2210.000000	9.230900
2209.000000	9.240300
2208.000000	9.240900
2207.000000	9.308900
2206.000000	9.374100
2205.000000	9.457000
2204.000000	9.542300
2203.000000	9.657500
2202.000000	9.763400
2201.000000	9.879000
2200.000000	10.031600
2199.000000	10.164300
2198.000000	10.290200
2197.000000	10.442300
2196.000000	10.575700
2195.000000	10.703500
2194.000000	10.860100
2193.000000	10.975600
2192.000000	11.101300
2191.000000	11.196900
2190.000000	11.277500
2189.000000	11.376100
2188.000000	11.477000
2187.000000	11.547300
2186.000000	11.610300
2185.000000	11.692900
2184.000000	11.751200
2183.000000	11.800900
2182.000000	11.841900
2181.000000	11.858400
2180.000000	11.922200
2179.000000	11.951000
2178.000000	11.968600
2177.000000	12.012800
2176.000000	12.038300
2175.000000	12.078200
2174.000000	12.111800
2173.000000	12.146100
2172.000000	12.181600
2171.000000	12.212800
2170.000000	12.241700
2169.000000	12.281600
2168.000000	12.318300
2167.000000	12.357000
2166.000000	12.391200
2165.000000	12.442000
2164.000000	12.478900
2163.000000	12.532400
2162.000000	12.591100
2161.000000	12.629300
2160.000000	12.686400
2159.000000	12.771900
2158.000000	12.829500
2157.000000	12.894500
2156.000000	12.963400
2155.000000	13.035000
2154.000000	13.085800
2153.000000	13.179200
2152.000000	13.254900
2151.000000	13.333200
2150.000000	13.410000
2149.000000	13.486800
2148.000000	13.561100
2147.000000	13.666900
2146.000000	13.734800
2145.000000	13.821100
2144.000000	13.899500
2143.000000	13.979500
2142.000000	14.056100
2141.000000	14.120500
2140.000000	14.203000
2139.000000	14.269400
2138.000000	14.329600
2137.000000	14.389500
2136.000000	14.451300
2135.000000	14.500300
2134.000000	14.558600
2133.000000	14.601200
2132.000000	14.655300
2131.000000	14.701500
2130.000000	14.738300
2129.000000	14.779900
2128.000000	14.807800
2127.000000	14.834800
2126.000000	14.874300
2125.000000	14.904700
2124.000000	14.927900
2123.000000	14.951200
2122.000000	14.966500
2121.000000	14.983500
2120.000000	14.996000
2119.000000	15.002900
2118.000000	15.015500
2117.000000	15.017500
2116.000000	15.028700
2115.000000	15.034300
2114.000000	15.021700
2113.000000	15.011800
2112.000000	15.000600
2111.000000	14.994300
2110.000000	14.982000
2109.000000	14.986100
2108.000000	14.985700
2107.000000	14.966900
2106.000000	14.950900
2105.000000	14.935300
2104.000000	14.926500
2103.000000	14.908400
2102.000000	14.891500
2101.000000	14.876800
2100.000000	14.869600
2099.000000	14.852700
2098.000000	14.841600
2097.000000	14.837900
2096.000000	14.818200
2095.000000	14.794100
2094.000000	14.794500
2093.000000	14.796400
2092.000000	14.796200
2091.000000	14.790100
2090.000000	14.783700
2089.000000	14.777900
2088.000000	14.779500
2087.000000	14.778100
2086.000000	14.753600
2085.000000	14.734900
2084.000000	14.728200
2083.000000	14.704000
2082.000000	14.672800
2081.000000	14.640500
2080.000000	14.605100
2079.000000	14.568400
2078.000000	14.526200
2077.000000	14.479200
2076.000000	14.431800
2075.000000	14.362500
2074.000000	14.299400
2073.000000	14.235400
2072.000000	14.176700
2071.000000	14.110300
2070.000000	14.036700
2069.000000	13.957900
2068.000000	13.878000
2067.000000	13.807100
2066.000000	13.710600
2065.000000	13.635300
2064.000000	13.551100
2063.000000	13.470300
2062.000000	13.392000
2061.000000	13.326100
2060.000000	13.261800
2059.000000	13.199200
2058.000000	13.152500
2057.000000	13.101800
2056.000000	13.050100
2055.000000	13.021200
2054.000000	13.004100
2053.000000	12.994600
2052.000000	13.004200
2051.000000	13.033900
2050.000000	13.050400
2049.000000	13.078100
2048.000000	13.125700
2047.000000	13.177300
2046.000000	13.246800
2045.000000	13.310700
2044.000000	13.391700
2043.000000	13.455500
2042.000000	13.539400
2041.000000	13.617500
2040.000000	13.677100
2039.000000	13.738900
2038.000000	13.816800
2037.000000	13.886500
2036.000000	13.935500
2035.000000	13.987600
2034.000000	14.046800
2033.000000	14.103100
2032.000000	14.137800
2031.000000	14.182300
2030.000000	14.213600
2029.000000	14.247900
2028.000000	14.287400
2027.000000	14.327800
2026.000000	14.347800
2025.000000	14.386000
2024.000000	14.394400
2023.000000	14.406400
2022.000000	14.435800
2021.000000	14.449300
2020.000000	14.453200
2019.000000	14.473300
2018.000000	14.481000
2017.000000	14.458200
2016.000000	14.460000
2015.000000	14.468100
2014.000000	14.474000
2013.000000	14.447800
2012.000000	14.425200
2011.000000	14.397800
2010.000000	14.389800
2009.000000	14.372800
2008.000000	14.340300
2007.000000	14.312600
2006.000000	14.275900
2005.000000	14.250700
2004.000000	14.214900
2003.000000	14.159900
2002.000000	14.131100
2001.000000	14.074900
2000.000000	14.029600
1999.000000	13.962300
1998.000000	13.932300
1997.000000	13.854100
1996.000000	13.821600
1995.000000	13.768600
1994.000000	13.698900
1993.000000	13.633700
1992.000000	13.582100
1991.000000	13.513300
1990.000000	13.455900
1989.000000	13.407900
1988.000000	13.352300
1987.000000	13.280400
1986.000000	13.198300
1985.000000	13.153800
1984.000000	13.092900
1983.000000	13.000900
1982.000000	12.917900
1981.000000	12.880400
1980.000000	12.790600
1979.000000	12.737000
1978.000000	12.655600
1977.000000	12.607700
1976.000000	12.554300
1975.000000	12.479200
1974.000000	12.411600
1973.000000	12.348000
1972.000000	12.293800
1971.000000	12.239800
1970.000000	12.152200
1969.000000	12.121500
1968.000000	12.062300
1967.000000	12.001300
1966.000000	11.948700
1965.000000	11.890000
1964.000000	11.818700
1963.000000	11.750000
1962.000000	11.718100
1961.000000	11.665100
1960.000000	11.588200
1959.000000	11.534400
1958.000000	11.494800
1957.000000	11.439800
1956.000000	11.375000
1955.000000	11.292000
1954.000000	11.250700
1953.000000	11.196700
1952.000000	11.147700
1951.000000	11.092900
1950.000000	11.043900
1949.000000	11.013900
1948.000000	10.960500
1947.000000	10.912900
1946.000000	10.880700
1945.000000	10.844200
1944.000000	10.802100
1943.000000	10.763600
1942.000000	10.733800
1941.000000	10.715400
1940.000000	10.668100
1939.000000	10.683500
1938.000000	10.685400
1937.000000	10.665700
1936.000000	10.647500
1935.000000	10.638800
1934.000000	10.626400
1933.000000	10.657300
1932.000000	10.674600
1931.000000	10.705300
1930.000000	10.711300
1929.000000	10.754100
1928.000000	10.786000
1927.000000	10.847800
1926.000000	10.891400
1925.000000	10.941200
1924.000000	11.020800
1923.000000	11.069800
1922.000000	11.137200
1921.000000	11.262900
1920.000000	11.366800
1919.000000	11.470900
1918.000000	11.590900
1917.000000	11.672600
1916.000000	11.765700
1915.000000	11.885300
1914.000000	12.057700
1913.000000	12.246600
1912.000000	12.444000
1911.000000	12.640200
1910.000000	12.800400
1909.000000	12.931700
1908.000000	13.123500
1907.000000	13.359900
1906.000000	13.635100
1905.000000	13.980100
1904.000000	14.291700
1903.000000	14.567200
1902.000000	14.862400
1901.000000	15.178000
1900.000000	15.571500
1899.000000	15.972900
1898.000000	16.379500
1897.000000	16.785600
1896.000000	17.149600
1895.000000	17.488000
1894.000000	17.886800
1893.000000	18.326800
1892.000000	18.824200
1891.000000	19.327600
1890.000000	19.807100
1889.000000	20.239200
1888.000000	20.694700
1887.000000	21.102500
1886.000000	21.526700
1885.000000	21.960500
1884.000000	22.435200
1883.000000	22.851800
1882.000000	23.236000
1881.000000	23.624100
1880.000000	23.959500
1879.000000	24.286500
1878.000000	24.619300
1877.000000	24.952600
1876.000000	25.276500
1875.000000	25.607700
1874.000000	25.919400
1873.000000	26.229400
1872.000000	26.525000
1871.000000	26.791100
1870.000000	27.035300
1869.000000	27.267000
1868.000000	27.481700
1867.000000	27.643500
1866.000000	27.759300
1865.000000	27.877600
1864.000000	27.996300
1863.000000	28.111300
1862.000000	28.249200
1861.000000	28.384300
1860.000000	28.523900
1859.000000	28.650500
1858.000000	28.767500
1857.000000	28.851000
1856.000000	28.911000
1855.000000	28.990400
1854.000000	29.070200
1853.000000	29.118000
1852.000000	29.163500
1851.000000	29.206700
1850.000000	29.251600
1849.000000	29.312300
1848.000000	29.378300
1847.000000	29.430700
1846.000000	29.420000
1845.000000	29.381500
1844.000000	29.344200
1843.000000	29.348000
1842.000000	29.395700
1841.000000	29.434400
1840.000000	29.435000
1839.000000	29.414800
1838.000000	29.390300
1837.000000	29.373200
1836.000000	29.354600
1835.000000	29.333100
1834.000000	29.294700
1833.000000	29.250900
1832.000000	29.219100
1831.000000	29.217700
1830.000000	29.219800
1829.000000	29.193500
1828.000000	29.166600
1827.000000	29.163300
1826.000000	29.162200
1825.000000	29.143400
1824.000000	29.116400
1823.000000	29.113800
1822.000000	29.131400
1821.000000	29.167000
1820.000000	29.177400
1819.000000	29.140200
1818.000000	29.126900
1817.000000	29.119100
1816.000000	29.117700
1815.000000	29.112300
1814.000000	29.096300
1813.000000	29.075000
1812.000000	29.061500
1811.000000	29.058500
1810.000000	29.022900
1809.000000	28.985600
1808.000000	28.964400
1807.000000	28.955000
1806.000000	28.927900
1805.000000	28.882200
1804.000000	28.859500
1803.000000	28.851800
1802.000000	28.836100
1801.000000	28.805900
1800.000000	28.767600
1799.000000	28.722200
1798.000000	28.698700
1797.000000	28.681000
1796.000000	28.658400
1795.000000	28.629100
1794.000000	28.591500
1793.000000	28.575800
1792.000000	28.562000
1791.000000	28.545700
1790.000000	28.531600
1789.000000	28.522300
1788.000000	28.513800
1787.000000	28.512300
1786.000000	28.515400
1785.000000	28.510700
1784.000000	28.493200
1783.000000	28.478100
1782.000000	28.443800
1781.000000	28.434100
1780.000000	28.408500
1779.000000	28.398700
1778.000000	28.363400
1777.000000	28.327400
1776.000000	28.281600
1775.000000	28.246300
1774.000000	28.195100
1773.000000	28.152700
1772.000000	28.122900
1771.000000	28.093700
1770.000000	28.048200
1769.000000	28.018500
1768.000000	27.962300
1767.000000	27.927800
1766.000000	27.891300
1765.000000	27.846800
1764.000000	27.818500
1763.000000	27.802800
1762.000000	27.792300
1761.000000	27.777700
1760.000000	27.770500
1759.000000	27.786400
1758.000000	27.770100
1757.000000	27.785400
1756.000000	27.798200
1755.000000	27.796300
1754.000000	27.812500
1753.000000	27.806800
1752.000000	27.807500
1751.000000	27.804400
1750.000000	27.789700
1749.000000	27.762400
1748.000000	27.729900
1747.000000	27.703200
1746.000000	27.663900
1745.000000	27.615700
1744.000000	27.559700
1743.000000	27.485600
1742.000000	27.393000
1741.000000	27.329300
1740.000000	27.260400
1739.000000	27.174700
1738.000000	27.109100
1737.000000	27.050900
1736.000000	26.975400
1735.000000	26.930400
1734.000000	26.842300
1733.000000	26.800000
1732.000000	26.721700
1731.000000	26.668500
1730.000000	26.632500
1729.000000	26.561600
1728.000000	26.530800
1727.000000	26.495800
1726.000000	26.473700
1725.000000	26.451100
1724.000000	26.462300
1723.000000	26.496200
1722.000000	26.555600
1721.000000	26.651500
1720.000000	26.781300
1719.000000	26.927600
1718.000000	27.109800
1717.000000	27.306100
1716.000000	27.502400
1715.000000	27.671200
1714.000000	27.864000
1713.000000	28.020300
1712.000000	28.154400
1711.000000	28.283900
1710.000000	28.417600
1709.000000	28.553300
1708.000000	28.649100
1707.000000	28.741600
1706.000000	28.822400
1705.000000	28.904800
1704.000000	28.950300
1703.000000	29.016800
1702.000000	29.072700
1701.000000	29.092900
1700.000000	29.168000
1699.000000	29.177300
1698.000000	29.190500
1697.000000	29.213900
1696.000000	29.205400
1695.000000	29.202700
1694.000000	29.156800
1693.000000	29.093900
1692.000000	29.050200
1691.000000	29.005400
1690.000000	28.947200
1689.000000	28.932900
1688.000000	28.926100
1687.000000	28.978000
1686.000000	29.050500
1685.000000	29.161300
1684.000000	29.295400
1683.000000	29.477900
1682.000000	29.637500
1681.000000	29.829800
1680.000000	30.029900
1679.000000	30.190400
1678.000000	30.333600
1677.000000	30.485100
1676.000000	30.621300
1675.000000	30.754300
1674.000000	30.883600
1673.000000	31.008900
1672.000000	31.141600
1671.000000	31.276300
1670.000000	31.409700
1669.000000	31.533400
1668.000000	31.666000
1667.000000	31.808000
1666.000000	31.899600
1665.000000	32.030700
1664.000000	32.135800
1663.000000	32.249200
1662.000000	32.357700
1661.000000	32.458400
1660.000000	32.547800
1659.000000	32.631800
1658.000000	32.700900
1657.000000	32.760100
1656.000000	32.798300
1655.000000	32.833400
1654.000000	32.863800
1653.000000	32.898000
1652.000000	32.902800
1651.000000	32.910700
1650.000000	32.914800
1649.000000	32.902800
1648.000000	32.896300
1647.000000	32.890200
1646.000000	32.862800
1645.000000	32.842300
1644.000000	32.817200
1643.000000	32.795200
1642.000000	32.779800
1641.000000	32.741000
1640.000000	32.720800
1639.000000	32.677400
1638.000000	32.656400
1637.000000	32.632300
1636.000000	32.589400
1635.000000	32.552200
1634.000000	32.522100
1633.000000	32.487200
1632.000000	32.448300
1631.000000	32.399000
1630.000000	32.338400
1629.000000	32.296900
1628.000000	32.249300
1627.000000	32.177900
1626.000000	32.129600
1625.000000	32.067200
1624.000000	32.031900
1623.000000	31.972300
1622.000000	31.919400
1621.000000	31.874000
1620.000000	31.827400
1619.000000	31.765800
1618.000000	31.714200
1617.000000	31.667800
1616.000000	31.617600
1615.000000	31.572600
1614.000000	31.519500
1613.000000	31.468100
1612.000000	31.422900
1611.000000	31.377500
1610.000000	31.321400
1609.000000	31.253600
1608.000000	31.195700
1607.000000	31.130000
1606.000000	31.058200
1605.000000	30.997100
1604.000000	30.940100
1603.000000	30.857200
1602.000000	30.792100
1601.000000	30.728000
1600.000000	30.659500
1599.000000	30.591900
1598.000000	30.525000
1597.000000	30.461700
1596.000000	30.401200
1595.000000	30.349300
1594.000000	30.298200
1593.000000	30.252500
1592.000000	30.212900
1591.000000	30.160800
1590.000000	30.119500
1589.000000	30.090500
1588.000000	30.041600
1587.000000	29.990600
1586.000000	29.950000
1585.000000	29.908000
1584.000000	29.860200
1583.000000	29.811800
1582.000000	29.787500
1581.000000	29.745800
1580.000000	29.704600
1579.000000	29.680700
1578.000000	29.658300
1577.000000	29.643800
1576.000000	29.611400
1575.000000	29.581000
1574.000000	29.567900
1573.000000	29.567700
1572.000000	29.558400
1571.000000	29.546400
1570.000000	29.549200
1569.000000	29.552400
1568.000000	29.559000
1567.000000	29.562300
1566.000000	29.562800
1565.000000	29.552700
1564.000000	29.540200
1563.000000	29.535200
1562.000000	29.527100
1561.000000	29.498700
1560.000000	29.465200
1559.000000	29.446900
1558.000000	29.420000
1557.000000	29.385000
1556.000000	29.338800
1555.000000	29.282000
1554.000000	29.221700
1553.000000	29.158300
1552.000000	29.089500
1551.000000	29.026300
1550.000000	28.944100
1549.000000	28.862700
1548.000000	28.792200
1547.000000	28.708600
1546.000000	28.634700
1545.000000	28.589300
1544.000000	28.539200
1543.000000	28.477600
1542.000000	28.411400
1541.000000	28.354200
1540.000000	28.296700
1539.000000	28.249100
1538.000000	28.183300
1537.000000	28.114900
1536.000000	28.060100
1535.000000	28.011200
1534.000000	27.940900
1533.000000	27.868600
1532.000000	27.805300
1531.000000	27.744900
1530.000000	27.678600
1529.000000	27.592400
1528.000000	27.512200
1527.000000	27.444300
1526.000000	27.357400
1525.000000	27.296200
1524.000000	27.224500
1523.000000	27.154900
1522.000000	27.077000
1521.000000	26.989400
1520.000000	26.899000
1519.000000	26.822300
1518.000000	26.734000
1517.000000	26.672500
1516.000000	26.589900
1515.000000	26.506400
1514.000000	26.418900
1513.000000	26.339700
1512.000000	26.259000
1511.000000	26.170400
1510.000000	26.089200
1509.000000	26.017500
1508.000000	25.930300
1507.000000	25.856300
1506.000000	25.779200
1505.000000	25.703900
1504.000000	25.612300
1503.000000	25.545600
1502.000000	25.479900
1501.000000	25.405100
1500.000000	25.339900
1499.000000	25.302400
1498.000000	25.266800
1497.000000	25.222800
1496.000000	25.161900
1495.000000	25.129200
1494.000000	25.107400
1493.000000	25.076000
1492.000000	25.048100
1491.000000	25.029100
1490.000000	25.017400
1489.000000	24.998700
1488.000000	24.978400
1487.000000	24.966900
1486.000000	24.936500
1485.000000	24.907400
1484.000000	24.903800
1483.000000	24.912200
1482.000000	24.894100
1481.000000	24.868200
1480.000000	24.878300
1479.000000	24.882100
1478.000000	24.891900
1477.000000	24.905800
1476.000000	24.903300
1475.000000	24.910600
1474.000000	24.951800
1473.000000	24.982600
1472.000000	25.024700
1471.000000	25.065700
1470.000000	25.092600
1469.000000	25.119500
1468.000000	25.166700
1467.000000	25.222600
1466.000000	25.248500
1465.000000	25.300200
1464.000000	25.342000
1463.000000	25.388700
1462.000000	25.428000
1461.000000	25.471600
1460.000000	25.547300
1459.000000	25.601200
1458.000000	25.636600
1457.000000	25.715300
1456.000000	25.783000
1455.000000	25.836700
1454.000000	25.888900
1453.000000	25.960600
1452.000000	26.004500
1451.000000	26.080800
1450.000000	26.137900
1449.000000	26.168200
1448.000000	26.222300
1447.000000	26.299600
1446.000000	26.387500
1445.000000	26.410200
1444.000000	26.453600
1443.000000	26.508800
1442.000000	26.571100
1441.000000	26.631500
1440.000000	26.726600
1439.000000	26.780300
1438.000000	26.871700
1437.000000	26.941000
1436.000000	27.022900
1435.000000	27.092800
1434.000000	27.216500
1433.000000	27.296600
1432.000000	27.420500
1431.000000	27.509900
1430.000000	27.609400
1429.000000	27.744400
1428.000000	27.896100
1427.000000	27.989900
1426.000000	28.142000
1425.000000	28.320900
1424.000000	28.476600
1423.000000	28.658500
1422.000000	28.833100
1421.000000	29.020900
1420.000000	29.229600
1419.000000	29.457400
1418.000000	29.678500
1417.000000	29.851500
1416.000000	30.114200
1415.000000	30.391400
1414.000000	30.682800
1413.000000	30.964800
1412.000000	31.222400
1411.000000	31.539100
1410.000000	31.887500
1409.000000	32.244100
1408.000000	32.575300
1407.000000	32.935000
1406.000000	33.270400
1405.000000	33.653100
1404.000000	33.977500
1403.000000	34.344900
1402.000000	34.679400
1401.000000	35.125700
1400.000000	35.494600
1399.000000	35.767200
1398.000000	36.012300
1397.000000	36.317500
1396.000000	36.729300
1395.000000	37.059700
1394.000000	37.278600
1393.000000	37.511200
1392.000000	37.811700
1391.000000	38.048200
1390.000000	38.280400
1389.000000	38.567300
1388.000000	38.894400
1387.000000	39.144000
1386.000000	39.420000
1385.000000	39.702000
1384.000000	40.069100
1383.000000	40.398100
1382.000000	40.785900
1381.000000	41.194800
1380.000000	41.544600
1379.000000	42.066600
1378.000000	42.583100
1377.000000	43.154200
1376.000000	43.715700
1375.000000	44.286900
1374.000000	44.878800
1373.000000	45.414000
1372.000000	45.912200
1371.000000	46.356800
1370.000000	46.689100
1369.000000	46.981300
1368.000000	47.263500
1367.000000	47.467900
1366.000000	47.665300
1365.000000	47.880900
1364.000000	48.031900
1363.000000	48.174300
1362.000000	48.341700
1361.000000	48.460300
1360.000000	48.531900
1359.000000	48.614700
1358.000000	48.721200
1357.000000	48.841300
1356.000000	48.975900
1355.000000	49.140100
1354.000000	49.266300
1353.000000	49.401000
1352.000000	49.615900
1351.000000	49.818400
1350.000000	50.032900
1349.000000	50.252300
1348.000000	50.487900
1347.000000	50.709500
1346.000000	50.914900
1345.000000	51.146800
1344.000000	51.368700
1343.000000	51.577200
1342.000000	51.778100
1341.000000	52.000500
1340.000000	52.208600
1339.000000	52.394300
1338.000000	52.599600
1337.000000	52.805900
1336.000000	52.994200
1335.000000	53.167300
1334.000000	53.342400
1333.000000	53.533100
1332.000000	53.708900
1331.000000	53.861000
1330.000000	54.018200
1329.000000	54.175200
1328.000000	54.331200
1327.000000	54.473300
1326.000000	54.608600
1325.000000	54.743000
1324.000000	54.866100
1323.000000	54.998600
1322.000000	55.132900
1321.000000	55.241500
1320.000000	55.345000
1319.000000	55.453000
1318.000000	55.551900
1317.000000	55.652600
1316.000000	55.758800
1315.000000	55.864400
1314.000000	55.965200
1313.000000	56.060600
1312.000000	56.142000
1311.000000	56.240800
1310.000000	56.332400
1309.000000	56.397100
1308.000000	56.464200
1307.000000	56.532500
1306.000000	56.601400
1305.000000	56.654300
1304.000000	56.710400
1303.000000	56.765000
1302.000000	56.811000
1301.000000	56.861900
1300.000000	56.901800
1299.000000	56.932100
1298.000000	56.962800
1297.000000	56.986000
1296.000000	56.999200
1295.000000	57.020600
1294.000000	57.028300
1293.000000	57.034500
1292.000000	57.044200
1291.000000	57.032900
1290.000000	57.017200
1289.000000	57.002900
1288.000000	56.996000
1287.000000	56.978600
1286.000000	56.955700
1285.000000	56.935400
1284.000000	56.907500
1283.000000	56.878100
1282.000000	56.854700
1281.000000	56.830200
1280.000000	56.800000
1279.000000	56.779400
1278.000000	56.754500
1277.000000	56.734900
1276.000000	56.717700
1275.000000	56.707900
1274.000000	56.705400
1273.000000	56.695700
1272.000000	56.686000
1271.000000	56.690800
1270.000000	56.685100
1269.000000	56.667600
1268.000000	56.652400
1267.000000	56.643000
1266.000000	56.631600
1265.000000	56.610400
1264.000000	56.593200
1263.000000	56.571800
1262.000000	56.550200
1261.000000	56.538200
1260.000000	56.520800
1259.000000	56.485100
1258.000000	56.467900
1257.000000	56.428200
1256.000000	56.405500
1255.000000	56.364400
1254.000000	56.335300
1253.000000	56.299500
1252.000000	56.259500
1251.000000	56.205100
1250.000000	56.150100
1249.000000	56.083700
1248.000000	56.025600
1247.000000	55.988800
1246.000000	55.921100
1245.000000	55.868600
1244.000000	55.818700
1243.000000	55.760100
1242.000000	55.717600
1241.000000	55.683400
1240.000000	55.641500
1239.000000	55.618000
1238.000000	55.585900
1237.000000	55.546700
1236.000000	55.527100
1235.000000	55.503700
1234.000000	55.472200
1233.000000	55.443100
1232.000000	55.410000
1231.000000	55.375800
1230.000000	55.341900
1229.000000	55.281500
1228.000000	55.232800
1227.000000	55.179900
1226.000000	55.123800
1225.000000	55.063600
1224.000000	55.013800
1223.000000	54.939600
1222.000000	54.862700
1221.000000	54.789300
1220.000000	54.701400
1219.000000	54.628300
1218.000000	54.566300
1217.000000	54.492700
1216.000000	54.433200
1215.000000	54.360800
1214.000000	54.283400
1213.000000	54.231000
1212.000000	54.164700
1211.000000	54.093100
1210.000000	54.005000
1209.000000	53.921000
1208.000000	53.869500
1207.000000	53.805600
1206.000000	53.729500
1205.000000	53.668700
1204.000000	53.593600
1203.000000	53.531700
1202.000000	53.472000
1201.000000	53.392700
1200.000000	53.318100
1199.000000	53.259300
1198.000000	53.176500
1197.000000	53.089300
1196.000000	53.020300
1195.000000	52.948300
1194.000000	52.865500
1193.000000	52.795800
1192.000000	52.705500
1191.000000	52.657000
1190.000000	52.603700
1189.000000	52.550400
1188.000000	52.522600
1187.000000	52.525300
1186.000000	52.531500
1185.000000	52.550200
1184.000000	52.574700
1183.000000	52.630700
1182.000000	52.694500
1181.000000	52.779000
1180.000000	52.856000
1179.000000	52.942300
1178.000000	53.033000
1177.000000	53.130700
1176.000000	53.192100
1175.000000	53.285700
1174.000000	53.368600
1173.000000	53.473300
1172.000000	53.572900
1171.000000	53.685900
1170.000000	53.795500
1169.000000	53.916500
1168.000000	54.064200
1167.000000	54.207800
1166.000000	54.381600
1165.000000	54.529000
1164.000000	54.731900
1163.000000	54.907700
1162.000000	55.092600
1161.000000	55.276500
1160.000000	55.473500
1159.000000	55.662000
1158.000000	55.842400
1157.000000	56.009200
1156.000000	56.180800
1155.000000	56.320900
1154.000000	56.506100
1153.000000	56.628100
1152.000000	56.754200
1151.000000	56.919300
1150.000000	57.044500
1149.000000	57.165800
1148.000000	57.293700
1147.000000	57.426300
1146.000000	57.552600
1145.000000	57.684600
1144.000000	57.792000
1143.000000	57.926000
1142.000000	58.071200
1141.000000	58.219100
1140.000000	58.340500
1139.000000	58.506000
1138.000000	58.656600
1137.000000	58.847100
1136.000000	59.048400
1135.000000	59.172200
1134.000000	59.326100
1133.000000	59.434100
1132.000000	59.518600
1131.000000	59.653400
1130.000000	59.774700
1129.000000	59.865600
1128.000000	59.955700
1127.000000	60.020600
1126.000000	60.087300
1125.000000	60.161700
1124.000000	60.206400
1123.000000	60.240600
1122.000000	60.278700
1121.000000	60.298200
1120.000000	60.311900
1119.000000	60.308000
1118.000000	60.319700
1117.000000	60.326600
1116.000000	60.320300
1115.000000	60.329800
1114.000000	60.324900
1113.000000	60.333000
1112.000000	60.335900
1111.000000	60.315000
1110.000000	60.321100
1109.000000	60.322100
1108.000000	60.296200
1107.000000	60.288600
1106.000000	60.268300
1105.000000	60.258800
1104.000000	60.254900
1103.000000	60.232500
1102.000000	60.204600
1101.000000	60.199700
1100.000000	60.168000
1099.000000	60.154200
1098.000000	60.115500
1097.000000	60.092900
1096.000000	60.075300
1095.000000	60.032500
1094.000000	59.989000
1093.000000	59.955400
1092.000000	59.907500
1091.000000	59.858300
1090.000000	59.824600
1089.000000	59.779400
1088.000000	59.728200
1087.000000	59.679400
1086.000000	59.621500
1085.000000	59.576400
1084.000000	59.523300
1083.000000	59.461400
1082.000000	59.392200
1081.000000	59.336400
1080.000000	59.284200
1079.000000	59.215400
1078.000000	59.157300
1077.000000	59.092700
1076.000000	59.035900
1075.000000	58.968400
1074.000000	58.912700
1073.000000	58.861300
1072.000000	58.798500
1071.000000	58.735000
1070.000000	58.688300
1069.000000	58.624700
1068.000000	58.566000
1067.000000	58.508100
1066.000000	58.449800
1065.000000	58.393200
1064.000000	58.347500
1063.000000	58.288100
1062.000000	58.228500
1061.000000	58.174600
1060.000000	58.120200
1059.000000	58.055700
1058.000000	58.011000
1057.000000	57.956300
1056.000000	57.892300
1055.000000	57.847800
1054.000000	57.807800
1053.000000	57.752700
1052.000000	57.691700
1051.000000	57.646600
1050.000000	57.594100
1049.000000	57.535600
1048.000000	57.498100
1047.000000	57.455500
1046.000000	57.405000
1045.000000	57.342100
1044.000000	57.299100
1043.000000	57.261000
1042.000000	57.198900
1041.000000	57.144700
1040.000000	57.104700
1039.000000	57.060500
1038.000000	57.009200
1037.000000	56.959900
1036.000000	56.911200
1035.000000	56.855100
1034.000000	56.812300
1033.000000	56.763900
1032.000000	56.701000
1031.000000	56.651800
1030.000000	56.608100
1029.000000	56.568500
1028.000000	56.521700
1027.000000	56.477900
1026.000000	56.444200
1025.000000	56.398600
1024.000000	56.361900
1023.000000	56.323100
1022.000000	56.265200
1021.000000	56.229100
1020.000000	56.206900
1019.000000	56.168600
1018.000000	56.137600
1017.000000	56.107300
1016.000000	56.067800
1015.000000	56.048000
1014.000000	56.018600
1013.000000	55.993600
1012.000000	55.981900
1011.000000	55.957400
1010.000000	55.936300
1009.000000	55.904000
1008.000000	55.889500
1007.000000	55.876200
1006.000000	55.845200
1005.000000	55.811100
1004.000000	55.810000
1003.000000	55.801200
1002.000000	55.781100
1001.000000	55.762200
1000.000000	55.747600
999.000000	55.738000
998.000000	55.728600
997.000000	55.707000
996.000000	55.693200
995.000000	55.684700
994.000000	55.681800
993.000000	55.684000
992.000000	55.675900
991.000000	55.673000
990.000000	55.676800
989.000000	55.684500
988.000000	55.695200
987.000000	55.716700
986.000000	55.739300
985.000000	55.746600
984.000000	55.777400
983.000000	55.787500
982.000000	55.810800
981.000000	55.850300
980.000000	55.881800
979.000000	55.908200
978.000000	55.962400
977.000000	55.994800
976.000000	56.034200
975.000000	56.079400
974.000000	56.120100
973.000000	56.156800
972.000000	56.189400
971.000000	56.246500
970.000000	56.291100
969.000000	56.330600
968.000000	56.368100
967.000000	56.426400
966.000000	56.462800
965.000000	56.530000
964.000000	56.558800
963.000000	56.606800
962.000000	56.656900
961.000000	56.672300
960.000000	56.745400
959.000000	56.764200
958.000000	56.801700
957.000000	56.860400
956.000000	56.893200
955.000000	56.930500
954.000000	56.976800
953.000000	57.004500
952.000000	57.044300
951.000000	57.094400
950.000000	57.122800
949.000000	57.165500
948.000000	57.178900
947.000000	57.199200
946.000000	57.237200
945.000000	57.303300
944.000000	57.315300
943.000000	57.353500
942.000000	57.412000
941.000000	57.455800
940.000000	57.493600
939.000000	57.521000
938.000000	57.560800
937.000000	57.642000
936.000000	57.693200
935.000000	57.763000
934.000000	57.831300
933.000000	57.874500
932.000000	57.904200
931.000000	57.952400
930.000000	58.040000
929.000000	58.058800
928.000000	58.105700
927.000000	58.184200
926.000000	58.186300
925.000000	58.222000
924.000000	58.258500
923.000000	58.282800
922.000000	58.349700
921.000000	58.363400
920.000000	58.414900
919.000000	58.426700
918.000000	58.445200
917.000000	58.474100
916.000000	58.495700
915.000000	58.513100
914.000000	58.519300
913.000000	58.583700
912.000000	58.576300
911.000000	58.599500
910.000000	58.605800
909.000000	58.604500
908.000000	58.643000
907.000000	58.640500
906.000000	58.652900
905.000000	58.684400
904.000000	58.681100
903.000000	58.715900
902.000000	58.730000
901.000000	58.740800
900.000000	58.771500
899.000000	58.805700
898.000000	58.848500
897.000000	58.889500
896.000000	58.944300
895.000000	58.971700
894.000000	59.031200
893.000000	59.091000
892.000000	59.138500
891.000000	59.216700
890.000000	59.262300
889.000000	59.318700
888.000000	59.386200
887.000000	59.467200
886.000000	59.543800
885.000000	59.585100
884.000000	59.652100
883.000000	59.751200
882.000000	59.813100
881.000000	59.906600
880.000000	59.981800
879.000000	60.054400
878.000000	60.119200
877.000000	60.203700
876.000000	60.288100
875.000000	60.356300
874.000000	60.441800
873.000000	60.519600
872.000000	60.618900
871.000000	60.687500
870.000000	60.764600
869.000000	60.849100
868.000000	60.940500
867.000000	61.014500
866.000000	61.105200
865.000000	61.167100
864.000000	61.254500
863.000000	61.326100
862.000000	61.388700
861.000000	61.437900
860.000000	61.475100
859.000000	61.522200
858.000000	60.962331
857.000000	60.250459
856.000000	60.111675
855.000000	60.199667
854.000000	60.200659
853.000000	60.554612
852.000000	60.230718
851.000000	60.276251
850.000000	60.245400
849.000000	60.687542
848.000000	60.692800
847.000000	60.477433
846.000000	60.290040
845.000000	60.797954
844.000000	60.533383
843.000000	60.670976
842.000000	60.926420
841.000000	61.140200
840.000000	61.258647
839.000000	61.387312
838.000000	61.553773
837.000000	61.829852
836.000000	61.997205
835.000000	62.370105
834.000000	62.466827
833.000000	62.620292
832.000000	62.988232
831.000000	63.090807
830.000000	63.266493
829.000000	63.358950
828.000000	63.845237
827.000000	64.164965
826.000000	64.365353
825.000000	64.504136
824.000000	64.560284
823.000000	64.758490
822.000000	65.185554
821.000000	65.404492
820.000000	65.447645
819.000000	65.589702
818.000000	65.863301
817.000000	65.999505
816.000000	66.093152
815.000000	66.215666
814.000000	66.322606
813.000000	66.411590
812.000000	66.589459
811.000000	66.606522
810.000000	66.722786
809.000000	66.767030
808.000000	67.032296
807.000000	67.100150
806.000000	67.089337
805.000000	67.218200
804.000000	67.348948
803.000000	67.486541
802.000000	67.686830
801.000000	67.890888
800.000000	68.044552
799.000000	68.162305
798.000000	68.363883
797.000000	68.584706
796.000000	68.746008
795.000000	68.808307
794.000000	69.003834
793.000000	69.131805
792.000000	69.287452
791.000000	69.447366
790.000000	69.542798
789.000000	69.674836
788.000000	69.733563
787.000000	69.835344
786.000000	69.940597
785.000000	69.984345
784.000000	70.124915
783.000000	70.222132
782.000000	70.238203
781.000000	70.287407
780.000000	70.280661
779.000000	70.406945
778.000000	70.359725
777.000000	70.399604
776.000000	70.457737
775.000000	70.394347
774.000000	70.387303
773.000000	70.418354
772.000000	70.481545
771.000000	70.562692
770.000000	70.641459
769.000000	70.671616
768.000000	70.754152
767.000000	70.857520
766.000000	70.879345
765.000000	71.007712
764.000000	71.076261
763.000000	71.190243
762.000000	71.340237
761.000000	71.424757
760.000000	71.536458
759.000000	71.617903
758.000000	71.719783
757.000000	71.792002
756.000000	71.832972
755.000000	71.865411
754.000000	71.955685
753.000000	72.100421
752.000000	72.139010
751.000000	72.154188
750.000000	72.155577
749.000000	72.128991
748.000000	72.128296
747.000000	72.098734
746.000000	72.065105
745.000000	71.983660
744.000000	71.899338
743.000000	71.816406
742.000000	71.747262
741.000000	71.638239
740.000000	71.520288
739.000000	71.326348
738.000000	71.133302
737.000000	70.939957
736.000000	70.760699
735.000000	70.586402
734.000000	70.367959
733.000000	70.196042
732.000000	70.041287
731.000000	69.845364
730.000000	69.683367
729.000000	69.473456
728.000000	69.287155
727.000000	69.125158
726.000000	68.913263
725.000000	68.812077
724.000000	68.730335
723.000000	68.581432
722.000000	68.405349
721.000000	68.206648
720.000000	68.008641
719.000000	67.866584
718.000000	67.704984
717.000000	67.467098
716.000000	67.273059
715.000000	67.068604
714.000000	66.934185
713.000000	66.760384
712.000000	66.602256
711.000000	66.473194
710.000000	66.267449
709.000000	66.075097
708.000000	65.923715
707.000000	65.822827
706.000000	65.775507
705.000000	65.653787
704.000000	65.512424
703.000000	65.422249
702.000000	65.338722
701.000000	65.261146
700.000000	65.137044
699.000000	65.081888
698.000000	65.042604
697.000000	64.903920
696.000000	64.845887
695.000000	64.745197
694.000000	64.680815
693.000000	64.621690
692.000000	64.518620
691.000000	64.423981
690.000000	64.322497
689.000000	64.155739
688.000000	64.045228
687.000000	63.893053
686.000000	63.694847
685.000000	63.504181
684.000000	63.351212
683.000000	63.118087
682.000000	62.911648
681.000000	62.584282
680.000000	62.285288
679.000000	62.010399
678.000000	61.727079
677.000000	61.434136
676.000000	61.096552
675.000000	60.772062
674.000000	60.399262
673.000000	59.992931
672.000000	59.624098
671.000000	59.213601
670.000000	58.811040
669.000000	58.405006
668.000000	57.917925
667.000000	57.365569
666.000000	56.829383
665.000000	56.319783
664.000000	55.740543
663.000000	55.171323
662.000000	54.527899
661.000000	53.847077
660.000000	53.167941
659.000000	52.494658
658.000000	51.763738
657.000000	51.010399
656.000000	50.261524
655.000000	49.508086
654.000000	48.826470
653.000000	48.101998
652.000000	47.451333
651.000000	46.811084
650.000000	46.234523
649.000000	45.726014
648.000000	45.312838
647.000000	44.968906
646.000000	44.746693
645.000000	44.586978
644.000000	44.548885
643.000000	44.593625
642.000000	44.744709
641.000000	45.023367
640.000000	45.378510
639.000000	45.854183
638.000000	46.328467
637.000000	46.875466
636.000000	47.551130
635.000000	48.248520
634.000000	48.964856
633.000000	49.753611
632.000000	50.501394
631.000000	51.283601
630.000000	52.059558
629.000000	52.814385
628.000000	53.599072
627.000000	54.308465
626.000000	55.024305
625.000000	55.715346
624.000000	56.406684
623.000000	57.109430
622.000000	57.788070
621.000000	58.365425
620.000000	58.979088
619.000000	59.579557
618.000000	60.118818
617.000000	60.643794
616.000000	61.228490
615.000000	61.676684
614.000000	62.137576
613.000000	62.571287
612.000000	63.018985
611.000000	63.457656
610.000000	63.826190
609.000000	64.256528
608.000000	64.601652
607.000000	65.068496
606.000000	65.453994
605.000000	65.818363
604.000000	66.212095
603.000000	66.605331
602.000000	66.959482
601.000000	67.264032
600.000000	67.580882
599.000000	67.828490
598.000000	68.095839
597.000000	68.296326
596.000000	68.432530
595.000000	68.597007
594.000000	68.730335
593.000000	68.830132
592.000000	68.900664
591.000000	68.960880
590.000000	68.980026
589.000000	69.071291
588.000000	69.071192
587.000000	69.053237
586.000000	69.078434
585.000000	69.079724
584.000000	69.081013
583.000000	69.126348
582.000000	69.157101
581.000000	69.110178
580.000000	69.131805
579.000000	69.109583
578.000000	69.048376
577.000000	69.019409
576.000000	68.964550
575.000000	68.875070
574.000000	68.786086
573.000000	68.655735
572.000000	68.531633
571.000000	68.371422
570.000000	68.218850
569.000000	68.053579
568.000000	67.898924
567.000000	67.667882
566.000000	67.481879
565.000000	67.304109
564.000000	67.113245
563.000000	66.893810
562.000000	66.689752
561.000000	66.492737
560.000000	66.247510
559.000000	65.877388
558.000000	65.637022
557.000000	65.416397
556.000000	65.092006
555.000000	64.802734
554.000000	64.474376
553.000000	64.147406
552.000000	63.759824
551.000000	63.368671
550.000000	62.977320
549.000000	62.544701
548.000000	62.134104
547.000000	61.682240
546.000000	61.220852
545.000000	60.763233
544.000000	60.263752
543.000000	59.777266
542.000000	59.269749
541.000000	58.698049
540.000000	58.133987
539.000000	57.572802
538.000000	57.001697
537.000000	56.384165
536.000000	55.729532
535.000000	55.039682
534.000000	54.308862
533.000000	53.530028
532.000000	52.710422
531.000000	51.825442
530.000000	50.912586
529.000000	49.961240
528.000000	48.983606
527.000000	47.998829
526.000000	47.009786
525.000000	46.006359
524.000000	45.040232
523.000000	44.061109
522.000000	43.101232
521.000000	42.161195
520.000000	41.215503
519.000000	40.309195
518.000000	39.430366
517.000000	38.573460
516.000000	37.712387
515.000000	36.888317
514.000000	36.048574
513.000000	35.236805
512.000000	34.453804
511.000000	33.712667
510.000000	32.995338
509.000000	32.332670
508.000000	31.703432
507.000000	31.127962
506.000000	30.574812
505.000000	30.045967
504.000000	29.534978
503.000000	29.027957
502.000000	28.531849
501.000000	28.050422
500.000000	27.582983
499.000000	27.098779
498.000000	26.621915
497.000000	26.166578
496.000000	25.703603
495.000000	25.271083
494.000000	24.850864
493.000000	24.418245
492.000000	24.038500
491.000000	23.675322
490.000000	23.341904
489.000000	23.031402
488.000000	22.775957
487.000000	22.568626
486.000000	22.409704
485.000000	22.303558
484.000000	22.226280
483.000000	22.186897
482.000000	22.163684
481.000000	22.136800
480.000000	22.133625
479.000000	22.143050
478.000000	22.154855
477.000000	22.163584
476.000000	22.184814
475.000000	22.233422
474.000000	22.279551
473.000000	22.320819
472.000000	22.361095
471.000000	22.404645
470.000000	22.451468
469.000000	22.485594
468.000000	22.500474
467.000000	22.510890
466.000000	22.489462
465.000000	22.468630
464.000000	22.457718
463.000000	22.417541
462.000000	22.380241
461.000000	22.355838
460.000000	22.314074
459.000000	22.253461
458.000000	22.190865
457.000000	22.113388
456.000000	22.023710
455.000000	21.943356
454.000000	21.844452
453.000000	21.739595
452.000000	21.628291
451.000000	21.492186
450.000000	21.346458
449.000000	21.204997
448.000000	21.041413
447.000000	20.889435
446.000000	20.730018
445.000000	20.544709
444.000000	20.363665
443.000000	20.159409
442.000000	19.958029
441.000000	19.741570
440.000000	19.503288
439.000000	19.259251
438.000000	19.011841
437.000000	18.744790
436.000000	18.467223
435.000000	18.181621
434.000000	17.879154
433.000000	17.571529
432.000000	17.254282
431.000000	16.934058
430.000000	16.596573
429.000000	16.253236
428.000000	15.903450
427.000000	15.534121
426.000000	15.146639
425.000000	14.769771
424.000000	14.381296
423.000000	13.972882
422.000000	13.570321
421.000000	13.165776
420.000000	12.760834
419.000000	12.367399
418.000000	11.973369
417.000000	11.583307
416.000000	11.207035
415.000000	10.821834
414.000000	10.465897
413.000000	10.116012
412.000000	9.785372
411.000000	9.470605
410.000000	9.173495
409.000000	8.891167
408.000000	8.633639
407.000000	8.411327
406.000000	8.181476
405.000000	7.969184
404.000000	7.774054
403.000000	7.601344
402.000000	7.437661
401.000000	7.291933
400.000000	7.161880
399.000000	7.040060
398.000000	6.924291
397.000000	6.821419
396.000000	6.729459
395.000000	6.638590
394.000000	6.562899
393.000000	6.505957
392.000000	6.429571
391.000000	6.354079
390.000000	6.298129
389.000000	6.246643
388.000000	6.185931
387.000000	6.133553
386.000000	6.090003
385.000000	6.031177
384.000000	5.977707
383.000000	5.959454
382.000000	5.915210
381.000000	5.856184
380.000000	5.838427
379.000000	5.816702
378.000000	5.782477
377.000000	5.735158
376.000000	5.642603
375.000000	5.656789
374.000000	5.575939
373.000000	5.590919
372.000000	5.601434
371.000000	5.557984
370.000000	5.616215
369.000000	5.597367
368.000000	5.574451
367.000000	5.555603
366.000000	5.494098
365.000000	5.503919
364.000000	5.476440
363.000000	5.437057
362.000000	5.453127
361.000000	5.569491
360.000000	5.525148
359.000000	5.475844
358.000000	5.515525
357.000000	5.438743
356.000000	5.383388
355.000000	5.237562
354.000000	5.297678
353.000000	5.372575
352.000000	5.397872
351.000000	5.254525
350.000000	5.224368
349.000000	5.303134
348.000000	5.239050
347.000000	5.315137
346.000000	5.186969
345.000000	5.118023
344.000000	5.228237
343.000000	5.355017
342.000000	5.190837
341.000000	5.230717
340.000000	5.154926
339.000000	5.072390
338.000000	5.256410
337.000000	5.361961
336.000000	5.358092
335.000000	5.262362
334.000000	5.264148
333.000000	5.232403
332.000000	5.316129
331.000000	5.140641
330.000000	5.276250
329.000000	5.181810
328.000000	5.134193
327.000000	5.403030
326.000000	5.170997
325.000000	5.153538
324.000000	5.169509
323.000000	5.452532
322.000000	5.347775
321.000000	5.492907
320.000000	5.676431
319.000000	5.484574
318.000000	5.599351
317.000000	5.449754
316.000000	5.114055
315.000000	5.063165
314.000000	5.084295
313.000000	5.060585
312.000000	5.068422
311.000000	5.086973
310.000000	5.123182
309.000000	5.084890
308.000000	5.135185
307.000000	5.106615
306.000000	5.134987
305.000000	5.096893
304.000000	5.077251
303.000000	5.130721
302.000000	5.138360
301.000000	5.129035
300.000000	5.145998
299.000000	5.064553
298.000000	5.116039
297.000000	5.169211
296.000000	5.133697
295.000000	5.137268
294.000000	5.157506
293.000000	5.147189
292.000000	5.173874
291.000000	5.148875
290.000000	5.188853
289.000000	5.194310
288.000000	5.214249
287.000000	5.179925
286.000000	5.265140
285.000000	5.212563
284.000000	5.220697
283.000000	5.228633
282.000000	5.242819
281.000000	5.286766
280.000000	5.270993
279.000000	5.316526
278.000000	5.307300
277.000000	5.358885
276.000000	5.321883
275.000000	5.345295
274.000000	5.319502
273.000000	5.353231
272.000000	5.335176
271.000000	5.344898
270.000000	5.428029
269.000000	5.392118
268.000000	5.386761
267.000000	5.426144
266.000000	5.503423
265.000000	5.543897
264.000000	5.542012
263.000000	5.542607
262.000000	5.600045
261.000000	5.600541
260.000000	5.630103
259.000000	5.615818
258.000000	5.675240
257.000000	5.643892
256.000000	5.717996
255.000000	5.704505
254.000000	5.700834
253.000000	5.727024
252.000000	5.723552
251.000000	5.768490
250.000000	5.703810
