PE UV       SUBTECH     SPECTRUM    ASCII       PEDS        4.00        
   -1
CICIMAUCR0112-2.Sample.ASC
24/04/04
15:29:38.00
24/04/04
15:29:38.00
Vinicio Soto Monge
C. resplendens
250,000000
1
Lambda 1050
1050L1511233
PerkinElmer UV WinLab 6.3.2.0749 / 2.02.05 Lambda 900 UV/VIS/NIR, Aug  7 2015 09:38:08

0
0
3350/servo 860,8/2
0
0
UV/VIS
1
1
1
DoubleDePol,CommonBeamDepol,RBeamAtt,SBeamAtt,60mm sphere, WB InGaAs Detector
0
0
0
0
Program
Program
3350/servo 860,8/2
3350/0,2 860,8/0,2
3350/0,2 860,8/0,2
0
15.00
 
 
 
0
 
860,8
319,2
860,8
Front
100
on
S:100 R:100
0
0
0
0
 
0
 
 
 
0
 
 
0
0
0
0
0
 
 
 
 
0
0


0
0
#HDR
-1
-1
#GR
nm
%R
1.0
0.0
2500,000000
-1,000000
2251
8
62,626100
4,604700
#DATA
2500.000000	4.652700
2499.000000	4.761900
2498.000000	4.708400
2497.000000	4.628500
2496.000000	4.727100
2495.000000	4.604700
2494.000000	4.713500
2493.000000	4.652300
2492.000000	4.731600
2491.000000	4.635100
2490.000000	4.630100
2489.000000	4.687900
2488.000000	4.673100
2487.000000	4.661100
2486.000000	4.661100
2485.000000	4.693500
2484.000000	4.676500
2483.000000	4.701200
2482.000000	4.731300
2481.000000	4.708300
2480.000000	4.689900
2479.000000	4.649400
2478.000000	4.661600
2477.000000	4.663400
2476.000000	4.661000
2475.000000	4.710400
2474.000000	4.683900
2473.000000	4.692600
2472.000000	4.708100
2471.000000	4.681900
2470.000000	4.682200
2469.000000	4.691000
2468.000000	4.710000
2467.000000	4.665000
2466.000000	4.682200
2465.000000	4.682400
2464.000000	4.707200
2463.000000	4.736800
2462.000000	4.715100
2461.000000	4.742800
2460.000000	4.741200
2459.000000	4.749700
2458.000000	4.758700
2457.000000	4.776700
2456.000000	4.780000
2455.000000	4.765400
2454.000000	4.797100
2453.000000	4.812900
2452.000000	4.823400
2451.000000	4.831600
2450.000000	4.848000
2449.000000	4.881700
2448.000000	4.900000
2447.000000	4.913400
2446.000000	4.914300
2445.000000	4.936500
2444.000000	4.939400
2443.000000	4.955800
2442.000000	4.986300
2441.000000	5.002000
2440.000000	5.018400
2439.000000	5.027500
2438.000000	5.045500
2437.000000	5.033200
2436.000000	5.055900
2435.000000	5.085600
2434.000000	5.080200
2433.000000	5.093700
2432.000000	5.125100
2431.000000	5.126900
2430.000000	5.136600
2429.000000	5.144300
2428.000000	5.171600
2427.000000	5.167200
2426.000000	5.167300
2425.000000	5.177800
2424.000000	5.215100
2423.000000	5.212800
2422.000000	5.218100
2421.000000	5.221300
2420.000000	5.248200
2419.000000	5.281200
2418.000000	5.316000
2417.000000	5.311500
2416.000000	5.319600
2415.000000	5.335400
2414.000000	5.330400
2413.000000	5.339300
2412.000000	5.356500
2411.000000	5.377500
2410.000000	5.395800
2409.000000	5.400900
2408.000000	5.401000
2407.000000	5.410100
2406.000000	5.416200
2405.000000	5.435000
2404.000000	5.450100
2403.000000	5.451300
2402.000000	5.467400
2401.000000	5.459300
2400.000000	5.479900
2399.000000	5.484200
2398.000000	5.495300
2397.000000	5.503200
2396.000000	5.508700
2395.000000	5.519300
2394.000000	5.521100
2393.000000	5.527200
2392.000000	5.541100
2391.000000	5.551200
2390.000000	5.552000
2389.000000	5.561700
2388.000000	5.574000
2387.000000	5.577900
2386.000000	5.564700
2385.000000	5.559800
2384.000000	5.572500
2383.000000	5.566600
2382.000000	5.567800
2381.000000	5.568400
2380.000000	5.575000
2379.000000	5.578900
2378.000000	5.575800
2377.000000	5.565200
2376.000000	5.557200
2375.000000	5.572000
2374.000000	5.571400
2373.000000	5.573800
2372.000000	5.573600
2371.000000	5.557600
2370.000000	5.551200
2369.000000	5.552300
2368.000000	5.552100
2367.000000	5.538000
2366.000000	5.535500
2365.000000	5.543200
2364.000000	5.545300
2363.000000	5.528700
2362.000000	5.512900
2361.000000	5.502800
2360.000000	5.499700
2359.000000	5.495800
2358.000000	5.493600
2357.000000	5.494800
2356.000000	5.490600
2355.000000	5.478600
2354.000000	5.484800
2353.000000	5.480200
2352.000000	5.465100
2351.000000	5.458500
2350.000000	5.461600
2349.000000	5.461600
2348.000000	5.450700
2347.000000	5.465100
2346.000000	5.471700
2345.000000	5.465800
2344.000000	5.467700
2343.000000	5.469000
2342.000000	5.465200
2341.000000	5.468500
2340.000000	5.464200
2339.000000	5.458100
2338.000000	5.448700
2337.000000	5.447200
2336.000000	5.458500
2335.000000	5.454500
2334.000000	5.436700
2333.000000	5.414200
2332.000000	5.406800
2331.000000	5.400200
2330.000000	5.384700
2329.000000	5.369200
2328.000000	5.368100
2327.000000	5.367800
2326.000000	5.347900
2325.000000	5.328900
2324.000000	5.308700
2323.000000	5.299900
2322.000000	5.283100
2321.000000	5.279300
2320.000000	5.261200
2319.000000	5.239200
2318.000000	5.206400
2317.000000	5.189300
2316.000000	5.178200
2315.000000	5.171600
2314.000000	5.163500
2313.000000	5.158700
2312.000000	5.135100
2311.000000	5.114000
2310.000000	5.128300
2309.000000	5.109900
2308.000000	5.098200
2307.000000	5.092800
2306.000000	5.092600
2305.000000	5.086800
2304.000000	5.077900
2303.000000	5.073100
2302.000000	5.070500
2301.000000	5.061900
2300.000000	5.060700
2299.000000	5.053700
2298.000000	5.041500
2297.000000	5.055900
2296.000000	5.038400
2295.000000	5.054900
2294.000000	5.039400
2293.000000	5.035400
2292.000000	5.032100
2291.000000	5.010500
2290.000000	5.007500
2289.000000	5.004800
2288.000000	4.981300
2287.000000	4.968600
2286.000000	4.961600
2285.000000	4.951100
2284.000000	4.935700
2283.000000	4.916800
2282.000000	4.917300
2281.000000	4.910100
2280.000000	4.885300
2279.000000	4.870700
2278.000000	4.860600
2277.000000	4.837400
2276.000000	4.821200
2275.000000	4.805000
2274.000000	4.795300
2273.000000	4.764800
2272.000000	4.759400
2271.000000	4.765400
2270.000000	4.744600
2269.000000	4.734500
2268.000000	4.737000
2267.000000	4.729200
2266.000000	4.709000
2265.000000	4.711300
2264.000000	4.716600
2263.000000	4.699200
2262.000000	4.724800
2261.000000	4.740200
2260.000000	4.726200
2259.000000	4.723200
2258.000000	4.725200
2257.000000	4.748500
2256.000000	4.731600
2255.000000	4.752900
2254.000000	4.765100
2253.000000	4.779200
2252.000000	4.793200
2251.000000	4.812600
2250.000000	4.819900
2249.000000	4.840900
2248.000000	4.867800
2247.000000	4.881600
2246.000000	4.902300
2245.000000	4.908100
2244.000000	4.916300
2243.000000	4.925300
2242.000000	4.938700
2241.000000	4.930500
2240.000000	4.953300
2239.000000	4.977700
2238.000000	4.976500
2237.000000	5.000500
2236.000000	5.006000
2235.000000	5.005000
2234.000000	5.021700
2233.000000	5.015200
2232.000000	5.013900
2231.000000	5.006900
2230.000000	5.019500
2229.000000	4.999300
2228.000000	4.987000
2227.000000	4.997200
2226.000000	4.973900
2225.000000	4.955600
2224.000000	4.941400
2223.000000	4.928100
2222.000000	4.873200
2221.000000	4.865500
2220.000000	4.845300
2219.000000	4.819200
2218.000000	4.784900
2217.000000	4.778700
2216.000000	4.765500
2215.000000	4.748100
2214.000000	4.732000
2213.000000	4.723000
2212.000000	4.721400
2211.000000	4.709300
2210.000000	4.728300
2209.000000	4.736400
2208.000000	4.782300
2207.000000	4.827600
2206.000000	4.845500
2205.000000	4.909700
2204.000000	4.949100
2203.000000	5.018300
2202.000000	5.089200
2201.000000	5.158500
2200.000000	5.260300
2199.000000	5.342100
2198.000000	5.414600
2197.000000	5.503900
2196.000000	5.579300
2195.000000	5.658700
2194.000000	5.731000
2193.000000	5.816200
2192.000000	5.872000
2191.000000	5.931100
2190.000000	6.005300
2189.000000	6.047100
2188.000000	6.111200
2187.000000	6.159000
2186.000000	6.181800
2185.000000	6.216000
2184.000000	6.249400
2183.000000	6.277500
2182.000000	6.302500
2181.000000	6.333900
2180.000000	6.359900
2179.000000	6.394500
2178.000000	6.392800
2177.000000	6.418600
2176.000000	6.427300
2175.000000	6.470100
2174.000000	6.454400
2173.000000	6.462300
2172.000000	6.478600
2171.000000	6.487600
2170.000000	6.494900
2169.000000	6.502500
2168.000000	6.500500
2167.000000	6.513300
2166.000000	6.541000
2165.000000	6.547000
2164.000000	6.556900
2163.000000	6.540300
2162.000000	6.563500
2161.000000	6.592100
2160.000000	6.600300
2159.000000	6.604400
2158.000000	6.622300
2157.000000	6.634100
2156.000000	6.663700
2155.000000	6.662200
2154.000000	6.683300
2153.000000	6.695300
2152.000000	6.733800
2151.000000	6.748100
2150.000000	6.752700
2149.000000	6.755500
2148.000000	6.759900
2147.000000	6.781900
2146.000000	6.800500
2145.000000	6.801900
2144.000000	6.804100
2143.000000	6.823200
2142.000000	6.830500
2141.000000	6.825800
2140.000000	6.839600
2139.000000	6.844400
2138.000000	6.837900
2137.000000	6.837500
2136.000000	6.862700
2135.000000	6.873600
2134.000000	6.868800
2133.000000	6.867400
2132.000000	6.879400
2131.000000	6.894100
2130.000000	6.897500
2129.000000	6.890000
2128.000000	6.900800
2127.000000	6.915900
2126.000000	6.915200
2125.000000	6.927000
2124.000000	6.917800
2123.000000	6.901200
2122.000000	6.898800
2121.000000	6.899200
2120.000000	6.902700
2119.000000	6.914300
2118.000000	6.908000
2117.000000	6.893700
2116.000000	6.886000
2115.000000	6.889100
2114.000000	6.906700
2113.000000	6.901200
2112.000000	6.881900
2111.000000	6.869700
2110.000000	6.861600
2109.000000	6.868400
2108.000000	6.863500
2107.000000	6.860600
2106.000000	6.872200
2105.000000	6.853800
2104.000000	6.849700
2103.000000	6.856900
2102.000000	6.853400
2101.000000	6.850900
2100.000000	6.850500
2099.000000	6.847700
2098.000000	6.833100
2097.000000	6.836800
2096.000000	6.841100
2095.000000	6.834800
2094.000000	6.824600
2093.000000	6.815100
2092.000000	6.826800
2091.000000	6.828000
2090.000000	6.837700
2089.000000	6.839800
2088.000000	6.828900
2087.000000	6.834700
2086.000000	6.833400
2085.000000	6.835000
2084.000000	6.833200
2083.000000	6.837200
2082.000000	6.838100
2081.000000	6.849000
2080.000000	6.854900
2079.000000	6.846700
2078.000000	6.849400
2077.000000	6.853500
2076.000000	6.855500
2075.000000	6.855200
2074.000000	6.857600
2073.000000	6.864500
2072.000000	6.855400
2071.000000	6.862800
2070.000000	6.875800
2069.000000	6.880500
2068.000000	6.862500
2067.000000	6.856000
2066.000000	6.866100
2065.000000	6.880900
2064.000000	6.895600
2063.000000	6.907000
2062.000000	6.899200
2061.000000	6.907500
2060.000000	6.908000
2059.000000	6.916800
2058.000000	6.938600
2057.000000	6.948400
2056.000000	6.955000
2055.000000	6.978100
2054.000000	6.982400
2053.000000	6.985700
2052.000000	7.008700
2051.000000	7.040100
2050.000000	7.061900
2049.000000	7.081000
2048.000000	7.106700
2047.000000	7.124500
2046.000000	7.160200
2045.000000	7.190100
2044.000000	7.213000
2043.000000	7.249800
2042.000000	7.293900
2041.000000	7.326200
2040.000000	7.358600
2039.000000	7.380700
2038.000000	7.417300
2037.000000	7.459800
2036.000000	7.503200
2035.000000	7.531700
2034.000000	7.553800
2033.000000	7.583400
2032.000000	7.610800
2031.000000	7.674500
2030.000000	7.695000
2029.000000	7.704900
2028.000000	7.739900
2027.000000	7.763900
2026.000000	7.780600
2025.000000	7.799700
2024.000000	7.826700
2023.000000	7.867200
2022.000000	7.879600
2021.000000	7.915800
2020.000000	7.932500
2019.000000	7.948700
2018.000000	7.981000
2017.000000	8.007500
2016.000000	8.023700
2015.000000	8.036500
2014.000000	8.058100
2013.000000	8.076500
2012.000000	8.097500
2011.000000	8.111400
2010.000000	8.125800
2009.000000	8.132800
2008.000000	8.165400
2007.000000	8.159600
2006.000000	8.159100
2005.000000	8.161200
2004.000000	8.178000
2003.000000	8.182400
2002.000000	8.176800
2001.000000	8.187800
2000.000000	8.152800
1999.000000	8.150300
1998.000000	8.150300
1997.000000	8.129200
1996.000000	8.152400
1995.000000	8.111300
1994.000000	8.120500
1993.000000	8.112500
1992.000000	8.119100
1991.000000	8.077700
1990.000000	8.064800
1989.000000	8.054000
1988.000000	8.041500
1987.000000	8.015000
1986.000000	7.978900
1985.000000	7.991300
1984.000000	7.972000
1983.000000	7.947900
1982.000000	7.937200
1981.000000	7.890700
1980.000000	7.882700
1979.000000	7.850200
1978.000000	7.842400
1977.000000	7.839200
1976.000000	7.803800
1975.000000	7.763900
1974.000000	7.731200
1973.000000	7.732000
1972.000000	7.675500
1971.000000	7.675600
1970.000000	7.656700
1969.000000	7.646700
1968.000000	7.619700
1967.000000	7.605000
1966.000000	7.591100
1965.000000	7.567200
1964.000000	7.553500
1963.000000	7.527800
1962.000000	7.509100
1961.000000	7.492300
1960.000000	7.488000
1959.000000	7.460100
1958.000000	7.439600
1957.000000	7.409700
1956.000000	7.403600
1955.000000	7.377600
1954.000000	7.384500
1953.000000	7.369100
1952.000000	7.345700
1951.000000	7.344200
1950.000000	7.330500
1949.000000	7.301300
1948.000000	7.295000
1947.000000	7.282700
1946.000000	7.277900
1945.000000	7.257500
1944.000000	7.261700
1943.000000	7.251900
1942.000000	7.240300
1941.000000	7.237600
1940.000000	7.256500
1939.000000	7.233400
1938.000000	7.232500
1937.000000	7.243100
1936.000000	7.255400
1935.000000	7.258400
1934.000000	7.262900
1933.000000	7.251300
1932.000000	7.268500
1931.000000	7.301900
1930.000000	7.321100
1929.000000	7.336600
1928.000000	7.392300
1927.000000	7.400200
1926.000000	7.418700
1925.000000	7.453200
1924.000000	7.486400
1923.000000	7.516200
1922.000000	7.551300
1921.000000	7.592500
1920.000000	7.648400
1919.000000	7.704900
1918.000000	7.766300
1917.000000	7.813300
1916.000000	7.835700
1915.000000	7.893000
1914.000000	7.959900
1913.000000	8.051300
1912.000000	8.088300
1911.000000	8.174700
1910.000000	8.224800
1909.000000	8.280100
1908.000000	8.339100
1907.000000	8.429400
1906.000000	8.516200
1905.000000	8.606700
1904.000000	8.710300
1903.000000	8.786300
1902.000000	8.867200
1901.000000	8.937600
1900.000000	9.035200
1899.000000	9.165700
1898.000000	9.235900
1897.000000	9.328300
1896.000000	9.422200
1895.000000	9.501400
1894.000000	9.599700
1893.000000	9.701700
1892.000000	9.796200
1891.000000	9.917800
1890.000000	10.023000
1889.000000	10.120300
1888.000000	10.235200
1887.000000	10.356200
1886.000000	10.499500
1885.000000	10.664400
1884.000000	10.862700
1883.000000	11.075600
1882.000000	11.284300
1881.000000	11.545000
1880.000000	11.796300
1879.000000	12.042000
1878.000000	12.279000
1877.000000	12.514600
1876.000000	12.746900
1875.000000	12.948000
1874.000000	13.157800
1873.000000	13.348000
1872.000000	13.487400
1871.000000	13.623800
1870.000000	13.745400
1869.000000	13.843800
1868.000000	13.928700
1867.000000	13.985900
1866.000000	14.020500
1865.000000	14.043600
1864.000000	14.063100
1863.000000	14.060100
1862.000000	14.078500
1861.000000	14.108000
1860.000000	14.090300
1859.000000	14.056200
1858.000000	14.020900
1857.000000	13.986800
1856.000000	13.950500
1855.000000	13.890200
1854.000000	13.835500
1853.000000	13.775200
1852.000000	13.696500
1851.000000	13.628100
1850.000000	13.571200
1849.000000	13.515500
1848.000000	13.457400
1847.000000	13.373200
1846.000000	13.285300
1845.000000	13.225200
1844.000000	13.171800
1843.000000	13.145500
1842.000000	13.124100
1841.000000	13.096000
1840.000000	13.057800
1839.000000	13.012700
1838.000000	12.968300
1837.000000	12.928400
1836.000000	12.879700
1835.000000	12.810200
1834.000000	12.736100
1833.000000	12.669000
1832.000000	12.611000
1831.000000	12.555400
1830.000000	12.478600
1829.000000	12.403700
1828.000000	12.328100
1827.000000	12.260200
1826.000000	12.208700
1825.000000	12.147900
1824.000000	12.090600
1823.000000	12.077000
1822.000000	12.082700
1821.000000	12.045600
1820.000000	12.020700
1819.000000	11.999000
1818.000000	11.964100
1817.000000	11.951900
1816.000000	11.956700
1815.000000	11.950400
1814.000000	11.924600
1813.000000	11.910700
1812.000000	11.886800
1811.000000	11.860600
1810.000000	11.846100
1809.000000	11.825000
1808.000000	11.785500
1807.000000	11.756500
1806.000000	11.731600
1805.000000	11.681700
1804.000000	11.640600
1803.000000	11.605800
1802.000000	11.580600
1801.000000	11.554400
1800.000000	11.507800
1799.000000	11.466500
1798.000000	11.435200
1797.000000	11.398800
1796.000000	11.370200
1795.000000	11.342600
1794.000000	11.309200
1793.000000	11.273100
1792.000000	11.221600
1791.000000	11.176500
1790.000000	11.141700
1789.000000	11.109600
1788.000000	11.053800
1787.000000	11.001600
1786.000000	10.961900
1785.000000	10.915600
1784.000000	10.861100
1783.000000	10.797000
1782.000000	10.745500
1781.000000	10.707400
1780.000000	10.652600
1779.000000	10.598200
1778.000000	10.542300
1777.000000	10.482100
1776.000000	10.414200
1775.000000	10.337900
1774.000000	10.266200
1773.000000	10.194500
1772.000000	10.092300
1771.000000	10.020900
1770.000000	9.954700
1769.000000	9.887900
1768.000000	9.829600
1767.000000	9.769100
1766.000000	9.721700
1765.000000	9.689300
1764.000000	9.669600
1763.000000	9.645000
1762.000000	9.659100
1761.000000	9.692200
1760.000000	9.738000
1759.000000	9.761500
1758.000000	9.815400
1757.000000	9.854600
1756.000000	9.889000
1755.000000	9.924000
1754.000000	9.923800
1753.000000	9.921500
1752.000000	9.916500
1751.000000	9.910100
1750.000000	9.867700
1749.000000	9.831100
1748.000000	9.792800
1747.000000	9.769800
1746.000000	9.711800
1745.000000	9.648900
1744.000000	9.554400
1743.000000	9.463600
1742.000000	9.380100
1741.000000	9.262600
1740.000000	9.151900
1739.000000	9.054800
1738.000000	8.958900
1737.000000	8.902100
1736.000000	8.836400
1735.000000	8.806600
1734.000000	8.803700
1733.000000	8.774500
1732.000000	8.810300
1731.000000	8.860600
1730.000000	8.918200
1729.000000	8.953000
1728.000000	9.013700
1727.000000	9.043100
1726.000000	9.111800
1725.000000	9.152700
1724.000000	9.195700
1723.000000	9.216100
1722.000000	9.173000
1721.000000	9.186400
1720.000000	9.182200
1719.000000	9.186400
1718.000000	9.177900
1717.000000	9.185800
1716.000000	9.204400
1715.000000	9.238300
1714.000000	9.241000
1713.000000	9.254300
1712.000000	9.292900
1711.000000	9.285400
1710.000000	9.304000
1709.000000	9.283500
1708.000000	9.254300
1707.000000	9.259800
1706.000000	9.232500
1705.000000	9.222800
1704.000000	9.169600
1703.000000	9.139300
1702.000000	9.113900
1701.000000	9.045000
1700.000000	8.985100
1699.000000	8.907100
1698.000000	8.849400
1697.000000	8.797200
1696.000000	8.786600
1695.000000	8.754100
1694.000000	8.795500
1693.000000	8.818600
1692.000000	8.864400
1691.000000	8.940600
1690.000000	8.991400
1689.000000	9.050800
1688.000000	9.079000
1687.000000	9.075800
1686.000000	9.071100
1685.000000	9.052700
1684.000000	9.087200
1683.000000	9.135700
1682.000000	9.283100
1681.000000	9.492800
1680.000000	9.717800
1679.000000	10.006100
1678.000000	10.296300
1677.000000	10.594400
1676.000000	10.877600
1675.000000	11.093400
1674.000000	11.316900
1673.000000	11.523100
1672.000000	11.685700
1671.000000	11.826200
1670.000000	11.917700
1669.000000	12.026600
1668.000000	12.114600
1667.000000	12.225600
1666.000000	12.279500
1665.000000	12.323400
1664.000000	12.365000
1663.000000	12.424300
1662.000000	12.448400
1661.000000	12.486200
1660.000000	12.506800
1659.000000	12.519900
1658.000000	12.533600
1657.000000	12.537200
1656.000000	12.530600
1655.000000	12.536700
1654.000000	12.506300
1653.000000	12.492500
1652.000000	12.475000
1651.000000	12.455600
1650.000000	12.431600
1649.000000	12.413400
1648.000000	12.382600
1647.000000	12.341300
1646.000000	12.319800
1645.000000	12.266400
1644.000000	12.256100
1643.000000	12.211800
1642.000000	12.182900
1641.000000	12.148700
1640.000000	12.117500
1639.000000	12.066600
1638.000000	12.025200
1637.000000	11.986200
1636.000000	11.945900
1635.000000	11.910300
1634.000000	11.851800
1633.000000	11.798900
1632.000000	11.756100
1631.000000	11.723700
1630.000000	11.676900
1629.000000	11.635100
1628.000000	11.582700
1627.000000	11.555500
1626.000000	11.504800
1625.000000	11.453900
1624.000000	11.398700
1623.000000	11.374100
1622.000000	11.342600
1621.000000	11.296400
1620.000000	11.227500
1619.000000	11.193300
1618.000000	11.169400
1617.000000	11.123300
1616.000000	11.082600
1615.000000	11.050400
1614.000000	11.027500
1613.000000	10.987900
1612.000000	10.941000
1611.000000	10.916000
1610.000000	10.880100
1609.000000	10.854800
1608.000000	10.828300
1607.000000	10.804100
1606.000000	10.766100
1605.000000	10.717300
1604.000000	10.710200
1603.000000	10.692700
1602.000000	10.646100
1601.000000	10.612600
1600.000000	10.591400
1599.000000	10.554400
1598.000000	10.538700
1597.000000	10.512100
1596.000000	10.481700
1595.000000	10.466600
1594.000000	10.455400
1593.000000	10.432600
1592.000000	10.405100
1591.000000	10.383600
1590.000000	10.366500
1589.000000	10.363100
1588.000000	10.345400
1587.000000	10.323000
1586.000000	10.316000
1585.000000	10.304300
1584.000000	10.289900
1583.000000	10.274800
1582.000000	10.261100
1581.000000	10.266400
1580.000000	10.255000
1579.000000	10.244100
1578.000000	10.250600
1577.000000	10.259900
1576.000000	10.270400
1575.000000	10.271800
1574.000000	10.268500
1573.000000	10.262900
1572.000000	10.265300
1571.000000	10.288000
1570.000000	10.308300
1569.000000	10.303600
1568.000000	10.302800
1567.000000	10.318900
1566.000000	10.337700
1565.000000	10.350900
1564.000000	10.367900
1563.000000	10.391300
1562.000000	10.403800
1561.000000	10.405800
1560.000000	10.409300
1559.000000	10.428500
1558.000000	10.446300
1557.000000	10.447000
1556.000000	10.459000
1555.000000	10.471200
1554.000000	10.480900
1553.000000	10.477400
1552.000000	10.476400
1551.000000	10.490500
1550.000000	10.509200
1549.000000	10.516600
1548.000000	10.519800
1547.000000	10.521100
1546.000000	10.534300
1545.000000	10.547200
1544.000000	10.551200
1543.000000	10.539900
1542.000000	10.546800
1541.000000	10.551500
1540.000000	10.564800
1539.000000	10.574400
1538.000000	10.587300
1537.000000	10.600900
1536.000000	10.606000
1535.000000	10.612300
1534.000000	10.630200
1533.000000	10.627300
1532.000000	10.630900
1531.000000	10.640800
1530.000000	10.645200
1529.000000	10.641300
1528.000000	10.646100
1527.000000	10.650100
1526.000000	10.640000
1525.000000	10.645100
1524.000000	10.658300
1523.000000	10.675300
1522.000000	10.673800
1521.000000	10.669900
1520.000000	10.739800
1519.000000	10.815500
1518.000000	10.859500
1517.000000	10.877300
1516.000000	10.860800
1515.000000	10.858600
1514.000000	10.862800
1513.000000	10.867000
1512.000000	10.877000
1511.000000	10.870700
1510.000000	10.882100
1509.000000	10.870300
1508.000000	10.858500
1507.000000	10.869700
1506.000000	10.867400
1505.000000	10.876100
1504.000000	10.867700
1503.000000	10.868500
1502.000000	10.867900
1501.000000	10.880100
1500.000000	10.881400
1499.000000	10.885100
1498.000000	10.892600
1497.000000	10.893000
1496.000000	10.901600
1495.000000	10.894000
1494.000000	10.915800
1493.000000	10.913100
1492.000000	10.942900
1491.000000	10.939500
1490.000000	10.941600
1489.000000	10.959600
1488.000000	10.965900
1487.000000	11.003700
1486.000000	10.998500
1485.000000	10.996900
1484.000000	11.015100
1483.000000	11.047800
1482.000000	11.056400
1481.000000	11.067000
1480.000000	11.084400
1479.000000	11.083700
1478.000000	11.118700
1477.000000	11.123400
1476.000000	11.162400
1475.000000	11.197500
1474.000000	11.214500
1473.000000	11.233300
1472.000000	11.251600
1471.000000	11.280100
1470.000000	11.270500
1469.000000	11.297400
1468.000000	11.299600
1467.000000	11.332500
1466.000000	11.344400
1465.000000	11.385400
1464.000000	11.432900
1463.000000	11.456600
1462.000000	11.495400
1461.000000	11.525900
1460.000000	11.581200
1459.000000	11.607200
1458.000000	11.657200
1457.000000	11.724200
1456.000000	11.770700
1455.000000	11.814500
1454.000000	11.879800
1453.000000	11.926700
1452.000000	11.993700
1451.000000	12.065800
1450.000000	12.122000
1449.000000	12.196100
1448.000000	12.246700
1447.000000	12.320000
1446.000000	12.413100
1445.000000	12.514000
1444.000000	12.574900
1443.000000	12.652700
1442.000000	12.723700
1441.000000	12.802800
1440.000000	12.876400
1439.000000	12.971200
1438.000000	13.053200
1437.000000	13.124300
1436.000000	13.194600
1435.000000	13.256300
1434.000000	13.344200
1433.000000	13.387600
1432.000000	13.503300
1431.000000	13.568200
1430.000000	13.631600
1429.000000	13.745700
1428.000000	13.867800
1427.000000	13.977300
1426.000000	14.073600
1425.000000	14.216700
1424.000000	14.383900
1423.000000	14.498500
1422.000000	14.621000
1421.000000	14.755100
1420.000000	14.904500
1419.000000	15.048100
1418.000000	15.157800
1417.000000	15.261300
1416.000000	15.385400
1415.000000	15.510400
1414.000000	15.622700
1413.000000	15.696200
1412.000000	15.786300
1411.000000	15.908300
1410.000000	16.058800
1409.000000	16.234200
1408.000000	16.407600
1407.000000	16.610900
1406.000000	16.841500
1405.000000	17.065200
1404.000000	17.283300
1403.000000	17.535200
1402.000000	17.754300
1401.000000	18.031500
1400.000000	18.229000
1399.000000	18.326100
1398.000000	18.425500
1397.000000	18.521700
1396.000000	18.595800
1395.000000	18.604700
1394.000000	18.583600
1393.000000	18.574400
1392.000000	18.576000
1391.000000	18.572000
1390.000000	18.569600
1389.000000	18.625700
1388.000000	18.712600
1387.000000	18.835800
1386.000000	18.968300
1385.000000	19.208400
1384.000000	19.462900
1383.000000	19.736400
1382.000000	20.013400
1381.000000	20.235200
1380.000000	20.390900
1379.000000	20.580200
1378.000000	20.745900
1377.000000	20.956900
1376.000000	21.245900
1375.000000	21.590700
1374.000000	22.023500
1373.000000	22.512300
1372.000000	23.013000
1371.000000	23.535100
1370.000000	23.992900
1369.000000	24.407600
1368.000000	24.789500
1367.000000	25.115300
1366.000000	25.406300
1365.000000	25.647200
1364.000000	25.874700
1363.000000	26.065900
1362.000000	26.240700
1361.000000	26.372800
1360.000000	26.426300
1359.000000	26.494600
1358.000000	26.589300
1357.000000	26.786000
1356.000000	27.112800
1355.000000	27.605000
1354.000000	28.234600
1353.000000	28.959800
1352.000000	29.743800
1351.000000	30.501800
1350.000000	31.210000
1349.000000	31.833700
1348.000000	32.413800
1347.000000	32.947500
1346.000000	33.447100
1345.000000	33.948200
1344.000000	34.407500
1343.000000	34.840300
1342.000000	35.267400
1341.000000	35.685300
1340.000000	36.064300
1339.000000	36.446300
1338.000000	36.801500
1337.000000	37.137700
1336.000000	37.469200
1335.000000	37.765900
1334.000000	38.070700
1333.000000	38.366100
1332.000000	38.625600
1331.000000	38.878800
1330.000000	39.117000
1329.000000	39.350100
1328.000000	39.573100
1327.000000	39.775800
1326.000000	39.973100
1325.000000	40.163000
1324.000000	40.329800
1323.000000	40.489600
1322.000000	40.649300
1321.000000	40.798500
1320.000000	40.929900
1319.000000	41.052600
1318.000000	41.183400
1317.000000	41.310000
1316.000000	41.428100
1315.000000	41.532200
1314.000000	41.621900
1313.000000	41.713500
1312.000000	41.798500
1311.000000	41.863900
1310.000000	41.920700
1309.000000	41.979100
1308.000000	42.037600
1307.000000	42.080600
1306.000000	42.100500
1305.000000	42.123700
1304.000000	42.144400
1303.000000	42.149600
1302.000000	42.141700
1301.000000	42.133400
1300.000000	42.117800
1299.000000	42.086800
1298.000000	42.059200
1297.000000	42.035800
1296.000000	42.008900
1295.000000	41.983700
1294.000000	41.945600
1293.000000	41.899800
1292.000000	41.851800
1291.000000	41.801200
1290.000000	41.739100
1289.000000	41.653100
1288.000000	41.576100
1287.000000	41.481000
1286.000000	41.378300
1285.000000	41.269400
1284.000000	41.146200
1283.000000	41.030000
1282.000000	40.920700
1281.000000	40.806100
1280.000000	40.688000
1279.000000	40.572800
1278.000000	40.459900
1277.000000	40.346900
1276.000000	40.232900
1275.000000	40.131800
1274.000000	40.040100
1273.000000	39.955000
1272.000000	39.871900
1271.000000	39.783000
1270.000000	39.704300
1269.000000	39.617600
1268.000000	39.532900
1267.000000	39.428400
1266.000000	39.332400
1265.000000	39.243100
1264.000000	39.148600
1263.000000	39.069000
1262.000000	38.988300
1261.000000	38.910100
1260.000000	38.820800
1259.000000	38.730500
1258.000000	38.643600
1257.000000	38.533300
1256.000000	38.428600
1255.000000	38.330300
1254.000000	38.214300
1253.000000	38.109400
1252.000000	38.000200
1251.000000	37.881900
1250.000000	37.749400
1249.000000	37.627000
1248.000000	37.467000
1247.000000	37.332900
1246.000000	37.169700
1245.000000	36.968000
1244.000000	36.784600
1243.000000	36.571700
1242.000000	36.367200
1241.000000	36.164500
1240.000000	35.927200
1239.000000	35.700000
1238.000000	35.460900
1237.000000	35.226600
1236.000000	34.981900
1235.000000	34.729700
1234.000000	34.467400
1233.000000	34.208100
1232.000000	33.955400
1231.000000	33.703200
1230.000000	33.440000
1229.000000	33.182500
1228.000000	32.920100
1227.000000	32.656400
1226.000000	32.403000
1225.000000	32.140200
1224.000000	31.890000
1223.000000	31.656400
1222.000000	31.412400
1221.000000	31.193200
1220.000000	30.976000
1219.000000	30.764400
1218.000000	30.573300
1217.000000	30.407000
1216.000000	30.242300
1215.000000	30.098600
1214.000000	29.951400
1213.000000	29.814800
1212.000000	29.680100
1211.000000	29.580300
1210.000000	29.474100
1209.000000	29.368800
1208.000000	29.284300
1207.000000	29.242100
1206.000000	29.218100
1205.000000	29.206800
1204.000000	29.209900
1203.000000	29.231300
1202.000000	29.241800
1201.000000	29.235300
1200.000000	29.199300
1199.000000	29.152700
1198.000000	29.051600
1197.000000	28.892300
1196.000000	28.691400
1195.000000	28.393800
1194.000000	28.019200
1193.000000	27.546100
1192.000000	27.016700
1191.000000	26.445600
1190.000000	25.901700
1189.000000	25.417600
1188.000000	25.066100
1187.000000	24.854300
1186.000000	24.796400
1185.000000	24.878600
1184.000000	25.131700
1183.000000	25.547100
1182.000000	26.093300
1181.000000	26.696200
1180.000000	27.354400
1179.000000	27.994600
1178.000000	28.594900
1177.000000	29.080800
1176.000000	29.494500
1175.000000	29.907400
1174.000000	30.307400
1173.000000	30.726500
1172.000000	31.193900
1171.000000	31.668800
1170.000000	32.131900
1169.000000	32.634000
1168.000000	33.180400
1167.000000	33.671900
1166.000000	34.184300
1165.000000	34.750600
1164.000000	35.284000
1163.000000	35.855200
1162.000000	36.429100
1161.000000	36.981000
1160.000000	37.516200
1159.000000	38.058100
1158.000000	38.580200
1157.000000	39.040400
1156.000000	39.446600
1155.000000	39.768400
1154.000000	39.997900
1153.000000	40.108300
1152.000000	40.142200
1151.000000	40.141300
1150.000000	40.080600
1149.000000	40.022100
1148.000000	40.006000
1147.000000	40.062600
1146.000000	40.208000
1145.000000	40.519900
1144.000000	40.930500
1143.000000	41.428000
1142.000000	41.997600
1141.000000	42.602300
1140.000000	43.164800
1139.000000	43.807200
1138.000000	44.452400
1137.000000	45.110000
1136.000000	45.815000
1135.000000	46.487500
1134.000000	47.106700
1133.000000	47.662900
1132.000000	48.129500
1131.000000	48.654100
1130.000000	49.083000
1129.000000	49.445400
1128.000000	49.752800
1127.000000	50.004000
1126.000000	50.189000
1125.000000	50.355200
1124.000000	50.510600
1123.000000	50.638500
1122.000000	50.772600
1121.000000	50.876200
1120.000000	50.979100
1119.000000	51.065600
1118.000000	51.124500
1117.000000	51.159500
1116.000000	51.189300
1115.000000	51.200700
1114.000000	51.198300
1113.000000	51.209500
1112.000000	51.220000
1111.000000	51.219800
1110.000000	51.228700
1109.000000	51.244200
1108.000000	51.265300
1107.000000	51.281700
1106.000000	51.279000
1105.000000	51.275200
1104.000000	51.285900
1103.000000	51.273200
1102.000000	51.268900
1101.000000	51.274800
1100.000000	51.271500
1099.000000	51.261700
1098.000000	51.232000
1097.000000	51.221500
1096.000000	51.201700
1095.000000	51.179900
1094.000000	51.131300
1093.000000	51.098600
1092.000000	51.053700
1091.000000	51.018800
1090.000000	50.971700
1089.000000	50.917000
1088.000000	50.874800
1087.000000	50.820900
1086.000000	50.764500
1085.000000	50.692600
1084.000000	50.634600
1083.000000	50.590300
1082.000000	50.524500
1081.000000	50.488000
1080.000000	50.448500
1079.000000	50.407300
1078.000000	50.374700
1077.000000	50.346800
1076.000000	50.300900
1075.000000	50.257300
1074.000000	50.224900
1073.000000	50.205900
1072.000000	50.163700
1071.000000	50.128000
1070.000000	50.097700
1069.000000	50.055300
1068.000000	50.024700
1067.000000	49.983500
1066.000000	49.941300
1065.000000	49.912000
1064.000000	49.886800
1063.000000	49.846300
1062.000000	49.800200
1061.000000	49.765500
1060.000000	49.741900
1059.000000	49.696500
1058.000000	49.660900
1057.000000	49.625000
1056.000000	49.571800
1055.000000	49.539600
1054.000000	49.515700
1053.000000	49.469900
1052.000000	49.427600
1051.000000	49.422700
1050.000000	49.414000
1049.000000	49.406200
1048.000000	49.401400
1047.000000	49.396400
1046.000000	49.400500
1045.000000	49.408300
1044.000000	49.411100
1043.000000	49.413300
1042.000000	49.427900
1041.000000	49.440700
1040.000000	49.458300
1039.000000	49.467300
1038.000000	49.470500
1037.000000	49.474800
1036.000000	49.485800
1035.000000	49.504400
1034.000000	49.496800
1033.000000	49.480900
1032.000000	49.478900
1031.000000	49.477900
1030.000000	49.461400
1029.000000	49.453400
1028.000000	49.448100
1027.000000	49.414500
1026.000000	49.378100
1025.000000	49.350600
1024.000000	49.310100
1023.000000	49.277200
1022.000000	49.250800
1021.000000	49.222800
1020.000000	49.201300
1019.000000	49.188100
1018.000000	49.185800
1017.000000	49.181700
1016.000000	49.179500
1015.000000	49.190400
1014.000000	49.227100
1013.000000	49.277700
1012.000000	49.332500
1011.000000	49.408900
1010.000000	49.491000
1009.000000	49.595900
1008.000000	49.701400
1007.000000	49.797100
1006.000000	49.906700
1005.000000	50.011600
1004.000000	50.116600
1003.000000	50.202300
1002.000000	50.294600
1001.000000	50.391600
1000.000000	50.479300
999.000000	50.569400
998.000000	50.656000
997.000000	50.750400
996.000000	50.843900
995.000000	50.951200
994.000000	51.047500
993.000000	51.136400
992.000000	51.245800
991.000000	51.359900
990.000000	51.457000
989.000000	51.553200
988.000000	51.673300
987.000000	51.801000
986.000000	51.911000
985.000000	52.022700
984.000000	52.126000
983.000000	52.241200
982.000000	52.350800
981.000000	52.452600
980.000000	52.545300
979.000000	52.631000
978.000000	52.725200
977.000000	52.811300
976.000000	52.875400
975.000000	52.953600
974.000000	53.059100
973.000000	53.139900
972.000000	53.207300
971.000000	53.292500
970.000000	53.380500
969.000000	53.447200
968.000000	53.507200
967.000000	53.573600
966.000000	53.652000
965.000000	53.735400
964.000000	53.826600
963.000000	53.895200
962.000000	53.962300
961.000000	54.055200
960.000000	54.168400
959.000000	54.243300
958.000000	54.300000
957.000000	54.354700
956.000000	54.410500
955.000000	54.457600
954.000000	54.476600
953.000000	54.498600
952.000000	54.523500
951.000000	54.527000
950.000000	54.536600
949.000000	54.529500
948.000000	54.531100
947.000000	54.561900
946.000000	54.547700
945.000000	54.537100
944.000000	54.528200
943.000000	54.559900
942.000000	54.542900
941.000000	54.577700
940.000000	54.565600
939.000000	54.587600
938.000000	54.581200
937.000000	54.610200
936.000000	54.606700
935.000000	54.614800
934.000000	54.627700
933.000000	54.636400
932.000000	54.674000
931.000000	54.702400
930.000000	54.713200
929.000000	54.770400
928.000000	54.768200
927.000000	54.808200
926.000000	54.850900
925.000000	54.923900
924.000000	54.955100
923.000000	55.022300
922.000000	55.029500
921.000000	55.078600
920.000000	55.142400
919.000000	55.133100
918.000000	55.155900
917.000000	55.171700
916.000000	55.191500
915.000000	55.224600
914.000000	55.182600
913.000000	55.174200
912.000000	55.189500
911.000000	55.183000
910.000000	55.230200
909.000000	55.261500
908.000000	55.330100
907.000000	55.417100
906.000000	55.517200
905.000000	55.643900
904.000000	55.767800
903.000000	55.925900
902.000000	56.080300
901.000000	56.249900
900.000000	56.397300
899.000000	56.557000
898.000000	56.701500
897.000000	56.875600
896.000000	57.009200
895.000000	57.151400
894.000000	57.273600
893.000000	57.394500
892.000000	57.521500
891.000000	57.640500
890.000000	57.763300
889.000000	57.856500
888.000000	57.962200
887.000000	58.058100
886.000000	58.185800
885.000000	58.301100
884.000000	58.428400
883.000000	58.509300
882.000000	58.609000
881.000000	58.721600
880.000000	58.849900
879.000000	58.945400
878.000000	59.038500
877.000000	59.139100
876.000000	59.297200
875.000000	59.399600
874.000000	59.560900
873.000000	59.649800
872.000000	59.809100
871.000000	59.988000
870.000000	60.164100
869.000000	60.360200
868.000000	60.540700
867.000000	60.752900
866.000000	60.967700
865.000000	61.205400
864.000000	61.428800
863.000000	61.687100
862.000000	61.923900
861.000000	62.159900
860.000000	62.390300
859.000000	62.626100
858.000000	63.934960
857.000000	61.178127
856.000000	61.096075
855.000000	61.158742
854.000000	61.242435
853.000000	61.515154
852.000000	62.115567
851.000000	62.157003
850.000000	62.347568
849.000000	62.395055
848.000000	62.308696
847.000000	62.555364
846.000000	62.876596
845.000000	62.837006
844.000000	62.955981
843.000000	63.085110
842.000000	63.104084
841.000000	63.058853
840.000000	63.184290
839.000000	63.274239
838.000000	63.107879
837.000000	63.151469
836.000000	63.084597
835.000000	63.017315
834.000000	63.084700
833.000000	63.055879
832.000000	62.978956
831.000000	62.946545
830.000000	62.900186
829.000000	62.844288
828.000000	62.919673
827.000000	62.905519
826.000000	62.698749
825.000000	62.703877
824.000000	62.632698
823.000000	62.835878
822.000000	62.918442
821.000000	63.039264
820.000000	63.066443
819.000000	63.133828
818.000000	63.195982
817.000000	63.174341
816.000000	63.354752
815.000000	63.406650
814.000000	63.400188
813.000000	63.369009
812.000000	63.467060
811.000000	63.554651
810.000000	63.384188
809.000000	63.353316
808.000000	63.289213
807.000000	63.372086
806.000000	63.200905
805.000000	63.107161
804.000000	63.081315
803.000000	63.047571
802.000000	63.092495
801.000000	62.988904
800.000000	62.930648
799.000000	62.917827
798.000000	62.927981
797.000000	62.801621
796.000000	62.645826
795.000000	62.651364
794.000000	62.563056
793.000000	62.470748
792.000000	62.407671
791.000000	62.313722
790.000000	62.167670
789.000000	62.060387
788.000000	62.009208
787.000000	61.895566
786.000000	61.848284
785.000000	61.888489
784.000000	61.919258
783.000000	61.952387
782.000000	62.043259
781.000000	62.053105
780.000000	62.054746
779.000000	62.127567
778.000000	62.178747
777.000000	62.283260
776.000000	62.262747
775.000000	62.245003
774.000000	62.296901
773.000000	62.264798
772.000000	62.144798
771.000000	62.069516
770.000000	62.010849
769.000000	61.874745
768.000000	61.593718
767.000000	61.450743
766.000000	61.339051
765.000000	61.180281
764.000000	61.025408
763.000000	60.885305
762.000000	60.738432
761.000000	60.574124
760.000000	60.414123
759.000000	60.294533
758.000000	60.112686
757.000000	59.912890
756.000000	59.748377
755.000000	59.531965
754.000000	59.281708
753.000000	59.016578
752.000000	58.744680
751.000000	58.451550
750.000000	58.064471
749.000000	57.689085
748.000000	57.308981
747.000000	56.947236
746.000000	56.605183
745.000000	56.277284
744.000000	55.960667
743.000000	55.691845
742.000000	55.419741
741.000000	55.155433
740.000000	54.943329
739.000000	54.657892
738.000000	54.439634
737.000000	54.267223
736.000000	54.073479
735.000000	53.859119
734.000000	53.615118
733.000000	53.343732
732.000000	53.055936
731.000000	52.801370
730.000000	52.485882
729.000000	52.146393
728.000000	51.800135
727.000000	51.492031
726.000000	51.194594
725.000000	50.943003
724.000000	50.723002
723.000000	50.535719
722.000000	50.406283
721.000000	50.302692
720.000000	50.226282
719.000000	50.176640
718.000000	50.172025
717.000000	50.146281
716.000000	50.135717
715.000000	50.177974
714.000000	50.221256
713.000000	50.238897
712.000000	50.246692
711.000000	50.213666
710.000000	50.181666
709.000000	50.094896
708.000000	49.965255
707.000000	49.830280
706.000000	49.724228
705.000000	49.602484
704.000000	49.517971
703.000000	49.384534
702.000000	49.271713
701.000000	49.191508
700.000000	49.192328
699.000000	49.244534
698.000000	49.276431
697.000000	49.380637
696.000000	49.511714
695.000000	49.614792
694.000000	49.705766
693.000000	49.777562
692.000000	49.853459
691.000000	49.862280
690.000000	49.811818
689.000000	49.698792
688.000000	49.543920
687.000000	49.325662
686.000000	49.074994
685.000000	48.791506
684.000000	48.446991
683.000000	48.178170
682.000000	47.896117
681.000000	47.687911
680.000000	47.538064
679.000000	47.397756
678.000000	47.307909
677.000000	47.205345
676.000000	47.146268
675.000000	47.071088
674.000000	46.952933
673.000000	46.777138
672.000000	46.552829
671.000000	46.235597
670.000000	45.878569
669.000000	45.396106
668.000000	44.842872
667.000000	44.227075
666.000000	43.581738
665.000000	42.878453
664.000000	42.161629
663.000000	41.515165
662.000000	40.933419
661.000000	40.401314
660.000000	39.959876
659.000000	39.534848
658.000000	39.253821
657.000000	39.007666
656.000000	38.791357
655.000000	38.591664
654.000000	38.415253
653.000000	38.265611
652.000000	38.021815
651.000000	37.787250
650.000000	37.564993
649.000000	37.322325
648.000000	37.073298
647.000000	36.898015
646.000000	36.730220
645.000000	36.675245
644.000000	36.776374
643.000000	36.977811
642.000000	37.303043
641.000000	37.759353
640.000000	38.349509
639.000000	39.054436
638.000000	39.776080
637.000000	40.542135
636.000000	41.343472
635.000000	42.135988
634.000000	42.857325
633.000000	43.559277
632.000000	44.253741
631.000000	44.854052
630.000000	45.360311
629.000000	45.865031
628.000000	46.308520
627.000000	46.798984
626.000000	47.320320
625.000000	47.855296
624.000000	48.460530
623.000000	49.159610
622.000000	49.886588
621.000000	50.658181
620.000000	51.411415
619.000000	52.241676
618.000000	52.982192
617.000000	53.716554
616.000000	54.381070
615.000000	55.016150
614.000000	55.592255
613.000000	56.114001
612.000000	56.591644
611.000000	57.042826
610.000000	57.459956
609.000000	57.859240
608.000000	58.250729
607.000000	58.574320
606.000000	58.906219
605.000000	59.264169
604.000000	59.605914
603.000000	59.880480
602.000000	60.215763
601.000000	60.501816
600.000000	60.789510
599.000000	61.068178
598.000000	61.306538
597.000000	61.516590
596.000000	61.687462
595.000000	61.861720
594.000000	62.041208
593.000000	62.138747
592.000000	62.206234
591.000000	62.318747
590.000000	62.351773
589.000000	62.407979
588.000000	62.391055
587.000000	62.389825
586.000000	62.405825
585.000000	62.381107
584.000000	62.356081
583.000000	62.325619
582.000000	62.248696
581.000000	62.161721
580.000000	62.122234
579.000000	62.064490
578.000000	61.990336
577.000000	61.912284
576.000000	61.817207
575.000000	61.739155
574.000000	61.625616
573.000000	61.511564
572.000000	61.407359
571.000000	61.269307
570.000000	61.129921
569.000000	60.980177
568.000000	60.816792
567.000000	60.618329
566.000000	60.409405
565.000000	60.223148
564.000000	59.986634
563.000000	59.738736
562.000000	59.461811
561.000000	59.179759
560.000000	58.901193
559.000000	58.561910
558.000000	58.220472
557.000000	57.883240
556.000000	57.506828
555.000000	57.135339
554.000000	56.711132
553.000000	56.294822
552.000000	55.850923
551.000000	55.392664
550.000000	54.899944
549.000000	54.402916
548.000000	53.891427
547.000000	53.344552
546.000000	52.789678
545.000000	52.221060
544.000000	51.618391
543.000000	50.970388
542.000000	50.312949
541.000000	49.642689
540.000000	48.938173
539.000000	48.206478
538.000000	47.443500
537.000000	46.692932
536.000000	45.923390
535.000000	45.144822
534.000000	44.360409
533.000000	43.530969
532.000000	42.692401
531.000000	41.840397
530.000000	40.974855
529.000000	40.096799
528.000000	39.227667
527.000000	38.356073
526.000000	37.448992
525.000000	36.537398
524.000000	35.618112
523.000000	34.676672
522.000000	33.747232
521.000000	32.811535
520.000000	31.891326
519.000000	30.948347
518.000000	30.026599
517.000000	29.143416
516.000000	28.246796
515.000000	27.383305
514.000000	26.548019
513.000000	25.731708
512.000000	24.972730
511.000000	24.258060
510.000000	23.615801
509.000000	23.040926
508.000000	22.556309
507.000000	22.145948
506.000000	21.806562
505.000000	21.569535
504.000000	21.389226
503.000000	21.261123
502.000000	21.191995
501.000000	21.178866
500.000000	21.201636
499.000000	21.247995
498.000000	21.327482
497.000000	21.399688
496.000000	21.481329
495.000000	21.548099
494.000000	21.627792
493.000000	21.710561
492.000000	21.775997
491.000000	21.800613
490.000000	21.825741
489.000000	21.830869
488.000000	21.818049
487.000000	21.792510
486.000000	21.763792
485.000000	21.698869
484.000000	21.623074
483.000000	21.542355
482.000000	21.434150
481.000000	21.298457
480.000000	21.162456
479.000000	21.034455
478.000000	20.913840
477.000000	20.803583
476.000000	20.675274
475.000000	20.529120
474.000000	20.389427
473.000000	20.257221
472.000000	20.118349
471.000000	19.965322
470.000000	19.809014
469.000000	19.648808
468.000000	19.497115
467.000000	19.368294
466.000000	19.218960
465.000000	19.050651
464.000000	18.892292
463.000000	18.739471
462.000000	18.581726
461.000000	18.417008
460.000000	18.238853
459.000000	18.086750
458.000000	17.922133
457.000000	17.725722
456.000000	17.529721
455.000000	17.345823
454.000000	17.147771
453.000000	16.927155
452.000000	16.711154
451.000000	16.470229
450.000000	16.217408
449.000000	15.962432
448.000000	15.692277
447.000000	15.394224
446.000000	15.101403
445.000000	14.814837
444.000000	14.501913
443.000000	14.168578
442.000000	13.834115
441.000000	13.491959
440.000000	13.131240
439.000000	12.778725
438.000000	12.423339
437.000000	12.070414
436.000000	11.721079
435.000000	11.370924
434.000000	11.024563
433.000000	10.680870
432.000000	10.337483
431.000000	10.019225
430.000000	9.716045
429.000000	9.402300
428.000000	9.112862
427.000000	8.844041
426.000000	8.580962
425.000000	8.336038
424.000000	8.108242
423.000000	7.898498
422.000000	7.699625
421.000000	7.510188
420.000000	7.337162
419.000000	7.188341
418.000000	7.055212
417.000000	6.929570
416.000000	6.818288
415.000000	6.712851
414.000000	6.616543
413.000000	6.532748
412.000000	6.464235
411.000000	6.388747
410.000000	6.325567
409.000000	6.280029
408.000000	6.241465
407.000000	6.195926
406.000000	6.148336
405.000000	6.106182
404.000000	6.065259
403.000000	6.032540
402.000000	6.008233
401.000000	5.982797
400.000000	5.961668
399.000000	5.941668
398.000000	5.921258
397.000000	5.898796
396.000000	5.879001
395.000000	5.857873
394.000000	5.840437
393.000000	5.823822
392.000000	5.810591
391.000000	5.801052
390.000000	5.788129
389.000000	5.766385
388.000000	5.735001
387.000000	5.711103
386.000000	5.691924
385.000000	5.688026
384.000000	5.663000
383.000000	5.643308
382.000000	5.637154
381.000000	5.624539
380.000000	5.601769
379.000000	5.572538
378.000000	5.564743
377.000000	5.563000
376.000000	5.762283
375.000000	5.631205
374.000000	5.573564
373.000000	5.592231
372.000000	5.578385
371.000000	5.607000
370.000000	5.620128
369.000000	5.647513
368.000000	5.529154
367.000000	5.527923
366.000000	5.524641
365.000000	5.556436
364.000000	5.583820
363.000000	5.584231
362.000000	5.514795
361.000000	5.590795
360.000000	5.469153
359.000000	5.499923
358.000000	5.508436
357.000000	5.540743
356.000000	5.464948
355.000000	5.501359
354.000000	5.529872
353.000000	5.482487
352.000000	5.413153
351.000000	5.421871
350.000000	5.444435
349.000000	5.427204
348.000000	5.377871
347.000000	5.457974
346.000000	5.411717
345.000000	5.424640
344.000000	5.434384
343.000000	5.461564
342.000000	5.368743
341.000000	5.359819
340.000000	5.375922
339.000000	5.514589
338.000000	5.505769
337.000000	5.410281
336.000000	5.355307
335.000000	5.398281
334.000000	5.533872
333.000000	5.432333
332.000000	5.412230
331.000000	5.454794
330.000000	5.526384
329.000000	5.487615
328.000000	5.390281
327.000000	5.427615
326.000000	5.537359
325.000000	5.622487
324.000000	5.503410
323.000000	5.544949
322.000000	5.710898
321.000000	5.585872
320.000000	5.750693
319.000000	5.480128
318.000000	5.730488
317.000000	5.703513
316.000000	5.240742
315.000000	5.199203
314.000000	5.191101
313.000000	5.221973
312.000000	5.233768
311.000000	5.235716
310.000000	5.249152
309.000000	5.252332
308.000000	5.231614
307.000000	5.225152
306.000000	5.237562
305.000000	5.250691
304.000000	5.239101
303.000000	5.244127
302.000000	5.223511
301.000000	5.182998
300.000000	5.204434
299.000000	5.232845
298.000000	5.234486
297.000000	5.263306
296.000000	5.244639
295.000000	5.257973
294.000000	5.213870
293.000000	5.217460
292.000000	5.210075
291.000000	5.229460
290.000000	5.246383
289.000000	5.263819
288.000000	5.275306
287.000000	5.286178
286.000000	5.301153
285.000000	5.281768
284.000000	5.295204
283.000000	5.366794
282.000000	5.329153
281.000000	5.338178
280.000000	5.366999
279.000000	5.364230
278.000000	5.377666
277.000000	5.369255
276.000000	5.432025
275.000000	5.439204
274.000000	5.478589
273.000000	5.466897
272.000000	5.457358
271.000000	5.476846
270.000000	5.473461
269.000000	5.500128
268.000000	5.538897
267.000000	5.571205
266.000000	5.573872
265.000000	5.615616
264.000000	5.597051
263.000000	5.664846
262.000000	5.696744
261.000000	5.672436
260.000000	5.682488
259.000000	5.679718
258.000000	5.691616
257.000000	5.777462
256.000000	5.763514
255.000000	5.756539
254.000000	5.734180
253.000000	5.773668
252.000000	5.769257
251.000000	5.814898
250.000000	5.839206
