PE UV       SUBTECH     SPECTRUM    ASCII       PEDS        4.00        
   -1
CICIMAUCR0014-3.Sample.ASC
24/04/04
11:17:51.00
24/04/04
11:17:51.00
Vinicio Soto Monge
C. cupreomarginata
250,000000
1
Lambda 1050
1050L1511233
PerkinElmer UV WinLab 6.3.2.0749 / 2.02.05 Lambda 900 UV/VIS/NIR, Aug  7 2015 09:38:08

0
0
3350/servo 860,8/2
0
0
UV/VIS
1
1
1
DoubleDePol,CommonBeamDepol,RBeamAtt,SBeamAtt,60mm sphere, WB InGaAs Detector
0
0
0
0
Program
Program
3350/servo 860,8/2
3350/0,2 860,8/0,2
3350/0,2 860,8/0,2
0
15.00
 
 
 
0
 
860,8
319,2
860,8
Front
100
on
S:100 R:100
0
0
0
0
 
0
 
 
 
0
 
 
0
0
0
0
0
 
 
 
 
0
0


0
0
#HDR
-1
-1
#GR
nm
%R
1.0
0.0
2500,000000
-1,000000
2251
8
67,923300
5,031600
#DATA
2500.000000	11.586300
2499.000000	11.505600
2498.000000	11.475700
2497.000000	11.502700
2496.000000	11.529900
2495.000000	11.477600
2494.000000	11.525700
2493.000000	11.584600
2492.000000	11.506300
2491.000000	11.590600
2490.000000	11.499500
2489.000000	11.501200
2488.000000	11.503000
2487.000000	11.617900
2486.000000	11.586000
2485.000000	11.620700
2484.000000	11.655700
2483.000000	11.646200
2482.000000	11.673300
2481.000000	11.652300
2480.000000	11.713400
2479.000000	11.748600
2478.000000	11.802000
2477.000000	11.796600
2476.000000	11.845700
2475.000000	11.853400
2474.000000	11.924900
2473.000000	11.955000
2472.000000	12.014900
2471.000000	12.051900
2470.000000	12.108600
2469.000000	12.155400
2468.000000	12.145900
2467.000000	12.214200
2466.000000	12.295700
2465.000000	12.370800
2464.000000	12.417700
2463.000000	12.477600
2462.000000	12.542900
2461.000000	12.623900
2460.000000	12.709000
2459.000000	12.808300
2458.000000	12.848300
2457.000000	12.959100
2456.000000	13.067100
2455.000000	13.179700
2454.000000	13.261800
2453.000000	13.373500
2452.000000	13.479400
2451.000000	13.599400
2450.000000	13.713000
2449.000000	13.840100
2448.000000	13.958100
2447.000000	14.073500
2446.000000	14.179300
2445.000000	14.304600
2444.000000	14.422500
2443.000000	14.540500
2442.000000	14.663100
2441.000000	14.774500
2440.000000	14.898700
2439.000000	15.030600
2438.000000	15.148600
2437.000000	15.276100
2436.000000	15.391700
2435.000000	15.487300
2434.000000	15.597000
2433.000000	15.710500
2432.000000	15.812800
2431.000000	15.919400
2430.000000	16.029300
2429.000000	16.132400
2428.000000	16.220800
2427.000000	16.329000
2426.000000	16.411600
2425.000000	16.494800
2424.000000	16.598900
2423.000000	16.687200
2422.000000	16.779600
2421.000000	16.871000
2420.000000	16.952900
2419.000000	17.037000
2418.000000	17.124000
2417.000000	17.196800
2416.000000	17.267200
2415.000000	17.317800
2414.000000	17.396500
2413.000000	17.456500
2412.000000	17.519600
2411.000000	17.576500
2410.000000	17.623600
2409.000000	17.695100
2408.000000	17.747800
2407.000000	17.776900
2406.000000	17.827100
2405.000000	17.884600
2404.000000	17.934200
2403.000000	17.975000
2402.000000	18.004800
2401.000000	18.041800
2400.000000	18.090700
2399.000000	18.133400
2398.000000	18.159800
2397.000000	18.183000
2396.000000	18.207400
2395.000000	18.242600
2394.000000	18.280500
2393.000000	18.306100
2392.000000	18.321100
2391.000000	18.340100
2390.000000	18.342400
2389.000000	18.356400
2388.000000	18.364000
2387.000000	18.358900
2386.000000	18.379500
2385.000000	18.374500
2384.000000	18.358000
2383.000000	18.355000
2382.000000	18.343900
2381.000000	18.329700
2380.000000	18.318600
2379.000000	18.305600
2378.000000	18.272500
2377.000000	18.245200
2376.000000	18.225300
2375.000000	18.215500
2374.000000	18.172300
2373.000000	18.132300
2372.000000	18.101200
2371.000000	18.069500
2370.000000	18.042800
2369.000000	18.010700
2368.000000	17.970600
2367.000000	17.932600
2366.000000	17.883600
2365.000000	17.847600
2364.000000	17.825500
2363.000000	17.786500
2362.000000	17.728000
2361.000000	17.682800
2360.000000	17.641600
2359.000000	17.600200
2358.000000	17.548700
2357.000000	17.503800
2356.000000	17.483400
2355.000000	17.449900
2354.000000	17.421700
2353.000000	17.377300
2352.000000	17.360400
2351.000000	17.360000
2350.000000	17.346100
2349.000000	17.319300
2348.000000	17.307900
2347.000000	17.321600
2346.000000	17.329500
2345.000000	17.328600
2344.000000	17.326200
2343.000000	17.329500
2342.000000	17.320600
2341.000000	17.317400
2340.000000	17.310100
2339.000000	17.310500
2338.000000	17.295300
2337.000000	17.273700
2336.000000	17.267200
2335.000000	17.249100
2334.000000	17.208800
2333.000000	17.178300
2332.000000	17.162300
2331.000000	17.142200
2330.000000	17.097500
2329.000000	17.071200
2328.000000	17.039600
2327.000000	16.999300
2326.000000	16.947300
2325.000000	16.901000
2324.000000	16.850400
2323.000000	16.791100
2322.000000	16.732700
2321.000000	16.663000
2320.000000	16.604000
2319.000000	16.516200
2318.000000	16.432400
2317.000000	16.335900
2316.000000	16.239600
2315.000000	16.144300
2314.000000	16.028800
2313.000000	15.923300
2312.000000	15.823100
2311.000000	15.726100
2310.000000	15.634000
2309.000000	15.565800
2308.000000	15.497000
2307.000000	15.439200
2306.000000	15.386200
2305.000000	15.346000
2304.000000	15.333100
2303.000000	15.323400
2302.000000	15.311500
2301.000000	15.323200
2300.000000	15.339900
2299.000000	15.337800
2298.000000	15.358200
2297.000000	15.379200
2296.000000	15.389400
2295.000000	15.390600
2294.000000	15.412200
2293.000000	15.424300
2292.000000	15.394200
2291.000000	15.398000
2290.000000	15.403300
2289.000000	15.361000
2288.000000	15.345700
2287.000000	15.300300
2286.000000	15.298700
2285.000000	15.256100
2284.000000	15.204100
2283.000000	15.139800
2282.000000	15.088300
2281.000000	15.035600
2280.000000	14.973500
2279.000000	14.929700
2278.000000	14.852700
2277.000000	14.780500
2276.000000	14.730500
2275.000000	14.679500
2274.000000	14.623600
2273.000000	14.574000
2272.000000	14.541800
2271.000000	14.496200
2270.000000	14.478800
2269.000000	14.457900
2268.000000	14.457600
2267.000000	14.473000
2266.000000	14.505600
2265.000000	14.540400
2264.000000	14.615500
2263.000000	14.662900
2262.000000	14.760300
2261.000000	14.865400
2260.000000	14.967500
2259.000000	15.076600
2258.000000	15.199100
2257.000000	15.330600
2256.000000	15.460500
2255.000000	15.602700
2254.000000	15.730700
2253.000000	15.858400
2252.000000	15.997500
2251.000000	16.115100
2250.000000	16.249700
2249.000000	16.343500
2248.000000	16.463000
2247.000000	16.572100
2246.000000	16.662500
2245.000000	16.744400
2244.000000	16.835200
2243.000000	16.895200
2242.000000	16.975200
2241.000000	17.035200
2240.000000	17.072700
2239.000000	17.100200
2238.000000	17.152200
2237.000000	17.137600
2236.000000	17.166900
2235.000000	17.158600
2234.000000	17.163200
2233.000000	17.125200
2232.000000	17.089500
2231.000000	17.048400
2230.000000	16.969000
2229.000000	16.924300
2228.000000	16.837900
2227.000000	16.742100
2226.000000	16.638800
2225.000000	16.538800
2224.000000	16.431300
2223.000000	16.296000
2222.000000	16.169700
2221.000000	16.033600
2220.000000	15.893000
2219.000000	15.759300
2218.000000	15.636600
2217.000000	15.498600
2216.000000	15.368500
2215.000000	15.283300
2214.000000	15.185100
2213.000000	15.090900
2212.000000	15.066200
2211.000000	15.029900
2210.000000	15.021600
2209.000000	15.037100
2208.000000	15.082100
2207.000000	15.151800
2206.000000	15.244200
2205.000000	15.378600
2204.000000	15.555100
2203.000000	15.707200
2202.000000	15.895700
2201.000000	16.107200
2200.000000	16.324900
2199.000000	16.562200
2198.000000	16.797000
2197.000000	17.035300
2196.000000	17.280200
2195.000000	17.499600
2194.000000	17.693000
2193.000000	17.914500
2192.000000	18.103600
2191.000000	18.290000
2190.000000	18.457100
2189.000000	18.612700
2188.000000	18.751600
2187.000000	18.889400
2186.000000	19.017300
2185.000000	19.108100
2184.000000	19.187100
2183.000000	19.265300
2182.000000	19.347900
2181.000000	19.404500
2180.000000	19.457400
2179.000000	19.513100
2178.000000	19.569200
2177.000000	19.614600
2176.000000	19.659400
2175.000000	19.700000
2174.000000	19.734900
2173.000000	19.795300
2172.000000	19.853300
2171.000000	19.904500
2170.000000	19.940200
2169.000000	20.020700
2168.000000	20.079400
2167.000000	20.130300
2166.000000	20.179900
2165.000000	20.263000
2164.000000	20.323500
2163.000000	20.385600
2162.000000	20.463800
2161.000000	20.548400
2160.000000	20.623200
2159.000000	20.718300
2158.000000	20.810300
2157.000000	20.909700
2156.000000	21.004100
2155.000000	21.122300
2154.000000	21.234500
2153.000000	21.343700
2152.000000	21.457600
2151.000000	21.584100
2150.000000	21.703700
2149.000000	21.828700
2148.000000	21.935700
2147.000000	22.058000
2146.000000	22.170800
2145.000000	22.292900
2144.000000	22.403100
2143.000000	22.519200
2142.000000	22.636900
2141.000000	22.769400
2140.000000	22.876600
2139.000000	22.961800
2138.000000	23.068600
2137.000000	23.166700
2136.000000	23.263500
2135.000000	23.364900
2134.000000	23.445000
2133.000000	23.534600
2132.000000	23.615200
2131.000000	23.688600
2130.000000	23.756300
2129.000000	23.819200
2128.000000	23.881200
2127.000000	23.937600
2126.000000	23.988000
2125.000000	24.039000
2124.000000	24.082900
2123.000000	24.116500
2122.000000	24.150000
2121.000000	24.186500
2120.000000	24.216200
2119.000000	24.238200
2118.000000	24.270500
2117.000000	24.284600
2116.000000	24.291600
2115.000000	24.303700
2114.000000	24.312900
2113.000000	24.324400
2112.000000	24.323400
2111.000000	24.319200
2110.000000	24.334900
2109.000000	24.333000
2108.000000	24.318300
2107.000000	24.320200
2106.000000	24.318800
2105.000000	24.314300
2104.000000	24.304500
2103.000000	24.291800
2102.000000	24.295900
2101.000000	24.293100
2100.000000	24.279400
2099.000000	24.273400
2098.000000	24.266800
2097.000000	24.260600
2096.000000	24.259300
2095.000000	24.269500
2094.000000	24.272400
2093.000000	24.267000
2092.000000	24.270800
2091.000000	24.290100
2090.000000	24.293800
2089.000000	24.294000
2088.000000	24.293100
2087.000000	24.295400
2086.000000	24.295000
2085.000000	24.287000
2084.000000	24.261000
2083.000000	24.219700
2082.000000	24.193200
2081.000000	24.152900
2080.000000	24.107600
2079.000000	24.062000
2078.000000	24.008200
2077.000000	23.941900
2076.000000	23.866600
2075.000000	23.808600
2074.000000	23.743400
2073.000000	23.654100
2072.000000	23.570100
2071.000000	23.479500
2070.000000	23.394800
2069.000000	23.313700
2068.000000	23.208600
2067.000000	23.106900
2066.000000	23.029200
2065.000000	22.943400
2064.000000	22.842000
2063.000000	22.749600
2062.000000	22.668500
2061.000000	22.607100
2060.000000	22.549300
2059.000000	22.495700
2058.000000	22.462200
2057.000000	22.445200
2056.000000	22.438700
2055.000000	22.438600
2054.000000	22.466300
2053.000000	22.515400
2052.000000	22.571700
2051.000000	22.661800
2050.000000	22.766000
2049.000000	22.885900
2048.000000	23.025800
2047.000000	23.175300
2046.000000	23.344800
2045.000000	23.519700
2044.000000	23.687600
2043.000000	23.857300
2042.000000	24.064200
2041.000000	24.233400
2040.000000	24.409400
2039.000000	24.582400
2038.000000	24.745600
2037.000000	24.909000
2036.000000	25.070600
2035.000000	25.235600
2034.000000	25.362800
2033.000000	25.493700
2032.000000	25.627500
2031.000000	25.770300
2030.000000	25.875500
2029.000000	25.985700
2028.000000	26.081000
2027.000000	26.167000
2026.000000	26.283500
2025.000000	26.380400
2024.000000	26.462100
2023.000000	26.527300
2022.000000	26.607400
2021.000000	26.688400
2020.000000	26.758900
2019.000000	26.813900
2018.000000	26.867400
2017.000000	26.913100
2016.000000	26.973800
2015.000000	27.016100
2014.000000	27.045500
2013.000000	27.081700
2012.000000	27.090300
2011.000000	27.125200
2010.000000	27.153100
2009.000000	27.142900
2008.000000	27.142200
2007.000000	27.162400
2006.000000	27.132000
2005.000000	27.129100
2004.000000	27.108500
2003.000000	27.091600
2002.000000	27.061200
2001.000000	27.002000
2000.000000	26.961500
1999.000000	26.926600
1998.000000	26.883500
1997.000000	26.816900
1996.000000	26.762500
1995.000000	26.720200
1994.000000	26.658400
1993.000000	26.567000
1992.000000	26.489100
1991.000000	26.425500
1990.000000	26.360700
1989.000000	26.282500
1988.000000	26.180200
1987.000000	26.096500
1986.000000	26.025300
1985.000000	25.930900
1984.000000	25.820500
1983.000000	25.745700
1982.000000	25.661400
1981.000000	25.557300
1980.000000	25.476200
1979.000000	25.380900
1978.000000	25.276700
1977.000000	25.208600
1976.000000	25.112800
1975.000000	25.033700
1974.000000	24.978100
1973.000000	24.863200
1972.000000	24.794600
1971.000000	24.706400
1970.000000	24.638700
1969.000000	24.557200
1968.000000	24.462400
1967.000000	24.393300
1966.000000	24.317500
1965.000000	24.270100
1964.000000	24.161000
1963.000000	24.100400
1962.000000	24.007700
1961.000000	23.919700
1960.000000	23.851900
1959.000000	23.759400
1958.000000	23.666400
1957.000000	23.610000
1956.000000	23.512500
1955.000000	23.433000
1954.000000	23.347400
1953.000000	23.259600
1952.000000	23.152000
1951.000000	23.098100
1950.000000	23.032400
1949.000000	22.994300
1948.000000	22.935300
1947.000000	22.861200
1946.000000	22.781800
1945.000000	22.739900
1944.000000	22.680600
1943.000000	22.652100
1942.000000	22.658800
1941.000000	22.625000
1940.000000	22.584700
1939.000000	22.579400
1938.000000	22.580900
1937.000000	22.571100
1936.000000	22.594500
1935.000000	22.624500
1934.000000	22.670300
1933.000000	22.724300
1932.000000	22.783400
1931.000000	22.851700
1930.000000	22.935900
1929.000000	23.030700
1928.000000	23.135200
1927.000000	23.233600
1926.000000	23.348000
1925.000000	23.514200
1924.000000	23.642000
1923.000000	23.807200
1922.000000	23.973400
1921.000000	24.184700
1920.000000	24.349800
1919.000000	24.547400
1918.000000	24.770500
1917.000000	24.999700
1916.000000	25.233400
1915.000000	25.502400
1914.000000	25.782600
1913.000000	26.050800
1912.000000	26.325900
1911.000000	26.615400
1910.000000	26.922100
1909.000000	27.215400
1908.000000	27.530000
1907.000000	27.928200
1906.000000	28.315600
1905.000000	28.709200
1904.000000	29.105100
1903.000000	29.495700
1902.000000	29.888600
1901.000000	30.287900
1900.000000	30.751200
1899.000000	31.159600
1898.000000	31.585200
1897.000000	32.057700
1896.000000	32.483700
1895.000000	32.911400
1894.000000	33.335200
1893.000000	33.793600
1892.000000	34.293000
1891.000000	34.772700
1890.000000	35.205200
1889.000000	35.611600
1888.000000	36.079000
1887.000000	36.489400
1886.000000	36.913500
1885.000000	37.353200
1884.000000	37.776600
1883.000000	38.176800
1882.000000	38.552000
1881.000000	38.920500
1880.000000	39.250100
1879.000000	39.599400
1878.000000	39.930000
1877.000000	40.206300
1876.000000	40.480600
1875.000000	40.758600
1874.000000	41.016300
1873.000000	41.233700
1872.000000	41.436500
1871.000000	41.600500
1870.000000	41.685000
1869.000000	41.784800
1868.000000	41.889700
1867.000000	41.950000
1866.000000	42.005100
1865.000000	42.084500
1864.000000	42.180600
1863.000000	42.266900
1862.000000	42.365000
1861.000000	42.437200
1860.000000	42.494600
1859.000000	42.539100
1858.000000	42.563300
1857.000000	42.590400
1856.000000	42.618900
1855.000000	42.649400
1854.000000	42.633100
1853.000000	42.589200
1852.000000	42.597900
1851.000000	42.652600
1850.000000	42.698600
1849.000000	42.725300
1848.000000	42.689300
1847.000000	42.592800
1846.000000	42.518400
1845.000000	42.483600
1844.000000	42.484500
1843.000000	42.531200
1842.000000	42.548500
1841.000000	42.507000
1840.000000	42.453200
1839.000000	42.412000
1838.000000	42.374100
1837.000000	42.304500
1836.000000	42.229100
1835.000000	42.145800
1834.000000	42.072400
1833.000000	42.035700
1832.000000	42.022800
1831.000000	41.986900
1830.000000	41.925500
1829.000000	41.881000
1828.000000	41.813700
1827.000000	41.739500
1826.000000	41.695600
1825.000000	41.660600
1824.000000	41.666200
1823.000000	41.712100
1822.000000	41.746700
1821.000000	41.737000
1820.000000	41.685800
1819.000000	41.641200
1818.000000	41.627800
1817.000000	41.622100
1816.000000	41.620600
1815.000000	41.604500
1814.000000	41.595100
1813.000000	41.590900
1812.000000	41.579700
1811.000000	41.531100
1810.000000	41.482200
1809.000000	41.464900
1808.000000	41.443200
1807.000000	41.411700
1806.000000	41.369900
1805.000000	41.325500
1804.000000	41.300200
1803.000000	41.298000
1802.000000	41.283100
1801.000000	41.222700
1800.000000	41.163800
1799.000000	41.133800
1798.000000	41.117500
1797.000000	41.084400
1796.000000	41.061000
1795.000000	41.023300
1794.000000	40.989600
1793.000000	40.971600
1792.000000	40.936800
1791.000000	40.890200
1790.000000	40.860800
1789.000000	40.847200
1788.000000	40.838500
1787.000000	40.806300
1786.000000	40.778700
1785.000000	40.752300
1784.000000	40.712100
1783.000000	40.687400
1782.000000	40.638600
1781.000000	40.592000
1780.000000	40.551700
1779.000000	40.496100
1778.000000	40.430700
1777.000000	40.350500
1776.000000	40.272800
1775.000000	40.191800
1774.000000	40.101500
1773.000000	40.015400
1772.000000	39.930300
1771.000000	39.841000
1770.000000	39.749700
1769.000000	39.669600
1768.000000	39.595900
1767.000000	39.517200
1766.000000	39.450600
1765.000000	39.379800
1764.000000	39.345600
1763.000000	39.321300
1762.000000	39.286700
1761.000000	39.270300
1760.000000	39.252400
1759.000000	39.258100
1758.000000	39.254300
1757.000000	39.247700
1756.000000	39.229900
1755.000000	39.205000
1754.000000	39.193900
1753.000000	39.153700
1752.000000	39.115700
1751.000000	39.066400
1750.000000	38.994800
1749.000000	38.928800
1748.000000	38.849600
1747.000000	38.747500
1746.000000	38.648800
1745.000000	38.547400
1744.000000	38.413700
1743.000000	38.272800
1742.000000	38.146000
1741.000000	37.989200
1740.000000	37.843300
1739.000000	37.725400
1738.000000	37.608800
1737.000000	37.494600
1736.000000	37.423700
1735.000000	37.367400
1734.000000	37.340400
1733.000000	37.318800
1732.000000	37.314500
1731.000000	37.315600
1730.000000	37.330500
1729.000000	37.341100
1728.000000	37.334400
1727.000000	37.349400
1726.000000	37.362900
1725.000000	37.361800
1724.000000	37.380000
1723.000000	37.414900
1722.000000	37.460700
1721.000000	37.548800
1720.000000	37.649200
1719.000000	37.778000
1718.000000	37.935400
1717.000000	38.066800
1716.000000	38.230700
1715.000000	38.396200
1714.000000	38.508400
1713.000000	38.643600
1712.000000	38.715900
1711.000000	38.790200
1710.000000	38.863800
1709.000000	38.906000
1708.000000	38.944500
1707.000000	38.972200
1706.000000	38.985200
1705.000000	38.953300
1704.000000	38.939600
1703.000000	38.874200
1702.000000	38.813300
1701.000000	38.740200
1700.000000	38.676000
1699.000000	38.606000
1698.000000	38.535000
1697.000000	38.496000
1696.000000	38.458900
1695.000000	38.456200
1694.000000	38.436300
1693.000000	38.424700
1692.000000	38.447000
1691.000000	38.470600
1690.000000	38.476200
1689.000000	38.532700
1688.000000	38.567400
1687.000000	38.655800
1686.000000	38.772600
1685.000000	38.930700
1684.000000	39.133600
1683.000000	39.387700
1682.000000	39.671000
1681.000000	40.007500
1680.000000	40.335600
1679.000000	40.667400
1678.000000	40.972300
1677.000000	41.275600
1676.000000	41.555400
1675.000000	41.814600
1674.000000	42.030400
1673.000000	42.276100
1672.000000	42.489800
1671.000000	42.693800
1670.000000	42.906400
1669.000000	43.107500
1668.000000	43.291500
1667.000000	43.431200
1666.000000	43.568200
1665.000000	43.696600
1664.000000	43.817000
1663.000000	43.945100
1662.000000	44.070900
1661.000000	44.181300
1660.000000	44.281700
1659.000000	44.372200
1658.000000	44.439100
1657.000000	44.489000
1656.000000	44.536400
1655.000000	44.565400
1654.000000	44.607400
1653.000000	44.622100
1652.000000	44.626800
1651.000000	44.638600
1650.000000	44.640300
1649.000000	44.642000
1648.000000	44.620200
1647.000000	44.595800
1646.000000	44.571900
1645.000000	44.566500
1644.000000	44.543100
1643.000000	44.506500
1642.000000	44.487200
1641.000000	44.476200
1640.000000	44.456100
1639.000000	44.429600
1638.000000	44.407800
1637.000000	44.375300
1636.000000	44.346900
1635.000000	44.332300
1634.000000	44.291300
1633.000000	44.245000
1632.000000	44.197800
1631.000000	44.149200
1630.000000	44.103000
1629.000000	44.057400
1628.000000	44.009900
1627.000000	43.953400
1626.000000	43.904500
1625.000000	43.858300
1624.000000	43.810300
1623.000000	43.760100
1622.000000	43.710600
1621.000000	43.675900
1620.000000	43.615900
1619.000000	43.574500
1618.000000	43.545100
1617.000000	43.506500
1616.000000	43.458400
1615.000000	43.423200
1614.000000	43.378700
1613.000000	43.337400
1612.000000	43.275300
1611.000000	43.228900
1610.000000	43.187900
1609.000000	43.119800
1608.000000	43.041800
1607.000000	42.979500
1606.000000	42.925500
1605.000000	42.857200
1604.000000	42.786400
1603.000000	42.714200
1602.000000	42.645900
1601.000000	42.585800
1600.000000	42.498400
1599.000000	42.429300
1598.000000	42.366600
1597.000000	42.303700
1596.000000	42.248300
1595.000000	42.178300
1594.000000	42.126000
1593.000000	42.085700
1592.000000	42.025500
1591.000000	41.967300
1590.000000	41.921400
1589.000000	41.869300
1588.000000	41.820700
1587.000000	41.784400
1586.000000	41.742000
1585.000000	41.707100
1584.000000	41.662500
1583.000000	41.612600
1582.000000	41.589100
1581.000000	41.568800
1580.000000	41.533200
1579.000000	41.510600
1578.000000	41.492800
1577.000000	41.464200
1576.000000	41.456800
1575.000000	41.452900
1574.000000	41.462500
1573.000000	41.478300
1572.000000	41.481800
1571.000000	41.486900
1570.000000	41.508100
1569.000000	41.528800
1568.000000	41.557800
1567.000000	41.584700
1566.000000	41.598700
1565.000000	41.609600
1564.000000	41.624500
1563.000000	41.639700
1562.000000	41.651200
1561.000000	41.660200
1560.000000	41.657700
1559.000000	41.644900
1558.000000	41.619100
1557.000000	41.588000
1556.000000	41.550000
1555.000000	41.500100
1554.000000	41.445200
1553.000000	41.397000
1552.000000	41.336900
1551.000000	41.267600
1550.000000	41.197700
1549.000000	41.124700
1548.000000	41.051000
1547.000000	40.996200
1546.000000	40.944500
1545.000000	40.881900
1544.000000	40.827100
1543.000000	40.789900
1542.000000	40.754900
1541.000000	40.725000
1540.000000	40.682300
1539.000000	40.645600
1538.000000	40.625200
1537.000000	40.612400
1536.000000	40.566200
1535.000000	40.521900
1534.000000	40.496200
1533.000000	40.469600
1532.000000	40.427400
1531.000000	40.373200
1530.000000	40.331300
1529.000000	40.295500
1528.000000	40.262400
1527.000000	40.221100
1526.000000	40.168900
1525.000000	40.121200
1524.000000	40.073000
1523.000000	40.022000
1522.000000	39.965500
1521.000000	39.915700
1520.000000	39.872100
1519.000000	39.825100
1518.000000	39.780400
1517.000000	39.737400
1516.000000	39.675800
1515.000000	39.635800
1514.000000	39.589100
1513.000000	39.539100
1512.000000	39.484300
1511.000000	39.430700
1510.000000	39.392600
1509.000000	39.343300
1508.000000	39.301800
1507.000000	39.249500
1506.000000	39.214100
1505.000000	39.157800
1504.000000	39.109500
1503.000000	39.076200
1502.000000	39.038800
1501.000000	39.024400
1500.000000	38.991800
1499.000000	38.972300
1498.000000	38.961800
1497.000000	38.968600
1496.000000	38.946800
1495.000000	38.950500
1494.000000	38.949800
1493.000000	38.963200
1492.000000	38.985400
1491.000000	39.020000
1490.000000	39.039000
1489.000000	39.080000
1488.000000	39.113900
1487.000000	39.139100
1486.000000	39.162300
1485.000000	39.191300
1484.000000	39.232200
1483.000000	39.256500
1482.000000	39.303400
1481.000000	39.335100
1480.000000	39.397200
1479.000000	39.449700
1478.000000	39.488600
1477.000000	39.553900
1476.000000	39.590900
1475.000000	39.644500
1474.000000	39.719000
1473.000000	39.806400
1472.000000	39.875200
1471.000000	39.962100
1470.000000	40.016300
1469.000000	40.080600
1468.000000	40.165600
1467.000000	40.254700
1466.000000	40.336200
1465.000000	40.401400
1464.000000	40.471100
1463.000000	40.556500
1462.000000	40.668500
1461.000000	40.747000
1460.000000	40.836000
1459.000000	40.930900
1458.000000	41.030700
1457.000000	41.150600
1456.000000	41.248300
1455.000000	41.350100
1454.000000	41.432000
1453.000000	41.557000
1452.000000	41.703400
1451.000000	41.811300
1450.000000	41.883300
1449.000000	41.942000
1448.000000	42.068400
1447.000000	42.233700
1446.000000	42.382900
1445.000000	42.421800
1444.000000	42.524200
1443.000000	42.628300
1442.000000	42.753900
1441.000000	42.865600
1440.000000	42.991200
1439.000000	43.118300
1438.000000	43.243500
1437.000000	43.331600
1436.000000	43.464000
1435.000000	43.598800
1434.000000	43.747700
1433.000000	43.911000
1432.000000	44.032500
1431.000000	44.179800
1430.000000	44.297500
1429.000000	44.459500
1428.000000	44.630000
1427.000000	44.791000
1426.000000	44.982300
1425.000000	45.204500
1424.000000	45.406300
1423.000000	45.571800
1422.000000	45.747800
1421.000000	46.020600
1420.000000	46.280600
1419.000000	46.453700
1418.000000	46.622800
1417.000000	46.770000
1416.000000	47.053100
1415.000000	47.323800
1414.000000	47.536300
1413.000000	47.678500
1412.000000	47.851100
1411.000000	48.137800
1410.000000	48.414200
1409.000000	48.650700
1408.000000	48.868800
1407.000000	49.090900
1406.000000	49.288900
1405.000000	49.461800
1404.000000	49.551800
1403.000000	49.759500
1402.000000	49.990600
1401.000000	50.244100
1400.000000	50.192600
1399.000000	50.165400
1398.000000	50.220900
1397.000000	50.328400
1396.000000	50.392800
1395.000000	50.288700
1394.000000	50.235500
1393.000000	50.206200
1392.000000	50.157200
1391.000000	50.115100
1390.000000	50.125900
1389.000000	50.177000
1388.000000	50.236100
1387.000000	50.236500
1386.000000	50.355100
1385.000000	50.512400
1384.000000	50.751900
1383.000000	50.948700
1382.000000	51.171800
1381.000000	51.410900
1380.000000	51.616400
1379.000000	52.136000
1378.000000	52.568700
1377.000000	53.140800
1376.000000	53.702400
1375.000000	54.263100
1374.000000	54.870400
1373.000000	55.470500
1372.000000	55.994500
1371.000000	56.412500
1370.000000	56.761300
1369.000000	57.073000
1368.000000	57.313700
1367.000000	57.499400
1366.000000	57.686600
1365.000000	57.868000
1364.000000	58.013200
1363.000000	58.177000
1362.000000	58.306500
1361.000000	58.348200
1360.000000	58.398800
1359.000000	58.477200
1358.000000	58.568200
1357.000000	58.683000
1356.000000	58.843700
1355.000000	59.026700
1354.000000	59.185100
1353.000000	59.349700
1352.000000	59.620800
1351.000000	59.845000
1350.000000	60.072700
1349.000000	60.321700
1348.000000	60.542900
1347.000000	60.743200
1346.000000	60.925100
1345.000000	61.117300
1344.000000	61.316800
1343.000000	61.481200
1342.000000	61.640100
1341.000000	61.796400
1340.000000	61.954000
1339.000000	62.112200
1338.000000	62.250000
1337.000000	62.390200
1336.000000	62.525400
1335.000000	62.639200
1334.000000	62.757100
1333.000000	62.863100
1332.000000	62.975600
1331.000000	63.078300
1330.000000	63.151200
1329.000000	63.237400
1328.000000	63.325000
1327.000000	63.400200
1326.000000	63.467700
1325.000000	63.540500
1324.000000	63.602800
1323.000000	63.657400
1322.000000	63.717500
1321.000000	63.784400
1320.000000	63.841100
1319.000000	63.888800
1318.000000	63.929700
1317.000000	63.981000
1316.000000	64.015800
1315.000000	64.061000
1314.000000	64.122600
1313.000000	64.171400
1312.000000	64.204500
1311.000000	64.248400
1310.000000	64.287700
1309.000000	64.327500
1308.000000	64.362400
1307.000000	64.389600
1306.000000	64.407500
1305.000000	64.425800
1304.000000	64.449600
1303.000000	64.459400
1302.000000	64.462700
1301.000000	64.465800
1300.000000	64.482000
1299.000000	64.499800
1298.000000	64.502600
1297.000000	64.504200
1296.000000	64.498500
1295.000000	64.481700
1294.000000	64.471700
1293.000000	64.463300
1292.000000	64.458500
1291.000000	64.444900
1290.000000	64.422900
1289.000000	64.400100
1288.000000	64.370100
1287.000000	64.332400
1286.000000	64.299100
1285.000000	64.276500
1284.000000	64.232800
1283.000000	64.195800
1282.000000	64.171500
1281.000000	64.140200
1280.000000	64.115400
1279.000000	64.096000
1278.000000	64.075700
1277.000000	64.048700
1276.000000	64.038800
1275.000000	64.032600
1274.000000	64.020100
1273.000000	64.015800
1272.000000	64.022000
1271.000000	64.022800
1270.000000	64.014600
1269.000000	64.015100
1268.000000	64.003200
1267.000000	64.001400
1266.000000	64.006800
1265.000000	63.982900
1264.000000	63.969000
1263.000000	63.972700
1262.000000	63.969600
1261.000000	63.943300
1260.000000	63.923900
1259.000000	63.908500
1258.000000	63.878200
1257.000000	63.857700
1256.000000	63.817100
1255.000000	63.783000
1254.000000	63.747200
1253.000000	63.698300
1252.000000	63.640200
1251.000000	63.595200
1250.000000	63.556600
1249.000000	63.486600
1248.000000	63.426500
1247.000000	63.360000
1246.000000	63.313200
1245.000000	63.266200
1244.000000	63.196000
1243.000000	63.133000
1242.000000	63.095400
1241.000000	63.056600
1240.000000	63.012800
1239.000000	62.984400
1238.000000	62.942700
1237.000000	62.898500
1236.000000	62.876600
1235.000000	62.847600
1234.000000	62.799800
1233.000000	62.758500
1232.000000	62.727100
1231.000000	62.692200
1230.000000	62.658300
1229.000000	62.615700
1228.000000	62.555900
1227.000000	62.493300
1226.000000	62.454500
1225.000000	62.402200
1224.000000	62.340400
1223.000000	62.296000
1222.000000	62.256200
1221.000000	62.204000
1220.000000	62.161200
1219.000000	62.103000
1218.000000	62.066500
1217.000000	62.016100
1216.000000	61.964900
1215.000000	61.905400
1214.000000	61.849500
1213.000000	61.798500
1212.000000	61.738900
1211.000000	61.671400
1210.000000	61.602400
1209.000000	61.549100
1208.000000	61.481500
1207.000000	61.432300
1206.000000	61.386500
1205.000000	61.306400
1204.000000	61.271500
1203.000000	61.219200
1202.000000	61.168900
1201.000000	61.108300
1200.000000	61.055800
1199.000000	60.985100
1198.000000	60.913600
1197.000000	60.823800
1196.000000	60.737700
1195.000000	60.644400
1194.000000	60.515700
1193.000000	60.374300
1192.000000	60.248000
1191.000000	60.101100
1190.000000	59.983000
1189.000000	59.879900
1188.000000	59.811800
1187.000000	59.818000
1186.000000	59.834200
1185.000000	59.873500
1184.000000	59.958800
1183.000000	60.097700
1182.000000	60.237400
1181.000000	60.392700
1180.000000	60.558600
1179.000000	60.718600
1178.000000	60.872500
1177.000000	61.009700
1176.000000	61.127100
1175.000000	61.282200
1174.000000	61.404400
1173.000000	61.524700
1172.000000	61.675200
1171.000000	61.806100
1170.000000	61.988200
1169.000000	62.139400
1168.000000	62.308100
1167.000000	62.459700
1166.000000	62.638400
1165.000000	62.807500
1164.000000	62.964700
1163.000000	63.140900
1162.000000	63.316200
1161.000000	63.461800
1160.000000	63.618000
1159.000000	63.792300
1158.000000	63.911600
1157.000000	64.047000
1156.000000	64.152900
1155.000000	64.240600
1154.000000	64.304600
1153.000000	64.368100
1152.000000	64.415500
1151.000000	64.454600
1150.000000	64.495700
1149.000000	64.537700
1148.000000	64.585000
1147.000000	64.618100
1146.000000	64.685500
1145.000000	64.731300
1144.000000	64.795600
1143.000000	64.871800
1142.000000	65.002000
1141.000000	65.109500
1140.000000	65.222100
1139.000000	65.337300
1138.000000	65.485000
1137.000000	65.626000
1136.000000	65.810800
1135.000000	65.930600
1134.000000	66.056400
1133.000000	66.131200
1132.000000	66.228400
1131.000000	66.354900
1130.000000	66.465000
1129.000000	66.554500
1128.000000	66.636700
1127.000000	66.667100
1126.000000	66.736600
1125.000000	66.773200
1124.000000	66.829700
1123.000000	66.841300
1122.000000	66.856500
1121.000000	66.854900
1120.000000	66.870700
1119.000000	66.873800
1118.000000	66.872800
1117.000000	66.880700
1116.000000	66.877300
1115.000000	66.896400
1114.000000	66.873800
1113.000000	66.867600
1112.000000	66.869800
1111.000000	66.880900
1110.000000	66.882100
1109.000000	66.872100
1108.000000	66.880200
1107.000000	66.876500
1106.000000	66.879800
1105.000000	66.883400
1104.000000	66.874100
1103.000000	66.863300
1102.000000	66.874900
1101.000000	66.867100
1100.000000	66.863900
1099.000000	66.858800
1098.000000	66.848600
1097.000000	66.837200
1096.000000	66.841100
1095.000000	66.840300
1094.000000	66.819100
1093.000000	66.809800
1092.000000	66.803500
1091.000000	66.789400
1090.000000	66.754600
1089.000000	66.747100
1088.000000	66.747200
1087.000000	66.734300
1086.000000	66.699000
1085.000000	66.684700
1084.000000	66.658800
1083.000000	66.643100
1082.000000	66.621200
1081.000000	66.594300
1080.000000	66.560900
1079.000000	66.549500
1078.000000	66.531900
1077.000000	66.502200
1076.000000	66.467200
1075.000000	66.434600
1074.000000	66.415400
1073.000000	66.396200
1072.000000	66.364200
1071.000000	66.322700
1070.000000	66.303800
1069.000000	66.261200
1068.000000	66.212200
1067.000000	66.176500
1066.000000	66.136700
1065.000000	66.103900
1064.000000	66.077000
1063.000000	66.051300
1062.000000	66.018500
1061.000000	65.965900
1060.000000	65.926600
1059.000000	65.887300
1058.000000	65.836500
1057.000000	65.790400
1056.000000	65.753600
1055.000000	65.718200
1054.000000	65.682600
1053.000000	65.650200
1052.000000	65.604900
1051.000000	65.563600
1050.000000	65.537600
1049.000000	65.507000
1048.000000	65.465300
1047.000000	65.423800
1046.000000	65.401100
1045.000000	65.380000
1044.000000	65.345800
1043.000000	65.326600
1042.000000	65.307900
1041.000000	65.292000
1040.000000	65.280200
1039.000000	65.265500
1038.000000	65.244700
1037.000000	65.215600
1036.000000	65.200400
1035.000000	65.176800
1034.000000	65.151700
1033.000000	65.129200
1032.000000	65.127500
1031.000000	65.139000
1030.000000	65.127300
1029.000000	65.112100
1028.000000	65.104600
1027.000000	65.097600
1026.000000	65.090900
1025.000000	65.089300
1024.000000	65.083700
1023.000000	65.089200
1022.000000	65.105100
1021.000000	65.111500
1020.000000	65.119000
1019.000000	65.143500
1018.000000	65.161700
1017.000000	65.178500
1016.000000	65.212500
1015.000000	65.237700
1014.000000	65.258400
1013.000000	65.294400
1012.000000	65.322400
1011.000000	65.345800
1010.000000	65.380000
1009.000000	65.417100
1008.000000	65.448700
1007.000000	65.475900
1006.000000	65.523300
1005.000000	65.552600
1004.000000	65.566800
1003.000000	65.587400
1002.000000	65.620900
1001.000000	65.642800
1000.000000	65.668300
999.000000	65.684700
998.000000	65.703800
997.000000	65.713600
996.000000	65.728000
995.000000	65.740300
994.000000	65.749000
993.000000	65.766400
992.000000	65.775200
991.000000	65.767900
990.000000	65.788000
989.000000	65.788900
988.000000	65.812800
987.000000	65.830700
986.000000	65.816400
985.000000	65.811200
984.000000	65.829400
983.000000	65.843200
982.000000	65.836900
981.000000	65.860200
980.000000	65.879600
979.000000	65.864700
978.000000	65.880400
977.000000	65.909100
976.000000	65.905600
975.000000	65.932400
974.000000	65.953600
973.000000	65.962900
972.000000	65.987100
971.000000	65.982700
970.000000	66.026500
969.000000	66.038100
968.000000	66.053500
967.000000	66.103400
966.000000	66.150700
965.000000	66.174000
964.000000	66.202000
963.000000	66.235400
962.000000	66.294800
961.000000	66.340200
960.000000	66.378200
959.000000	66.407700
958.000000	66.465300
957.000000	66.523700
956.000000	66.560300
955.000000	66.617600
954.000000	66.682800
953.000000	66.757700
952.000000	66.780700
951.000000	66.826700
950.000000	66.885000
949.000000	66.937500
948.000000	67.025400
947.000000	67.068500
946.000000	67.128000
945.000000	67.190900
944.000000	67.238900
943.000000	67.298000
942.000000	67.366500
941.000000	67.417300
940.000000	67.456200
939.000000	67.498100
938.000000	67.544500
937.000000	67.604100
936.000000	67.638800
935.000000	67.659300
934.000000	67.703100
933.000000	67.705900
932.000000	67.742600
931.000000	67.746900
930.000000	67.799500
929.000000	67.797400
928.000000	67.798500
927.000000	67.820200
926.000000	67.862700
925.000000	67.854000
924.000000	67.864700
923.000000	67.860100
922.000000	67.906300
921.000000	67.872400
920.000000	67.876600
919.000000	67.856400
918.000000	67.853000
917.000000	67.845900
916.000000	67.847200
915.000000	67.838500
914.000000	67.845400
913.000000	67.806000
912.000000	67.792100
911.000000	67.799500
910.000000	67.770000
909.000000	67.822100
908.000000	67.799200
907.000000	67.806600
906.000000	67.805500
905.000000	67.857700
904.000000	67.881000
903.000000	67.849400
902.000000	67.860800
901.000000	67.923300
900.000000	67.898300
899.000000	67.906500
898.000000	67.904300
897.000000	67.917000
896.000000	67.922500
895.000000	67.909300
894.000000	67.918500
893.000000	67.913100
892.000000	67.907200
891.000000	67.897600
890.000000	67.870600
889.000000	67.846700
888.000000	67.846600
887.000000	67.803400
886.000000	67.801000
885.000000	67.762400
884.000000	67.736300
883.000000	67.684800
882.000000	67.637900
881.000000	67.591600
880.000000	67.556900
879.000000	67.507600
878.000000	67.456600
877.000000	67.377700
876.000000	67.349900
875.000000	67.255300
874.000000	67.210600
873.000000	67.110000
872.000000	67.051000
871.000000	66.958700
870.000000	66.867600
869.000000	66.795500
868.000000	66.729400
867.000000	66.616200
866.000000	66.526300
865.000000	66.409100
864.000000	66.273900
863.000000	66.087200
862.000000	65.905900
861.000000	65.689500
860.000000	65.512900
859.000000	65.423700
858.000000	63.602974
857.000000	64.177848
856.000000	64.078960
855.000000	63.976477
854.000000	63.963654
853.000000	64.108781
852.000000	63.724981
851.000000	63.583837
850.000000	63.698268
849.000000	63.476206
848.000000	63.346233
847.000000	63.268618
846.000000	63.250161
845.000000	63.153021
844.000000	62.937079
843.000000	62.937954
842.000000	62.725023
841.000000	62.511703
840.000000	62.547451
839.000000	62.767181
838.000000	62.645659
837.000000	62.602723
836.000000	62.285562
835.000000	62.228249
834.000000	62.060391
833.000000	61.905744
832.000000	61.921967
831.000000	61.833861
830.000000	61.598296
829.000000	61.556138
828.000000	61.473083
827.000000	61.112305
826.000000	61.062958
825.000000	60.983497
824.000000	60.872272
823.000000	60.687609
822.000000	60.503820
821.000000	60.330134
820.000000	60.246108
819.000000	60.140808
818.000000	59.911267
817.000000	59.749820
816.000000	59.632961
815.000000	59.499102
814.000000	59.268200
813.000000	59.171934
812.000000	59.006408
811.000000	58.813974
810.000000	58.753844
809.000000	58.718194
808.000000	58.590066
807.000000	58.462230
806.000000	58.368393
805.000000	58.194512
804.000000	58.121948
803.000000	57.890561
802.000000	57.847625
801.000000	57.727463
800.000000	57.645185
799.000000	57.426232
798.000000	57.369017
797.000000	57.256723
796.000000	57.015816
795.000000	56.961223
794.000000	56.852426
793.000000	56.782680
792.000000	56.731196
791.000000	56.649987
790.000000	56.556732
789.000000	56.339042
788.000000	56.182355
787.000000	56.092015
786.000000	55.926100
785.000000	55.800012
784.000000	55.680044
783.000000	55.595047
782.000000	55.475176
781.000000	55.332283
780.000000	55.059805
779.000000	54.950717
778.000000	54.839978
777.000000	54.686788
776.000000	54.509605
775.000000	54.370112
774.000000	54.282783
773.000000	54.131342
772.000000	53.960667
771.000000	53.824865
770.000000	53.659144
769.000000	53.533251
768.000000	53.389192
767.000000	53.288944
766.000000	53.185490
765.000000	53.071739
764.000000	52.987616
763.000000	52.852688
762.000000	52.663557
761.000000	52.571177
760.000000	52.427410
759.000000	52.272277
758.000000	52.115202
757.000000	51.942973
756.000000	51.827667
755.000000	51.673215
754.000000	51.468055
753.000000	51.320014
752.000000	51.193829
751.000000	51.058125
750.000000	50.904061
749.000000	50.737174
748.000000	50.571065
747.000000	50.412727
746.000000	50.247589
745.000000	50.048258
744.000000	49.879428
743.000000	49.718662
742.000000	49.507868
741.000000	49.326896
740.000000	49.168461
739.000000	48.997883
738.000000	48.842945
737.000000	48.735702
736.000000	48.598444
735.000000	48.391050
734.000000	48.264185
733.000000	48.113327
732.000000	47.897190
731.000000	47.750800
730.000000	47.638021
729.000000	47.459672
728.000000	47.268889
727.000000	47.135516
726.000000	46.990874
725.000000	46.815925
724.000000	46.679541
723.000000	46.548110
722.000000	46.347225
721.000000	46.114866
720.000000	45.991596
719.000000	45.795664
718.000000	45.606241
717.000000	45.489965
716.000000	45.299473
715.000000	45.092371
714.000000	44.926456
713.000000	44.757335
712.000000	44.574129
711.000000	44.375575
710.000000	44.201403
709.000000	44.040442
708.000000	43.906486
707.000000	43.727846
706.000000	43.556102
705.000000	43.399513
704.000000	43.219512
703.000000	42.992496
702.000000	42.836392
701.000000	42.709236
700.000000	42.527196
699.000000	42.332236
698.000000	42.147573
697.000000	41.966698
696.000000	41.850713
695.000000	41.665856
694.000000	41.492655
693.000000	41.330723
692.000000	41.236303
691.000000	41.149945
690.000000	41.067862
689.000000	40.962951
688.000000	40.839778
687.000000	40.798105
686.000000	40.799659
685.000000	40.733118
684.000000	40.720975
683.000000	40.682994
682.000000	40.634521
681.000000	40.605087
680.000000	40.592168
679.000000	40.594693
678.000000	40.603436
677.000000	40.553506
676.000000	40.543889
675.000000	40.515622
674.000000	40.437132
673.000000	40.393419
672.000000	40.303371
671.000000	40.243921
670.000000	40.139204
669.000000	40.032447
668.000000	39.899851
667.000000	39.789889
666.000000	39.644373
665.000000	39.498080
664.000000	39.347708
663.000000	39.184415
662.000000	39.017529
661.000000	38.802753
660.000000	38.594484
659.000000	38.383885
658.000000	38.162892
657.000000	37.949184
656.000000	37.696814
655.000000	37.466204
654.000000	37.217817
653.000000	36.985264
652.000000	36.746785
651.000000	36.486644
650.000000	36.278765
649.000000	36.090411
648.000000	35.899628
647.000000	35.756735
646.000000	35.656972
645.000000	35.551867
644.000000	35.510582
643.000000	35.517479
642.000000	35.556238
641.000000	35.599368
640.000000	35.739930
639.000000	35.936638
638.000000	36.150152
637.000000	36.395624
636.000000	36.690735
635.000000	37.019651
634.000000	37.365567
633.000000	37.808331
632.000000	38.234095
631.000000	38.702698
630.000000	39.162948
629.000000	39.697994
628.000000	40.180100
627.000000	40.724861
626.000000	41.230183
625.000000	41.768047
624.000000	42.318734
623.000000	42.828815
622.000000	43.339772
621.000000	43.865979
620.000000	44.367512
619.000000	44.867103
618.000000	45.322204
617.000000	45.766911
616.000000	46.213463
615.000000	46.616788
614.000000	47.044496
613.000000	47.400805
612.000000	47.781691
611.000000	48.113229
610.000000	48.438843
609.000000	48.737645
608.000000	49.048202
607.000000	49.279006
606.000000	49.547404
605.000000	49.768883
604.000000	49.971226
603.000000	50.190859
602.000000	50.369014
601.000000	50.586607
600.000000	50.752717
599.000000	50.944762
598.000000	51.106792
597.000000	51.324385
596.000000	51.481461
595.000000	51.663598
594.000000	51.840781
593.000000	52.030301
592.000000	52.191262
591.000000	52.381171
590.000000	52.552040
589.000000	52.679682
588.000000	52.854534
587.000000	52.970033
586.000000	53.058528
585.000000	53.145468
584.000000	53.248922
583.000000	53.302932
582.000000	53.342274
581.000000	53.354222
580.000000	53.371999
579.000000	53.376953
578.000000	53.343828
577.000000	53.278938
576.000000	53.265145
575.000000	53.213466
574.000000	53.143525
573.000000	53.085727
572.000000	53.039683
571.000000	52.951674
570.000000	52.866871
569.000000	52.779250
568.000000	52.672299
567.000000	52.578754
566.000000	52.433141
565.000000	52.262466
564.000000	52.093248
563.000000	51.899940
562.000000	51.685649
561.000000	51.454067
560.000000	51.160316
559.000000	50.802161
558.000000	50.495198
557.000000	50.203876
556.000000	49.845818
555.000000	49.573243
554.000000	49.222859
553.000000	48.872087
552.000000	48.505383
551.000000	48.148394
550.000000	47.757503
549.000000	47.353886
548.000000	46.948424
547.000000	46.473604
546.000000	45.988876
545.000000	45.455869
544.000000	44.890708
543.000000	44.274161
542.000000	43.643625
541.000000	42.926538
540.000000	42.178561
539.000000	41.407269
538.000000	40.619464
537.000000	39.816311
536.000000	38.984696
535.000000	38.139481
534.000000	37.279501
533.000000	36.379888
532.000000	35.489600
531.000000	34.566284
530.000000	33.674540
529.000000	32.809800
528.000000	31.965265
527.000000	31.189894
526.000000	30.429871
525.000000	29.727354
524.000000	29.074768
523.000000	28.426067
522.000000	27.833319
521.000000	27.272725
520.000000	26.729712
519.000000	26.221767
518.000000	25.752873
517.000000	25.322251
516.000000	24.912515
515.000000	24.509481
514.000000	24.129373
513.000000	23.749944
512.000000	23.370029
511.000000	23.008572
510.000000	22.638468
509.000000	22.276331
508.000000	21.939255
507.000000	21.611310
506.000000	21.286669
505.000000	20.957558
504.000000	20.622134
503.000000	20.296715
502.000000	19.980428
501.000000	19.646266
500.000000	19.347269
499.000000	19.049147
498.000000	18.756561
497.000000	18.487289
496.000000	18.208303
495.000000	17.950494
494.000000	17.683359
493.000000	17.408938
492.000000	17.160843
491.000000	16.930427
490.000000	16.701662
489.000000	16.485915
488.000000	16.308343
487.000000	16.128537
486.000000	15.964564
485.000000	15.822254
484.000000	15.700344
483.000000	15.576005
482.000000	15.470899
481.000000	15.379296
480.000000	15.294201
479.000000	15.226398
478.000000	15.183559
477.000000	15.144800
476.000000	15.102447
475.000000	15.082922
474.000000	15.065923
473.000000	15.051837
472.000000	15.029689
471.000000	14.997827
470.000000	14.960914
469.000000	14.930704
468.000000	14.889322
467.000000	14.842404
466.000000	14.797622
465.000000	14.734190
464.000000	14.663472
463.000000	14.578377
462.000000	14.494642
461.000000	14.419845
460.000000	14.342618
459.000000	14.242079
458.000000	14.140179
457.000000	14.033908
456.000000	13.944733
455.000000	13.852062
454.000000	13.719271
453.000000	13.589104
452.000000	13.474964
451.000000	13.343922
450.000000	13.197921
449.000000	13.057845
448.000000	12.919712
447.000000	12.757683
446.000000	12.582442
445.000000	12.406036
444.000000	12.223704
443.000000	12.046230
442.000000	11.875652
441.000000	11.700994
440.000000	11.514680
439.000000	11.321468
438.000000	11.136902
437.000000	10.962148
436.000000	10.773696
435.000000	10.593016
434.000000	10.413210
433.000000	10.219513
432.000000	10.035821
431.000000	9.851352
430.000000	9.662998
429.000000	9.467164
428.000000	9.275507
427.000000	9.087832
426.000000	8.905209
425.000000	8.735603
424.000000	8.549191
423.000000	8.372299
422.000000	8.203956
421.000000	8.027355
420.000000	7.863966
419.000000	7.711359
418.000000	7.560306
417.000000	7.403328
416.000000	7.242076
415.000000	7.088497
414.000000	6.944925
413.000000	6.813883
412.000000	6.682841
411.000000	6.555199
410.000000	6.426003
409.000000	6.304869
408.000000	6.200055
407.000000	6.092910
406.000000	5.999656
405.000000	5.914658
404.000000	5.835295
403.000000	5.771085
402.000000	5.686865
401.000000	5.618284
400.000000	5.563400
399.000000	5.520076
398.000000	5.455769
397.000000	5.405159
396.000000	5.367663
395.000000	5.322104
394.000000	5.282568
393.000000	5.252746
392.000000	5.229238
391.000000	5.210296
390.000000	5.189120
389.000000	5.150069
388.000000	5.138413
387.000000	5.119859
386.000000	5.090231
385.000000	5.087803
384.000000	5.062838
383.000000	5.046713
382.000000	5.035541
381.000000	5.019999
380.000000	5.007371
379.000000	5.014851
378.000000	5.005622
377.000000	4.985903
376.000000	5.038553
375.000000	5.095477
374.000000	5.085180
373.000000	5.032239
372.000000	5.094020
371.000000	5.087511
370.000000	5.048461
369.000000	5.087706
368.000000	5.068763
367.000000	5.040398
366.000000	5.020388
365.000000	5.028450
364.000000	5.036901
363.000000	5.043507
362.000000	5.031364
361.000000	4.971332
360.000000	5.012714
359.000000	4.966961
358.000000	5.026313
357.000000	5.003485
356.000000	4.965212
355.000000	4.985611
354.000000	4.951904
353.000000	5.000280
352.000000	4.987554
351.000000	4.997365
350.000000	4.977549
349.000000	4.944036
348.000000	4.965989
347.000000	4.983572
346.000000	5.011742
345.000000	4.887694
344.000000	4.979395
343.000000	4.960064
342.000000	4.995617
341.000000	5.001251
340.000000	4.956178
339.000000	5.010285
338.000000	4.968515
337.000000	5.013685
336.000000	5.037096
335.000000	4.952875
334.000000	4.954624
333.000000	4.955207
332.000000	4.934807
331.000000	5.011742
330.000000	4.934710
329.000000	5.045644
328.000000	4.976286
327.000000	5.002028
326.000000	4.904791
325.000000	5.029713
324.000000	5.025050
323.000000	4.924899
322.000000	4.951418
321.000000	4.916545
320.000000	5.082946
319.000000	4.992411
318.000000	5.056427
317.000000	5.156966
316.000000	4.994063
315.000000	4.963658
314.000000	4.948698
313.000000	4.963755
312.000000	4.971332
311.000000	4.955984
310.000000	4.997463
309.000000	4.978715
308.000000	4.974149
307.000000	4.999988
306.000000	4.979395
305.000000	4.967349
304.000000	4.990566
303.000000	5.037970
302.000000	5.045741
301.000000	5.011159
300.000000	4.992994
299.000000	4.999697
298.000000	5.043507
297.000000	5.031073
296.000000	5.039427
295.000000	5.023399
294.000000	5.045547
293.000000	5.087414
292.000000	5.071386
291.000000	5.042535
290.000000	5.085277
289.000000	5.092854
288.000000	5.115099
287.000000	5.098100
286.000000	5.123356
285.000000	5.107036
284.000000	5.149292
283.000000	5.147641
282.000000	5.109951
281.000000	5.117236
280.000000	5.153275
279.000000	5.154926
278.000000	5.172314
277.000000	5.196891
276.000000	5.183291
275.000000	5.223702
274.000000	5.214085
273.000000	5.246918
272.000000	5.248084
271.000000	5.281111
270.000000	5.243032
269.000000	5.285774
268.000000	5.307048
267.000000	5.292282
266.000000	5.314819
265.000000	5.355618
264.000000	5.358629
263.000000	5.398942
262.000000	5.396611
261.000000	5.408170
260.000000	5.421770
259.000000	5.451592
258.000000	5.491322
257.000000	5.450718
256.000000	5.464414
255.000000	5.512887
254.000000	5.495693
253.000000	5.480637
252.000000	5.531829
251.000000	5.542709
250.000000	5.566217
