PE UV       SUBTECH     SPECTRUM    ASCII       PEDS        4.00        
   -1
CICIMAUCR0251-3.ASC
24/05/30
14:00:00.00
24/05/30
14:00:00.00
Vinicio Soto Monge
C. resplendens, F Ventral
250,000000
1
Lambda 1050
1050L1511233
PerkinElmer UV WinLab 6.3.2.0749 / 2.02.05 Lambda 900 UV/VIS/NIR, Aug  7 2015 09:38:08

0
0
3350/servo 860,8/2
0
0
UV/VIS
1
1
1
DoubleDePol,CommonBeamDepol,RBeamAtt,SBeamAtt,60mm sphere, WB InGaAs Detector
0
0
0
0
Program
Program
3350/servo 860,8/2
3350/0,2 860,8/0,2
3350/0,2 860,8/0,2
0
15.00
 
 
 
0
 
860,8
319,2
860,8
Front
100
on
S:100 R:100
0
0
0
0
 
0
 
 
 
0
 
 
0
0
0
0
0
 
 
 
 
0
0


0
0
#HDR
-1
-1
#GR
nm
%R
1.0
0.0
2500,000000
-1,000000
2251
8
60,560100
3,798400
#DATA
250.000000	4.323333
251.000000	4.318333
252.000000	4.303867
253.000000	4.302033
254.000000	4.329200
255.000000	4.303533
256.000000	4.296500
257.000000	4.263400
258.000000	4.268233
259.000000	4.261033
260.000000	4.243733
261.000000	4.224300
262.000000	4.209867
263.000000	4.198467
264.000000	4.188967
265.000000	4.170267
266.000000	4.167367
267.000000	4.146567
268.000000	4.126300
269.000000	4.116367
270.000000	4.106333
271.000000	4.115000
272.000000	4.117533
273.000000	4.104300
274.000000	4.098700
275.000000	4.091433
276.000000	4.077067
277.000000	4.070333
278.000000	4.073533
279.000000	4.071433
280.000000	4.060000
281.000000	4.038867
282.000000	4.034800
283.000000	4.032233
284.000000	4.026100
285.000000	4.014933
286.000000	4.011800
287.000000	4.009633
288.000000	4.012133
289.000000	4.010833
290.000000	4.012067
291.000000	3.984067
292.000000	3.973800
293.000000	3.977233
294.000000	3.961500
295.000000	3.957567
296.000000	3.963167
297.000000	3.935267
298.000000	3.918833
299.000000	3.930900
300.000000	3.926933
301.000000	3.914467
302.000000	3.906867
303.000000	3.905500
304.000000	3.899800
305.000000	3.899733
306.000000	3.885200
307.000000	3.874300
308.000000	3.879400
309.000000	3.875067
310.000000	3.884300
311.000000	3.876833
312.000000	3.860167
313.000000	3.849333
314.000000	3.840033
315.000000	3.843100
316.000000	4.117533
317.000000	4.601600
318.000000	4.446567
319.000000	4.266833
320.000000	4.428633
321.000000	4.324300
322.000000	4.348167
323.000000	4.349167
324.000000	4.219167
325.000000	4.050100
326.000000	4.047233
327.000000	4.168433
328.000000	4.237633
329.000000	4.107833
330.000000	4.017033
331.000000	3.939633
332.000000	3.964167
333.000000	4.015900
334.000000	3.987867
335.000000	3.933067
336.000000	3.860067
337.000000	3.824033
338.000000	3.897800
339.000000	3.998467
340.000000	4.010033
341.000000	3.935467
342.000000	3.905967
343.000000	3.916667
344.000000	3.900100
345.000000	3.864933
346.000000	3.852300
347.000000	3.931433
348.000000	3.974033
349.000000	3.981567
350.000000	3.913433
351.000000	3.948433
352.000000	3.891967
353.000000	3.838767
354.000000	3.861467
355.000000	3.819367
356.000000	3.819800
357.000000	3.848567
358.000000	3.803200
359.000000	3.819933
360.000000	3.865200
361.000000	3.841567
362.000000	3.817200
363.000000	3.755300
364.000000	3.785933
365.000000	3.773867
366.000000	3.796900
367.000000	3.851500
368.000000	3.797833
369.000000	3.726467
370.000000	3.739700
371.000000	3.727600
372.000000	3.744433
373.000000	3.674567
374.000000	3.683200
375.000000	3.901800
376.000000	3.996700
377.000000	4.006700
378.000000	4.017733
379.000000	4.024333
380.000000	4.037067
381.000000	4.062367
382.000000	4.080667
383.000000	4.094700
384.000000	4.123867
385.000000	4.154233
386.000000	4.168767
387.000000	4.197400
388.000000	4.228800
389.000000	4.258333
390.000000	4.289000
391.000000	4.324767
392.000000	4.350733
393.000000	4.377033
394.000000	4.427233
395.000000	4.452500
396.000000	4.485533
397.000000	4.528200
398.000000	4.571533
399.000000	4.604367
400.000000	4.643533
401.000000	4.679200
402.000000	4.731500
403.000000	4.782267
404.000000	4.837567
405.000000	4.880267
406.000000	4.926400
407.000000	4.981967
408.000000	5.030600
409.000000	5.074467
410.000000	5.123033
411.000000	5.184000
412.000000	5.243800
413.000000	5.303567
414.000000	5.359200
415.000000	5.412567
416.000000	5.467233
417.000000	5.533367
418.000000	5.608867
419.000000	5.668567
420.000000	5.725067
421.000000	5.798533
422.000000	5.858800
423.000000	5.927900
424.000000	5.991100
425.000000	6.058333
426.000000	6.132267
427.000000	6.201767
428.000000	6.261700
429.000000	6.337067
430.000000	6.413233
431.000000	6.493067
432.000000	6.557333
433.000000	6.628833
434.000000	6.709200
435.000000	6.780133
436.000000	6.859567
437.000000	6.932000
438.000000	7.010800
439.000000	7.090233
440.000000	7.163467
441.000000	7.236233
442.000000	7.320533
443.000000	7.399500
444.000000	7.475700
445.000000	7.543267
446.000000	7.626700
447.000000	7.691033
448.000000	7.761367
449.000000	7.836600
450.000000	7.907533
451.000000	7.975900
452.000000	8.056933
453.000000	8.125000
454.000000	8.187633
455.000000	8.264033
456.000000	8.320833
457.000000	8.397167
458.000000	8.460500
459.000000	8.517267
460.000000	8.594933
461.000000	8.670500
462.000000	8.737100
463.000000	8.816700
464.000000	8.876800
465.000000	8.952833
466.000000	9.010667
467.000000	9.084733
468.000000	9.157533
469.000000	9.233600
470.000000	9.319633
471.000000	9.393000
472.000000	9.461000
473.000000	9.549800
474.000000	9.636367
475.000000	9.712933
476.000000	9.798300
477.000000	9.882967
478.000000	9.963700
479.000000	10.064233
480.000000	10.152667
481.000000	10.242267
482.000000	10.327067
483.000000	10.417467
484.000000	10.495233
485.000000	10.575333
486.000000	10.659000
487.000000	10.738600
488.000000	10.818233
489.000000	10.906900
490.000000	11.003867
491.000000	11.087800
492.000000	11.190433
493.000000	11.296133
494.000000	11.393100
495.000000	11.507433
496.000000	11.633600
497.000000	11.746500
498.000000	11.861533
499.000000	12.009033
500.000000	12.130567
501.000000	12.294133
502.000000	12.429467
503.000000	12.596767
504.000000	12.756633
505.000000	12.929900
506.000000	13.098900
507.000000	13.277933
508.000000	13.475300
509.000000	13.673267
510.000000	13.883367
511.000000	14.080933
512.000000	14.292500
513.000000	14.530600
514.000000	14.760967
515.000000	15.000300
516.000000	15.248033
517.000000	15.498633
518.000000	15.754800
519.000000	16.016767
520.000000	16.259833
521.000000	16.517967
522.000000	16.798933
523.000000	17.072233
524.000000	17.345033
525.000000	17.628033
526.000000	17.891333
527.000000	18.161033
528.000000	18.422733
529.000000	18.693633
530.000000	18.958300
531.000000	19.215833
532.000000	19.501900
533.000000	19.758033
534.000000	20.019533
535.000000	20.279000
536.000000	20.531433
537.000000	20.768967
538.000000	20.997800
539.000000	21.232567
540.000000	21.465400
541.000000	21.687800
542.000000	21.912167
543.000000	22.123500
544.000000	22.338600
545.000000	22.538967
546.000000	22.722667
547.000000	22.895667
548.000000	23.070233
549.000000	23.231900
550.000000	23.399600
551.000000	23.553533
552.000000	23.692100
553.000000	23.836833
554.000000	23.968000
555.000000	24.080267
556.000000	24.194700
557.000000	24.277900
558.000000	24.374333
559.000000	24.442367
560.000000	24.480200
561.000000	24.564867
562.000000	24.624400
563.000000	24.693367
564.000000	24.744800
565.000000	24.785433
566.000000	24.833933
567.000000	24.868533
568.000000	24.904633
569.000000	24.929167
570.000000	24.940933
571.000000	24.959900
572.000000	24.971867
573.000000	24.969833
574.000000	24.970967
575.000000	24.972400
576.000000	24.957867
577.000000	24.931733
578.000000	24.906500
579.000000	24.884600
580.000000	24.848567
581.000000	24.806400
582.000000	24.773367
583.000000	24.733433
584.000000	24.678633
585.000000	24.610000
586.000000	24.540633
587.000000	24.472067
588.000000	24.402333
589.000000	24.328633
590.000000	24.247900
591.000000	24.161933
592.000000	24.068800
593.000000	23.995233
594.000000	23.910100
595.000000	23.804467
596.000000	23.699500
597.000000	23.604833
598.000000	23.500133
599.000000	23.401700
600.000000	23.302067
601.000000	23.204400
602.000000	23.101100
603.000000	23.004933
604.000000	22.917133
605.000000	22.827200
606.000000	22.733600
607.000000	22.648600
608.000000	22.570433
609.000000	22.482267
610.000000	22.404533
611.000000	22.338500
612.000000	22.274500
613.000000	22.211000
614.000000	22.155000
615.000000	22.110800
616.000000	22.067233
617.000000	22.029433
618.000000	21.992667
619.000000	21.957700
620.000000	21.922067
621.000000	21.894733
622.000000	21.878033
623.000000	21.869100
624.000000	21.855100
625.000000	21.846433
626.000000	21.839633
627.000000	21.834333
628.000000	21.833767
629.000000	21.848533
630.000000	21.849433
631.000000	21.866400
632.000000	21.884367
633.000000	21.901700
634.000000	21.933667
635.000000	21.943800
636.000000	21.968567
637.000000	22.000833
638.000000	22.034233
639.000000	22.069333
640.000000	22.101200
641.000000	22.139133
642.000000	22.179600
643.000000	22.226533
644.000000	22.281100
645.000000	22.343067
646.000000	22.394133
647.000000	22.456267
648.000000	22.511233
649.000000	22.559467
650.000000	22.621333
651.000000	22.696133
652.000000	22.774867
653.000000	22.832833
654.000000	22.916167
655.000000	23.012833
656.000000	23.092700
657.000000	23.180300
658.000000	23.274200
659.000000	23.372733
660.000000	23.463533
661.000000	23.553267
662.000000	23.664800
663.000000	23.772567
664.000000	23.859967
665.000000	23.965867
666.000000	24.084533
667.000000	24.199533
668.000000	24.300333
669.000000	24.427333
670.000000	24.552533
671.000000	24.679000
672.000000	24.814300
673.000000	24.949133
674.000000	25.092567
675.000000	25.235133
676.000000	25.371533
677.000000	25.506167
678.000000	25.644500
679.000000	25.779400
680.000000	25.922267
681.000000	26.059067
682.000000	26.208600
683.000000	26.366433
684.000000	26.523333
685.000000	26.689033
686.000000	26.846367
687.000000	27.018033
688.000000	27.191033
689.000000	27.356867
690.000000	27.538733
691.000000	27.722667
692.000000	27.905333
693.000000	28.079300
694.000000	28.267200
695.000000	28.456867
696.000000	28.628333
697.000000	28.828400
698.000000	29.006500
699.000000	29.187433
700.000000	29.378800
701.000000	29.596233
702.000000	29.803267
703.000000	30.011367
704.000000	30.198533
705.000000	30.412633
706.000000	30.621167
707.000000	30.829167
708.000000	31.048933
709.000000	31.277767
710.000000	31.480667
711.000000	31.694467
712.000000	31.931767
713.000000	32.143467
714.000000	32.372200
715.000000	32.594500
716.000000	32.817700
717.000000	33.007400
718.000000	33.253833
719.000000	33.470033
720.000000	33.724933
721.000000	33.935633
722.000000	34.177367
723.000000	34.392667
724.000000	34.612833
725.000000	34.830900
726.000000	35.073467
727.000000	35.316800
728.000000	35.531367
729.000000	35.755133
730.000000	35.968533
731.000000	36.193133
732.000000	36.412067
733.000000	36.611200
734.000000	36.816300
735.000000	36.991667
736.000000	37.203633
737.000000	37.438867
738.000000	37.621267
739.000000	37.824833
740.000000	38.012933
741.000000	38.219133
742.000000	38.355233
743.000000	38.598200
744.000000	38.769700
745.000000	38.963467
746.000000	39.164767
747.000000	39.382100
748.000000	39.546200
749.000000	39.673833
750.000000	39.935333
751.000000	40.044467
752.000000	40.216200
753.000000	40.364500
754.000000	40.577967
755.000000	40.685567
756.000000	40.854867
757.000000	41.030333
758.000000	41.213433
759.000000	41.380367
760.000000	41.477233
761.000000	41.620700
762.000000	41.812900
763.000000	41.980433
764.000000	42.117600
765.000000	42.249467
766.000000	42.412100
767.000000	42.522400
768.000000	42.706733
769.000000	42.845067
770.000000	42.965900
771.000000	43.113533
772.000000	43.283867
773.000000	43.366600
774.000000	43.472900
775.000000	43.623067
776.000000	43.778267
777.000000	43.894067
778.000000	43.970600
779.000000	44.196600
780.000000	44.290533
781.000000	44.373900
782.000000	44.487933
783.000000	44.661733
784.000000	44.789067
785.000000	44.954933
786.000000	45.095567
787.000000	45.194400
788.000000	45.266733
789.000000	45.390500
790.000000	45.635000
791.000000	45.660433
792.000000	45.739100
793.000000	45.771067
794.000000	45.981267
795.000000	46.076500
796.000000	46.221433
797.000000	46.233900
798.000000	46.359000
799.000000	46.496600
800.000000	46.619433
801.000000	46.659600
802.000000	46.798533
803.000000	46.830800
804.000000	46.958233
805.000000	47.066600
806.000000	47.133400
807.000000	47.289933
808.000000	47.307200
809.000000	47.454633
810.000000	47.492233
811.000000	47.554067
812.000000	47.761300
813.000000	47.775000
814.000000	47.905567
815.000000	47.931667
816.000000	48.030300
817.000000	48.147933
818.000000	48.248867
819.000000	48.336933
820.000000	48.462267
821.000000	48.465100
822.000000	48.674800
823.000000	48.678833
824.000000	48.789300
825.000000	48.828433
826.000000	48.934767
827.000000	48.944700
828.000000	48.968333
829.000000	49.051467
830.000000	49.219600
831.000000	49.320867
832.000000	49.236233
833.000000	49.447933
834.000000	49.354533
835.000000	49.320700
836.000000	49.489100
837.000000	49.482500
838.000000	49.567500
839.000000	49.611533
840.000000	49.602567
841.000000	49.580600
842.000000	49.725300
843.000000	49.918067
844.000000	49.854400
845.000000	50.105367
846.000000	49.998433
847.000000	49.859500
848.000000	49.937700
849.000000	49.960967
850.000000	49.932267
851.000000	50.079567
852.000000	50.273300
853.000000	50.148100
854.000000	50.110433
855.000000	50.050500
856.000000	50.271600
857.000000	49.234833
858.000000	49.852311
859.000000	49.856927
860.000000	49.873149
861.000000	49.901401
862.000000	49.896857
863.000000	49.916433
864.000000	49.925435
865.000000	49.924105
866.000000	49.936182
867.000000	49.943115
868.000000	49.951690
869.000000	49.947766
870.000000	49.953824
871.000000	49.955664
872.000000	50.035429
873.000000	50.141743
874.000000	50.300794
875.000000	50.461149
876.000000	50.609702
877.000000	50.745248
878.000000	50.854533
879.000000	50.963798
880.000000	51.069277
881.000000	51.167825
882.000000	51.257823
883.000000	51.347485
884.000000	51.442870
885.000000	51.527192
886.000000	51.608371
887.000000	51.685162
888.000000	51.763897
889.000000	51.839981
890.000000	51.912435
891.000000	51.973756
892.000000	52.034129
893.000000	52.091585
894.000000	52.120824
895.000000	52.155413
896.000000	52.198505
897.000000	52.232551
898.000000	52.258117
899.000000	52.285145
900.000000	52.304136
901.000000	52.331800
902.000000	52.363255
903.000000	52.399832
904.000000	52.435028
905.000000	52.466868
906.000000	52.507825
907.000000	52.562546
908.000000	52.636491
909.000000	52.702679
910.000000	52.762824
911.000000	52.833994
912.000000	52.914155
913.000000	52.991649
914.000000	53.080122
915.000000	53.169063
916.000000	53.242654
917.000000	53.301261
918.000000	53.371754
919.000000	53.423113
920.000000	53.483543
921.000000	53.552913
922.000000	53.611490
923.000000	53.645329
924.000000	53.693475
925.000000	53.751717
926.000000	53.786534
927.000000	53.835881
928.000000	53.899774
929.000000	53.933680
930.000000	53.958346
931.000000	54.001196
932.000000	54.039663
933.000000	54.068046
934.000000	54.096007
935.000000	54.116213
936.000000	54.140435
937.000000	54.167553
938.000000	54.205871
939.000000	54.234566
940.000000	54.261651
941.000000	54.294735
942.000000	54.321348
943.000000	54.345761
944.000000	54.374646
945.000000	54.398586
946.000000	54.402644
947.000000	54.400399
948.000000	54.405655
949.000000	54.425556
950.000000	54.426391
951.000000	54.405555
952.000000	54.397894
953.000000	54.392972
954.000000	54.386958
955.000000	54.384716
956.000000	54.373547
957.000000	54.350062
958.000000	54.326640
959.000000	54.308836
960.000000	54.293604
961.000000	54.273528
962.000000	54.243172
963.000000	54.219674
964.000000	54.198719
965.000000	54.187690
966.000000	54.189616
967.000000	54.184518
968.000000	54.176104
969.000000	54.172204
970.000000	54.168302
971.000000	54.171958
972.000000	54.165190
973.000000	54.154877
974.000000	54.152557
975.000000	54.139932
976.000000	54.135434
977.000000	54.129466
978.000000	54.119359
979.000000	54.115386
980.000000	54.112159
981.000000	54.108173
982.000000	54.097385
983.000000	54.087750
984.000000	54.090003
985.000000	54.091534
986.000000	54.090704
987.000000	54.090835
988.000000	54.096239
989.000000	54.095992
990.000000	54.096777
991.000000	54.116083
992.000000	54.121043
993.000000	54.139649
994.000000	54.153062
995.000000	54.172095
996.000000	54.189214
997.000000	54.201734
998.000000	54.222548
999.000000	54.241305
1000.000000	54.266448
1001.000000	54.295169
1002.000000	54.324232
1003.000000	54.344333
1004.000000	54.364690
1005.000000	54.390556
1006.000000	54.403875
1007.000000	54.418753
1008.000000	54.439323
1009.000000	54.477474
1010.000000	54.513261
1011.000000	54.552283
1012.000000	54.588854
1013.000000	54.657121
1014.000000	54.728926
1015.000000	54.810006
1016.000000	54.884418
1017.000000	54.964001
1018.000000	55.062933
1019.000000	55.156048
1020.000000	55.252350
1021.000000	55.364112
1022.000000	55.463591
1023.000000	55.574504
1024.000000	55.677785
1025.000000	55.775280
1026.000000	55.890783
1027.000000	56.008885
1028.000000	56.105037
1029.000000	56.201269
1030.000000	56.292990
1031.000000	56.383044
1032.000000	56.468045
1033.000000	56.571171
1034.000000	56.670376
1035.000000	56.755803
1036.000000	56.830783
1037.000000	56.911648
1038.000000	56.992097
1039.000000	57.062136
1040.000000	57.134876
1041.000000	57.204904
1042.000000	57.300312
1043.000000	57.358401
1044.000000	57.426922
1045.000000	57.500640
1046.000000	57.580788
1047.000000	57.654826
1048.000000	57.736978
1049.000000	57.813265
1050.000000	57.889955
1051.000000	57.970853
1052.000000	58.066750
1053.000000	58.162854
1054.000000	58.252987
1055.000000	58.339909
1056.000000	58.436726
1057.000000	58.534001
1058.000000	58.626978
1059.000000	58.715081
1060.000000	58.799023
1061.000000	58.892690
1062.000000	58.978357
1063.000000	59.059188
1064.000000	59.140563
1065.000000	59.227858
1066.000000	59.299771
1067.000000	59.390647
1068.000000	59.453399
1069.000000	59.539720
1070.000000	59.618069
1071.000000	59.685538
1072.000000	59.756068
1073.000000	59.834200
1074.000000	59.918194
1075.000000	59.988344
1076.000000	60.052276
1077.000000	60.113443
1078.000000	60.192109
1079.000000	60.258313
1080.000000	60.327842
1081.000000	60.410286
1082.000000	60.474720
1083.000000	60.561160
1084.000000	60.617851
1085.000000	60.687292
1086.000000	60.744526
1087.000000	60.827308
1088.000000	60.879807
1089.000000	60.942390
1090.000000	60.998575
1091.000000	61.047741
1092.000000	61.111534
1093.000000	61.151769
1094.000000	61.188952
1095.000000	61.216293
1096.000000	61.268111
1097.000000	61.301236
1098.000000	61.330069
1099.000000	61.357635
1100.000000	61.366214
1101.000000	61.400014
1102.000000	61.408642
1103.000000	61.418484
1104.000000	61.435877
1105.000000	61.455246
1106.000000	61.461877
1107.000000	61.469041
1108.000000	61.488090
1109.000000	61.499054
1110.000000	61.501241
1111.000000	61.506028
1112.000000	61.513322
1113.000000	61.510676
1114.000000	61.503874
1115.000000	61.503590
1116.000000	61.489056
1117.000000	61.475290
1118.000000	61.428995
1119.000000	61.390293
1120.000000	61.339824
1121.000000	61.249327
1122.000000	61.154307
1123.000000	61.040540
1124.000000	60.894292
1125.000000	60.734933
1126.000000	60.544992
1127.000000	60.325424
1128.000000	60.046095
1129.000000	59.691152
1130.000000	59.292226
1131.000000	58.841860
1132.000000	58.375290
1133.000000	57.872043
1134.000000	57.287757
1135.000000	56.657774
1136.000000	56.054586
1137.000000	55.479307
1138.000000	54.940993
1139.000000	54.416295
1140.000000	53.914891
1141.000000	53.416752
1142.000000	52.960027
1143.000000	52.531045
1144.000000	52.165778
1145.000000	51.842366
1146.000000	51.598293
1147.000000	51.423697
1148.000000	51.283467
1149.000000	51.171775
1150.000000	51.066038
1151.000000	50.926526
1152.000000	50.759291
1153.000000	50.544963
1154.000000	50.274820
1155.000000	49.954059
1156.000000	49.587810
1157.000000	49.167076
1158.000000	48.729173
1159.000000	48.260763
1160.000000	47.798981
1161.000000	47.343845
1162.000000	46.875433
1163.000000	46.400090
1164.000000	45.935875
1165.000000	45.483696
1166.000000	45.045561
1167.000000	44.615839
1168.000000	44.203691
1169.000000	43.802388
1170.000000	43.406784
1171.000000	43.009596
1172.000000	42.634334
1173.000000	42.271694
1174.000000	41.896443
1175.000000	41.522583
1176.000000	41.114688
1177.000000	40.656990
1178.000000	40.154317
1179.000000	39.605375
1180.000000	39.026951
1181.000000	38.480228
1182.000000	38.010935
1183.000000	37.659388
1184.000000	37.432362
1185.000000	37.342821
1186.000000	37.399777
1187.000000	37.593774
1188.000000	37.916897
1189.000000	38.312996
1190.000000	38.767521
1191.000000	39.248366
1192.000000	39.696359
1193.000000	40.070828
1194.000000	40.404691
1195.000000	40.676793
1196.000000	40.880516
1197.000000	41.038047
1198.000000	41.159870
1199.000000	41.249118
1200.000000	41.316771
1201.000000	41.361738
1202.000000	41.414746
1203.000000	41.463118
1204.000000	41.513976
1205.000000	41.585554
1206.000000	41.688828
1207.000000	41.806239
1208.000000	41.925104
1209.000000	42.063037
1210.000000	42.216517
1211.000000	42.376928
1212.000000	42.541412
1213.000000	42.709193
1214.000000	42.895828
1215.000000	43.085507
1216.000000	43.277884
1217.000000	43.486855
1218.000000	43.704632
1219.000000	43.924001
1220.000000	44.154660
1221.000000	44.390916
1222.000000	44.620496
1223.000000	44.862577
1224.000000	45.108044
1225.000000	45.348011
1226.000000	45.591063
1227.000000	45.824361
1228.000000	46.055552
1229.000000	46.284193
1230.000000	46.497023
1231.000000	46.716930
1232.000000	46.945416
1233.000000	47.159060
1234.000000	47.364768
1235.000000	47.559386
1236.000000	47.746532
1237.000000	47.933037
1238.000000	48.112707
1239.000000	48.291957
1240.000000	48.470162
1241.000000	48.635123
1242.000000	48.812310
1243.000000	48.991093
1244.000000	49.144220
1245.000000	49.288066
1246.000000	49.431327
1247.000000	49.563790
1248.000000	49.683613
1249.000000	49.799408
1250.000000	49.911011
1251.000000	50.013998
1252.000000	50.119968
1253.000000	50.216284
1254.000000	50.293221
1255.000000	50.378478
1256.000000	50.462802
1257.000000	50.527762
1258.000000	50.598077
1259.000000	50.664534
1260.000000	50.725018
1261.000000	50.789409
1262.000000	50.852274
1263.000000	50.910846
1264.000000	50.973517
1265.000000	51.029831
1266.000000	51.088208
1267.000000	51.142516
1268.000000	51.195235
1269.000000	51.237617
1270.000000	51.280963
1271.000000	51.328079
1272.000000	51.371792
1273.000000	51.420241
1274.000000	51.463417
1275.000000	51.525919
1276.000000	51.594704
1277.000000	51.654778
1278.000000	51.719089
1279.000000	51.783621
1280.000000	51.854068
1281.000000	51.929593
1282.000000	51.996295
1283.000000	52.051086
1284.000000	52.114275
1285.000000	52.189230
1286.000000	52.246207
1287.000000	52.292570
1288.000000	52.325362
1289.000000	52.342457
1290.000000	52.362518
1291.000000	52.373112
1292.000000	52.374784
1293.000000	52.366340
1294.000000	52.360848
1295.000000	52.338896
1296.000000	52.309734
1297.000000	52.273964
1298.000000	52.236204
1299.000000	52.195157
1300.000000	52.152716
1301.000000	52.101710
1302.000000	52.039124
1303.000000	51.970686
1304.000000	51.901030
1305.000000	51.808207
1306.000000	51.719721
1307.000000	51.612845
1308.000000	51.492207
1309.000000	51.371414
1310.000000	51.235573
1311.000000	51.082490
1312.000000	50.926920
1313.000000	50.778887
1314.000000	50.606390
1315.000000	50.432308
1316.000000	50.260220
1317.000000	50.053350
1318.000000	49.849630
1319.000000	49.655856
1320.000000	49.444685
1321.000000	49.228944
1322.000000	48.996080
1323.000000	48.760571
1324.000000	48.508277
1325.000000	48.256302
1326.000000	47.989255
1327.000000	47.712664
1328.000000	47.415883
1329.000000	47.121453
1330.000000	46.819328
1331.000000	46.492227
1332.000000	46.165274
1333.000000	45.825158
1334.000000	45.469300
1335.000000	45.113011
1336.000000	44.770437
1337.000000	44.398315
1338.000000	44.022758
1339.000000	43.642355
1340.000000	43.257896
1341.000000	42.861230
1342.000000	42.468838
1343.000000	42.073172
1344.000000	41.644847
1345.000000	41.217629
1346.000000	40.825576
1347.000000	40.337645
1348.000000	39.861222
1349.000000	39.355676
1350.000000	38.820469
1351.000000	38.251415
1352.000000	37.643172
1353.000000	37.179549
1354.000000	36.686202
1355.000000	36.269831
1356.000000	35.970377
1357.000000	35.780308
1358.000000	35.657335
1359.000000	35.546580
1360.000000	35.437220
1361.000000	35.239067
1362.000000	34.996728
1363.000000	34.793522
1364.000000	34.589816
1365.000000	34.331044
1366.000000	34.096881
1367.000000	33.801623
1368.000000	33.439703
1369.000000	33.100601
1370.000000	32.758498
1371.000000	32.317156
1372.000000	31.920486
1373.000000	31.580800
1374.000000	31.285364
1375.000000	31.016213
1376.000000	30.807436
1377.000000	30.553396
1378.000000	30.371065
1379.000000	30.090369
1380.000000	29.749131
1381.000000	29.287777
1382.000000	28.724477
1383.000000	28.109019
1384.000000	27.534236
1385.000000	27.010636
1386.000000	26.505072
1387.000000	26.037821
1388.000000	25.533310
1389.000000	25.109343
1390.000000	24.812237
1391.000000	24.450039
1392.000000	24.098772
1393.000000	23.811370
1394.000000	23.528845
1395.000000	23.184280
1396.000000	22.782749
1397.000000	22.447174
1398.000000	22.196471
1399.000000	21.910054
1400.000000	21.476297
1401.000000	21.027345
1402.000000	20.676036
1403.000000	20.323362
1404.000000	19.970067
1405.000000	19.562353
1406.000000	19.209400
1407.000000	18.886573
1408.000000	18.555351
1409.000000	18.226230
1410.000000	17.902041
1411.000000	17.643392
1412.000000	17.419972
1413.000000	17.186772
1414.000000	16.933045
1415.000000	16.712137
1416.000000	16.493513
1417.000000	16.318196
1418.000000	16.138147
1419.000000	15.938939
1420.000000	15.727539
1421.000000	15.557700
1422.000000	15.401758
1423.000000	15.230263
1424.000000	15.072292
1425.000000	14.916816
1426.000000	14.789094
1427.000000	14.654639
1428.000000	14.525806
1429.000000	14.405686
1430.000000	14.311551
1431.000000	14.195693
1432.000000	14.108762
1433.000000	14.011147
1434.000000	13.927994
1435.000000	13.835358
1436.000000	13.739440
1437.000000	13.660550
1438.000000	13.598795
1439.000000	13.500695
1440.000000	13.440534
1441.000000	13.363497
1442.000000	13.286566
1443.000000	13.222681
1444.000000	13.165068
1445.000000	13.099396
1446.000000	13.026286
1447.000000	12.959048
1448.000000	12.902721
1449.000000	12.858058
1450.000000	12.804322
1451.000000	12.743785
1452.000000	12.692696
1453.000000	12.643660
1454.000000	12.600463
1455.000000	12.553745
1456.000000	12.507815
1457.000000	12.474346
1458.000000	12.438187
1459.000000	12.399207
1460.000000	12.372842
1461.000000	12.339913
1462.000000	12.314703
1463.000000	12.291700
1464.000000	12.277536
1465.000000	12.254501
1466.000000	12.240024
1467.000000	12.228277
1468.000000	12.215550
1469.000000	12.211570
1470.000000	12.214374
1471.000000	12.204966
1472.000000	12.198096
1473.000000	12.187503
1474.000000	12.178460
1475.000000	12.169292
1476.000000	12.175298
1477.000000	12.176476
1478.000000	12.179230
1479.000000	12.180923
1480.000000	12.187419
1481.000000	12.197656
1482.000000	12.200158
1483.000000	12.205847
1484.000000	12.215899
1485.000000	12.231472
1486.000000	12.246723
1487.000000	12.267499
1488.000000	12.283793
1489.000000	12.295506
1490.000000	12.307938
1491.000000	12.323818
1492.000000	12.344320
1493.000000	12.369677
1494.000000	12.401990
1495.000000	12.418960
1496.000000	12.441395
1497.000000	12.477218
1498.000000	12.514396
1499.000000	12.543072
1500.000000	12.563812
1501.000000	12.597720
1502.000000	12.639755
1503.000000	12.670527
1504.000000	12.705647
1505.000000	12.741170
1506.000000	12.780172
1507.000000	12.830360
1508.000000	12.875466
1509.000000	12.913957
1510.000000	12.953330
1511.000000	12.988019
1512.000000	13.025366
1513.000000	13.073085
1514.000000	13.105707
1515.000000	13.140352
1516.000000	13.179978
1517.000000	13.213079
1518.000000	13.245231
1519.000000	13.280042
1520.000000	13.320949
1521.000000	13.357497
1522.000000	13.384170
1523.000000	13.410306
1524.000000	13.444030
1525.000000	13.478671
1526.000000	13.520780
1527.000000	13.548013
1528.000000	13.565507
1529.000000	13.586355
1530.000000	13.619182
1531.000000	13.654027
1532.000000	13.669605
1533.000000	13.681977
1534.000000	13.706162
1535.000000	13.733392
1536.000000	13.746536
1537.000000	13.758496
1538.000000	13.777326
1539.000000	13.803207
1540.000000	13.819450
1541.000000	13.830066
1542.000000	13.842095
1543.000000	13.867380
1544.000000	13.880293
1545.000000	13.900604
1546.000000	13.922270
1547.000000	13.944392
1548.000000	13.969315
1549.000000	14.000612
1550.000000	14.027549
1551.000000	14.042990
1552.000000	14.061264
1553.000000	14.089923
1554.000000	14.108717
1555.000000	14.122115
1556.000000	14.135918
1557.000000	14.141706
1558.000000	14.151808
1559.000000	14.157846
1560.000000	14.162090
1561.000000	14.168394
1562.000000	14.166794
1563.000000	14.159193
1564.000000	14.156556
1565.000000	14.155680
1566.000000	14.156255
1567.000000	14.137083
1568.000000	14.127719
1569.000000	14.133681
1570.000000	14.139825
1571.000000	14.146662
1572.000000	14.154254
1573.000000	14.169075
1574.000000	14.174635
1575.000000	14.176538
1576.000000	14.201193
1577.000000	14.219779
1578.000000	14.236776
1579.000000	14.250187
1580.000000	14.278076
1581.000000	14.292020
1582.000000	14.321196
1583.000000	14.362114
1584.000000	14.396957
1585.000000	14.422415
1586.000000	14.460722
1587.000000	14.513878
1588.000000	14.544784
1589.000000	14.585700
1590.000000	14.630410
1591.000000	14.670924
1592.000000	14.714026
1593.000000	14.758249
1594.000000	14.803248
1595.000000	14.844296
1596.000000	14.902734
1597.000000	14.950850
1598.000000	15.014025
1599.000000	15.063968
1600.000000	15.109898
1601.000000	15.170506
1602.000000	15.239338
1603.000000	15.287346
1604.000000	15.347334
1605.000000	15.400577
1606.000000	15.457546
1607.000000	15.508824
1608.000000	15.568219
1609.000000	15.620136
1610.000000	15.676170
1611.000000	15.733963
1612.000000	15.794115
1613.000000	15.847472
1614.000000	15.901505
1615.000000	15.973010
1616.000000	16.016328
1617.000000	16.067580
1618.000000	16.129687
1619.000000	16.189307
1620.000000	16.249462
1621.000000	16.308322
1622.000000	16.365601
1623.000000	16.424272
1624.000000	16.498594
1625.000000	16.570793
1626.000000	16.613344
1627.000000	16.709087
1628.000000	16.765415
1629.000000	16.828914
1630.000000	16.887633
1631.000000	16.948417
1632.000000	17.025962
1633.000000	17.077996
1634.000000	17.137489
1635.000000	17.178815
1636.000000	17.233547
1637.000000	17.294330
1638.000000	17.344799
1639.000000	17.390403
1640.000000	17.432140
1641.000000	17.484759
1642.000000	17.517974
1643.000000	17.572681
1644.000000	17.620880
1645.000000	17.652964
1646.000000	17.693108
1647.000000	17.721940
1648.000000	17.761419
1649.000000	17.786130
1650.000000	17.808369
1651.000000	17.829894
1652.000000	17.828691
1653.000000	17.845987
1654.000000	17.830389
1655.000000	17.829921
1656.000000	17.814830
1657.000000	17.795189
1658.000000	17.766413
1659.000000	17.719842
1660.000000	17.663930
1661.000000	17.621089
1662.000000	17.541153
1663.000000	17.478762
1664.000000	17.407989
1665.000000	17.326502
1666.000000	17.224065
1667.000000	17.121680
1668.000000	16.978687
1669.000000	16.823957
1670.000000	16.668934
1671.000000	16.497500
1672.000000	16.297148
1673.000000	16.063803
1674.000000	15.797844
1675.000000	15.502090
1676.000000	15.164041
1677.000000	14.794470
1678.000000	14.443745
1679.000000	14.088990
1680.000000	13.754920
1681.000000	13.477478
1682.000000	13.260511
1683.000000	13.111790
1684.000000	13.014734
1685.000000	12.973894
1686.000000	12.930971
1687.000000	12.881928
1688.000000	12.822634
1689.000000	12.752146
1690.000000	12.672431
1691.000000	12.583236
1692.000000	12.494901
1693.000000	12.428344
1694.000000	12.407487
1695.000000	12.433232
1696.000000	12.462206
1697.000000	12.532119
1698.000000	12.600107
1699.000000	12.694576
1700.000000	12.783093
1701.000000	12.859404
1702.000000	12.920119
1703.000000	12.965344
1704.000000	12.998042
1705.000000	13.028801
1706.000000	13.042231
1707.000000	13.060900
1708.000000	13.047248
1709.000000	13.039555
1710.000000	13.016919
1711.000000	12.977855
1712.000000	12.918878
1713.000000	12.861735
1714.000000	12.799828
1715.000000	12.737539
1716.000000	12.685235
1717.000000	12.637087
1718.000000	12.579941
1719.000000	12.548824
1720.000000	12.516795
1721.000000	12.481894
1722.000000	12.454308
1723.000000	12.417961
1724.000000	12.376034
1725.000000	12.324626
1726.000000	12.280831
1727.000000	12.224260
1728.000000	12.164457
1729.000000	12.108843
1730.000000	12.063007
1731.000000	12.040608
1732.000000	12.037897
1733.000000	12.053774
1734.000000	12.091408
1735.000000	12.152514
1736.000000	12.246474
1737.000000	12.361228
1738.000000	12.487837
1739.000000	12.630887
1740.000000	12.766927
1741.000000	12.900383
1742.000000	13.037062
1743.000000	13.139409
1744.000000	13.226418
1745.000000	13.303999
1746.000000	13.366244
1747.000000	13.408294
1748.000000	13.455281
1749.000000	13.490482
1750.000000	13.505631
1751.000000	13.514954
1752.000000	13.511002
1753.000000	13.496347
1754.000000	13.470411
1755.000000	13.431279
1756.000000	13.394785
1757.000000	13.351231
1758.000000	13.304727
1759.000000	13.263357
1760.000000	13.233115
1761.000000	13.207672
1762.000000	13.208226
1763.000000	13.218439
1764.000000	13.243766
1765.000000	13.290561
1766.000000	13.353889
1767.000000	13.420871
1768.000000	13.492316
1769.000000	13.567987
1770.000000	13.649174
1771.000000	13.732464
1772.000000	13.816096
1773.000000	13.890919
1774.000000	13.968269
1775.000000	14.043778
1776.000000	14.119098
1777.000000	14.195061
1778.000000	14.245373
1779.000000	14.286425
1780.000000	14.349316
1781.000000	14.412623
1782.000000	14.461650
1783.000000	14.508591
1784.000000	14.559918
1785.000000	14.611663
1786.000000	14.651174
1787.000000	14.703207
1788.000000	14.759387
1789.000000	14.793624
1790.000000	14.826398
1791.000000	14.867343
1792.000000	14.909046
1793.000000	14.944975
1794.000000	14.987111
1795.000000	15.028199
1796.000000	15.062467
1797.000000	15.096268
1798.000000	15.135166
1799.000000	15.182773
1800.000000	15.226946
1801.000000	15.256886
1802.000000	15.289380
1803.000000	15.328749
1804.000000	15.374290
1805.000000	15.417775
1806.000000	15.456795
1807.000000	15.491769
1808.000000	15.521571
1809.000000	15.552219
1810.000000	15.587541
1811.000000	15.610664
1812.000000	15.627255
1813.000000	15.641639
1814.000000	15.659638
1815.000000	15.668471
1816.000000	15.677837
1817.000000	15.697498
1818.000000	15.731616
1819.000000	15.767032
1820.000000	15.765650
1821.000000	15.754361
1822.000000	15.764026
1823.000000	15.811231
1824.000000	15.865901
1825.000000	15.922405
1826.000000	15.958916
1827.000000	15.998543
1828.000000	16.053727
1829.000000	16.103794
1830.000000	16.140172
1831.000000	16.177148
1832.000000	16.231188
1833.000000	16.301788
1834.000000	16.364868
1835.000000	16.403426
1836.000000	16.424738
1837.000000	16.441707
1838.000000	16.463264
1839.000000	16.491089
1840.000000	16.504177
1841.000000	16.492645
1842.000000	16.477247
1843.000000	16.512269
1844.000000	16.572047
1845.000000	16.621101
1846.000000	16.664308
1847.000000	16.654086
1848.000000	16.618501
1849.000000	16.612291
1850.000000	16.612348
1851.000000	16.635205
1852.000000	16.655979
1853.000000	16.650334
1854.000000	16.600398
1855.000000	16.560427
1856.000000	16.528140
1857.000000	16.479223
1858.000000	16.414956
1859.000000	16.306926
1860.000000	16.192037
1861.000000	16.072918
1862.000000	15.955171
1863.000000	15.877929
1864.000000	15.786634
1865.000000	15.670226
1866.000000	15.548204
1867.000000	15.394297
1868.000000	15.211451
1869.000000	14.965615
1870.000000	14.684526
1871.000000	14.402328
1872.000000	14.113903
1873.000000	13.791247
1874.000000	13.490667
1875.000000	13.191394
1876.000000	12.886379
1877.000000	12.590366
1878.000000	12.284314
1879.000000	11.982672
1880.000000	11.694584
1881.000000	11.389751
1882.000000	11.082411
1883.000000	10.786645
1884.000000	10.470429
1885.000000	10.195965
1886.000000	9.942717
1887.000000	9.729256
1888.000000	9.501125
1889.000000	9.304217
1890.000000	9.123763
1891.000000	8.908854
1892.000000	8.707566
1893.000000	8.529617
1894.000000	8.385265
1895.000000	8.255544
1896.000000	8.129615
1897.000000	7.996429
1898.000000	7.842658
1899.000000	7.711038
1900.000000	7.558985
1901.000000	7.413869
1902.000000	7.315525
1903.000000	7.213320
1904.000000	7.105344
1905.000000	6.991435
1906.000000	6.867299
1907.000000	6.776775
1908.000000	6.702678
1909.000000	6.643482
1910.000000	6.571028
1911.000000	6.518023
1912.000000	6.440141
1913.000000	6.353475
1914.000000	6.287621
1915.000000	6.230108
1916.000000	6.183648
1917.000000	6.124405
1918.000000	6.082670
1919.000000	6.055912
1920.000000	5.997793
1921.000000	5.934005
1922.000000	5.908551
1923.000000	5.872201
1924.000000	5.838021
1925.000000	5.814184
1926.000000	5.775111
1927.000000	5.765183
1928.000000	5.735189
1929.000000	5.706097
1930.000000	5.688775
1931.000000	5.688098
1932.000000	5.670125
1933.000000	5.650034
1934.000000	5.644826
1935.000000	5.654241
1936.000000	5.646971
1937.000000	5.644901
1938.000000	5.638769
1939.000000	5.646409
1940.000000	5.643759
1941.000000	5.652189
1942.000000	5.656051
1943.000000	5.675576
1944.000000	5.681342
1945.000000	5.699439
1946.000000	5.702426
1947.000000	5.716445
1948.000000	5.732290
1949.000000	5.739363
1950.000000	5.775422
1951.000000	5.778005
1952.000000	5.805290
1953.000000	5.815793
1954.000000	5.842820
1955.000000	5.862273
1956.000000	5.869037
1957.000000	5.894341
1958.000000	5.925286
1959.000000	5.942569
1960.000000	5.957391
1961.000000	5.988568
1962.000000	6.008799
1963.000000	6.023704
1964.000000	6.054520
1965.000000	6.070933
1966.000000	6.092137
1967.000000	6.114777
1968.000000	6.143084
1969.000000	6.160478
1970.000000	6.193581
1971.000000	6.210560
1972.000000	6.227552
1973.000000	6.271032
1974.000000	6.301078
1975.000000	6.322571
1976.000000	6.349731
1977.000000	6.377543
1978.000000	6.406803
1979.000000	6.433720
1980.000000	6.466209
1981.000000	6.489452
1982.000000	6.519372
1983.000000	6.552387
1984.000000	6.588296
1985.000000	6.603813
1986.000000	6.647795
1987.000000	6.666949
1988.000000	6.697889
1989.000000	6.718483
1990.000000	6.749469
1991.000000	6.778708
1992.000000	6.814089
1993.000000	6.837324
1994.000000	6.868873
1995.000000	6.882425
1996.000000	6.900556
1997.000000	6.938211
1998.000000	6.957228
1999.000000	6.971188
2000.000000	6.995671
2001.000000	7.021737
2002.000000	7.035721
2003.000000	7.040214
2004.000000	7.058250
2005.000000	7.082270
2006.000000	7.089233
2007.000000	7.094551
2008.000000	7.100393
2009.000000	7.114324
2010.000000	7.125401
2011.000000	7.119267
2012.000000	7.126708
2013.000000	7.136648
2014.000000	7.133902
2015.000000	7.124989
2016.000000	7.125450
2017.000000	7.122227
2018.000000	7.119443
2019.000000	7.113850
2020.000000	7.112454
2021.000000	7.098989
2022.000000	7.084971
2023.000000	7.065548
2024.000000	7.055140
2025.000000	7.045466
2026.000000	7.025703
2027.000000	7.006955
2028.000000	6.994754
2029.000000	6.975020
2030.000000	6.951566
2031.000000	6.927454
2032.000000	6.909010
2033.000000	6.884344
2034.000000	6.849676
2035.000000	6.818223
2036.000000	6.792257
2037.000000	6.755544
2038.000000	6.718290
2039.000000	6.677206
2040.000000	6.649934
2041.000000	6.611686
2042.000000	6.567528
2043.000000	6.535412
2044.000000	6.503252
2045.000000	6.466035
2046.000000	6.435619
2047.000000	6.407821
2048.000000	6.379013
2049.000000	6.351235
2050.000000	6.323950
2051.000000	6.307706
2052.000000	6.291550
2053.000000	6.281672
2054.000000	6.274873
2055.000000	6.263115
2056.000000	6.264470
2057.000000	6.284392
2058.000000	6.286908
2059.000000	6.286013
2060.000000	6.298546
2061.000000	6.322743
2062.000000	6.334317
2063.000000	6.348357
2064.000000	6.369435
2065.000000	6.389262
2066.000000	6.407189
2067.000000	6.421133
2068.000000	6.440395
2069.000000	6.464606
2070.000000	6.486584
2071.000000	6.497476
2072.000000	6.508671
2073.000000	6.534232
2074.000000	6.558044
2075.000000	6.579498
2076.000000	6.584886
2077.000000	6.600993
2078.000000	6.623047
2079.000000	6.617674
2080.000000	6.623635
2081.000000	6.640735
2082.000000	6.661403
2083.000000	6.673890
2084.000000	6.669925
2085.000000	6.672935
2086.000000	6.685223
2087.000000	6.691620
2088.000000	6.691202
2089.000000	6.695762
2090.000000	6.702189
2091.000000	6.703983
2092.000000	6.708341
2093.000000	6.711539
2094.000000	6.715290
2095.000000	6.727245
2096.000000	6.736973
2097.000000	6.740518
2098.000000	6.743344
2099.000000	6.753410
2100.000000	6.765175
2101.000000	6.770680
2102.000000	6.776510
2103.000000	6.776345
2104.000000	6.783110
2105.000000	6.799127
2106.000000	6.810980
2107.000000	6.811624
2108.000000	6.819698
2109.000000	6.822197
2110.000000	6.823830
2111.000000	6.832414
2112.000000	6.841993
2113.000000	6.856574
2114.000000	6.858707
2115.000000	6.859231
2116.000000	6.859661
2117.000000	6.869870
2118.000000	6.875255
2119.000000	6.869421
2120.000000	6.878745
2121.000000	6.880122
2122.000000	6.889448
2123.000000	6.893938
2124.000000	6.888612
2125.000000	6.879256
2126.000000	6.878995
2127.000000	6.875576
2128.000000	6.865202
2129.000000	6.853183
2130.000000	6.854570
2131.000000	6.851971
2132.000000	6.835861
2133.000000	6.821019
2134.000000	6.811128
2135.000000	6.809391
2136.000000	6.798635
2137.000000	6.781957
2138.000000	6.755591
2139.000000	6.746812
2140.000000	6.738786
2141.000000	6.717748
2142.000000	6.695746
2143.000000	6.685503
2144.000000	6.671901
2145.000000	6.654779
2146.000000	6.642500
2147.000000	6.614548
2148.000000	6.596472
2149.000000	6.583097
2150.000000	6.561135
2151.000000	6.545337
2152.000000	6.540615
2153.000000	6.509190
2154.000000	6.491930
2155.000000	6.484839
2156.000000	6.461504
2157.000000	6.442326
2158.000000	6.425473
2159.000000	6.416806
2160.000000	6.414816
2161.000000	6.397870
2162.000000	6.399695
2163.000000	6.385382
2164.000000	6.371449
2165.000000	6.362593
2166.000000	6.357538
2167.000000	6.336108
2168.000000	6.347274
2169.000000	6.341940
2170.000000	6.337619
2171.000000	6.345974
2172.000000	6.335581
2173.000000	6.335017
2174.000000	6.342976
2175.000000	6.333647
2176.000000	6.334450
2177.000000	6.339936
2178.000000	6.348015
2179.000000	6.346291
2180.000000	6.361843
2181.000000	6.362429
2182.000000	6.373190
2183.000000	6.378529
2184.000000	6.383722
2185.000000	6.397329
2186.000000	6.392295
2187.000000	6.408331
2188.000000	6.403404
2189.000000	6.414000
2190.000000	6.425978
2191.000000	6.425650
2192.000000	6.424077
2193.000000	6.429616
2194.000000	6.441220
2195.000000	6.442513
2196.000000	6.439116
2197.000000	6.446902
2198.000000	6.452719
2199.000000	6.466538
2200.000000	6.458562
2201.000000	6.471582
2202.000000	6.475041
2203.000000	6.479131
2204.000000	6.491309
2205.000000	6.501216
2206.000000	6.505030
2207.000000	6.518878
2208.000000	6.520337
2209.000000	6.512936
2210.000000	6.531746
2211.000000	6.544033
2212.000000	6.559393
2213.000000	6.564476
2214.000000	6.570550
2215.000000	6.577590
2216.000000	6.608967
2217.000000	6.605992
2218.000000	6.604542
2219.000000	6.638791
2220.000000	6.636696
2221.000000	6.639504
2222.000000	6.655292
2223.000000	6.652469
2224.000000	6.651887
2225.000000	6.660981
2226.000000	6.657929
2227.000000	6.671853
2228.000000	6.657474
2229.000000	6.648292
2230.000000	6.637330
2231.000000	6.624364
2232.000000	6.609642
2233.000000	6.593940
2234.000000	6.557163
2235.000000	6.543872
2236.000000	6.521298
2237.000000	6.480370
2238.000000	6.447678
2239.000000	6.396831
2240.000000	6.381021
2241.000000	6.335905
2242.000000	6.292910
2243.000000	6.243616
2244.000000	6.199822
2245.000000	6.149622
2246.000000	6.100834
2247.000000	6.034038
2248.000000	5.979901
2249.000000	5.915447
2250.000000	5.840791
2251.000000	5.776283
2252.000000	5.694389
2253.000000	5.630852
2254.000000	5.557941
2255.000000	5.494324
2256.000000	5.416761
2257.000000	5.341076
2258.000000	5.285632
2259.000000	5.233696
2260.000000	5.163232
2261.000000	5.115611
2262.000000	5.061239
2263.000000	5.025421
2264.000000	4.994219
2265.000000	4.952719
2266.000000	4.912905
2267.000000	4.879196
2268.000000	4.876033
2269.000000	4.854494
2270.000000	4.837551
2271.000000	4.839811
2272.000000	4.827555
2273.000000	4.818920
2274.000000	4.828660
2275.000000	4.837657
2276.000000	4.842798
2277.000000	4.842763
2278.000000	4.845946
2279.000000	4.846179
2280.000000	4.853799
2281.000000	4.850317
2282.000000	4.866764
2283.000000	4.876335
2284.000000	4.876525
2285.000000	4.869741
2286.000000	4.874984
2287.000000	4.873494
2288.000000	4.872902
2289.000000	4.852536
2290.000000	4.854685
2291.000000	4.829718
2292.000000	4.820227
2293.000000	4.814651
2294.000000	4.801530
2295.000000	4.780407
2296.000000	4.763781
2297.000000	4.745642
2298.000000	4.731186
2299.000000	4.702294
2300.000000	4.688796
2301.000000	4.672899
2302.000000	4.658897
2303.000000	4.656087
2304.000000	4.642349
2305.000000	4.641713
2306.000000	4.651675
2307.000000	4.655654
2308.000000	4.669251
2309.000000	4.672488
2310.000000	4.684269
2311.000000	4.700182
2312.000000	4.726012
2313.000000	4.745274
2314.000000	4.769885
2315.000000	4.800207
2316.000000	4.826842
2317.000000	4.861364
2318.000000	4.877811
2319.000000	4.898563
2320.000000	4.911766
2321.000000	4.927041
2322.000000	4.946035
2323.000000	4.970152
2324.000000	4.997773
2325.000000	5.004189
2326.000000	5.015650
2327.000000	5.019318
2328.000000	5.022231
2329.000000	5.036113
2330.000000	5.055780
2331.000000	5.052724
2332.000000	5.045980
2333.000000	5.044313
2334.000000	5.052882
2335.000000	5.053327
2336.000000	5.038798
2337.000000	5.045191
2338.000000	5.039826
2339.000000	5.025127
2340.000000	5.017020
2341.000000	5.013889
2342.000000	5.002659
2343.000000	4.992422
2344.000000	4.979313
2345.000000	4.969118
2346.000000	4.961931
2347.000000	4.958563
2348.000000	4.951312
2349.000000	4.945217
2350.000000	4.942732
2351.000000	4.948903
2352.000000	4.942243
2353.000000	4.940993
2354.000000	4.939092
2355.000000	4.947956
2356.000000	4.965089
2357.000000	4.974846
2358.000000	4.980344
2359.000000	4.987267
2360.000000	4.994924
2361.000000	5.000307
2362.000000	5.012098
2363.000000	5.030710
2364.000000	5.047005
2365.000000	5.048520
2366.000000	5.048835
2367.000000	5.056420
2368.000000	5.072628
2369.000000	5.081500
2370.000000	5.080615
2371.000000	5.092683
2372.000000	5.096713
2373.000000	5.090627
2374.000000	5.094283
2375.000000	5.096531
2376.000000	5.098680
2377.000000	5.097317
2378.000000	5.098471
2379.000000	5.113644
2380.000000	5.113794
2381.000000	5.105198
2382.000000	5.098386
2383.000000	5.100570
2384.000000	5.093619
2385.000000	5.080331
2386.000000	5.082946
2387.000000	5.100498
2388.000000	5.098650
2389.000000	5.081683
2390.000000	5.071137
2391.000000	5.070825
2392.000000	5.066994
2393.000000	5.054780
2394.000000	5.047570
2395.000000	5.039201
2396.000000	5.028313
2397.000000	5.017078
2398.000000	5.001723
2399.000000	4.992242
2400.000000	4.980529
2401.000000	4.972433
2402.000000	4.952672
2403.000000	4.953638
2404.000000	4.953038
2405.000000	4.940633
2406.000000	4.938487
2407.000000	4.929045
2408.000000	4.915889
2409.000000	4.909781
2410.000000	4.906325
2411.000000	4.892946
2412.000000	4.897689
2413.000000	4.887336
2414.000000	4.871709
2415.000000	4.865677
2416.000000	4.856691
2417.000000	4.849212
2418.000000	4.835114
2419.000000	4.826892
2420.000000	4.824985
2421.000000	4.813189
2422.000000	4.800656
2423.000000	4.796259
2424.000000	4.785874
2425.000000	4.771319
2426.000000	4.758395
2427.000000	4.755846
2428.000000	4.733455
2429.000000	4.717946
2430.000000	4.718622
2431.000000	4.709593
2432.000000	4.692247
2433.000000	4.675264
2434.000000	4.667058
2435.000000	4.658418
2436.000000	4.640392
2437.000000	4.635040
2438.000000	4.608056
2439.000000	4.589687
2440.000000	4.565170
2441.000000	4.575609
2442.000000	4.548416
2443.000000	4.533381
2444.000000	4.504850
2445.000000	4.497362
2446.000000	4.499671
2447.000000	4.486268
2448.000000	4.465467
2449.000000	4.455035
2450.000000	4.446269
2451.000000	4.425348
2452.000000	4.408830
2453.000000	4.384543
2454.000000	4.383030
2455.000000	4.376300
2456.000000	4.384790
2457.000000	4.342576
2458.000000	4.340781
2459.000000	4.370045
2460.000000	4.343255
2461.000000	4.330920
2462.000000	4.316330
2463.000000	4.299668
2464.000000	4.310359
2465.000000	4.322690
2466.000000	4.311484
2467.000000	4.333058
2468.000000	4.298502
2469.000000	4.306309
2470.000000	4.325680
2471.000000	4.294735
2472.000000	4.302011
2473.000000	4.316496
2474.000000	4.340963
2475.000000	4.352746
2476.000000	4.386692
2477.000000	4.350613
2478.000000	4.379301
2479.000000	4.355932
2480.000000	4.422165
2481.000000	4.394759
2482.000000	4.388115
2483.000000	4.435018
2484.000000	4.396079
2485.000000	4.361083
2486.000000	4.393376
2487.000000	4.474710
2488.000000	4.436756
2489.000000	4.461304
2490.000000	4.451323
2491.000000	4.433550
2492.000000	4.530150
2493.000000	4.534980
2494.000000	4.513513
2495.000000	4.537728
2496.000000	4.537982
2497.000000	4.605676
2498.000000	4.573835
2499.000000	4.639060
2500.000000	4.677639
