PE UV       SUBTECH     SPECTRUM    ASCII       PEDS        4.00        
   -1
CICIMAUCR0014-3.Sample.ASC
24/04/12
11:57:10.00
24/04/12
11:57:10.00
Vinicio Soto Monge
C. cupreomarginata
250,000000
1
Lambda 1050
1050L1511233
PerkinElmer UV WinLab 6.3.2.0749 / 2.02.05 Lambda 900 UV/VIS/NIR, Aug  7 2015 09:38:08

0
0
3350/servo 860,8/2
0
0
UV/VIS
1
1
1
DoubleDePol,CommonBeamDepol,RBeamAtt,SBeamAtt,60mm sphere, WB InGaAs Detector
0
0
0
0
Program
Program
3350/servo 860,8/2
3350/0,2 860,8/0,2
3350/0,2 860,8/0,2
0
15.00
 
 
 
0
 
860,8
319,2
860,8
Front
100
on
S:100 R:100
0
0
0
0
 
0
 
 
 
0
 
 
0
0
0
0
0
 
 
 
 
0
0


0
0
#HDR
-1
-1
#GR
nm
%R
1.0
0.0
2500,000000
-1,000000
2251
8
47,728700
2,957000
#DATA
2482.000000	11.163013
2481.000000	11.135953
2480.000000	11.200266
2479.000000	11.201471
2478.000000	11.198506
2477.000000	11.236501
2476.000000	11.239744
2475.000000	11.248919
2474.000000	11.267453
2473.000000	11.313232
2472.000000	11.354748
2471.000000	11.386998
2470.000000	11.453721
2469.000000	11.471513
2468.000000	11.504782
2467.000000	11.560755
2466.000000	11.625254
2465.000000	11.696332
2464.000000	11.742019
2463.000000	11.803367
2462.000000	11.862398
2461.000000	11.967209
2460.000000	12.050890
2459.000000	12.147546
2458.000000	12.249113
2457.000000	12.321581
2456.000000	12.427411
2455.000000	12.519062
2454.000000	12.631935
2453.000000	12.751758
2452.000000	12.832011
2451.000000	12.927925
2450.000000	13.014850
2449.000000	13.111413
2448.000000	13.217243
2447.000000	13.297774
2446.000000	13.408145
2445.000000	13.504429
2444.000000	13.590150
2443.000000	13.690049
2442.000000	13.782256
2441.000000	13.872610
2440.000000	13.948970
2439.000000	14.031540
2438.000000	14.136721
2437.000000	14.213174
2436.000000	14.294539
2435.000000	14.371734
2434.000000	14.459771
2433.000000	14.538263
2432.000000	14.621852
2431.000000	14.691540
2430.000000	14.761507
2429.000000	14.803208
2428.000000	14.785045
2427.000000	14.729628
2426.000000	14.698861
2425.000000	14.690614
2424.000000	14.681254
2423.000000	14.704699
2422.000000	14.754186
2421.000000	14.801911
2420.000000	14.847968
2419.000000	14.846486
2418.000000	14.840184
2417.000000	14.875677
2416.000000	14.891153
2415.000000	14.905517
2414.000000	14.921363
2413.000000	14.923217
2412.000000	14.936376
2411.000000	14.925997
2410.000000	14.967235
2409.000000	14.977707
2408.000000	14.977337
2407.000000	15.000133
2406.000000	15.016536
2405.000000	14.990588
2404.000000	14.969645
2403.000000	15.001987
2402.000000	15.023579
2401.000000	15.026915
2400.000000	14.995593
2399.000000	14.976410
2398.000000	15.002265
2397.000000	15.021726
2396.000000	15.037572
2395.000000	15.048322
2394.000000	15.033124
2393.000000	14.998373
2392.000000	14.976410
2391.000000	14.973815
2390.000000	14.978912
2389.000000	14.977893
2388.000000	14.980209
2387.000000	14.969923
2386.000000	14.963992
2385.000000	14.944438
2384.000000	14.910706
2383.000000	14.870024
2382.000000	14.815904
2381.000000	14.788566
2380.000000	14.783006
2379.000000	14.772164
2378.000000	14.715635
2377.000000	14.668651
2376.000000	14.643815
2375.000000	14.601464
2374.000000	14.560597
2373.000000	14.531127
2372.000000	14.497581
2371.000000	14.432618
2370.000000	14.373402
2369.000000	14.347083
2368.000000	14.281658
2367.000000	14.212062
2366.000000	14.168785
2365.000000	14.114944
2364.000000	14.040529
2363.000000	13.975289
2362.000000	13.934792
2361.000000	13.881506
2360.000000	13.808018
2359.000000	13.745744
2358.000000	13.715255
2357.000000	13.686990
2356.000000	13.625086
2355.000000	13.573191
2354.000000	13.576898
2353.000000	13.551135
2352.000000	13.508507
2351.000000	13.523056
2350.000000	13.543629
2349.000000	13.528616
2348.000000	13.532323
2347.000000	13.522963
2346.000000	13.519071
2345.000000	13.532231
2344.000000	13.546131
2343.000000	13.546038
2342.000000	13.530748
2341.000000	13.490158
2340.000000	13.465600
2339.000000	13.475516
2338.000000	13.425289
2337.000000	13.388591
2336.000000	13.368760
2335.000000	13.322053
2334.000000	13.277201
2333.000000	13.259686
2332.000000	13.220116
2331.000000	13.133376
2330.000000	13.083056
2329.000000	13.054513
2328.000000	13.025229
2327.000000	12.965828
2326.000000	12.896973
2325.000000	12.838869
2324.000000	12.796333
2323.000000	12.747774
2322.000000	12.660570
2321.000000	12.601076
2320.000000	12.551682
2319.000000	12.464943
2318.000000	12.391640
2317.000000	12.334555
2316.000000	12.234193
2315.000000	12.163856
2314.000000	12.100562
2313.000000	12.064513
2312.000000	11.990469
2311.000000	11.954606
2310.000000	11.940334
2309.000000	11.926341
2308.000000	11.901691
2307.000000	11.869905
2306.000000	11.872499
2305.000000	11.911977
2304.000000	11.983797
2303.000000	12.053485
2302.000000	12.081101
2301.000000	12.127900
2300.000000	12.211489
2299.000000	12.278489
2298.000000	12.314538
2297.000000	12.363283
2296.000000	12.430562
2295.000000	12.456602
2294.000000	12.490149
2293.000000	12.518136
2292.000000	12.552609
2291.000000	12.573275
2290.000000	12.543527
2289.000000	12.529163
2288.000000	12.518506
2287.000000	12.470966
2286.000000	12.439273
2285.000000	12.356518
2284.000000	12.321674
2283.000000	12.282660
2282.000000	12.235861
2281.000000	12.195086
2280.000000	12.130494
2279.000000	12.102137
2278.000000	12.052280
2277.000000	12.029205
2276.000000	11.965355
2275.000000	11.913552
2274.000000	11.900486
2273.000000	11.906602
2272.000000	11.885751
2271.000000	11.910494
2270.000000	11.948582
2269.000000	12.017992
2268.000000	12.084252
2267.000000	12.189433
2266.000000	12.300082
2265.000000	12.418144
2264.000000	12.532222
2263.000000	12.685128
2262.000000	12.852955
2261.000000	13.045432
2260.000000	13.221506
2259.000000	13.391093
2258.000000	13.584404
2257.000000	13.793376
2256.000000	14.006704
2255.000000	14.202795
2254.000000	14.363579
2253.000000	14.552812
2252.000000	14.724346
2251.000000	14.889670
2250.000000	15.031734
2249.000000	15.178061
2248.000000	15.321608
2247.000000	15.455980
2246.000000	15.559308
2245.000000	15.684692
2244.000000	15.772914
2243.000000	15.890606
2242.000000	15.984388
2241.000000	16.029704
2240.000000	16.109586
2239.000000	16.205501
2238.000000	16.256655
2237.000000	16.320875
2236.000000	16.358036
2235.000000	16.402796
2234.000000	16.438104
2233.000000	16.478230
2232.000000	16.506495
2231.000000	16.538373
2230.000000	16.515855
2229.000000	16.514742
2228.000000	16.534574
2227.000000	16.535130
2226.000000	16.519747
2225.000000	16.523824
2224.000000	16.514557
2223.000000	16.488980
2222.000000	16.435138
2221.000000	16.414936
2220.000000	16.370454
2219.000000	16.355627
2218.000000	16.304751
2217.000000	16.301971
2216.000000	16.270648
2215.000000	16.210227
2214.000000	16.199848
2213.000000	16.154902
2212.000000	16.131827
2211.000000	16.109030
2210.000000	16.065568
2209.000000	16.033040
2208.000000	16.008761
2207.000000	15.976882
2206.000000	15.963815
2205.000000	15.879856
2204.000000	15.849831
2203.000000	15.827219
2202.000000	15.821010
2201.000000	15.792467
2200.000000	15.769300
2199.000000	15.761145
2198.000000	15.724169
2197.000000	15.662265
2196.000000	15.644843
2195.000000	15.642434
2194.000000	15.601751
2193.000000	15.600639
2192.000000	15.601566
2191.000000	15.571726
2190.000000	15.543739
2189.000000	15.532341
2188.000000	15.512509
2187.000000	15.511675
2186.000000	15.474329
2185.000000	15.477017
2184.000000	15.439948
2183.000000	15.430033
2182.000000	15.447733
2181.000000	15.429477
2180.000000	15.386755
2179.000000	15.373596
2178.000000	15.381381
2177.000000	15.408718
2176.000000	15.394632
2175.000000	15.399915
2174.000000	15.372484
2173.000000	15.354784
2172.000000	15.363958
2171.000000	15.415391
2170.000000	15.413074
2169.000000	15.404641
2168.000000	15.422341
2167.000000	15.433647
2166.000000	15.481650
2165.000000	15.485913
2164.000000	15.489527
2163.000000	15.506301
2162.000000	15.543647
2161.000000	15.577194
2160.000000	15.601659
2159.000000	15.633630
2158.000000	15.677834
2157.000000	15.718331
2156.000000	15.727413
2155.000000	15.749839
2154.000000	15.794043
2153.000000	15.819527
2152.000000	15.840193
2151.000000	15.880968
2150.000000	15.943984
2149.000000	15.974102
2148.000000	16.011263
2147.000000	16.041103
2146.000000	16.052687
2145.000000	16.078264
2144.000000	16.110976
2143.000000	16.118761
2142.000000	16.142484
2141.000000	16.182055
2140.000000	16.185669
2139.000000	16.182611
2138.000000	16.197902
2137.000000	16.209671
2136.000000	16.229873
2135.000000	16.247388
2134.000000	16.245998
2133.000000	16.219957
2132.000000	16.206891
2131.000000	16.211802
2130.000000	16.221533
2129.000000	16.205037
2128.000000	16.172139
2127.000000	16.145357
2126.000000	16.112181
2125.000000	16.107177
2124.000000	16.109401
2123.000000	16.071499
2122.000000	16.022105
2121.000000	15.999586
2120.000000	15.970858
2119.000000	15.940277
2118.000000	15.899965
2117.000000	15.866141
2116.000000	15.832316
2115.000000	15.786166
2114.000000	15.754843
2113.000000	15.723521
2112.000000	15.672088
2111.000000	15.627792
2110.000000	15.605273
2109.000000	15.588963
2108.000000	15.550782
2107.000000	15.489434
2106.000000	15.445879
2105.000000	15.430774
2104.000000	15.412240
2103.000000	15.369797
2102.000000	15.344127
2101.000000	15.329022
2100.000000	15.295475
2099.000000	15.265357
2098.000000	15.253773
2097.000000	15.232088
2096.000000	15.213554
2095.000000	15.191406
2094.000000	15.173428
2093.000000	15.173613
2092.000000	15.174076
2091.000000	15.174169
2090.000000	15.156191
2089.000000	15.140808
2088.000000	15.125332
2087.000000	15.107817
2086.000000	15.090580
2085.000000	15.078718
2084.000000	15.051844
2083.000000	15.013849
2082.000000	14.993276
2081.000000	14.982155
2080.000000	14.958154
2079.000000	14.907092
2078.000000	14.874472
2077.000000	14.862518
2076.000000	14.842686
2075.000000	14.822299
2074.000000	14.787084
2073.000000	14.733520
2072.000000	14.702197
2071.000000	14.688482
2070.000000	14.661052
2069.000000	14.638625
2068.000000	14.620091
2067.000000	14.557446
2066.000000	14.515188
2065.000000	14.494615
2064.000000	14.482939
2063.000000	14.478027
2062.000000	14.430765
2061.000000	14.410192
2060.000000	14.392863
2059.000000	14.380167
2058.000000	14.404169
2057.000000	14.422610
2056.000000	14.422981
2055.000000	14.448002
2054.000000	14.485348
2053.000000	14.512130
2052.000000	14.565508
2051.000000	14.643166
2050.000000	14.694969
2049.000000	14.763916
2048.000000	14.871599
2047.000000	14.959451
2046.000000	15.043781
2045.000000	15.159712
2044.000000	15.255997
2043.000000	15.368963
2042.000000	15.484060
2041.000000	15.573765
2040.000000	15.667547
2039.000000	15.771524
2038.000000	15.865863
2037.000000	15.963259
2036.000000	16.057691
2035.000000	16.146840
2034.000000	16.241549
2033.000000	16.311701
2032.000000	16.376571
2031.000000	16.432173
2030.000000	16.487868
2029.000000	16.584338
2028.000000	16.615661
2027.000000	16.695450
2026.000000	16.733909
2025.000000	16.769587
2024.000000	16.859014
2023.000000	16.887464
2022.000000	16.895804
2021.000000	16.948904
2020.000000	16.992738
2019.000000	17.058348
2018.000000	17.065206
2017.000000	17.070303
2016.000000	17.077531
2015.000000	17.132763
2014.000000	17.123867
2013.000000	17.137304
2012.000000	17.160657
2011.000000	17.142586
2010.000000	17.109225
2009.000000	17.126832
2008.000000	17.122477
2007.000000	17.086520
2006.000000	17.080033
2005.000000	17.071137
2004.000000	17.019241
2003.000000	16.995054
2002.000000	16.974389
2001.000000	16.936857
2000.000000	16.875787
1999.000000	16.847986
1998.000000	16.794700
1997.000000	16.743732
1996.000000	16.703698
1995.000000	16.644389
1994.000000	16.573959
1993.000000	16.470261
1992.000000	16.424389
1991.000000	16.386486
1990.000000	16.326250
1989.000000	16.268609
1988.000000	16.189839
1987.000000	16.085677
1986.000000	16.028963
1985.000000	15.962240
1984.000000	15.890328
1983.000000	15.810260
1982.000000	15.743167
1981.000000	15.668845
1980.000000	15.574784
1979.000000	15.528449
1978.000000	15.447084
1977.000000	15.343015
1976.000000	15.270917
1975.000000	15.208642
1974.000000	15.127556
1973.000000	15.049712
1972.000000	15.002358
1971.000000	14.944438
1970.000000	14.878828
1969.000000	14.831102
1968.000000	14.706090
1967.000000	14.665778
1966.000000	14.604893
1965.000000	14.541599
1964.000000	14.491279
1963.000000	14.423815
1962.000000	14.363208
1961.000000	14.273596
1960.000000	14.189636
1959.000000	14.142652
1958.000000	14.071852
1957.000000	14.006612
1956.000000	13.980478
1955.000000	13.905601
1954.000000	13.819973
1953.000000	13.764834
1952.000000	13.704783
1951.000000	13.652888
1950.000000	13.603865
1949.000000	13.547799
1948.000000	13.488305
1947.000000	13.439838
1946.000000	13.400360
1945.000000	13.366072
1944.000000	13.313991
1943.000000	13.309543
1942.000000	13.286283
1941.000000	13.260335
1940.000000	13.285912
1939.000000	13.273031
1938.000000	13.316586
1937.000000	13.309636
1936.000000	13.293233
1935.000000	13.313713
1934.000000	13.311767
1933.000000	13.347816
1932.000000	13.387294
1931.000000	13.447715
1930.000000	13.531860
1929.000000	13.620916
1928.000000	13.707378
1927.000000	13.779568
1926.000000	13.877614
1925.000000	13.963983
1924.000000	14.011616
1923.000000	14.125971
1922.000000	14.336704
1921.000000	14.506014
1920.000000	14.649560
1919.000000	14.793385
1918.000000	14.918491
1917.000000	14.979190
1916.000000	15.091043
1915.000000	15.284169
1914.000000	15.493327
1913.000000	15.787278
1912.000000	16.081415
1911.000000	16.255635
1910.000000	16.382501
1909.000000	16.448483
1908.000000	16.625762
1907.000000	16.921659
1906.000000	17.274456
1905.000000	17.704634
1904.000000	18.030649
1903.000000	18.231003
1902.000000	18.466201
1901.000000	18.724381
1900.000000	19.022503
1899.000000	19.378914
1898.000000	19.719201
1897.000000	19.971543
1896.000000	20.148266
1895.000000	20.296724
1894.000000	20.541745
1893.000000	20.851358
1892.000000	21.246505
1891.000000	21.665469
1890.000000	21.996860
1889.000000	22.265512
1888.000000	22.517854
1887.000000	22.711258
1886.000000	23.008267
1885.000000	23.360230
1884.000000	23.728503
1883.000000	24.124392
1882.000000	24.465235
1881.000000	24.716743
1880.000000	24.928495
1879.000000	25.154982
1878.000000	25.438091
1877.000000	25.745943
1876.000000	26.046474
1875.000000	26.355438
1874.000000	26.617696
1873.000000	26.914891
1872.000000	27.252490
1871.000000	27.435514
1870.000000	27.650417
1869.000000	27.811757
1868.000000	27.822507
1867.000000	27.761808
1866.000000	27.690637
1865.000000	27.571277
1864.000000	27.484630
1863.000000	27.427359
1862.000000	27.411698
1861.000000	27.499550
1860.000000	27.612701
1859.000000	27.760788
1858.000000	27.852625
1857.000000	27.774781
1856.000000	27.689895
1855.000000	27.697958
1854.000000	27.707039
1853.000000	27.700552
1852.000000	27.667284
1851.000000	27.541993
1850.000000	27.433198
1849.000000	27.450805
1848.000000	27.591664
1847.000000	27.778303
1846.000000	27.776728
1845.000000	27.532355
1844.000000	27.256104
1843.000000	27.105514
1842.000000	27.128033
1841.000000	27.277604
1840.000000	27.338117
1839.000000	27.328943
1838.000000	27.271117
1837.000000	27.236828
1836.000000	27.247115
1835.000000	27.192995
1834.000000	27.031934
1833.000000	26.814065
1832.000000	26.673206
1831.000000	26.637249
1830.000000	26.643736
1829.000000	26.600088
1828.000000	26.544208
1827.000000	26.514646
1826.000000	26.468589
1825.000000	26.379996
1824.000000	26.252574
1823.000000	26.116255
1822.000000	26.111065
1821.000000	26.235615
1820.000000	26.345430
1819.000000	26.331344
1818.000000	26.242009
1817.000000	26.155362
1816.000000	26.088454
1815.000000	26.065472
1814.000000	26.056482
1813.000000	26.025530
1812.000000	26.017653
1811.000000	26.009128
1810.000000	25.978268
1809.000000	25.909507
1808.000000	25.847881
1807.000000	25.827493
1806.000000	25.818597
1805.000000	25.793020
1804.000000	25.738066
1803.000000	25.702944
1802.000000	25.683761
1801.000000	25.667544
1800.000000	25.642523
1799.000000	25.592573
1798.000000	25.531689
1797.000000	25.499069
1796.000000	25.462464
1795.000000	25.425488
1794.000000	25.387215
1793.000000	25.359692
1792.000000	25.319566
1791.000000	25.299456
1790.000000	25.269431
1789.000000	25.234587
1788.000000	25.184637
1787.000000	25.142750
1786.000000	25.107628
1785.000000	25.091874
1784.000000	25.072506
1783.000000	25.031174
1782.000000	24.983634
1781.000000	24.938133
1780.000000	24.891427
1779.000000	24.842868
1778.000000	24.794123
1777.000000	24.740837
1776.000000	24.686810
1775.000000	24.605446
1774.000000	24.529548
1773.000000	24.435488
1772.000000	24.347636
1771.000000	24.274704
1770.000000	24.198992
1769.000000	24.105395
1768.000000	24.029590
1767.000000	23.961570
1766.000000	23.897349
1765.000000	23.872421
1764.000000	23.852126
1763.000000	23.836835
1762.000000	23.826363
1761.000000	23.848512
1760.000000	23.862690
1759.000000	23.880854
1758.000000	23.914215
1757.000000	23.953230
1756.000000	23.976861
1755.000000	23.985016
1754.000000	23.983255
1753.000000	23.970003
1752.000000	23.948596
1751.000000	23.912918
1750.000000	23.896422
1749.000000	23.838689
1748.000000	23.793651
1747.000000	23.719700
1746.000000	23.648714
1745.000000	23.543440
1744.000000	23.446785
1743.000000	23.325757
1742.000000	23.177391
1741.000000	23.039219
1740.000000	22.890761
1739.000000	22.750828
1738.000000	22.611359
1737.000000	22.512664
1736.000000	22.411283
1735.000000	22.339741
1734.000000	22.304155
1733.000000	22.318612
1732.000000	22.331493
1731.000000	22.353178
1730.000000	22.409337
1729.000000	22.455116
1728.000000	22.490609
1727.000000	22.509421
1726.000000	22.528418
1725.000000	22.581704
1724.000000	22.610988
1723.000000	22.627576
1722.000000	22.658435
1721.000000	22.671317
1720.000000	22.706624
1719.000000	22.774088
1718.000000	22.848596
1717.000000	22.929497
1716.000000	23.009935
1715.000000	23.062572
1714.000000	23.156911
1713.000000	23.220390
1712.000000	23.275066
1711.000000	23.330205
1710.000000	23.352260
1709.000000	23.362918
1708.000000	23.368107
1707.000000	23.370146
1706.000000	23.359118
1705.000000	23.364215
1704.000000	23.306666
1703.000000	23.253196
1702.000000	23.206304
1701.000000	23.113263
1700.000000	23.020963
1699.000000	22.909017
1698.000000	22.824316
1697.000000	22.765655
1696.000000	22.709034
1695.000000	22.710053
1694.000000	22.723861
1693.000000	22.755091
1692.000000	22.852580
1691.000000	22.924771
1690.000000	22.975184
1689.000000	23.037273
1688.000000	23.089817
1687.000000	23.116228
1686.000000	23.148385
1685.000000	23.226877
1684.000000	23.334468
1683.000000	23.487189
1682.000000	23.736473
1681.000000	24.021991
1680.000000	24.378958
1679.000000	24.714148
1678.000000	25.027468
1677.000000	25.351352
1676.000000	25.603879
1675.000000	25.822304
1674.000000	26.049625
1673.000000	26.228108
1672.000000	26.412152
1671.000000	26.568673
1670.000000	26.706938
1669.000000	26.829541
1668.000000	26.957426
1667.000000	27.044537
1666.000000	27.129423
1665.000000	27.217553
1664.000000	27.325051
1663.000000	27.375927
1662.000000	27.414571
1661.000000	27.484537
1660.000000	27.554040
1659.000000	27.596298
1658.000000	27.616778
1657.000000	27.653198
1656.000000	27.667098
1655.000000	27.678404
1654.000000	27.688598
1653.000000	27.666913
1652.000000	27.668952
1651.000000	27.661816
1650.000000	27.653661
1649.000000	27.619744
1648.000000	27.587679
1647.000000	27.555523
1646.000000	27.532448
1645.000000	27.518176
1644.000000	27.473046
1643.000000	27.440240
1642.000000	27.412995
1641.000000	27.379912
1640.000000	27.344234
1639.000000	27.310038
1638.000000	27.250266
1637.000000	27.214773
1636.000000	27.175110
1635.000000	27.137856
1634.000000	27.080678
1633.000000	27.001538
1632.000000	26.967064
1631.000000	26.928884
1630.000000	26.855303
1629.000000	26.800720
1628.000000	26.738446
1627.000000	26.685438
1626.000000	26.642624
1625.000000	26.571824
1624.000000	26.513534
1623.000000	26.457932
1622.000000	26.394545
1621.000000	26.323281
1620.000000	26.266845
1619.000000	26.219397
1618.000000	26.161571
1617.000000	26.114680
1616.000000	26.044806
1615.000000	25.992540
1614.000000	25.948892
1613.000000	25.881242
1612.000000	25.823416
1611.000000	25.771891
1610.000000	25.712304
1609.000000	25.636962
1608.000000	25.577653
1607.000000	25.527148
1606.000000	25.465244
1605.000000	25.383138
1604.000000	25.329018
1603.000000	25.264056
1602.000000	25.203264
1601.000000	25.126625
1600.000000	25.066667
1599.000000	25.004485
1598.000000	24.946288
1597.000000	24.892447
1596.000000	24.837678
1595.000000	24.781056
1594.000000	24.729161
1593.000000	24.683845
1592.000000	24.624628
1591.000000	24.564392
1590.000000	24.537147
1589.000000	24.517408
1588.000000	24.487476
1587.000000	24.444477
1586.000000	24.408984
1585.000000	24.371545
1584.000000	24.329843
1583.000000	24.301857
1582.000000	24.282025
1581.000000	24.266456
1580.000000	24.267383
1579.000000	24.256819
1578.000000	24.240972
1577.000000	24.229666
1576.000000	24.215395
1575.000000	24.214283
1574.000000	24.219750
1573.000000	24.216878
1572.000000	24.221604
1571.000000	24.235041
1570.000000	24.236338
1569.000000	24.248386
1568.000000	24.260618
1567.000000	24.270441
1566.000000	24.293238
1565.000000	24.313255
1564.000000	24.332160
1563.000000	24.358386
1562.000000	24.364409
1561.000000	24.361814
1560.000000	24.378680
1559.000000	24.377476
1558.000000	24.362278
1557.000000	24.355884
1556.000000	24.346524
1555.000000	24.331882
1554.000000	24.313718
1553.000000	24.291014
1552.000000	24.256263
1551.000000	24.224291
1550.000000	24.203718
1549.000000	24.175824
1548.000000	24.137829
1547.000000	24.104375
1546.000000	24.073145
1545.000000	24.050256
1544.000000	24.027922
1543.000000	24.014485
1542.000000	23.991781
1541.000000	23.965925
1540.000000	23.955639
1539.000000	23.935622
1538.000000	23.920331
1537.000000	23.911713
1536.000000	23.905690
1535.000000	23.887619
1534.000000	23.875942
1533.000000	23.852589
1532.000000	23.835631
1531.000000	23.816818
1530.000000	23.782252
1529.000000	23.751486
1528.000000	23.722387
1527.000000	23.696995
1526.000000	23.662244
1525.000000	23.647694
1524.000000	23.625453
1523.000000	23.570500
1522.000000	23.536582
1521.000000	23.502572
1520.000000	23.469489
1519.000000	23.454662
1518.000000	23.424266
1517.000000	23.391645
1516.000000	23.358469
1515.000000	23.324367
1514.000000	23.289430
1513.000000	23.235588
1512.000000	23.187955
1511.000000	23.136338
1510.000000	23.090188
1509.000000	23.056270
1508.000000	23.024392
1507.000000	22.986489
1506.000000	22.961098
1505.000000	22.930331
1504.000000	22.898174
1503.000000	22.872783
1502.000000	22.828857
1501.000000	22.802631
1500.000000	22.766953
1499.000000	22.741098
1498.000000	22.729699
1497.000000	22.720525
1496.000000	22.704585
1495.000000	22.705975
1494.000000	22.687256
1493.000000	22.679472
1492.000000	22.682344
1491.000000	22.670575
1490.000000	22.697542
1489.000000	22.703473
1488.000000	22.717096
1487.000000	22.726826
1486.000000	22.742210
1485.000000	22.746843
1484.000000	22.760558
1483.000000	22.751755
1482.000000	22.762875
1481.000000	22.801704
1480.000000	22.827096
1479.000000	22.848503
1478.000000	22.880011
1477.000000	22.906885
1476.000000	22.948680
1475.000000	22.971106
1474.000000	23.012159
1473.000000	23.064796
1472.000000	23.104644
1471.000000	23.142547
1470.000000	23.194164
1469.000000	23.217981
1468.000000	23.258848
1467.000000	23.308613
1466.000000	23.334560
1465.000000	23.372833
1464.000000	23.419169
1463.000000	23.489691
1462.000000	23.541587
1461.000000	23.604417
1460.000000	23.645656
1459.000000	23.707374
1458.000000	23.776877
1457.000000	23.846566
1456.000000	23.947484
1455.000000	24.010315
1454.000000	24.078057
1453.000000	24.166279
1452.000000	24.272758
1451.000000	24.362926
1450.000000	24.466254
1449.000000	24.518891
1448.000000	24.616566
1447.000000	24.655117
1446.000000	24.793845
1445.000000	24.947030
1444.000000	25.014308
1443.000000	25.092986
1442.000000	25.207434
1441.000000	25.295471
1440.000000	25.374334
1439.000000	25.488782
1438.000000	25.604991
1437.000000	25.751503
1436.000000	25.839262
1435.000000	25.940366
1434.000000	26.043138
1433.000000	26.178900
1432.000000	26.301782
1431.000000	26.444124
1430.000000	26.532439
1429.000000	26.680434
1428.000000	26.852431
1427.000000	26.994680
1426.000000	27.195312
1425.000000	27.353964
1424.000000	27.568497
1423.000000	27.765051
1422.000000	27.946222
1421.000000	28.098573
1420.000000	28.308935
1419.000000	28.555254
1418.000000	28.768674
1417.000000	28.916020
1416.000000	29.100528
1415.000000	29.291337
1414.000000	29.595296
1413.000000	29.843839
1412.000000	29.999062
1411.000000	30.154749
1410.000000	30.390318
1409.000000	30.715962
1408.000000	31.016030
1407.000000	31.278380
1406.000000	31.528499
1405.000000	31.793629
1404.000000	32.072753
1403.000000	32.302206
1402.000000	32.421751
1401.000000	32.739333
1400.000000	33.141246
1399.000000	33.371996
1398.000000	33.392012
1397.000000	33.460867
1396.000000	33.699123
1395.000000	33.974633
1394.000000	34.113268
1393.000000	34.184532
1392.000000	34.321592
1391.000000	34.443361
1390.000000	34.489789
1389.000000	34.593024
1388.000000	34.876967
1387.000000	35.103639
1386.000000	35.259511
1385.000000	35.460699
1384.000000	35.656512
1383.000000	35.915063
1382.000000	36.175375
1381.000000	36.419470
1380.000000	36.403345
1379.000000	36.455797
1378.000000	36.386850
1377.000000	36.409091
1376.000000	36.441803
1375.000000	36.518442
1374.000000	36.616302
1373.000000	36.743539
1372.000000	36.891534
1371.000000	37.140818
1370.000000	37.307162
1369.000000	37.409563
1368.000000	37.580169
1367.000000	37.684146
1366.000000	37.745401
1365.000000	37.848451
1364.000000	37.984399
1363.000000	37.997929
1362.000000	38.114045
1361.000000	38.333767
1360.000000	38.379176
1359.000000	38.325705
1358.000000	38.307912
1357.000000	38.341273
1356.000000	38.447196
1355.000000	38.650886
1354.000000	38.864029
1353.000000	39.018047
1352.000000	39.217567
1351.000000	39.416160
1350.000000	39.558317
1349.000000	39.742732
1348.000000	39.926034
1347.000000	40.088949
1346.000000	40.229994
1345.000000	40.363903
1344.000000	40.529042
1343.000000	40.647382
1342.000000	40.747652
1341.000000	40.862749
1340.000000	40.968764
1339.000000	41.090163
1338.000000	41.197753
1337.000000	41.289775
1336.000000	41.377720
1335.000000	41.460845
1334.000000	41.542488
1333.000000	41.611528
1332.000000	41.685757
1331.000000	41.757113
1330.000000	41.796313
1329.000000	41.849506
1328.000000	41.902514
1327.000000	41.959228
1326.000000	42.012699
1325.000000	42.049675
1324.000000	42.076642
1323.000000	42.108428
1322.000000	42.142623
1321.000000	42.180989
1320.000000	42.216018
1319.000000	42.246414
1318.000000	42.260686
1317.000000	42.275698
1316.000000	42.297012
1315.000000	42.325462
1314.000000	42.364199
1313.000000	42.372446
1312.000000	42.374485
1311.000000	42.378841
1310.000000	42.391907
1309.000000	42.414056
1308.000000	42.423137
1307.000000	42.416465
1306.000000	42.417206
1305.000000	42.424898
1304.000000	42.432775
1303.000000	42.432404
1302.000000	42.415724
1301.000000	42.412665
1300.000000	42.419894
1299.000000	42.421098
1298.000000	42.413777
1297.000000	42.386532
1296.000000	42.370222
1295.000000	42.363272
1294.000000	42.347333
1293.000000	42.341587
1292.000000	42.340568
1291.000000	42.326852
1290.000000	42.310079
1289.000000	42.286726
1288.000000	42.273659
1287.000000	42.256886
1286.000000	42.238537
1285.000000	42.199338
1284.000000	42.165420
1283.000000	42.142901
1282.000000	42.111579
1281.000000	42.087670
1280.000000	42.056810
1279.000000	42.025209
1278.000000	41.996852
1277.000000	41.980913
1276.000000	41.975167
1275.000000	41.955707
1274.000000	41.935041
1273.000000	41.917063
1272.000000	41.908166
1271.000000	41.886018
1270.000000	41.878141
1269.000000	41.883887
1268.000000	41.876751
1267.000000	41.869523
1266.000000	41.863036
1265.000000	41.866743
1264.000000	41.859329
1263.000000	41.845706
1262.000000	41.849877
1261.000000	41.844594
1260.000000	41.832084
1259.000000	41.819944
1258.000000	41.802985
1257.000000	41.789455
1256.000000	41.783988
1255.000000	41.775833
1254.000000	41.763600
1253.000000	41.760264
1252.000000	41.761098
1251.000000	41.724771
1250.000000	41.692151
1249.000000	41.661663
1248.000000	41.639700
1247.000000	41.600871
1246.000000	41.576406
1245.000000	41.535260
1244.000000	41.488832
1243.000000	41.454266
1242.000000	41.393844
1241.000000	41.371511
1240.000000	41.346212
1239.000000	41.308031
1238.000000	41.261325
1237.000000	41.210820
1236.000000	41.155403
1235.000000	41.109160
1234.000000	41.050129
1233.000000	40.992303
1232.000000	40.925209
1231.000000	40.874240
1230.000000	40.817526
1229.000000	40.751544
1228.000000	40.680651
1227.000000	40.607627
1226.000000	40.538958
1225.000000	40.477980
1224.000000	40.415242
1223.000000	40.350651
1222.000000	40.294956
1221.000000	40.231940
1220.000000	40.164383
1219.000000	40.122403
1218.000000	40.071434
1217.000000	40.021763
1216.000000	39.958840
1215.000000	39.907315
1214.000000	39.850508
1213.000000	39.806396
1212.000000	39.773128
1211.000000	39.717989
1210.000000	39.645613
1209.000000	39.587045
1208.000000	39.525048
1207.000000	39.500954
1206.000000	39.477323
1205.000000	39.442293
1204.000000	39.418755
1203.000000	39.423296
1202.000000	39.385208
1201.000000	39.338039
1200.000000	39.295410
1199.000000	39.265292
1198.000000	39.198292
1197.000000	39.134349
1196.000000	39.048721
1195.000000	38.927971
1194.000000	38.811577
1193.000000	38.658114
1192.000000	38.487878
1191.000000	38.320886
1190.000000	38.161029
1189.000000	38.026935
1188.000000	37.898586
1187.000000	37.851416
1186.000000	37.837145
1185.000000	37.874213
1184.000000	37.941585
1183.000000	38.057887
1182.000000	38.216168
1181.000000	38.368889
1180.000000	38.529302
1179.000000	38.681375
1178.000000	38.840120
1177.000000	38.956514
1176.000000	39.063734
1175.000000	39.153161
1174.000000	39.281324
1173.000000	39.398182
1172.000000	39.499564
1171.000000	39.624020
1170.000000	39.736430
1169.000000	39.848376
1168.000000	40.016388
1167.000000	40.134172
1166.000000	40.258166
1165.000000	40.396338
1164.000000	40.513566
1163.000000	40.658596
1162.000000	40.781291
1161.000000	40.939295
1160.000000	41.056338
1159.000000	41.185521
1158.000000	41.306456
1157.000000	41.411081
1156.000000	41.510980
1155.000000	41.575016
1154.000000	41.630896
1153.000000	41.663238
1152.000000	41.687518
1151.000000	41.724957
1150.000000	41.725420
1149.000000	41.750626
1148.000000	41.747198
1147.000000	41.781856
1146.000000	41.818739
1145.000000	41.888706
1144.000000	41.952648
1143.000000	42.032808
1142.000000	42.101663
1141.000000	42.210458
1140.000000	42.307948
1139.000000	42.399321
1138.000000	42.517013
1137.000000	42.631646
1136.000000	42.744426
1135.000000	42.908731
1134.000000	43.075075
1133.000000	43.125303
1132.000000	43.173677
1131.000000	43.216213
1130.000000	43.294334
1129.000000	43.381352
1128.000000	43.474115
1127.000000	43.505623
1126.000000	43.559279
1125.000000	43.573180
1124.000000	43.591807
1123.000000	43.615994
1122.000000	43.660012
1121.000000	43.681234
1120.000000	43.703567
1119.000000	43.686145
1118.000000	43.683365
1117.000000	43.660939
1116.000000	43.679102
1115.000000	43.662700
1114.000000	43.643332
1113.000000	43.637123
1112.000000	43.617384
1111.000000	43.620164
1110.000000	43.613677
1109.000000	43.600425
1108.000000	43.556314
1107.000000	43.536390
1106.000000	43.549271
1105.000000	43.549364
1104.000000	43.530551
1103.000000	43.525362
1102.000000	43.509608
1101.000000	43.495059
1100.000000	43.482826
1099.000000	43.450299
1098.000000	43.409431
1097.000000	43.388395
1096.000000	43.387097
1095.000000	43.364949
1094.000000	43.354199
1093.000000	43.322784
1092.000000	43.309717
1091.000000	43.287754
1090.000000	43.251242
1089.000000	43.234376
1088.000000	43.223812
1087.000000	43.192767
1086.000000	43.142725
1085.000000	43.102413
1084.000000	43.074797
1083.000000	43.026701
1082.000000	42.996583
1081.000000	42.971191
1080.000000	42.929026
1079.000000	42.887695
1078.000000	42.837653
1077.000000	42.809388
1076.000000	42.771857
1075.000000	42.741183
1074.000000	42.709953
1073.000000	42.670753
1072.000000	42.625808
1071.000000	42.579751
1070.000000	42.540273
1069.000000	42.503761
1068.000000	42.469473
1067.000000	42.448900
1066.000000	42.403769
1065.000000	42.356044
1064.000000	42.303129
1063.000000	42.249750
1062.000000	42.205454
1061.000000	42.167922
1060.000000	42.131225
1059.000000	42.076642
1058.000000	42.027804
1057.000000	41.995277
1056.000000	41.955243
1055.000000	41.902884
1054.000000	41.847931
1053.000000	41.806785
1052.000000	41.775462
1051.000000	41.757577
1050.000000	41.725142
1049.000000	41.682050
1048.000000	41.651376
1047.000000	41.624409
1046.000000	41.607636
1045.000000	41.577425
1044.000000	41.554257
1043.000000	41.529700
1042.000000	41.485032
1041.000000	41.440180
1040.000000	41.414510
1039.000000	41.405336
1038.000000	41.376515
1037.000000	41.340003
1036.000000	41.305251
1035.000000	41.275133
1034.000000	41.240382
1033.000000	41.205908
1032.000000	41.176995
1031.000000	41.140946
1030.000000	41.105268
1029.000000	41.074594
1028.000000	41.037711
1027.000000	40.985538
1026.000000	40.951342
1025.000000	40.925580
1024.000000	40.887955
1023.000000	40.845976
1022.000000	40.821233
1021.000000	40.796860
1020.000000	40.754695
1019.000000	40.728006
1018.000000	40.694088
1017.000000	40.663507
1016.000000	40.647197
1015.000000	40.612909
1014.000000	40.582142
1013.000000	40.566852
1012.000000	40.537568
1011.000000	40.508191
1010.000000	40.490862
1009.000000	40.463338
1008.000000	40.444063
1007.000000	40.423675
1006.000000	40.405141
1005.000000	40.412555
1004.000000	40.400878
1003.000000	40.383178
1002.000000	40.366776
1001.000000	40.343979
1000.000000	40.320070
999.000000	40.291712
998.000000	40.264004
997.000000	40.242504
996.000000	40.205992
995.000000	40.169109
994.000000	40.152706
993.000000	40.145849
992.000000	40.130002
991.000000	40.101738
990.000000	40.069303
989.000000	40.039278
988.000000	40.041594
987.000000	40.032142
986.000000	39.981544
985.000000	39.941973
984.000000	39.919547
983.000000	39.896379
982.000000	39.857272
981.000000	39.830954
980.000000	39.816127
979.000000	39.796110
978.000000	39.778688
977.000000	39.752833
976.000000	39.744770
975.000000	39.727534
974.000000	39.708351
973.000000	39.701122
972.000000	39.708443
971.000000	39.698435
970.000000	39.650061
969.000000	39.620406
968.000000	39.599741
967.000000	39.583987
966.000000	39.585469
965.000000	39.581207
964.000000	39.556000
963.000000	39.505217
962.000000	39.492428
961.000000	39.514298
960.000000	39.516801
959.000000	39.504475
958.000000	39.455545
957.000000	39.440625
956.000000	39.475933
955.000000	39.480010
954.000000	39.463422
953.000000	39.462403
952.000000	39.481956
951.000000	39.472226
950.000000	39.470651
949.000000	39.485849
948.000000	39.465368
947.000000	39.462125
946.000000	39.455731
945.000000	39.458418
944.000000	39.462774
943.000000	39.460086
942.000000	39.466944
941.000000	39.473709
940.000000	39.467407
939.000000	39.436084
938.000000	39.451097
937.000000	39.462681
936.000000	39.496784
935.000000	39.547938
934.000000	39.561004
933.000000	39.575554
932.000000	39.589547
931.000000	39.576295
930.000000	39.602984
929.000000	39.601131
928.000000	39.576758
927.000000	39.583894
926.000000	39.596868
925.000000	39.638848
924.000000	39.657197
923.000000	39.667020
922.000000	39.658031
921.000000	39.685276
920.000000	39.695006
919.000000	39.739395
918.000000	39.753018
917.000000	39.777205
916.000000	39.761636
915.000000	39.773128
914.000000	39.782487
913.000000	39.820853
912.000000	39.851434
911.000000	39.883220
910.000000	39.910187
909.000000	39.942251
908.000000	39.977188
907.000000	40.026118
906.000000	40.070230
905.000000	40.124905
904.000000	40.191906
903.000000	40.236203
902.000000	40.222951
901.000000	40.286060
900.000000	40.379935
899.000000	40.444897
898.000000	40.511620
897.000000	40.558789
896.000000	40.635150
895.000000	40.680002
894.000000	40.722260
893.000000	40.794265
892.000000	40.857559
891.000000	40.988410
890.000000	41.054021
889.000000	41.095630
888.000000	41.171528
887.000000	41.242884
886.000000	41.318318
885.000000	41.395420
884.000000	41.545083
883.000000	41.618849
882.000000	41.668428
881.000000	41.761562
880.000000	41.911132
879.000000	41.966642
878.000000	42.005563
877.000000	42.134654
876.000000	42.259203
875.000000	42.331393
874.000000	42.462337
873.000000	42.578268
872.000000	42.677703
871.000000	42.776583
870.000000	42.922632
869.000000	43.041528
868.000000	43.198791
867.000000	43.283491
866.000000	43.437695
865.000000	43.547417
864.000000	43.693188
863.000000	43.783635
862.000000	43.927830
861.000000	44.039313
860.000000	44.141066
859.000000	44.230493
858.000000	43.746567
857.000000	43.660900
856.000000	43.778900
855.000000	43.799900
854.000000	43.734300
853.000000	43.576600
852.000000	43.382100
851.000000	43.508100
850.000000	43.380000
849.000000	43.316200
848.000000	43.339000
847.000000	43.330200
846.000000	43.105500
845.000000	43.040400
844.000000	43.001400
843.000000	43.029800
842.000000	42.975000
841.000000	42.989900
840.000000	42.828000
839.000000	42.677100
838.000000	42.514500
837.000000	42.562400
836.000000	42.462800
835.000000	42.457300
834.000000	42.401900
833.000000	42.286300
832.000000	42.145300
831.000000	42.208700
830.000000	41.881100
829.000000	41.826700
828.000000	41.724400
827.000000	41.499000
826.000000	41.464300
825.000000	41.424800
824.000000	41.352900
823.000000	41.253700
822.000000	41.196400
821.000000	41.091800
820.000000	40.889900
819.000000	40.782800
818.000000	40.649300
817.000000	40.541400
816.000000	40.451000
815.000000	40.386100
814.000000	40.279600
813.000000	40.127400
812.000000	40.026400
811.000000	39.946700
810.000000	39.864400
809.000000	39.766300
808.000000	39.747400
807.000000	39.571900
806.000000	39.488700
805.000000	39.382400
804.000000	39.277600
803.000000	39.177000
802.000000	39.116500
801.000000	39.075600
800.000000	38.926000
799.000000	38.747600
798.000000	38.703300
797.000000	38.699000
796.000000	38.541200
795.000000	38.455100
794.000000	38.401400
793.000000	38.253200
792.000000	38.130900
791.000000	38.081800
790.000000	37.963100
789.000000	37.890300
788.000000	37.785600
787.000000	37.738700
786.000000	37.649100
785.000000	37.555900
784.000000	37.424100
783.000000	37.311200
782.000000	37.225800
781.000000	37.154100
780.000000	37.022000
779.000000	36.930800
778.000000	36.819000
777.000000	36.705000
776.000000	36.624400
775.000000	36.538500
774.000000	36.451500
773.000000	36.396300
772.000000	36.321700
771.000000	36.243000
770.000000	36.138000
769.000000	36.054800
768.000000	36.022500
767.000000	35.928500
766.000000	35.841300
765.000000	35.732800
764.000000	35.615000
763.000000	35.536100
762.000000	35.493000
761.000000	35.397600
760.000000	35.287700
759.000000	35.177300
758.000000	35.076600
757.000000	34.967600
756.000000	34.874900
755.000000	34.813400
754.000000	34.719200
753.000000	34.595800
752.000000	34.507100
751.000000	34.424800
750.000000	34.298600
749.000000	34.242000
748.000000	34.183500
747.000000	34.060100
746.000000	33.995800
745.000000	33.920900
744.000000	33.792600
743.000000	33.690500
742.000000	33.608700
741.000000	33.500600
740.000000	33.383400
739.000000	33.272200
738.000000	33.156800
737.000000	33.082600
736.000000	33.015500
735.000000	32.903700
734.000000	32.813300
733.000000	32.698400
732.000000	32.593500
731.000000	32.489000
730.000000	32.387600
729.000000	32.270700
728.000000	32.120200
727.000000	32.007600
726.000000	31.905200
725.000000	31.783700
724.000000	31.661200
723.000000	31.542700
722.000000	31.409400
721.000000	31.287100
720.000000	31.196400
719.000000	31.065900
718.000000	30.936400
717.000000	30.794300
716.000000	30.670100
715.000000	30.544400
714.000000	30.414200
713.000000	30.312500
712.000000	30.178500
711.000000	30.040200
710.000000	29.908700
709.000000	29.778200
708.000000	29.667600
707.000000	29.543400
706.000000	29.442200
705.000000	29.324000
704.000000	29.179100
703.000000	29.071600
702.000000	28.964600
701.000000	28.830100
700.000000	28.718500
699.000000	28.602000
698.000000	28.479900
697.000000	28.351400
696.000000	28.234400
695.000000	28.097100
694.000000	27.962300
693.000000	27.859800
692.000000	27.707700
691.000000	27.543200
690.000000	27.419700
689.000000	27.298900
688.000000	27.173500
687.000000	27.069500
686.000000	26.955500
685.000000	26.835900
684.000000	26.732500
683.000000	26.648900
682.000000	26.539100
681.000000	26.425100
680.000000	26.311500
679.000000	26.207800
678.000000	26.131000
677.000000	26.057400
676.000000	25.998300
675.000000	25.919000
674.000000	25.845800
673.000000	25.790100
672.000000	25.706900
671.000000	25.647000
670.000000	25.617600
669.000000	25.535500
668.000000	25.444200
667.000000	25.349400
666.000000	25.298400
665.000000	25.225900
664.000000	25.141000
663.000000	25.054400
662.000000	24.927100
661.000000	24.843200
660.000000	24.738600
659.000000	24.638700
658.000000	24.561300
657.000000	24.434300
656.000000	24.333000
655.000000	24.232900
654.000000	24.136200
653.000000	24.026900
652.000000	23.912300
651.000000	23.845700
650.000000	23.743400
649.000000	23.656000
648.000000	23.543900
647.000000	23.475600
646.000000	23.415900
645.000000	23.318000
644.000000	23.235100
643.000000	23.164200
642.000000	23.092100
641.000000	23.071700
640.000000	23.004100
639.000000	22.929500
638.000000	22.881800
637.000000	22.819500
636.000000	22.770600
635.000000	22.711000
634.000000	22.668400
633.000000	22.657500
632.000000	22.637200
631.000000	22.565300
630.000000	22.546900
629.000000	22.520200
628.000000	22.522700
627.000000	22.508300
626.000000	22.515700
625.000000	22.522900
624.000000	22.524700
623.000000	22.513100
622.000000	22.565200
621.000000	22.584700
620.000000	22.627900
619.000000	22.689400
618.000000	22.741600
617.000000	22.807100
616.000000	22.897600
615.000000	22.960000
614.000000	23.044500
613.000000	23.134200
612.000000	23.238100
611.000000	23.295000
610.000000	23.395700
609.000000	23.496200
608.000000	23.565400
607.000000	23.682200
606.000000	23.784400
605.000000	23.897900
604.000000	23.985100
603.000000	24.084700
602.000000	24.164900
601.000000	24.313500
600.000000	24.413400
599.000000	24.529000
598.000000	24.606200
597.000000	24.742600
596.000000	24.835500
595.000000	24.937900
594.000000	25.015600
593.000000	25.090500
592.000000	25.201900
591.000000	25.300800
590.000000	25.445800
589.000000	25.527200
588.000000	25.637800
587.000000	25.694300
586.000000	25.797200
585.000000	25.903600
584.000000	26.019400
583.000000	26.100100
582.000000	26.240800
581.000000	26.322300
580.000000	26.404800
579.000000	26.513800
578.000000	26.595500
577.000000	26.662600
576.000000	26.718800
575.000000	26.799800
574.000000	26.859600
573.000000	26.902500
572.000000	26.931800
571.000000	26.949400
570.000000	26.939300
569.000000	26.971500
568.000000	27.023300
567.000000	27.020900
566.000000	27.007400
565.000000	26.998700
564.000000	26.945600
563.000000	26.940100
562.000000	26.890900
561.000000	26.819000
560.000000	26.777900
559.000000	26.969300
558.000000	26.916400
557.000000	26.851600
556.000000	26.768800
555.000000	26.704800
554.000000	26.620000
553.000000	26.552700
552.000000	26.491300
551.000000	26.383300
550.000000	26.272600
549.000000	26.186400
548.000000	26.055400
547.000000	25.940800
546.000000	25.834400
545.000000	25.696200
544.000000	25.551800
543.000000	25.411300
542.000000	25.245100
541.000000	25.079900
540.000000	24.923900
539.000000	24.753200
538.000000	24.565600
537.000000	24.368200
536.000000	24.156500
535.000000	23.941500
534.000000	23.707500
533.000000	23.476400
532.000000	23.255200
531.000000	23.023700
530.000000	22.780200
529.000000	22.492500
528.000000	22.209300
527.000000	21.905800
526.000000	21.624000
525.000000	21.332500
524.000000	21.025000
523.000000	20.707200
522.000000	20.387100
521.000000	20.071500
520.000000	19.756800
519.000000	19.420600
518.000000	19.099500
517.000000	18.776400
516.000000	18.441300
515.000000	18.138100
514.000000	17.835700
513.000000	17.538100
512.000000	17.219800
511.000000	16.910700
510.000000	16.601700
509.000000	16.306400
508.000000	16.022200
507.000000	15.732500
506.000000	15.457600
505.000000	15.201400
504.000000	14.937600
503.000000	14.688400
502.000000	14.433100
501.000000	14.192700
500.000000	13.959400
499.000000	13.725700
498.000000	13.487800
497.000000	13.258000
496.000000	13.029100
495.000000	12.823500
494.000000	12.601900
493.000000	12.394900
492.000000	12.195000
491.000000	12.000700
490.000000	11.803700
489.000000	11.610800
488.000000	11.428300
487.000000	11.258600
486.000000	11.100600
485.000000	10.946500
484.000000	10.800700
483.000000	10.663800
482.000000	10.496000
481.000000	10.318400
480.000000	10.170600
479.000000	10.056100
478.000000	9.974800
477.000000	9.883400
476.000000	9.799800
475.000000	9.733600
474.000000	9.667500
473.000000	9.593800
472.000000	9.520500
471.000000	9.468800
470.000000	9.416100
469.000000	9.364600
468.000000	9.320400
467.000000	9.277700
466.000000	9.238700
465.000000	9.193400
464.000000	9.161400
463.000000	9.132900
462.000000	9.108500
461.000000	9.089200
460.000000	9.051400
459.000000	9.022300
458.000000	9.008400
457.000000	8.989400
456.000000	8.960700
455.000000	8.923300
454.000000	8.902400
453.000000	8.884800
452.000000	8.848300
451.000000	8.801400
450.000000	8.759600
449.000000	8.708300
448.000000	8.661500
447.000000	8.613400
446.000000	8.558800
445.000000	8.509100
444.000000	8.458100
443.000000	8.387200
442.000000	8.297100
441.000000	8.226200
440.000000	8.159800
439.000000	8.090700
438.000000	8.017600
437.000000	7.944600
436.000000	7.877800
435.000000	7.793100
434.000000	7.718800
433.000000	7.654700
432.000000	7.588100
431.000000	7.514700
430.000000	7.434800
429.000000	7.355300
428.000000	7.281200
427.000000	7.210700
426.000000	7.132900
425.000000	7.057300
424.000000	6.981100
423.000000	6.902500
422.000000	6.823400
421.000000	6.752100
420.000000	6.686300
419.000000	6.606200
418.000000	6.529100
417.000000	6.454400
416.000000	6.383400
415.000000	6.304500
414.000000	6.221200
413.000000	6.144600
412.000000	6.061000
411.000000	5.978200
410.000000	5.902000
409.000000	5.824700
408.000000	5.739300
407.000000	5.671900
406.000000	5.595500
405.000000	5.507200
404.000000	5.425500
403.000000	5.351200
402.000000	5.267200
401.000000	5.194700
400.000000	5.125400
399.000000	5.044900
398.000000	4.975200
397.000000	4.907500
396.000000	4.852600
395.000000	4.785700
394.000000	4.717600
393.000000	4.649200
392.000000	4.575300
391.000000	4.507700
390.000000	4.453500
389.000000	4.399400
388.000000	4.336600
387.000000	4.288800
386.000000	4.237900
385.000000	4.186500
384.000000	4.137200
383.000000	4.091000
382.000000	4.055000
381.000000	4.015000
380.000000	3.972200
379.000000	3.936500
378.000000	3.895900
377.000000	3.868000
376.000000	3.849500
375.000000	3.832100
374.000000	3.821600
373.000000	3.801500
372.000000	3.738500
371.000000	3.716400
370.000000	3.714200
369.000000	3.711800
368.000000	3.630700
367.000000	3.622700
366.000000	3.624600
365.000000	3.603900
364.000000	3.564400
363.000000	3.542400
362.000000	3.541300
361.000000	3.501200
360.000000	3.489700
359.000000	3.446200
358.000000	3.451100
357.000000	3.451800
356.000000	3.427700
355.000000	3.428800
354.000000	3.432000
353.000000	3.400700
352.000000	3.411900
351.000000	3.364800
350.000000	3.369500
349.000000	3.333800
348.000000	3.354000
347.000000	3.335900
346.000000	3.315500
345.000000	3.320700
344.000000	3.294200
343.000000	3.323100
342.000000	3.241100
341.000000	3.228600
340.000000	3.267400
339.000000	3.276500
338.000000	3.242300
337.000000	3.220600
336.000000	3.174800
335.000000	3.235800
334.000000	3.226800
333.000000	3.221200
332.000000	3.178400
331.000000	3.121100
330.000000	3.101100
329.000000	3.110600
328.000000	3.158100
327.000000	3.143000
326.000000	3.176300
325.000000	3.134300
324.000000	3.173400
323.000000	3.165700
322.000000	3.125200
321.000000	2.957000
320.000000	3.032000
319.000000	3.043400
318.000000	3.111400
317.000000	3.080400
316.000000	3.096900
315.000000	3.106000
314.000000	3.110000
313.000000	3.095100
312.000000	3.106900
311.000000	3.097600
310.000000	3.086400
309.000000	3.087400
308.000000	3.112500
307.000000	3.060800
306.000000	3.078000
305.000000	3.098900
304.000000	3.069600
303.000000	3.133800
302.000000	3.061700
301.000000	3.077900
300.000000	3.096600
299.000000	3.077300
298.000000	3.080100
297.000000	3.082500
296.000000	3.053300
295.000000	3.061700
294.000000	3.085900
293.000000	3.058100
292.000000	3.037600
291.000000	3.058700
290.000000	3.030800
289.000000	3.089200
288.000000	3.041300
287.000000	3.086100
286.000000	3.029300
285.000000	3.047600
284.000000	3.047600
283.000000	3.058000
282.000000	3.061700
281.000000	3.070000
280.000000	3.067200
279.000000	3.058900
278.000000	3.075100
277.000000	3.061700
276.000000	3.091000
275.000000	3.098000
274.000000	3.081400
273.000000	3.073300
272.000000	3.126700
271.000000	3.119200
270.000000	3.117300
269.000000	3.130600
268.000000	3.168500
267.000000	3.136400
266.000000	3.162100
265.000000	3.157700
264.000000	3.198700
263.000000	3.219300
262.000000	3.200600
261.000000	3.232200
260.000000	3.231200
259.000000	3.235400
258.000000	3.245300
257.000000	3.257500
256.000000	3.240000
255.000000	3.256600
254.000000	3.228700
253.000000	3.270400
252.000000	3.251900
251.000000	3.242800
250.000000	3.257100
