PE UV       SUBTECH     SPECTRUM    ASCII       PEDS        4.00        
   -1
CICIMAUCR0232-1.ASC
24/06/14
11:54:46.00
24/06/14
11:54:46.00
Vinicio Soto Monge
C. resplendens. Sex M. Ventral 
250,000000
1
Lambda 1050
1050L1511233
PerkinElmer UV WinLab 6.3.2.0749 / 2.02.05 Lambda 900 UV/VIS/NIR, Aug  7 2015 09:38:08

0
0
3350/servo 860,8/2
0
0
UV/VIS
1
1
1
DoubleDePol,CommonBeamDepol,RBeamAtt,SBeamAtt,60mm sphere, WB InGaAs Detector
0
0
0
0
Program
Program
3350/servo 860,8/2
3350/0,2 860,8/0,2
3350/0,2 860,8/0,2
0
15.00
 
 
 
0
 
860,8
319,2
860,8
Front
100
on
S:100 R:100
0
0
0
0
 
0
 
 
 
0
 
 
0
0
0
0
0
 
 
 
 
0
0


0
0
#HDR
-1
-1
#GR
nm
%R
1.0
0.0
2500,000000
-1,000000
2251
8
57,243100
4,709900
#DATA
2482.000000	5.524155
2481.000000	5.539356
2480.000000	5.519425
2479.000000	5.535190
2478.000000	5.589691
2477.000000	5.520664
2476.000000	5.523366
2475.000000	5.522015
2474.000000	5.514471
2473.000000	5.527420
2472.000000	5.487558
2471.000000	5.517173
2470.000000	5.549265
2469.000000	5.529334
2468.000000	5.507039
2467.000000	5.529672
2466.000000	5.498819
2465.000000	5.508840
2464.000000	5.517061
2463.000000	5.534064
2462.000000	5.583610
2461.000000	5.502985
2460.000000	5.550504
2459.000000	5.557373
2458.000000	5.569197
2457.000000	5.588227
2456.000000	5.621107
2455.000000	5.582033
2454.000000	5.618855
2453.000000	5.638786
2452.000000	5.672004
2451.000000	5.684053
2450.000000	5.697115
2449.000000	5.740806
2448.000000	5.750828
2447.000000	5.785172
2446.000000	5.815913
2445.000000	5.837083
2444.000000	5.847780
2443.000000	5.870977
2442.000000	5.905884
2441.000000	5.921649
2440.000000	5.945183
2439.000000	5.957570
2438.000000	5.982568
2437.000000	6.009593
2436.000000	6.014097
2435.000000	6.026484
2434.000000	6.062517
2433.000000	6.101366
2432.000000	6.105757
2431.000000	6.126814
2430.000000	6.145957
2429.000000	6.164086
2428.000000	6.173658
2427.000000	6.195165
2426.000000	6.210254
2425.000000	6.229847
2424.000000	6.229059
2423.000000	6.246738
2422.000000	6.292793
2421.000000	6.286037
2420.000000	6.303266
2419.000000	6.314977
2418.000000	6.312499
2417.000000	6.343353
2416.000000	6.346506
2415.000000	6.357654
2414.000000	6.369590
2413.000000	6.392786
2412.000000	6.401344
2411.000000	6.410803
2410.000000	6.432198
2409.000000	6.432986
2408.000000	6.443909
2407.000000	6.456746
2406.000000	6.469020
2405.000000	6.480393
2404.000000	6.487825
2403.000000	6.518453
2402.000000	6.548518
2401.000000	6.574980
2400.000000	6.586579
2399.000000	6.601105
2398.000000	6.613604
2397.000000	6.629143
2396.000000	6.667316
2395.000000	6.680829
2394.000000	6.676775
2393.000000	6.675536
2392.000000	6.699071
2391.000000	6.719452
2390.000000	6.724519
2389.000000	6.735892
2388.000000	6.751207
2387.000000	6.759427
2386.000000	6.760440
2385.000000	6.754923
2384.000000	6.779808
2383.000000	6.791519
2382.000000	6.793546
2381.000000	6.799627
2380.000000	6.800753
2379.000000	6.805144
2378.000000	6.794897
2377.000000	6.780709
2376.000000	6.780709
2375.000000	6.787127
2374.000000	6.781047
2373.000000	6.770462
2372.000000	6.774065
2371.000000	6.765620
2370.000000	6.757963
2369.000000	6.749968
2368.000000	6.724519
2367.000000	6.709430
2366.000000	6.704588
2365.000000	6.689725
2364.000000	6.668217
2363.000000	6.655268
2362.000000	6.635562
2361.000000	6.614955
2360.000000	6.578021
2359.000000	6.551221
2358.000000	6.561017
2357.000000	6.542888
2356.000000	6.514850
2355.000000	6.512147
2354.000000	6.508994
2353.000000	6.502238
2352.000000	6.488613
2351.000000	6.504377
2350.000000	6.508206
2349.000000	6.508319
2348.000000	6.531402
2347.000000	6.535569
2346.000000	6.554486
2345.000000	6.576444
2344.000000	6.599866
2343.000000	6.620923
2342.000000	6.638152
2341.000000	6.661010
2340.000000	6.678126
2339.000000	6.685446
2338.000000	6.693215
2337.000000	6.704025
2336.000000	6.697832
2335.000000	6.695130
2334.000000	6.700647
2333.000000	6.692877
2332.000000	6.674523
2331.000000	6.662249
2330.000000	6.653804
2329.000000	6.650876
2328.000000	6.637476
2327.000000	6.590970
2326.000000	6.574305
2325.000000	6.566535
2324.000000	6.522282
2323.000000	6.492892
2322.000000	6.475213
2321.000000	6.437152
2320.000000	6.397065
2319.000000	6.361370
2318.000000	6.322634
2317.000000	6.285587
2316.000000	6.256985
2315.000000	6.219600
2314.000000	6.178612
2313.000000	6.141340
2312.000000	6.116342
2311.000000	6.075354
2310.000000	6.059252
2309.000000	6.011845
2308.000000	5.997544
2307.000000	6.004075
2306.000000	6.002386
2305.000000	5.994054
2304.000000	5.998107
2303.000000	6.008354
2302.000000	6.020966
2301.000000	6.038420
2300.000000	6.081322
2299.000000	6.102492
2298.000000	6.111950
2297.000000	6.142804
2296.000000	6.192238
2295.000000	6.231537
2294.000000	6.246400
2293.000000	6.278493
2292.000000	6.302815
2291.000000	6.323422
2290.000000	6.334345
2289.000000	6.345267
2288.000000	6.336259
2287.000000	6.341213
2286.000000	6.347519
2285.000000	6.353262
2284.000000	6.330291
2283.000000	6.321733
2282.000000	6.295271
2281.000000	6.270948
2280.000000	6.255296
2279.000000	6.244261
2278.000000	6.225681
2277.000000	6.209353
2276.000000	6.205637
2275.000000	6.202034
2274.000000	6.185031
2273.000000	6.180076
2272.000000	6.169041
2271.000000	6.178162
2270.000000	6.177149
2269.000000	6.190323
2268.000000	6.188972
2267.000000	6.224780
2266.000000	6.261264
2265.000000	6.285812
2264.000000	6.350785
2263.000000	6.404159
2262.000000	6.482307
2261.000000	6.514962
2260.000000	6.612590
2259.000000	6.689387
2258.000000	6.803680
2257.000000	6.911781
2256.000000	7.001864
2255.000000	7.118635
2254.000000	7.229438
2253.000000	7.348686
2252.000000	7.454197
2251.000000	7.541803
2250.000000	7.670060
2249.000000	7.763409
2248.000000	7.887274
2247.000000	7.969813
2246.000000	8.041542
2245.000000	8.136243
2244.000000	8.207296
2243.000000	8.276548
2242.000000	8.363929
2241.000000	8.426875
2240.000000	8.488019
2239.000000	8.557384
2238.000000	8.610308
2237.000000	8.645778
2236.000000	8.690482
2235.000000	8.749149
2234.000000	8.805789
2233.000000	8.822342
2232.000000	8.844413
2231.000000	8.902292
2230.000000	8.905332
2229.000000	8.950937
2228.000000	8.958481
2227.000000	8.946658
2226.000000	8.975372
2225.000000	8.973232
2224.000000	8.995866
2223.000000	8.994965
2222.000000	8.991812
2221.000000	8.983367
2220.000000	8.993163
2219.000000	8.973683
2218.000000	8.958932
2217.000000	8.973795
2216.000000	8.941365
2215.000000	8.950374
2214.000000	8.950486
2213.000000	8.928641
2212.000000	8.895761
2211.000000	8.884387
2210.000000	8.885063
2209.000000	8.880784
2208.000000	8.864231
2207.000000	8.855335
2206.000000	8.842161
2205.000000	8.851845
2204.000000	8.838107
2203.000000	8.823581
2202.000000	8.827973
2201.000000	8.842724
2200.000000	8.829549
2199.000000	8.822005
2198.000000	8.831125
2197.000000	8.800047
2196.000000	8.798358
2195.000000	8.792615
2194.000000	8.767504
2193.000000	8.785633
2192.000000	8.782593
2191.000000	8.770094
2190.000000	8.786309
2189.000000	8.759396
2188.000000	8.757257
2187.000000	8.761874
2186.000000	8.759509
2185.000000	8.745433
2184.000000	8.746334
2183.000000	8.724489
2182.000000	8.722462
2181.000000	8.713679
2180.000000	8.698365
2179.000000	8.694311
2178.000000	8.684514
2177.000000	8.710976
2176.000000	8.701067
2175.000000	8.685640
2174.000000	8.688456
2173.000000	8.684064
2172.000000	8.668750
2171.000000	8.680573
2170.000000	8.689807
2169.000000	8.678434
2168.000000	8.697914
2167.000000	8.715255
2166.000000	8.717958
2165.000000	8.712553
2164.000000	8.728543
2163.000000	8.725165
2162.000000	8.752302
2161.000000	8.750050
2160.000000	8.763000
2159.000000	8.781579
2158.000000	8.788223
2157.000000	8.798020
2156.000000	8.836531
2155.000000	8.855786
2154.000000	8.853759
2153.000000	8.872114
2152.000000	8.887540
2151.000000	8.913102
2150.000000	8.920083
2149.000000	8.936749
2148.000000	8.960959
2147.000000	8.975034
2146.000000	9.005775
2145.000000	9.000483
2144.000000	9.021202
2143.000000	9.037530
2142.000000	9.051380
2141.000000	9.059262
2140.000000	9.079756
2139.000000	9.106556
2138.000000	9.115452
2137.000000	9.113538
2136.000000	9.124573
2135.000000	9.139437
2134.000000	9.133581
2133.000000	9.156440
2132.000000	9.172317
2131.000000	9.159255
2130.000000	9.164885
2129.000000	9.176596
2128.000000	9.183916
2127.000000	9.165674
2126.000000	9.169727
2125.000000	9.161395
2124.000000	9.149233
2123.000000	9.144504
2122.000000	9.143040
2121.000000	9.144729
2120.000000	9.141689
2119.000000	9.121420
2118.000000	9.110160
2117.000000	9.101489
2116.000000	9.085274
2115.000000	9.068721
2114.000000	9.033926
2113.000000	9.026720
2112.000000	9.041583
2111.000000	9.022891
2110.000000	8.984943
2109.000000	8.966251
2108.000000	8.959382
2107.000000	8.966589
2106.000000	8.952513
2105.000000	8.929091
2104.000000	8.906796
2103.000000	8.884725
2102.000000	8.862204
2101.000000	8.842386
2100.000000	8.841147
2099.000000	8.835292
2098.000000	8.817500
2097.000000	8.798358
2096.000000	8.802074
2095.000000	8.783719
2094.000000	8.771220
2093.000000	8.755455
2092.000000	8.740479
2091.000000	8.729331
2090.000000	8.723926
2089.000000	8.721336
2088.000000	8.711990
2087.000000	8.699829
2086.000000	8.687442
2085.000000	8.682600
2084.000000	8.653098
2083.000000	8.633955
2082.000000	8.627536
2081.000000	8.615938
2080.000000	8.614137
2079.000000	8.596232
2078.000000	8.571122
2077.000000	8.558397
2076.000000	8.545898
2075.000000	8.540155
2074.000000	8.521013
2073.000000	8.485429
2072.000000	8.462683
2071.000000	8.447707
2070.000000	8.428677
2069.000000	8.420569
2068.000000	8.394558
2067.000000	8.360326
2066.000000	8.346475
2065.000000	8.340958
2064.000000	8.333639
2063.000000	8.304474
2062.000000	8.290286
2061.000000	8.300420
2060.000000	8.277787
2059.000000	8.259432
2058.000000	8.255829
2057.000000	8.245920
2056.000000	8.256504
2055.000000	8.273395
2054.000000	8.284993
2053.000000	8.303573
2052.000000	8.322603
2051.000000	8.344561
2050.000000	8.375415
2049.000000	8.400751
2048.000000	8.437460
2047.000000	8.467300
2046.000000	8.485767
2045.000000	8.522026
2044.000000	8.575288
2043.000000	8.625622
2042.000000	8.668525
2041.000000	8.705346
2040.000000	8.756356
2039.000000	8.805339
2038.000000	8.843737
2037.000000	8.891482
2036.000000	8.939226
2035.000000	8.982128
2034.000000	9.005888
2033.000000	9.042372
2032.000000	9.075252
2031.000000	9.107570
2030.000000	9.132455
2029.000000	9.151598
2028.000000	9.158354
2027.000000	9.180875
2026.000000	9.206774
2025.000000	9.233574
2024.000000	9.240668
2023.000000	9.258009
2022.000000	9.274562
2021.000000	9.280418
2020.000000	9.291791
2019.000000	9.299560
2018.000000	9.318703
2017.000000	9.321744
2016.000000	9.336833
2015.000000	9.314537
2014.000000	9.315663
2013.000000	9.309695
2012.000000	9.314987
2011.000000	9.323095
2010.000000	9.310934
2009.000000	9.291566
2008.000000	9.301475
2007.000000	9.269270
2006.000000	9.246411
2005.000000	9.236052
2004.000000	9.213080
2003.000000	9.186618
2002.000000	9.163759
2001.000000	9.149233
2000.000000	9.120519
1999.000000	9.085049
1998.000000	9.053069
1997.000000	9.035052
1996.000000	8.989673
1995.000000	8.967602
1994.000000	8.943280
1993.000000	8.907697
1992.000000	8.853196
1991.000000	8.823694
1990.000000	8.779778
1989.000000	8.740591
1988.000000	8.703770
1987.000000	8.662556
1986.000000	8.619542
1985.000000	8.588125
1984.000000	8.555807
1983.000000	8.534300
1982.000000	8.477885
1981.000000	8.445905
1980.000000	8.422258
1979.000000	8.349741
1978.000000	8.330260
1977.000000	8.283417
1976.000000	8.223624
1975.000000	8.208985
1974.000000	8.166759
1973.000000	8.123181
1972.000000	8.087147
1971.000000	8.062599
1970.000000	8.009563
1969.000000	7.965985
1968.000000	7.966885
1967.000000	7.924096
1966.000000	7.889639
1965.000000	7.869595
1964.000000	7.826580
1963.000000	7.800343
1962.000000	7.776021
1961.000000	7.731880
1960.000000	7.702940
1959.000000	7.664655
1958.000000	7.655534
1957.000000	7.587746
1956.000000	7.575359
1955.000000	7.572882
1954.000000	7.519958
1953.000000	7.504756
1952.000000	7.485388
1951.000000	7.421654
1950.000000	7.423681
1949.000000	7.404426
1948.000000	7.384269
1947.000000	7.357582
1946.000000	7.325377
1945.000000	7.336075
1944.000000	7.320423
1943.000000	7.301505
1942.000000	7.294073
1941.000000	7.288330
1940.000000	7.269638
1939.000000	7.247455
1938.000000	7.266598
1937.000000	7.238559
1936.000000	7.239798
1935.000000	7.257026
1934.000000	7.273692
1933.000000	7.281574
1932.000000	7.285628
1931.000000	7.280898
1930.000000	7.334498
1929.000000	7.328643
1928.000000	7.360848
1927.000000	7.394066
1926.000000	7.391701
1925.000000	7.461516
1924.000000	7.509824
1923.000000	7.531331
1922.000000	7.600020
1921.000000	7.658236
1920.000000	7.713525
1919.000000	7.775908
1918.000000	7.823202
1917.000000	7.897746
1916.000000	7.982200
1915.000000	8.047285
1914.000000	8.111019
1913.000000	8.204819
1912.000000	8.285331
1911.000000	8.392418
1910.000000	8.460431
1909.000000	8.560199
1908.000000	8.679335
1907.000000	8.769869
1906.000000	8.899251
1905.000000	9.035953
1904.000000	9.163985
1903.000000	9.297083
1902.000000	9.438515
1901.000000	9.570825
1900.000000	9.728809
1899.000000	9.918548
1898.000000	10.060430
1897.000000	10.260528
1896.000000	10.426169
1895.000000	10.611629
1894.000000	10.796751
1893.000000	10.992570
1892.000000	11.193569
1891.000000	11.455150
1890.000000	11.708397
1889.000000	11.954551
1888.000000	12.220072
1887.000000	12.493139
1886.000000	12.804378
1885.000000	13.136899
1884.000000	13.517277
1883.000000	13.925131
1882.000000	14.339290
1881.000000	14.779462
1880.000000	15.218282
1879.000000	15.653048
1878.000000	16.082522
1877.000000	16.537894
1876.000000	16.960950
1875.000000	17.366101
1874.000000	17.753686
1873.000000	18.146225
1872.000000	18.553629
1871.000000	18.910923
1870.000000	19.261461
1869.000000	19.592744
1868.000000	19.922112
1867.000000	20.133921
1866.000000	20.339199
1865.000000	20.530852
1864.000000	20.733203
1863.000000	20.887921
1862.000000	21.019106
1861.000000	21.176977
1860.000000	21.306135
1859.000000	21.436756
1858.000000	21.517043
1857.000000	21.595416
1856.000000	21.658362
1855.000000	21.695183
1854.000000	21.735834
1853.000000	21.774232
1852.000000	21.770291
1851.000000	21.766012
1850.000000	21.783015
1849.000000	21.777385
1848.000000	21.761282
1847.000000	21.738874
1846.000000	21.707908
1845.000000	21.670073
1844.000000	21.636066
1843.000000	21.600370
1842.000000	21.617261
1841.000000	21.625031
1840.000000	21.601609
1839.000000	21.580890
1838.000000	21.523687
1837.000000	21.477406
1836.000000	21.444526
1835.000000	21.413334
1834.000000	21.369531
1833.000000	21.305909
1832.000000	21.238797
1831.000000	21.191165
1830.000000	21.134863
1829.000000	21.071917
1828.000000	20.992869
1827.000000	20.913483
1826.000000	20.852000
1825.000000	20.800428
1824.000000	20.740972
1823.000000	20.697957
1822.000000	20.667779
1821.000000	20.657082
1820.000000	20.619247
1819.000000	20.577020
1818.000000	20.546504
1817.000000	20.519592
1816.000000	20.506755
1815.000000	20.513061
1814.000000	20.498422
1813.000000	20.476014
1812.000000	20.456083
1811.000000	20.438066
1810.000000	20.408789
1809.000000	20.367801
1808.000000	20.329741
1807.000000	20.299900
1806.000000	20.259250
1805.000000	20.190223
1804.000000	20.129079
1803.000000	20.084150
1802.000000	20.047666
1801.000000	20.007691
1800.000000	19.948349
1799.000000	19.900154
1798.000000	19.845203
1797.000000	19.792504
1796.000000	19.744985
1795.000000	19.689133
1794.000000	19.644992
1793.000000	19.605693
1792.000000	19.551643
1791.000000	19.490837
1790.000000	19.426990
1789.000000	19.373840
1788.000000	19.318439
1787.000000	19.256619
1786.000000	19.194686
1785.000000	19.118341
1784.000000	19.043346
1783.000000	18.967000
1782.000000	18.898311
1781.000000	18.813070
1780.000000	18.742354
1779.000000	18.674904
1778.000000	18.602049
1777.000000	18.525928
1776.000000	18.431115
1775.000000	18.328983
1774.000000	18.237097
1773.000000	18.123704
1772.000000	18.016505
1771.000000	17.917638
1770.000000	17.810101
1769.000000	17.690853
1768.000000	17.585680
1767.000000	17.484561
1766.000000	17.392901
1765.000000	17.305520
1764.000000	17.257663
1763.000000	17.237957
1762.000000	17.223544
1761.000000	17.240322
1760.000000	17.271288
1759.000000	17.330856
1758.000000	17.402810
1757.000000	17.472512
1756.000000	17.511361
1755.000000	17.574982
1754.000000	17.639730
1753.000000	17.671372
1752.000000	17.681056
1751.000000	17.697158
1750.000000	17.667881
1749.000000	17.639843
1748.000000	17.623853
1747.000000	17.560006
1746.000000	17.495371
1745.000000	17.394365
1744.000000	17.290881
1743.000000	17.168255
1742.000000	17.004077
1741.000000	16.836972
1740.000000	16.644644
1739.000000	16.441392
1738.000000	16.257284
1737.000000	16.090629
1736.000000	15.935685
1735.000000	15.803825
1734.000000	15.731083
1733.000000	15.673204
1732.000000	15.667912
1731.000000	15.713742
1730.000000	15.792903
1729.000000	15.884901
1728.000000	15.975772
1727.000000	16.069572
1726.000000	16.168551
1725.000000	16.268544
1724.000000	16.322482
1723.000000	16.364371
1722.000000	16.430357
1721.000000	16.467404
1720.000000	16.497582
1719.000000	16.522242
1718.000000	16.551069
1717.000000	16.567172
1716.000000	16.608610
1715.000000	16.663223
1714.000000	16.754320
1713.000000	16.827851
1712.000000	16.871317
1711.000000	16.912980
1710.000000	16.960612
1709.000000	16.946086
1708.000000	16.949352
1707.000000	16.937303
1706.000000	16.905774
1705.000000	16.872668
1704.000000	16.835959
1703.000000	16.761752
1702.000000	16.660746
1701.000000	16.551520
1700.000000	16.438690
1699.000000	16.293092
1698.000000	16.169565
1697.000000	16.028134
1696.000000	15.928591
1695.000000	15.886590
1694.000000	15.890531
1693.000000	15.920821
1692.000000	16.004261
1691.000000	16.142765
1690.000000	16.285210
1689.000000	16.442856
1688.000000	16.568861
1687.000000	16.608723
1686.000000	16.650612
1685.000000	16.680114
1684.000000	16.741709
1683.000000	16.849584
1682.000000	17.045178
1681.000000	17.345044
1680.000000	17.724184
1679.000000	18.203766
1678.000000	18.701929
1677.000000	19.231508
1676.000000	19.688345
1675.000000	20.145294
1674.000000	20.504052
1673.000000	20.882066
1672.000000	21.153555
1671.000000	21.409055
1670.000000	21.641696
1669.000000	21.855870
1668.000000	22.020273
1667.000000	22.162718
1666.000000	22.281628
1665.000000	22.396822
1664.000000	22.485555
1663.000000	22.559761
1662.000000	22.651984
1661.000000	22.704120
1660.000000	22.752765
1659.000000	22.823706
1658.000000	22.856362
1657.000000	22.891607
1656.000000	22.907484
1655.000000	22.903543
1654.000000	22.898476
1653.000000	22.887778
1652.000000	22.876631
1651.000000	22.880121
1650.000000	22.840484
1649.000000	22.784633
1648.000000	22.750626
1647.000000	22.712340
1646.000000	22.676420
1645.000000	22.633630
1644.000000	22.584309
1643.000000	22.505711
1642.000000	22.458530
1641.000000	22.411461
1640.000000	22.314283
1639.000000	22.258882
1638.000000	22.195711
1637.000000	22.112609
1636.000000	22.076913
1635.000000	21.997977
1634.000000	21.927487
1633.000000	21.846974
1632.000000	21.775020
1631.000000	21.668721
1630.000000	21.587533
1629.000000	21.513102
1628.000000	21.418627
1627.000000	21.342619
1626.000000	21.251184
1625.000000	21.188463
1624.000000	21.071242
1623.000000	20.995909
1622.000000	20.935215
1621.000000	20.833308
1620.000000	20.774979
1619.000000	20.693003
1618.000000	20.610351
1617.000000	20.536708
1616.000000	20.455182
1615.000000	20.376584
1614.000000	20.322646
1613.000000	20.234702
1612.000000	20.151713
1611.000000	20.105995
1610.000000	20.010169
1609.000000	19.968505
1608.000000	19.876395
1607.000000	19.814349
1606.000000	19.748926
1605.000000	19.681589
1604.000000	19.613913
1603.000000	19.543761
1602.000000	19.496467
1601.000000	19.418094
1600.000000	19.353909
1599.000000	19.283194
1598.000000	19.203582
1597.000000	19.137709
1596.000000	19.084221
1595.000000	19.013731
1594.000000	18.957316
1593.000000	18.896510
1592.000000	18.832212
1591.000000	18.774671
1590.000000	18.735598
1589.000000	18.684025
1588.000000	18.638307
1587.000000	18.587748
1586.000000	18.538990
1585.000000	18.493610
1584.000000	18.440799
1583.000000	18.410621
1582.000000	18.382470
1581.000000	18.351166
1580.000000	18.310290
1579.000000	18.273356
1578.000000	18.250948
1577.000000	18.218743
1576.000000	18.216941
1575.000000	18.193745
1574.000000	18.189015
1573.000000	18.166044
1572.000000	18.168183
1571.000000	18.153770
1570.000000	18.145775
1569.000000	18.165706
1568.000000	18.146000
1567.000000	18.161540
1566.000000	18.158837
1565.000000	18.153883
1564.000000	18.151067
1563.000000	18.176516
1562.000000	18.183610
1561.000000	18.185074
1560.000000	18.173025
1559.000000	18.174377
1558.000000	18.165368
1557.000000	18.156472
1556.000000	18.145212
1555.000000	18.135528
1554.000000	18.129673
1553.000000	18.115935
1552.000000	18.101859
1551.000000	18.094653
1550.000000	18.074947
1549.000000	18.045219
1548.000000	18.000402
1547.000000	17.967522
1546.000000	17.950519
1545.000000	17.951532
1544.000000	17.938808
1543.000000	17.909193
1542.000000	17.888136
1541.000000	17.883744
1540.000000	17.865164
1539.000000	17.850526
1538.000000	17.831496
1537.000000	17.805934
1536.000000	17.795575
1535.000000	17.777333
1534.000000	17.757627
1533.000000	17.731503
1532.000000	17.713824
1531.000000	17.687474
1530.000000	17.652004
1529.000000	17.609665
1528.000000	17.580387
1527.000000	17.548633
1526.000000	17.509221
1525.000000	17.474201
1524.000000	17.435465
1523.000000	17.398869
1522.000000	17.357093
1521.000000	17.314415
1520.000000	17.284012
1519.000000	17.245952
1518.000000	17.199221
1517.000000	17.146184
1516.000000	17.091571
1515.000000	17.054524
1514.000000	17.021644
1513.000000	16.971647
1512.000000	16.907125
1511.000000	16.863209
1510.000000	16.821095
1509.000000	16.773125
1508.000000	16.720989
1507.000000	16.671556
1506.000000	16.618970
1505.000000	16.571676
1504.000000	16.523819
1503.000000	16.472133
1502.000000	16.426078
1501.000000	16.374280
1500.000000	16.325072
1499.000000	16.278679
1498.000000	16.250528
1497.000000	16.225417
1496.000000	16.170578
1495.000000	16.123510
1494.000000	16.087589
1493.000000	16.058199
1492.000000	16.043673
1491.000000	16.008315
1490.000000	15.978250
1489.000000	15.959895
1488.000000	15.934559
1487.000000	15.907421
1486.000000	15.889743
1485.000000	15.876793
1484.000000	15.857425
1483.000000	15.841886
1482.000000	15.825783
1481.000000	15.813960
1480.000000	15.802024
1479.000000	15.788061
1478.000000	15.773084
1477.000000	15.754955
1476.000000	15.764526
1475.000000	15.760247
1474.000000	15.754167
1473.000000	15.753941
1472.000000	15.769931
1471.000000	15.773647
1470.000000	15.781530
1469.000000	15.773760
1468.000000	15.788511
1467.000000	15.785471
1466.000000	15.796393
1465.000000	15.814298
1464.000000	15.834792
1463.000000	15.852696
1462.000000	15.866996
1461.000000	15.898864
1460.000000	15.938050
1459.000000	15.978475
1458.000000	16.018337
1457.000000	16.056060
1456.000000	16.105943
1455.000000	16.158755
1454.000000	16.211792
1453.000000	16.277440
1452.000000	16.341062
1451.000000	16.406710
1450.000000	16.479790
1449.000000	16.546340
1448.000000	16.608948
1447.000000	16.700495
1446.000000	16.785399
1445.000000	16.885843
1444.000000	16.949802
1443.000000	17.016576
1442.000000	17.128168
1441.000000	17.232777
1440.000000	17.329054
1439.000000	17.410355
1438.000000	17.493232
1437.000000	17.624979
1436.000000	17.716189
1435.000000	17.831045
1434.000000	17.928223
1433.000000	18.041954
1432.000000	18.165931
1431.000000	18.287094
1430.000000	18.412535
1429.000000	18.550814
1428.000000	18.706884
1427.000000	18.856535
1426.000000	19.027469
1425.000000	19.187705
1424.000000	19.384087
1423.000000	19.584073
1422.000000	19.775163
1421.000000	19.981229
1420.000000	20.216911
1419.000000	20.457547
1418.000000	20.682981
1417.000000	20.883079
1416.000000	21.127656
1415.000000	21.397907
1414.000000	21.679194
1413.000000	21.967574
1412.000000	22.202580
1411.000000	22.487357
1410.000000	22.812784
1409.000000	23.170754
1408.000000	23.549443
1407.000000	23.951441
1406.000000	24.328666
1405.000000	24.743276
1404.000000	25.214301
1403.000000	25.659765
1402.000000	26.049264
1401.000000	26.516123
1400.000000	26.960685
1399.000000	27.406937
1398.000000	27.732139
1397.000000	28.033582
1396.000000	28.436931
1395.000000	28.847713
1394.000000	29.210074
1393.000000	29.478186
1392.000000	29.809693
1391.000000	30.195477
1390.000000	30.565946
1389.000000	30.914457
1388.000000	31.371969
1387.000000	31.920916
1386.000000	32.431691
1385.000000	32.939087
1384.000000	33.581046
1383.000000	34.226495
1382.000000	34.855166
1381.000000	35.458164
1380.000000	35.923108
1379.000000	36.228604
1378.000000	36.530159
1377.000000	36.773498
1376.000000	37.023142
1375.000000	37.244635
1374.000000	37.541235
1373.000000	37.863172
1372.000000	38.253459
1371.000000	38.670096
1370.000000	39.124568
1369.000000	39.489520
1368.000000	39.877668
1367.000000	40.257821
1366.000000	40.559376
1365.000000	40.787512
1364.000000	41.062943
1363.000000	41.278130
1362.000000	41.504691
1361.000000	41.716162
1360.000000	41.886308
1359.000000	41.941034
1358.000000	42.075033
1357.000000	42.231666
1356.000000	42.432778
1355.000000	42.765412
1354.000000	43.242855
1353.000000	43.743157
1352.000000	44.287938
1351.000000	44.869203
1350.000000	45.444837
1349.000000	45.987366
1348.000000	46.488006
1347.000000	46.967251
1346.000000	47.421723
1345.000000	47.852097
1344.000000	48.303754
1343.000000	48.691339
1342.000000	49.076560
1341.000000	49.465158
1340.000000	49.837091
1339.000000	50.223437
1338.000000	50.582983
1337.000000	50.932058
1336.000000	51.289915
1335.000000	51.640565
1334.000000	51.951467
1333.000000	52.289168
1332.000000	52.598605
1331.000000	52.914123
1330.000000	53.188540
1329.000000	53.484803
1328.000000	53.781966
1327.000000	54.057172
1326.000000	54.296682
1325.000000	54.539119
1324.000000	54.791579
1323.000000	55.005190
1322.000000	55.220828
1321.000000	55.423854
1320.000000	55.637690
1319.000000	55.822361
1318.000000	56.010523
1317.000000	56.177065
1316.000000	56.361737
1315.000000	56.516906
1314.000000	56.661040
1313.000000	56.826794
1312.000000	56.969351
1311.000000	57.099184
1310.000000	57.222711
1309.000000	57.356486
1308.000000	57.457492
1307.000000	57.568407
1306.000000	57.655451
1305.000000	57.729094
1304.000000	57.813548
1303.000000	57.882799
1302.000000	57.929981
1301.000000	57.968041
1300.000000	58.021979
1299.000000	58.053170
1298.000000	58.082222
1297.000000	58.119494
1296.000000	58.129629
1295.000000	58.153726
1294.000000	58.171292
1293.000000	58.179062
1292.000000	58.171743
1291.000000	58.146407
1290.000000	58.133908
1289.000000	58.120395
1288.000000	58.094271
1287.000000	58.059363
1286.000000	58.011506
1285.000000	57.944732
1284.000000	57.917369
1283.000000	57.852058
1282.000000	57.766817
1281.000000	57.710852
1280.000000	57.637096
1279.000000	57.550166
1278.000000	57.457154
1277.000000	57.404117
1276.000000	57.338469
1275.000000	57.267866
1274.000000	57.214379
1273.000000	57.143325
1272.000000	57.093667
1271.000000	57.047611
1270.000000	57.005047
1269.000000	56.958091
1268.000000	56.903928
1267.000000	56.847400
1266.000000	56.805737
1265.000000	56.754727
1264.000000	56.690430
1263.000000	56.632889
1262.000000	56.573321
1261.000000	56.514767
1260.000000	56.441123
1259.000000	56.345635
1258.000000	56.248344
1257.000000	56.170197
1256.000000	56.085856
1255.000000	56.012663
1254.000000	55.939582
1253.000000	55.849724
1252.000000	55.755699
1251.000000	55.645347
1250.000000	55.538935
1249.000000	55.442546
1248.000000	55.327239
1247.000000	55.196055
1246.000000	55.046966
1245.000000	54.902832
1244.000000	54.780431
1243.000000	54.626501
1242.000000	54.454666
1241.000000	54.282719
1240.000000	54.104466
1239.000000	53.929929
1238.000000	53.765639
1237.000000	53.594255
1236.000000	53.399561
1235.000000	53.203292
1234.000000	53.011188
1233.000000	52.803320
1232.000000	52.603785
1231.000000	52.395241
1230.000000	52.146723
1229.000000	51.925793
1228.000000	51.718263
1227.000000	51.487874
1226.000000	51.265592
1225.000000	51.036104
1224.000000	50.797157
1223.000000	50.570597
1222.000000	50.335253
1221.000000	50.094392
1220.000000	49.862877
1219.000000	49.645663
1218.000000	49.433966
1217.000000	49.220806
1216.000000	49.020482
1215.000000	48.839865
1214.000000	48.660486
1213.000000	48.453406
1212.000000	48.284274
1211.000000	48.121222
1210.000000	47.941731
1209.000000	47.775639
1208.000000	47.636009
1207.000000	47.505838
1206.000000	47.389068
1205.000000	47.265203
1204.000000	47.190546
1203.000000	47.131316
1202.000000	47.069946
1201.000000	47.022540
1200.000000	46.957679
1199.000000	46.877955
1198.000000	46.778976
1197.000000	46.655787
1196.000000	46.482376
1195.000000	46.251649
1194.000000	45.961242
1193.000000	45.599668
1192.000000	45.172672
1191.000000	44.683968
1190.000000	44.163735
1189.000000	43.667825
1188.000000	43.243868
1187.000000	42.912135
1186.000000	42.714176
1185.000000	42.673301
1184.000000	42.755165
1183.000000	42.988706
1182.000000	43.372688
1181.000000	43.871751
1180.000000	44.448625
1179.000000	45.013674
1178.000000	45.557216
1177.000000	46.081053
1176.000000	46.545547
1175.000000	46.948221
1174.000000	47.328036
1173.000000	47.683979
1172.000000	48.020667
1171.000000	48.391248
1170.000000	48.775117
1169.000000	49.180719
1168.000000	49.574610
1167.000000	49.973342
1166.000000	50.382322
1165.000000	50.782519
1164.000000	51.232937
1163.000000	51.659145
1162.000000	52.104046
1161.000000	52.537799
1160.000000	52.959165
1159.000000	53.364091
1158.000000	53.784894
1157.000000	54.171353
1156.000000	54.536417
1155.000000	54.872992
1154.000000	55.143243
1153.000000	55.355052
1152.000000	55.546142
1151.000000	55.665053
1150.000000	55.746578
1149.000000	55.817181
1148.000000	55.883168
1147.000000	55.976517
1146.000000	56.121439
1145.000000	56.308025
1144.000000	56.590887
1143.000000	56.927462
1142.000000	57.306377
1141.000000	57.723914
1140.000000	58.166563
1139.000000	58.616981
1138.000000	59.058616
1137.000000	59.538987
1136.000000	60.035010
1135.000000	60.558396
1134.000000	61.088426
1133.000000	61.579269
1132.000000	61.991177
1131.000000	62.375834
1130.000000	62.740785
1129.000000	63.086707
1128.000000	63.359435
1127.000000	63.594215
1126.000000	63.785418
1125.000000	63.926061
1124.000000	64.033936
1123.000000	64.128074
1122.000000	64.219396
1121.000000	64.304525
1120.000000	64.340333
1119.000000	64.391906
1118.000000	64.413414
1117.000000	64.450573
1116.000000	64.458343
1115.000000	64.458118
1114.000000	64.422647
1113.000000	64.416679
1112.000000	64.397311
1111.000000	64.389992
1110.000000	64.389879
1109.000000	64.366458
1108.000000	64.336392
1107.000000	64.332564
1106.000000	64.305088
1105.000000	64.309367
1104.000000	64.284369
1103.000000	64.248786
1102.000000	64.241692
1101.000000	64.207910
1100.000000	64.197326
1099.000000	64.153522
1098.000000	64.124470
1097.000000	64.108143
1096.000000	64.058597
1095.000000	64.006799
1094.000000	63.978873
1093.000000	63.942614
1092.000000	63.886537
1091.000000	63.834176
1090.000000	63.797579
1089.000000	63.740714
1088.000000	63.691731
1087.000000	63.635091
1086.000000	63.592752
1085.000000	63.541517
1084.000000	63.463031
1083.000000	63.412472
1082.000000	63.327680
1081.000000	63.270703
1080.000000	63.222846
1079.000000	63.161589
1078.000000	63.111818
1077.000000	63.047408
1076.000000	63.005631
1075.000000	62.925682
1074.000000	62.873321
1073.000000	62.794836
1072.000000	62.745515
1071.000000	62.686397
1070.000000	62.634036
1069.000000	62.576383
1068.000000	62.506906
1067.000000	62.436415
1066.000000	62.375609
1065.000000	62.305681
1064.000000	62.244988
1063.000000	62.162899
1062.000000	62.116731
1061.000000	62.053222
1060.000000	61.996695
1059.000000	61.931609
1058.000000	61.868438
1057.000000	61.800425
1056.000000	61.712255
1055.000000	61.656967
1054.000000	61.563054
1053.000000	61.519251
1052.000000	61.445383
1051.000000	61.414867
1050.000000	61.352033
1049.000000	61.284358
1048.000000	61.222538
1047.000000	61.198553
1046.000000	61.134369
1045.000000	61.086399
1044.000000	61.036628
1043.000000	60.988095
1042.000000	60.936185
1041.000000	60.903304
1040.000000	60.868284
1039.000000	60.832026
1038.000000	60.756017
1037.000000	60.692959
1036.000000	60.657488
1035.000000	60.595443
1034.000000	60.539929
1033.000000	60.488582
1032.000000	60.393769
1031.000000	60.340619
1030.000000	60.265174
1029.000000	60.207183
1028.000000	60.155385
1027.000000	60.096718
1026.000000	60.014066
1025.000000	59.969362
1024.000000	59.895043
1023.000000	59.818697
1022.000000	59.753499
1021.000000	59.700913
1020.000000	59.626706
1019.000000	59.569841
1018.000000	59.510048
1017.000000	59.476492
1016.000000	59.434941
1015.000000	59.384043
1014.000000	59.309837
1013.000000	59.266259
1012.000000	59.281799
1011.000000	59.264345
1010.000000	59.223582
1009.000000	59.219190
1008.000000	59.227861
1007.000000	59.226735
1006.000000	59.234505
1005.000000	59.236644
1004.000000	59.235518
1003.000000	59.248355
1002.000000	59.259728
1001.000000	59.252184
1000.000000	59.251508
999.000000	59.247567
998.000000	59.256800
997.000000	59.268286
996.000000	59.290244
995.000000	59.302180
994.000000	59.293622
993.000000	59.304094
992.000000	59.336412
991.000000	59.337988
990.000000	59.333259
989.000000	59.352514
988.000000	59.377512
987.000000	59.394741
986.000000	59.399245
985.000000	59.433589
984.000000	59.443611
983.000000	59.473789
982.000000	59.498675
981.000000	59.522209
980.000000	59.543041
979.000000	59.553851
978.000000	59.573332
977.000000	59.610829
976.000000	59.609703
975.000000	59.636390
974.000000	59.671636
973.000000	59.691116
972.000000	59.704178
971.000000	59.737960
970.000000	59.749333
969.000000	59.764309
968.000000	59.778722
967.000000	59.785028
966.000000	59.819147
965.000000	59.824890
964.000000	59.846623
963.000000	59.872747
962.000000	59.885809
961.000000	59.919478
960.000000	59.950444
959.000000	59.977357
958.000000	59.986590
957.000000	59.992446
956.000000	60.020147
955.000000	60.047284
954.000000	60.039289
953.000000	60.060797
952.000000	60.072508
951.000000	60.070481
950.000000	60.078926
949.000000	60.060346
948.000000	60.054491
947.000000	60.058432
946.000000	60.063162
945.000000	60.041091
944.000000	60.012490
943.000000	60.018232
942.000000	60.005058
941.000000	59.966434
940.000000	59.935693
939.000000	59.930739
938.000000	59.902587
937.000000	59.843920
936.000000	59.812166
935.000000	59.809689
934.000000	59.795613
933.000000	59.745391
932.000000	59.706656
931.000000	59.661163
930.000000	59.638305
929.000000	59.602158
928.000000	59.540001
927.000000	59.488653
926.000000	59.475591
925.000000	59.424581
924.000000	59.351276
923.000000	59.287541
922.000000	59.210745
921.000000	59.137327
920.000000	59.077646
919.000000	59.066611
918.000000	59.011660
917.000000	58.918311
916.000000	58.820232
915.000000	58.739045
914.000000	58.662023
913.000000	58.562706
912.000000	58.460686
911.000000	58.390984
910.000000	58.320043
909.000000	58.239643
908.000000	58.166450
907.000000	58.114765
906.000000	58.036054
905.000000	57.967028
904.000000	57.930319
903.000000	57.896650
902.000000	57.867035
901.000000	57.836632
900.000000	57.809494
899.000000	57.787536
898.000000	57.748012
897.000000	57.699479
896.000000	57.654325
895.000000	57.626511
894.000000	57.584960
893.000000	57.525618
892.000000	57.455465
891.000000	57.393420
890.000000	57.296580
889.000000	57.237463
888.000000	57.184313
887.000000	57.111571
886.000000	57.010677
885.000000	56.916652
884.000000	56.811592
883.000000	56.723648
882.000000	56.605413
881.000000	56.514316
880.000000	56.400248
879.000000	56.280887
878.000000	56.130335
877.000000	55.923480
876.000000	55.757276
875.000000	55.622826
874.000000	55.417435
873.000000	55.188510
872.000000	54.931884
871.000000	54.773675
870.000000	54.739893
869.000000	54.702058
868.000000	54.747551
867.000000	54.750140
866.000000	54.744510
865.000000	54.751717
864.000000	54.746650
863.000000	54.738767
862.000000	54.750591
861.000000	54.745298
860.000000	54.718836
859.000000	54.718048
858.000000	54.711067
857.000000	53.883100
856.000000	55.378300
855.000000	54.871800
854.000000	55.352800
853.000000	55.486300
852.000000	55.240400
851.000000	55.268600
850.000000	55.010400
849.000000	55.504300
848.000000	55.141800
847.000000	54.715700
846.000000	54.978900
845.000000	55.006800
844.000000	55.044900
843.000000	54.982100
842.000000	54.908800
841.000000	55.195600
840.000000	55.029800
839.000000	54.960800
838.000000	54.765600
837.000000	54.995600
836.000000	54.774900
835.000000	54.972800
834.000000	54.823300
833.000000	54.868500
832.000000	54.811100
831.000000	54.659300
830.000000	54.536100
829.000000	54.632600
828.000000	54.550500
827.000000	54.458700
826.000000	54.340100
825.000000	54.458300
824.000000	54.386800
823.000000	54.292200
822.000000	54.265200
821.000000	54.256900
820.000000	54.316500
819.000000	54.075100
818.000000	54.050600
817.000000	54.017900
816.000000	53.869100
815.000000	53.961900
814.000000	53.736000
813.000000	53.756000
812.000000	53.907200
811.000000	53.866800
810.000000	53.519400
809.000000	53.717700
808.000000	53.580700
807.000000	53.525000
806.000000	53.502000
805.000000	53.371600
804.000000	53.450300
803.000000	53.252700
802.000000	52.986200
801.000000	52.969500
800.000000	52.948300
799.000000	52.998200
798.000000	52.969200
797.000000	52.779300
796.000000	52.880100
795.000000	52.701000
794.000000	52.546800
793.000000	52.531500
792.000000	52.446400
791.000000	52.473700
790.000000	52.435800
789.000000	52.353200
788.000000	52.358000
787.000000	52.234600
786.000000	52.109800
785.000000	51.954200
784.000000	51.980000
783.000000	51.850500
782.000000	51.773600
781.000000	51.599500
780.000000	51.611300
779.000000	51.388300
778.000000	51.271400
777.000000	51.245700
776.000000	51.130500
775.000000	51.040100
774.000000	50.897900
773.000000	50.814400
772.000000	50.804000
771.000000	50.655300
770.000000	50.597400
769.000000	50.499800
768.000000	50.299100
767.000000	50.318900
766.000000	50.178000
765.000000	50.133200
764.000000	49.965400
763.000000	49.812000
762.000000	49.701700
761.000000	49.719600
760.000000	49.554700
759.000000	49.519100
758.000000	49.310800
757.000000	49.128300
756.000000	49.071100
755.000000	48.945200
754.000000	48.885700
753.000000	48.746800
752.000000	48.651700
751.000000	48.549500
750.000000	48.347500
749.000000	48.294900
748.000000	48.195900
747.000000	47.963800
746.000000	47.812900
745.000000	47.696700
744.000000	47.519400
743.000000	47.455500
742.000000	47.295200
741.000000	47.088700
740.000000	46.981500
739.000000	46.798200
738.000000	46.692800
737.000000	46.523800
736.000000	46.435400
735.000000	46.284900
734.000000	46.111000
733.000000	45.971300
732.000000	45.826200
731.000000	45.640800
730.000000	45.413400
729.000000	45.258600
728.000000	45.111500
727.000000	44.951500
726.000000	44.790600
725.000000	44.627000
724.000000	44.399600
723.000000	44.166700
722.000000	43.949400
721.000000	43.725500
720.000000	43.553700
719.000000	43.382400
718.000000	43.130700
717.000000	42.909500
716.000000	42.631500
715.000000	42.501900
714.000000	42.316000
713.000000	42.083200
712.000000	41.844300
711.000000	41.600900
710.000000	41.404400
709.000000	41.188900
708.000000	40.952600
707.000000	40.713500
706.000000	40.514200
705.000000	40.351600
704.000000	40.105600
703.000000	39.860200
702.000000	39.649700
701.000000	39.420100
700.000000	39.213500
699.000000	39.008600
698.000000	38.807800
697.000000	38.574000
696.000000	38.362900
695.000000	38.155600
694.000000	37.948100
693.000000	37.743100
692.000000	37.549000
691.000000	37.320700
690.000000	37.110600
689.000000	36.905400
688.000000	36.683400
687.000000	36.470700
686.000000	36.281500
685.000000	36.050700
684.000000	35.841700
683.000000	35.667800
682.000000	35.469300
681.000000	35.270300
680.000000	35.067100
679.000000	34.892600
678.000000	34.719900
677.000000	34.565700
676.000000	34.380400
675.000000	34.207800
674.000000	34.019800
673.000000	33.861200
672.000000	33.718100
671.000000	33.537100
670.000000	33.379000
669.000000	33.220800
668.000000	33.110200
667.000000	32.991700
666.000000	32.878000
665.000000	32.752200
664.000000	32.619300
663.000000	32.506300
662.000000	32.398900
661.000000	32.294500
660.000000	32.175500
659.000000	32.058200
658.000000	31.953400
657.000000	31.836700
656.000000	31.712800
655.000000	31.621600
654.000000	31.539800
653.000000	31.456000
652.000000	31.365200
651.000000	31.263900
650.000000	31.167800
649.000000	31.069000
648.000000	30.978700
647.000000	30.891000
646.000000	30.807300
645.000000	30.722400
644.000000	30.629600
643.000000	30.526700
642.000000	30.427100
641.000000	30.340500
640.000000	30.276300
639.000000	30.229000
638.000000	30.187300
637.000000	30.119600
636.000000	30.039700
635.000000	29.968100
634.000000	29.912400
633.000000	29.887200
632.000000	29.847400
631.000000	29.798200
630.000000	29.758800
629.000000	29.726300
628.000000	29.725800
627.000000	29.737900
626.000000	29.733800
625.000000	29.729800
624.000000	29.766600
623.000000	29.801700
622.000000	29.842900
621.000000	29.888100
620.000000	29.933600
619.000000	29.986000
618.000000	30.075200
617.000000	30.170400
616.000000	30.248700
615.000000	30.343800
614.000000	30.441600
613.000000	30.552100
612.000000	30.684800
611.000000	30.788200
610.000000	30.913100
609.000000	31.044900
608.000000	31.146500
607.000000	31.230400
606.000000	31.350200
605.000000	31.472100
604.000000	31.562900
603.000000	31.701300
602.000000	31.839900
601.000000	31.949100
600.000000	32.038400
599.000000	32.159200
598.000000	32.282600
597.000000	32.371500
596.000000	32.473000
595.000000	32.555100
594.000000	32.631400
593.000000	32.724100
592.000000	32.799300
591.000000	32.857400
590.000000	32.927800
589.000000	33.005000
588.000000	33.057300
587.000000	33.101800
586.000000	33.149700
585.000000	33.184400
584.000000	33.213100
583.000000	33.231000
582.000000	33.255600
581.000000	33.277100
580.000000	33.276700
579.000000	33.274200
578.000000	33.251100
577.000000	33.235400
576.000000	33.219800
575.000000	33.196100
574.000000	33.163100
573.000000	33.094500
572.000000	33.022300
571.000000	32.958600
570.000000	32.874700
569.000000	32.793100
568.000000	32.687600
567.000000	32.606900
566.000000	32.499500
565.000000	32.385700
564.000000	32.254500
563.000000	32.090500
562.000000	31.929100
561.000000	31.737000
560.000000	31.556400
559.000000	31.333200
558.000000	31.123400
557.000000	30.909900
556.000000	30.684300
555.000000	30.452100
554.000000	30.186500
553.000000	29.920100
552.000000	29.630800
551.000000	29.343900
550.000000	29.054800
549.000000	28.745700
548.000000	28.424300
547.000000	28.107200
546.000000	27.779700
545.000000	27.447900
544.000000	27.083200
543.000000	26.712300
542.000000	26.343000
541.000000	25.965400
540.000000	25.600500
539.000000	25.224600
538.000000	24.830200
537.000000	24.449500
536.000000	24.054100
535.000000	23.647000
534.000000	23.276000
533.000000	22.887000
532.000000	22.483500
531.000000	22.073500
530.000000	21.694800
529.000000	21.309300
528.000000	20.925200
527.000000	20.540900
526.000000	20.160600
525.000000	19.767600
524.000000	19.409300
523.000000	19.042400
522.000000	18.674900
521.000000	18.319000
520.000000	17.976400
519.000000	17.634700
518.000000	17.313900
517.000000	16.993400
516.000000	16.684400
515.000000	16.373800
514.000000	16.091200
513.000000	15.802800
512.000000	15.530800
511.000000	15.283100
510.000000	15.015000
509.000000	14.787600
508.000000	14.554300
507.000000	14.323900
506.000000	14.129000
505.000000	13.918000
504.000000	13.728600
503.000000	13.549100
502.000000	13.351400
501.000000	13.174400
500.000000	13.024200
499.000000	12.843400
498.000000	12.703300
497.000000	12.562700
496.000000	12.435600
495.000000	12.280200
494.000000	12.154900
493.000000	12.000600
492.000000	11.905100
491.000000	11.778400
490.000000	11.683000
489.000000	11.569800
488.000000	11.455800
487.000000	11.362900
486.000000	11.248500
485.000000	11.153200
484.000000	11.049400
483.000000	10.966100
482.000000	10.855500
481.000000	10.760200
480.000000	10.644100
479.000000	10.536300
478.000000	10.411600
477.000000	10.309200
476.000000	10.216600
475.000000	10.112500
474.000000	10.014400
473.000000	9.901600
472.000000	9.793000
471.000000	9.716200
470.000000	9.630100
469.000000	9.516600
468.000000	9.434100
467.000000	9.343600
466.000000	9.250500
465.000000	9.186100
464.000000	9.083200
463.000000	8.997800
462.000000	8.916100
461.000000	8.836000
460.000000	8.749700
459.000000	8.684900
458.000000	8.600600
457.000000	8.535700
456.000000	8.451200
455.000000	8.383300
454.000000	8.300000
453.000000	8.242000
452.000000	8.146900
451.000000	8.076600
450.000000	7.998300
449.000000	7.923200
448.000000	7.858300
447.000000	7.806800
446.000000	7.716000
445.000000	7.658800
444.000000	7.605800
443.000000	7.550100
442.000000	7.454800
441.000000	7.393200
440.000000	7.342800
439.000000	7.261600
438.000000	7.220100
437.000000	7.145500
436.000000	7.093600
435.000000	7.027200
434.000000	6.965700
433.000000	6.907800
432.000000	6.839900
431.000000	6.780200
430.000000	6.733900
429.000000	6.686400
428.000000	6.636200
427.000000	6.596200
426.000000	6.543400
425.000000	6.483800
424.000000	6.447600
423.000000	6.396400
422.000000	6.353200
421.000000	6.315700
420.000000	6.259400
419.000000	6.216600
418.000000	6.178200
417.000000	6.141700
416.000000	6.100900
415.000000	6.063200
414.000000	6.022700
413.000000	5.985100
412.000000	5.945200
411.000000	5.921800
410.000000	5.898900
409.000000	5.854400
408.000000	5.821200
407.000000	5.790800
406.000000	5.775100
405.000000	5.761600
404.000000	5.719200
403.000000	5.679400
402.000000	5.668300
401.000000	5.648300
400.000000	5.618600
399.000000	5.590900
398.000000	5.579300
397.000000	5.555000
396.000000	5.534400
395.000000	5.502000
394.000000	5.489900
393.000000	5.493600
392.000000	5.473500
391.000000	5.456800
390.000000	5.439100
389.000000	5.408300
388.000000	5.403600
387.000000	5.384500
386.000000	5.358700
385.000000	5.339500
384.000000	5.347700
383.000000	5.346900
382.000000	5.333700
381.000000	5.323000
380.000000	5.322000
379.000000	5.309600
378.000000	5.280300
377.000000	5.250200
376.000000	5.151200
375.000000	4.903500
374.000000	4.724400
373.000000	4.709900
372.000000	4.737700
371.000000	4.757000
370.000000	4.930800
369.000000	4.900900
368.000000	5.026600
367.000000	5.048500
366.000000	5.019500
365.000000	5.116500
364.000000	5.141800
363.000000	5.191900
362.000000	5.054900
361.000000	5.084500
360.000000	5.258200
359.000000	5.235700
358.000000	5.109900
357.000000	5.134000
356.000000	5.238900
355.000000	5.087900
354.000000	5.118400
353.000000	5.204100
352.000000	5.116300
351.000000	5.088600
350.000000	5.093600
349.000000	5.067700
348.000000	4.998200
347.000000	5.072300
346.000000	5.083200
345.000000	5.044500
344.000000	5.095600
343.000000	5.199300
342.000000	5.314600
341.000000	5.359100
340.000000	5.291000
339.000000	5.118700
338.000000	5.122200
337.000000	5.236500
336.000000	5.208200
335.000000	5.121000
334.000000	5.156400
333.000000	5.495800
332.000000	5.684000
331.000000	5.536600
330.000000	5.288800
329.000000	5.236800
328.000000	5.531300
327.000000	5.697400
326.000000	5.675700
325.000000	5.679800
324.000000	6.017900
323.000000	6.101800
322.000000	5.700600
321.000000	5.338900
320.000000	5.404900
319.000000	5.491100
318.000000	5.736000
317.000000	5.899200
316.000000	5.501100
315.000000	5.227700
314.000000	5.233500
313.000000	5.234500
312.000000	5.201700
311.000000	5.185600
310.000000	5.196200
309.000000	5.195500
308.000000	5.228000
307.000000	5.246300
306.000000	5.220900
305.000000	5.206000
304.000000	5.221000
303.000000	5.220600
302.000000	5.227300
301.000000	5.257300
300.000000	5.291400
299.000000	5.323300
298.000000	5.276800
297.000000	5.292600
296.000000	5.281200
295.000000	5.241100
294.000000	5.250200
293.000000	5.284700
292.000000	5.263100
291.000000	5.274200
290.000000	5.252900
289.000000	5.274700
288.000000	5.257100
287.000000	5.306900
286.000000	5.319600
285.000000	5.321300
284.000000	5.298300
283.000000	5.327900
282.000000	5.291600
281.000000	5.291800
280.000000	5.332500
279.000000	5.347900
278.000000	5.331100
277.000000	5.370400
276.000000	5.355500
275.000000	5.350200
274.000000	5.349000
273.000000	5.367500
272.000000	5.356500
271.000000	5.376300
270.000000	5.361800
269.000000	5.412100
268.000000	5.437900
267.000000	5.479700
266.000000	5.449400
265.000000	5.493400
264.000000	5.491100
263.000000	5.505500
262.000000	5.566400
261.000000	5.610200
260.000000	5.634700
259.000000	5.601100
258.000000	5.592700
257.000000	5.640000
256.000000	5.665800
255.000000	5.652900
254.000000	5.657500
253.000000	5.661500
252.000000	5.710600
251.000000	5.707400
250.000000	5.700500
