PE UV       SUBTECH     SPECTRUM    ASCII       PEDS        4.00        
   -1
CICIMAUCR0009-1.Sample.ASC
24/04/17
11:03:30.00
24/04/17
11:03:30.00
Vinicio Soto Monge
C. kalinini
250,000000
1
Lambda 1050
1050L1511233
PerkinElmer UV WinLab 6.3.2.0749 / 2.02.05 Lambda 900 UV/VIS/NIR, Aug  7 2015 09:38:08

0
0
3350/servo 860,8/2
0
0
UV/VIS
1
1
1
DoubleDePol,CommonBeamDepol,RBeamAtt,SBeamAtt,60mm sphere, WB InGaAs Detector
0
0
0
0
Program
Program
3350/servo 860,8/2
3350/0,2 860,8/0,2
3350/0,2 860,8/0,2
0
15.00
 
 
 
0
 
860,8
319,2
860,8
Front
100
on
S:100 R:100
0
0
0
0
 
0
 
 
 
0
 
 
0
0
0
0
0
 
 
 
 
0
0


0
0
#HDR
-1
-1
#GR
nm
%R
1.0
0.0
2500,000000
-1,000000
2251
8
92,705800
4,951600
#DATA
2482.000000	6.495229
2481.000000	6.533056
2480.000000	6.475315
2479.000000	6.484060
2478.000000	6.507663
2477.000000	6.450554
2476.000000	6.438753
2475.000000	6.472892
2474.000000	6.470679
2473.000000	6.459194
2472.000000	6.406405
2471.000000	6.480794
2470.000000	6.453504
2469.000000	6.507030
2468.000000	6.453715
2467.000000	6.447709
2466.000000	6.468150
2465.000000	6.474683
2464.000000	6.476263
2463.000000	6.502816
2462.000000	6.493860
2461.000000	6.483534
2460.000000	6.542223
2459.000000	6.554762
2458.000000	6.589217
2457.000000	6.591113
2456.000000	6.621880
2455.000000	6.647695
2454.000000	6.665818
2453.000000	6.720820
2452.000000	6.759384
2451.000000	6.780984
2450.000000	6.826502
2449.000000	6.871599
2448.000000	6.919647
2447.000000	6.962742
2446.000000	6.984869
2445.000000	7.026594
2444.000000	7.067055
2443.000000	7.093291
2442.000000	7.125849
2441.000000	7.164203
2440.000000	7.222365
2439.000000	7.239962
2438.000000	7.266830
2437.000000	7.304025
2436.000000	7.352810
2435.000000	7.381996
2434.000000	7.409497
2433.000000	7.432572
2432.000000	7.478512
2431.000000	7.494528
2430.000000	7.527824
2429.000000	7.546684
2428.000000	7.565756
2427.000000	7.589042
2426.000000	7.593256
2425.000000	7.614330
2424.000000	7.620336
2423.000000	7.632242
2422.000000	7.615700
2421.000000	7.597893
2420.000000	7.597366
2419.000000	7.593994
2418.000000	7.610221
2417.000000	7.614330
2416.000000	7.618018
2415.000000	7.635825
2414.000000	7.636246
2413.000000	7.628133
2412.000000	7.631083
2411.000000	7.642147
2410.000000	7.659005
2409.000000	7.658162
2408.000000	7.668278
2407.000000	7.666486
2406.000000	7.677128
2405.000000	7.680184
2404.000000	7.677866
2403.000000	7.701995
2402.000000	7.722015
2401.000000	7.728126
2400.000000	7.714323
2399.000000	7.730023
2398.000000	7.761843
2397.000000	7.766901
2396.000000	7.774487
2395.000000	7.796193
2394.000000	7.800724
2393.000000	7.811155
2392.000000	7.818531
2391.000000	7.836232
2390.000000	7.845505
2389.000000	7.840974
2388.000000	7.855409
2387.000000	7.856357
2386.000000	7.847928
2385.000000	7.841501
2384.000000	7.834968
2383.000000	7.830016
2382.000000	7.826012
2381.000000	7.828962
2380.000000	7.823588
2379.000000	7.798406
2378.000000	7.801567
2377.000000	7.782917
2376.000000	7.761843
2375.000000	7.754257
2374.000000	7.737082
2373.000000	7.717168
2372.000000	7.693250
2371.000000	7.668488
2370.000000	7.641831
2369.000000	7.617807
2368.000000	7.591887
2367.000000	7.558696
2366.000000	7.525611
2365.000000	7.488733
2364.000000	7.437735
2363.000000	7.397274
2362.000000	7.352493
2361.000000	7.303814
2360.000000	7.264091
2359.000000	7.233113
2358.000000	7.179481
2357.000000	7.138493
2356.000000	7.124796
2355.000000	7.106041
2354.000000	7.082122
2353.000000	7.064737
2352.000000	7.063472
2351.000000	7.064737
2350.000000	7.072745
2349.000000	7.080226
2348.000000	7.100456
2347.000000	7.135965
2346.000000	7.157776
2345.000000	7.185909
2344.000000	7.214463
2343.000000	7.234377
2342.000000	7.254713
2341.000000	7.284743
2340.000000	7.288747
2339.000000	7.287587
2338.000000	7.290854
2337.000000	7.291591
2336.000000	7.288114
2335.000000	7.272099
2334.000000	7.255345
2333.000000	7.240489
2332.000000	7.212250
2331.000000	7.186541
2330.000000	7.140812
2329.000000	7.113311
2328.000000	7.065474
2327.000000	7.020377
2326.000000	6.971276
2325.000000	6.915116
2324.000000	6.872969
2323.000000	6.833773
2322.000000	6.780141
2321.000000	6.721768
2320.000000	6.669927
2319.000000	6.588584
2318.000000	6.523889
2317.000000	6.466991
2316.000000	6.401137
2315.000000	6.343080
2314.000000	6.296929
2313.000000	6.246669
2312.000000	6.178602
2311.000000	6.138563
2310.000000	6.096311
2309.000000	6.082613
2308.000000	6.076923
2307.000000	6.049633
2306.000000	6.039518
2305.000000	6.049739
2304.000000	6.078082
2303.000000	6.091780
2302.000000	6.129712
2301.000000	6.144569
2300.000000	6.186399
2299.000000	6.247828
2298.000000	6.272063
2297.000000	6.331489
2296.000000	6.372056
2295.000000	6.417574
2294.000000	6.444969
2293.000000	6.468572
2292.000000	6.487748
2291.000000	6.503237
2290.000000	6.533056
2289.000000	6.530843
2288.000000	6.533161
2287.000000	6.505871
2286.000000	6.509665
2285.000000	6.493860
2284.000000	6.474261
2283.000000	6.464778
2282.000000	6.419681
2281.000000	6.390706
2280.000000	6.373320
2279.000000	6.361414
2278.000000	6.337285
2277.000000	6.327169
2276.000000	6.296402
2275.000000	6.273538
2274.000000	6.276593
2273.000000	6.275540
2272.000000	6.277331
2271.000000	6.301776
2270.000000	6.284601
2269.000000	6.317792
2268.000000	6.329593
2267.000000	6.389336
2266.000000	6.432641
2265.000000	6.530211
2264.000000	6.569513
2263.000000	6.661603
2262.000000	6.741155
2261.000000	6.853687
2260.000000	6.992139
2259.000000	7.092554
2258.000000	7.230584
2257.000000	7.385789
2256.000000	7.541627
2255.000000	7.681975
2254.000000	7.808310
2253.000000	7.963726
2252.000000	8.106709
2251.000000	8.252115
2250.000000	8.377607
2249.000000	8.507313
2248.000000	8.631330
2247.000000	8.768834
2246.000000	8.855550
2245.000000	8.976301
2244.000000	9.074397
2243.000000	9.132770
2242.000000	9.257525
2241.000000	9.348667
2240.000000	9.414732
2239.000000	9.493546
2238.000000	9.564669
2237.000000	9.644537
2236.000000	9.714184
2235.000000	9.751379
2234.000000	9.829666
2233.000000	9.882139
2232.000000	9.912485
2231.000000	9.933242
2230.000000	9.981184
2229.000000	10.046195
2228.000000	10.044404
2227.000000	10.062316
2226.000000	10.104252
2225.000000	10.113946
2224.000000	10.108888
2223.000000	10.129962
2222.000000	10.148295
2221.000000	10.146715
2220.000000	10.115842
2219.000000	10.151667
2218.000000	10.132280
2217.000000	10.158727
2216.000000	10.138075
2215.000000	10.125747
2214.000000	10.117107
2213.000000	10.124166
2212.000000	10.131437
2211.000000	10.108467
2210.000000	10.107624
2209.000000	10.100248
2208.000000	10.095085
2207.000000	10.098246
2206.000000	10.101196
2205.000000	10.083073
2204.000000	10.080650
2203.000000	10.091608
2202.000000	10.097930
2201.000000	10.067795
2200.000000	10.072853
2199.000000	10.070113
2198.000000	10.089817
2197.000000	10.100143
2196.000000	10.104990
2195.000000	10.087815
2194.000000	10.093505
2193.000000	10.084865
2192.000000	10.084759
2191.000000	10.087393
2190.000000	10.084865
2189.000000	10.074539
2188.000000	10.069165
2187.000000	10.061473
2186.000000	10.056205
2185.000000	10.054835
2184.000000	10.060630
2183.000000	10.023330
2182.000000	10.040821
2181.000000	10.027650
2180.000000	10.023225
2179.000000	10.021855
2178.000000	10.018484
2177.000000	10.032708
2176.000000	10.044931
2175.000000	10.031022
2174.000000	10.035131
2173.000000	10.039241
2172.000000	10.039135
2171.000000	10.070008
2170.000000	10.091503
2169.000000	10.084022
2168.000000	10.101723
2167.000000	10.114578
2166.000000	10.132069
2165.000000	10.142816
2164.000000	10.172003
2163.000000	10.192760
2162.000000	10.203613
2161.000000	10.212885
2160.000000	10.248394
2159.000000	10.265569
2158.000000	10.284324
2157.000000	10.294123
2156.000000	10.316882
2155.000000	10.338588
2154.000000	10.366510
2153.000000	10.380313
2152.000000	10.405285
2151.000000	10.439108
2150.000000	10.462078
2149.000000	10.481254
2148.000000	10.504435
2147.000000	10.521715
2146.000000	10.551323
2145.000000	10.569657
2144.000000	10.582196
2143.000000	10.592627
2142.000000	10.608327
2141.000000	10.620549
2140.000000	10.629295
2139.000000	10.628241
2138.000000	10.641201
2137.000000	10.647102
2136.000000	10.655215
2135.000000	10.658692
2134.000000	10.678817
2133.000000	10.660273
2132.000000	10.664382
2131.000000	10.671020
2130.000000	10.664593
2129.000000	10.656269
2128.000000	10.648998
2127.000000	10.650368
2126.000000	10.641623
2125.000000	10.628241
2124.000000	10.622130
2123.000000	10.596315
2122.000000	10.586200
2121.000000	10.578297
2120.000000	10.553220
2119.000000	10.522664
2118.000000	10.507491
2117.000000	10.499694
2116.000000	10.464606
2115.000000	10.449223
2114.000000	10.430151
2113.000000	10.408130
2112.000000	10.379575
2111.000000	10.350916
2110.000000	10.343540
2109.000000	10.329632
2108.000000	10.295703
2107.000000	10.271364
2106.000000	10.242704
2105.000000	10.228690
2104.000000	10.211199
2103.000000	10.180011
2102.000000	10.157673
2101.000000	10.135967
2100.000000	10.118687
2099.000000	10.101723
2098.000000	10.092556
2097.000000	10.062421
2096.000000	10.027756
2095.000000	10.018589
2094.000000	10.014374
2093.000000	9.994355
2092.000000	9.981394
2091.000000	9.960532
2090.000000	9.943778
2089.000000	9.947045
2088.000000	9.939037
2087.000000	9.924075
2086.000000	9.920914
2085.000000	9.909745
2084.000000	9.887723
2083.000000	9.875606
2082.000000	9.868020
2081.000000	9.873499
2080.000000	9.882560
2079.000000	9.878346
2078.000000	9.845787
2077.000000	9.825452
2076.000000	9.827243
2075.000000	9.809857
2074.000000	9.809752
2073.000000	9.801849
2072.000000	9.788257
2071.000000	9.775824
2070.000000	9.777826
2069.000000	9.779301
2068.000000	9.764339
2067.000000	9.746953
2066.000000	9.737365
2065.000000	9.732097
2064.000000	9.736417
2063.000000	9.744846
2062.000000	9.739262
2061.000000	9.747796
2060.000000	9.754540
2059.000000	9.756542
2058.000000	9.756647
2057.000000	9.781408
2056.000000	9.826927
2055.000000	9.840730
2054.000000	9.859907
2053.000000	9.908270
2052.000000	9.960321
2051.000000	10.015639
2050.000000	10.076330
2049.000000	10.150824
2048.000000	10.239964
2047.000000	10.323836
2046.000000	10.411607
2045.000000	10.504646
2044.000000	10.597052
2043.000000	10.705686
2042.000000	10.802728
2041.000000	10.920212
2040.000000	11.024947
2039.000000	11.135793
2038.000000	11.249484
2037.000000	11.352321
2036.000000	11.460639
2035.000000	11.556838
2034.000000	11.653354
2033.000000	11.736805
2032.000000	11.819834
2031.000000	11.921407
2030.000000	12.015500
2029.000000	12.085253
2028.000000	12.172496
2027.000000	12.248255
2026.000000	12.336026
2025.000000	12.415472
2024.000000	12.446555
2023.000000	12.522630
2022.000000	12.597651
2021.000000	12.674674
2020.000000	12.749485
2019.000000	12.805645
2018.000000	12.889201
2017.000000	12.930821
2016.000000	13.012691
2015.000000	13.084973
2014.000000	13.101726
2013.000000	13.151564
2012.000000	13.191709
2011.000000	13.234699
2010.000000	13.290754
2009.000000	13.315410
2008.000000	13.337326
2007.000000	13.390642
2006.000000	13.389167
2005.000000	13.415614
2004.000000	13.420882
2003.000000	13.467770
2002.000000	13.443220
2001.000000	13.451017
2000.000000	13.449120
1999.000000	13.434896
1998.000000	13.438478
1997.000000	13.431840
1996.000000	13.423200
1995.000000	13.424675
1994.000000	13.377155
1993.000000	13.364616
1992.000000	13.327632
1991.000000	13.323312
1990.000000	13.296655
1989.000000	13.252400
1988.000000	13.202878
1987.000000	13.183701
1986.000000	13.140606
1985.000000	13.088028
1984.000000	13.043564
1983.000000	13.014061
1982.000000	12.960745
1981.000000	12.908167
1980.000000	12.856221
1979.000000	12.806278
1978.000000	12.759811
1977.000000	12.711869
1976.000000	12.652547
1975.000000	12.622413
1974.000000	12.576789
1973.000000	12.533483
1972.000000	12.459726
1971.000000	12.444343
1970.000000	12.399983
1969.000000	12.340030
1968.000000	12.304626
1967.000000	12.270698
1966.000000	12.238035
1965.000000	12.195150
1964.000000	12.140676
1963.000000	12.107696
1962.000000	12.071450
1961.000000	11.996850
1960.000000	11.984101
1959.000000	11.945536
1958.000000	11.876205
1957.000000	11.865774
1956.000000	11.814039
1955.000000	11.757562
1954.000000	11.723423
1953.000000	11.711306
1952.000000	11.650509
1951.000000	11.625116
1950.000000	11.598248
1949.000000	11.554415
1948.000000	11.540296
1947.000000	11.508264
1946.000000	11.478656
1945.000000	11.445887
1944.000000	11.429239
1943.000000	11.407744
1942.000000	11.409641
1941.000000	11.413118
1940.000000	11.431768
1939.000000	11.444412
1938.000000	11.455159
1937.000000	11.477919
1936.000000	11.502364
1935.000000	11.519960
1934.000000	11.576121
1933.000000	11.623430
1932.000000	11.678116
1931.000000	11.717312
1930.000000	11.792860
1929.000000	11.856396
1928.000000	11.932682
1927.000000	12.005912
1926.000000	12.098318
1925.000000	12.173761
1924.000000	12.272279
1923.000000	12.404830
1922.000000	12.501768
1921.000000	12.637059
1920.000000	12.771612
1919.000000	12.887621
1918.000000	13.019329
1917.000000	13.167264
1916.000000	13.310563
1915.000000	13.456496
1914.000000	13.623186
1913.000000	13.796936
1912.000000	13.962889
1911.000000	14.119569
1910.000000	14.287734
1909.000000	14.446838
1908.000000	14.627015
1907.000000	14.826580
1906.000000	15.049536
1905.000000	15.253632
1904.000000	15.427803
1903.000000	15.613143
1902.000000	15.804278
1901.000000	16.007742
1900.000000	16.214893
1899.000000	16.407503
1898.000000	16.603907
1897.000000	16.805157
1896.000000	16.976273
1895.000000	17.175838
1894.000000	17.394158
1893.000000	17.580868
1892.000000	17.782013
1891.000000	17.977890
1890.000000	18.179878
1889.000000	18.357631
1888.000000	18.586067
1887.000000	18.816082
1886.000000	19.080869
1885.000000	19.397601
1884.000000	19.758904
1883.000000	20.133799
1882.000000	20.511328
1881.000000	20.938590
1880.000000	21.379024
1879.000000	21.785950
1878.000000	22.167799
1877.000000	22.554074
1876.000000	22.882081
1875.000000	23.188382
1874.000000	23.477087
1873.000000	23.726490
1872.000000	23.953134
1871.000000	24.142162
1870.000000	24.268497
1869.000000	24.398414
1868.000000	24.523590
1867.000000	24.610201
1866.000000	24.649292
1865.000000	24.688594
1864.000000	24.733269
1863.000000	24.760349
1862.000000	24.780895
1861.000000	24.775943
1860.000000	24.757293
1859.000000	24.709667
1858.000000	24.657616
1857.000000	24.612624
1856.000000	24.551828
1855.000000	24.459210
1854.000000	24.369649
1853.000000	24.263966
1852.000000	24.152699
1851.000000	24.070196
1850.000000	24.017934
1849.000000	23.943335
1848.000000	23.810046
1847.000000	23.664007
1846.000000	23.525239
1845.000000	23.446636
1844.000000	23.418503
1843.000000	23.406596
1842.000000	23.368875
1841.000000	23.304496
1840.000000	23.234532
1839.000000	23.152452
1838.000000	23.075850
1837.000000	22.997879
1836.000000	22.909581
1835.000000	22.802107
1834.000000	22.698216
1833.000000	22.616135
1832.000000	22.537742
1831.000000	22.442174
1830.000000	22.334911
1829.000000	22.224170
1828.000000	22.105738
1827.000000	22.023552
1826.000000	21.942736
1825.000000	21.865713
1824.000000	21.804389
1823.000000	21.790481
1822.000000	21.795117
1821.000000	21.751495
1820.000000	21.699128
1819.000000	21.649289
1818.000000	21.633906
1817.000000	21.636013
1816.000000	21.642757
1815.000000	21.639701
1814.000000	21.626530
1813.000000	21.626003
1812.000000	21.599767
1811.000000	21.553722
1810.000000	21.505042
1809.000000	21.473748
1808.000000	21.461631
1807.000000	21.422751
1806.000000	21.344042
1805.000000	21.272498
1804.000000	21.222132
1803.000000	21.190628
1802.000000	21.142897
1801.000000	21.077359
1800.000000	21.003918
1799.000000	20.926895
1798.000000	20.889384
1797.000000	20.843760
1796.000000	20.799612
1795.000000	20.746296
1794.000000	20.688134
1793.000000	20.619540
1792.000000	20.550419
1791.000000	20.491835
1790.000000	20.426929
1789.000000	20.347378
1788.000000	20.268985
1787.000000	20.187641
1786.000000	20.105245
1785.000000	20.005568
1784.000000	19.900517
1783.000000	19.805687
1782.000000	19.706748
1781.000000	19.621822
1780.000000	19.507288
1779.000000	19.422047
1778.000000	19.306775
1777.000000	19.203516
1776.000000	19.082133
1775.000000	18.925242
1774.000000	18.768246
1773.000000	18.599343
1772.000000	18.446139
1771.000000	18.279555
1770.000000	18.135413
1769.000000	17.998015
1768.000000	17.838595
1767.000000	17.732701
1766.000000	17.604048
1765.000000	17.536087
1764.000000	17.476238
1763.000000	17.476660
1762.000000	17.494783
1761.000000	17.545148
1760.000000	17.599096
1759.000000	17.676857
1758.000000	17.730488
1757.000000	17.814782
1756.000000	17.873366
1755.000000	17.908031
1754.000000	17.928578
1753.000000	17.926365
1752.000000	17.879582
1751.000000	17.840491
1750.000000	17.790547
1749.000000	17.730488
1748.000000	17.636290
1747.000000	17.521230
1746.000000	17.392366
1745.000000	17.223885
1744.000000	17.033487
1743.000000	16.819593
1742.000000	16.578724
1741.000000	16.334379
1740.000000	16.079812
1739.000000	15.807334
1738.000000	15.583956
1737.000000	15.365953
1736.000000	15.218544
1735.000000	15.119394
1734.000000	15.053119
1733.000000	15.072822
1732.000000	15.120448
1731.000000	15.194942
1730.000000	15.324017
1729.000000	15.441079
1728.000000	15.579531
1727.000000	15.670146
1726.000000	15.798378
1725.000000	15.857699
1724.000000	15.928506
1723.000000	15.962329
1722.000000	15.984772
1721.000000	15.971285
1720.000000	15.954637
1719.000000	15.977291
1718.000000	15.994887
1717.000000	15.986879
1716.000000	16.042513
1715.000000	16.108578
1714.000000	16.149038
1713.000000	16.219107
1712.000000	16.252193
1711.000000	16.279377
1710.000000	16.301820
1709.000000	16.301083
1708.000000	16.297079
1707.000000	16.263045
1706.000000	16.246081
1705.000000	16.230065
1704.000000	16.149776
1703.000000	16.085713
1702.000000	15.990040
1701.000000	15.878878
1700.000000	15.711556
1699.000000	15.555929
1698.000000	15.427171
1697.000000	15.287349
1696.000000	15.258057
1695.000000	15.257846
1694.000000	15.305577
1693.000000	15.415791
1692.000000	15.575211
1691.000000	15.761710
1690.000000	15.959589
1689.000000	16.068011
1688.000000	16.117745
1687.000000	16.142822
1686.000000	16.110158
1685.000000	16.124488
1684.000000	16.167688
1683.000000	16.346707
1682.000000	16.677874
1681.000000	17.144438
1680.000000	17.716053
1679.000000	18.320332
1678.000000	18.937043
1677.000000	19.513400
1676.000000	20.052140
1675.000000	20.475293
1674.000000	20.856194
1673.000000	21.184095
1672.000000	21.476909
1671.000000	21.745805
1670.000000	21.953589
1669.000000	22.118277
1668.000000	22.299508
1667.000000	22.443228
1666.000000	22.551018
1665.000000	22.667659
1664.000000	22.751742
1663.000000	22.812222
1662.000000	22.882713
1661.000000	22.940243
1660.000000	22.974171
1659.000000	23.009364
1658.000000	23.040658
1657.000000	23.047085
1656.000000	23.055725
1655.000000	23.031701
1654.000000	23.030437
1653.000000	22.990819
1652.000000	22.978491
1651.000000	22.939716
1650.000000	22.895673
1649.000000	22.858478
1648.000000	22.801054
1647.000000	22.756378
1646.000000	22.694738
1645.000000	22.634363
1644.000000	22.552493
1643.000000	22.501917
1642.000000	22.428266
1641.000000	22.345658
1640.000000	22.269373
1639.000000	22.200252
1638.000000	22.106792
1637.000000	22.023025
1636.000000	21.923875
1635.000000	21.846852
1634.000000	21.754762
1633.000000	21.666148
1632.000000	21.557410
1631.000000	21.459418
1630.000000	21.369014
1629.000000	21.293571
1628.000000	21.194737
1627.000000	21.105175
1626.000000	21.008975
1625.000000	20.906980
1624.000000	20.822476
1623.000000	20.735865
1622.000000	20.633343
1621.000000	20.551789
1620.000000	20.462438
1619.000000	20.362234
1618.000000	20.273305
1617.000000	20.200707
1616.000000	20.110829
1615.000000	20.038442
1614.000000	19.965107
1613.000000	19.866694
1612.000000	19.792621
1611.000000	19.721077
1610.000000	19.660175
1609.000000	19.590633
1608.000000	19.529310
1607.000000	19.456712
1606.000000	19.396864
1605.000000	19.337437
1604.000000	19.276324
1603.000000	19.213631
1602.000000	19.138505
1601.000000	19.072966
1600.000000	19.011643
1599.000000	18.971604
1598.000000	18.926401
1597.000000	18.881199
1596.000000	18.816082
1595.000000	18.765612
1594.000000	18.715352
1593.000000	18.678579
1592.000000	18.646547
1591.000000	18.616307
1590.000000	18.589965
1589.000000	18.552244
1588.000000	18.530960
1587.000000	18.527588
1586.000000	18.507463
1585.000000	18.491658
1584.000000	18.489340
1583.000000	18.483966
1582.000000	18.486390
1581.000000	18.486073
1580.000000	18.478276
1579.000000	18.484704
1578.000000	18.493555
1577.000000	18.506199
1576.000000	18.514101
1575.000000	18.537176
1574.000000	18.577216
1573.000000	18.597235
1572.000000	18.619362
1571.000000	18.652132
1570.000000	18.682372
1569.000000	18.730946
1568.000000	18.784156
1567.000000	18.815977
1566.000000	18.859493
1565.000000	18.893843
1564.000000	18.923240
1563.000000	18.978136
1562.000000	19.039249
1561.000000	19.078024
1560.000000	19.100256
1559.000000	19.130391
1558.000000	19.164952
1557.000000	19.174329
1556.000000	19.185077
1555.000000	19.222060
1554.000000	19.249666
1553.000000	19.266736
1552.000000	19.272531
1551.000000	19.290338
1550.000000	19.312149
1549.000000	19.298346
1548.000000	19.311728
1547.000000	19.327533
1546.000000	19.336699
1545.000000	19.343864
1544.000000	19.345761
1543.000000	19.352399
1542.000000	19.364727
1541.000000	19.371997
1540.000000	19.378846
1539.000000	19.393703
1538.000000	19.405504
1537.000000	19.406136
1536.000000	19.412458
1535.000000	19.408243
1534.000000	19.414460
1533.000000	19.414565
1532.000000	19.418148
1531.000000	19.410351
1530.000000	19.422152
1529.000000	19.421520
1528.000000	19.405609
1527.000000	19.394440
1526.000000	19.381480
1525.000000	19.378319
1524.000000	19.364727
1523.000000	19.349238
1522.000000	19.351872
1521.000000	19.332274
1520.000000	19.301085
1519.000000	19.276008
1518.000000	19.260519
1517.000000	19.234283
1516.000000	19.202778
1515.000000	19.182232
1514.000000	19.162634
1513.000000	19.133868
1512.000000	19.136292
1511.000000	19.099835
1510.000000	19.085716
1509.000000	19.088245
1508.000000	19.073704
1507.000000	19.051155
1506.000000	19.031452
1505.000000	19.022285
1504.000000	19.019335
1503.000000	19.034402
1502.000000	19.014488
1501.000000	19.001001
1500.000000	19.005532
1499.000000	18.995627
1498.000000	19.000790
1497.000000	19.023655
1496.000000	19.056213
1495.000000	19.052315
1494.000000	19.079710
1493.000000	19.084557
1492.000000	19.121857
1491.000000	19.141033
1490.000000	19.170747
1489.000000	19.196140
1488.000000	19.238181
1487.000000	19.275903
1486.000000	19.299294
1485.000000	19.329534
1484.000000	19.375053
1483.000000	19.388224
1482.000000	19.478418
1481.000000	19.524042
1480.000000	19.567347
1479.000000	19.608019
1478.000000	19.672503
1477.000000	19.742256
1476.000000	19.780926
1475.000000	19.837929
1474.000000	19.907155
1473.000000	20.013154
1472.000000	20.067313
1471.000000	20.120312
1470.000000	20.164672
1469.000000	20.218830
1468.000000	20.281629
1467.000000	20.342847
1466.000000	20.403854
1465.000000	20.488148
1464.000000	20.543992
1463.000000	20.642931
1462.000000	20.731861
1461.000000	20.796556
1460.000000	20.915304
1459.000000	21.018248
1458.000000	21.115080
1457.000000	21.220025
1456.000000	21.342672
1455.000000	21.462369
1454.000000	21.602928
1453.000000	21.701235
1452.000000	21.845904
1451.000000	21.989308
1450.000000	22.105527
1449.000000	22.214266
1448.000000	22.360199
1447.000000	22.503287
1446.000000	22.680198
1445.000000	22.816226
1444.000000	22.932867
1443.000000	23.093552
1442.000000	23.258135
1441.000000	23.403962
1440.000000	23.559378
1439.000000	23.668011
1438.000000	23.827326
1437.000000	23.955663
1436.000000	24.092429
1435.000000	24.204644
1434.000000	24.358164
1433.000000	24.494403
1432.000000	24.631064
1431.000000	24.798281
1430.000000	24.904807
1429.000000	25.105425
1428.000000	25.279702
1427.000000	25.475578
1426.000000	25.684310
1425.000000	25.940140
1424.000000	26.178691
1423.000000	26.364558
1422.000000	26.602792
1421.000000	26.829857
1420.000000	27.094960
1419.000000	27.322763
1418.000000	27.513793
1417.000000	27.685120
1416.000000	27.926831
1415.000000	28.169701
1414.000000	28.360626
1413.000000	28.504136
1412.000000	28.680203
1411.000000	28.908006
1410.000000	29.215467
1409.000000	29.520714
1408.000000	29.829650
1407.000000	30.205177
1406.000000	30.595982
1405.000000	31.023982
1404.000000	31.390764
1403.000000	31.799692
1402.000000	32.255509
1401.000000	32.720492
1400.000000	33.074314
1399.000000	33.328353
1398.000000	33.513167
1397.000000	33.807351
1396.000000	34.039790
1395.000000	34.137991
1394.000000	34.212064
1393.000000	34.291300
1392.000000	34.431859
1391.000000	34.548500
1390.000000	34.705813
1389.000000	34.943731
1388.000000	35.212522
1387.000000	35.432528
1386.000000	35.779079
1385.000000	36.192433
1384.000000	36.641822
1383.000000	37.054754
1382.000000	37.397197
1381.000000	37.586224
1380.000000	37.638908
1379.000000	37.747752
1378.000000	37.784314
1377.000000	37.889786
1376.000000	37.992203
1375.000000	38.220532
1374.000000	38.582467
1373.000000	39.052087
1372.000000	39.524973
1371.000000	40.041060
1370.000000	40.509626
1369.000000	40.942472
1368.000000	41.362254
1367.000000	41.698163
1366.000000	41.992136
1365.000000	42.280103
1364.000000	42.538568
1363.000000	42.749196
1362.000000	42.963618
1361.000000	43.099541
1360.000000	43.145270
1359.000000	43.206277
1358.000000	43.346837
1357.000000	43.585914
1356.000000	44.003272
1355.000000	44.616717
1354.000000	45.404334
1353.000000	46.254222
1352.000000	47.148048
1351.000000	48.028493
1350.000000	48.835813
1349.000000	49.538504
1348.000000	50.200102
1347.000000	50.784361
1346.000000	51.317622
1345.000000	51.873643
1344.000000	52.400055
1343.000000	52.836484
1342.000000	53.292617
1341.000000	53.727571
1340.000000	54.137975
1339.000000	54.504124
1338.000000	54.875648
1337.000000	55.230417
1336.000000	55.569277
1335.000000	55.891067
1334.000000	56.183355
1333.000000	56.456992
1332.000000	56.731473
1331.000000	56.992677
1330.000000	57.227434
1329.000000	57.448177
1328.000000	57.659859
1327.000000	57.871225
1326.000000	58.058146
1325.000000	58.243064
1324.000000	58.422504
1323.000000	58.564328
1322.000000	58.712789
1321.000000	58.851347
1320.000000	58.988323
1319.000000	59.104964
1318.000000	59.214862
1317.000000	59.335507
1316.000000	59.443297
1315.000000	59.539813
1314.000000	59.641071
1313.000000	59.722941
1312.000000	59.804494
1311.000000	59.872983
1310.000000	59.931883
1309.000000	59.978244
1308.000000	60.027240
1307.000000	60.077078
1306.000000	60.104158
1305.000000	60.123966
1304.000000	60.138296
1303.000000	60.141141
1302.000000	60.129446
1301.000000	60.109215
1300.000000	60.084032
1299.000000	60.063486
1298.000000	60.044941
1297.000000	60.012910
1296.000000	59.980668
1295.000000	59.950427
1294.000000	59.914497
1293.000000	59.867082
1292.000000	59.815136
1291.000000	59.741064
1290.000000	59.668255
1289.000000	59.605457
1288.000000	59.516843
1287.000000	59.416745
1286.000000	59.296837
1285.000000	59.170503
1284.000000	59.054810
1283.000000	58.932268
1282.000000	58.809305
1281.000000	58.670643
1280.000000	58.536195
1279.000000	58.409438
1278.000000	58.272883
1277.000000	58.153608
1276.000000	58.043710
1275.000000	57.931179
1274.000000	57.825496
1273.000000	57.720129
1272.000000	57.610969
1271.000000	57.529520
1270.000000	57.446281
1269.000000	57.338701
1268.000000	57.218688
1267.000000	57.102258
1266.000000	56.996048
1265.000000	56.898900
1264.000000	56.795430
1263.000000	56.699862
1262.000000	56.610301
1261.000000	56.525270
1260.000000	56.422326
1259.000000	56.320121
1258.000000	56.225817
1257.000000	56.104962
1256.000000	56.000754
1255.000000	55.910455
1254.000000	55.775796
1253.000000	55.650409
1252.000000	55.550943
1251.000000	55.403851
1250.000000	55.266980
1249.000000	55.152762
1248.000000	54.991235
1247.000000	54.797887
1246.000000	54.630143
1245.000000	54.429946
1244.000000	54.208781
1243.000000	53.992885
1242.000000	53.758338
1241.000000	53.504404
1240.000000	53.249944
1239.000000	52.998749
1238.000000	52.711941
1237.000000	52.439778
1236.000000	52.152654
1235.000000	51.878384
1234.000000	51.597371
1233.000000	51.309825
1232.000000	51.016800
1231.000000	50.715557
1230.000000	50.424112
1229.000000	50.126556
1228.000000	49.833426
1227.000000	49.534184
1226.000000	49.249905
1225.000000	48.956985
1224.000000	48.667121
1223.000000	48.398752
1222.000000	48.132279
1221.000000	47.868546
1220.000000	47.620724
1219.000000	47.397557
1218.000000	47.183136
1217.000000	46.972613
1216.000000	46.793068
1215.000000	46.612258
1214.000000	46.452522
1213.000000	46.253168
1212.000000	46.121881
1211.000000	45.980374
1210.000000	45.848665
1209.000000	45.748356
1208.000000	45.648890
1207.000000	45.568390
1206.000000	45.510333
1205.000000	45.485466
1204.000000	45.478407
1203.000000	45.480092
1202.000000	45.463971
1201.000000	45.473454
1200.000000	45.416767
1199.000000	45.344907
1198.000000	45.186330
1197.000000	44.988451
1196.000000	44.694056
1195.000000	44.344660
1194.000000	43.881573
1193.000000	43.312803
1192.000000	42.669644
1191.000000	41.964741
1190.000000	41.323584
1189.000000	40.737639
1188.000000	40.288777
1187.000000	40.133361
1186.000000	40.088580
1185.000000	40.218708
1184.000000	40.519109
1183.000000	41.017704
1182.000000	41.706908
1181.000000	42.420136
1180.000000	43.168556
1179.000000	43.884207
1178.000000	44.505028
1177.000000	45.077802
1176.000000	45.559750
1175.000000	46.000077
1174.000000	46.434610
1173.000000	46.898856
1172.000000	47.379223
1171.000000	47.880558
1170.000000	48.414452
1169.000000	48.955510
1168.000000	49.456951
1167.000000	50.022770
1166.000000	50.557823
1165.000000	51.122167
1164.000000	51.683983
1163.000000	52.255913
1162.000000	52.857452
1161.000000	53.387342
1160.000000	53.913544
1159.000000	54.448596
1158.000000	54.922536
1157.000000	55.380249
1156.000000	55.738285
1155.000000	56.015505
1154.000000	56.218863
1153.000000	56.301998
1152.000000	56.310848
1151.000000	56.258481
1150.000000	56.166391
1149.000000	56.112021
1148.000000	56.070296
1147.000000	56.092002
1146.000000	56.220022
1145.000000	56.480805
1144.000000	56.872453
1143.000000	57.311833
1142.000000	57.816645
1141.000000	58.359073
1140.000000	58.863253
1139.000000	59.413478
1138.000000	59.989518
1137.000000	60.571459
1136.000000	61.166255
1135.000000	61.720062
1134.000000	62.258592
1133.000000	62.660145
1132.000000	63.072866
1131.000000	63.477369
1130.000000	63.811382
1129.000000	64.116419
1128.000000	64.307133
1127.000000	64.481093
1126.000000	64.631452
1125.000000	64.722383
1124.000000	64.815738
1123.000000	64.879485
1122.000000	64.957878
1121.000000	64.981902
1120.000000	65.035112
1119.000000	65.055974
1118.000000	65.058714
1117.000000	65.046070
1116.000000	65.011194
1115.000000	64.986222
1114.000000	64.942389
1113.000000	64.870634
1112.000000	64.841448
1111.000000	64.827961
1110.000000	64.797088
1109.000000	64.740928
1108.000000	64.703206
1107.000000	64.641462
1106.000000	64.598367
1105.000000	64.530510
1104.000000	64.496161
1103.000000	64.434732
1102.000000	64.389740
1101.000000	64.333685
1100.000000	64.266461
1099.000000	64.193863
1098.000000	64.127482
1097.000000	64.042346
1096.000000	63.980285
1095.000000	63.894833
1094.000000	63.793891
1093.000000	63.713602
1092.000000	63.607392
1091.000000	63.526997
1090.000000	63.425950
1089.000000	63.337548
1088.000000	63.236079
1087.000000	63.143357
1086.000000	63.034302
1085.000000	62.936732
1084.000000	62.830944
1083.000000	62.714303
1082.000000	62.605038
1081.000000	62.515792
1080.000000	62.423912
1079.000000	62.320758
1078.000000	62.219185
1077.000000	62.138052
1076.000000	62.042485
1075.000000	61.953239
1074.000000	61.867576
1073.000000	61.757784
1072.000000	61.645252
1071.000000	61.569599
1070.000000	61.479194
1069.000000	61.372563
1068.000000	61.269093
1067.000000	61.179742
1066.000000	61.070582
1065.000000	60.955943
1064.000000	60.862798
1063.000000	60.758591
1062.000000	60.646164
1061.000000	60.541008
1060.000000	60.436484
1059.000000	60.323320
1058.000000	60.245560
1057.000000	60.154628
1056.000000	60.040937
1055.000000	59.916605
1054.000000	59.796592
1053.000000	59.688591
1052.000000	59.576165
1051.000000	59.477857
1050.000000	59.381341
1049.000000	59.291042
1048.000000	59.195896
1047.000000	59.108442
1046.000000	59.019301
1045.000000	58.949443
1044.000000	58.863253
1043.000000	58.770320
1042.000000	58.696036
1041.000000	58.645249
1040.000000	58.572862
1039.000000	58.467495
1038.000000	58.383624
1037.000000	58.312079
1036.000000	58.224309
1035.000000	58.123789
1034.000000	58.034754
1033.000000	57.946667
1032.000000	57.843408
1031.000000	57.743099
1030.000000	57.660070
1029.000000	57.574091
1028.000000	57.462718
1027.000000	57.355560
1026.000000	57.241132
1025.000000	57.130075
1024.000000	57.013539
1023.000000	56.899322
1022.000000	56.790794
1021.000000	56.689642
1020.000000	56.590386
1019.000000	56.496926
1018.000000	56.415583
1017.000000	56.337295
1016.000000	56.260588
1015.000000	56.185146
1014.000000	56.129934
1013.000000	56.102538
1012.000000	56.075459
1011.000000	56.054912
1010.000000	56.042374
1009.000000	56.043111
1008.000000	56.050487
1007.000000	56.071877
1006.000000	56.059759
1005.000000	56.071455
1004.000000	56.070296
1003.000000	56.052594
1002.000000	56.059443
1001.000000	56.072930
1000.000000	56.089578
999.000000	56.096638
998.000000	56.101063
997.000000	56.126246
996.000000	56.155116
995.000000	56.167550
994.000000	56.176400
993.000000	56.198422
992.000000	56.213700
991.000000	56.234247
990.000000	56.266173
989.000000	56.279976
988.000000	56.320331
987.000000	56.355945
986.000000	56.411052
985.000000	56.454674
984.000000	56.494503
983.000000	56.539810
982.000000	56.604611
981.000000	56.671730
980.000000	56.740850
979.000000	56.795430
978.000000	56.835048
977.000000	56.905749
976.000000	56.985406
975.000000	57.035561
974.000000	57.089509
973.000000	57.186025
972.000000	57.262837
971.000000	57.317944
970.000000	57.415619
969.000000	57.488954
968.000000	57.567452
967.000000	57.647637
966.000000	57.718022
965.000000	57.804844
964.000000	57.897777
963.000000	58.008202
962.000000	58.109565
961.000000	58.215247
960.000000	58.338421
959.000000	58.463702
958.000000	58.589721
957.000000	58.700145
956.000000	58.811623
955.000000	58.928159
954.000000	59.066822
953.000000	59.158280
952.000000	59.246051
951.000000	59.374914
950.000000	59.446142
949.000000	59.553195
948.000000	59.663303
947.000000	59.750441
946.000000	59.848538
945.000000	59.950954
944.000000	60.059166
943.000000	60.154944
942.000000	60.301826
941.000000	60.423524
940.000000	60.540060
939.000000	60.649220
938.000000	60.780928
937.000000	60.948040
936.000000	61.079011
935.000000	61.206083
934.000000	61.371720
933.000000	61.509118
932.000000	61.695723
931.000000	61.837757
930.000000	61.975155
929.000000	62.134154
928.000000	62.280192
927.000000	62.411584
926.000000	62.564577
925.000000	62.734850
924.000000	62.890055
923.000000	63.026400
922.000000	63.175810
921.000000	63.331226
920.000000	63.484534
919.000000	63.691053
918.000000	63.814965
917.000000	63.951204
916.000000	64.089761
915.000000	64.210617
914.000000	64.397221
913.000000	64.528824
912.000000	64.658847
911.000000	64.795402
910.000000	64.928902
909.000000	65.095276
908.000000	65.222454
907.000000	65.408321
906.000000	65.575643
905.000000	65.732534
904.000000	65.922616
903.000000	66.138723
902.000000	66.328805
901.000000	66.502871
900.000000	66.697273
899.000000	66.916014
898.000000	67.089132
897.000000	67.296388
896.000000	67.493635
895.000000	67.683716
894.000000	67.878961
893.000000	68.018993
892.000000	68.228989
891.000000	68.387356
890.000000	68.571326
889.000000	68.748764
888.000000	68.926412
887.000000	69.124080
886.000000	69.307313
885.000000	69.458304
884.000000	69.621095
883.000000	69.826139
882.000000	69.981976
881.000000	70.112631
880.000000	70.329581
879.000000	70.520085
878.000000	70.704687
877.000000	70.853992
876.000000	71.080425
875.000000	71.231205
874.000000	71.434457
873.000000	71.660153
872.000000	71.882372
871.000000	72.033362
870.000000	72.266117
869.000000	72.458938
868.000000	72.648388
867.000000	72.865865
866.000000	73.100938
865.000000	73.255617
864.000000	73.474990
863.000000	73.670130
862.000000	73.858104
861.000000	73.984017
860.000000	74.096338
859.000000	74.195383
858.000000	74.942433
857.000000	74.560200
856.000000	74.874800
855.000000	75.392300
854.000000	75.663800
853.000000	75.702000
852.000000	76.600400
851.000000	76.815700
850.000000	77.156200
849.000000	77.601200
848.000000	78.132700
847.000000	78.572100
846.000000	78.957500
845.000000	79.516700
844.000000	79.740100
843.000000	80.241300
842.000000	80.448300
841.000000	80.840000
840.000000	81.244100
839.000000	81.603600
838.000000	82.244800
837.000000	82.462800
836.000000	82.895700
835.000000	83.451600
834.000000	83.942500
833.000000	83.999400
832.000000	84.388800
831.000000	84.958800
830.000000	85.293300
829.000000	85.614100
828.000000	85.913500
827.000000	86.542000
826.000000	86.719300
825.000000	87.093000
824.000000	87.471500
823.000000	87.902600
822.000000	88.158100
821.000000	88.415100
820.000000	88.817400
819.000000	89.159000
818.000000	89.343400
817.000000	89.729100
816.000000	89.894800
815.000000	90.174300
814.000000	90.431000
813.000000	90.638300
812.000000	90.756400
811.000000	91.228100
810.000000	91.339400
809.000000	91.469400
808.000000	91.526500
807.000000	91.723200
806.000000	91.878700
805.000000	91.907800
804.000000	91.946600
803.000000	92.078000
802.000000	92.277200
801.000000	92.421800
800.000000	92.416900
799.000000	92.447800
798.000000	92.542000
797.000000	92.705800
796.000000	92.529900
795.000000	92.658500
794.000000	92.615200
793.000000	92.538500
792.000000	92.657300
791.000000	92.572000
790.000000	92.525200
789.000000	92.562500
788.000000	92.480300
787.000000	92.466700
786.000000	92.520400
785.000000	92.435800
784.000000	92.348800
783.000000	92.283500
782.000000	92.251600
781.000000	92.159500
780.000000	92.065400
779.000000	92.105300
778.000000	91.986100
777.000000	91.893400
776.000000	91.924200
775.000000	91.898400
774.000000	91.836300
773.000000	91.845100
772.000000	91.813200
771.000000	91.744000
770.000000	91.683700
769.000000	91.671000
768.000000	91.585000
767.000000	91.470400
766.000000	91.383000
765.000000	91.414100
764.000000	91.380800
763.000000	91.182300
762.000000	91.062700
761.000000	90.994000
760.000000	90.883100
759.000000	90.755800
758.000000	90.577300
757.000000	90.450900
756.000000	90.392200
755.000000	90.216000
754.000000	89.962500
753.000000	89.776300
752.000000	89.665300
751.000000	89.454900
750.000000	89.228900
749.000000	88.944400
748.000000	88.722400
747.000000	88.512500
746.000000	88.276900
745.000000	88.030700
744.000000	87.686100
743.000000	87.386900
742.000000	87.113600
741.000000	86.798800
740.000000	86.490700
739.000000	86.118700
738.000000	85.715700
737.000000	85.373800
736.000000	85.013200
735.000000	84.580400
734.000000	84.086300
733.000000	83.636600
732.000000	83.238500
731.000000	82.737500
730.000000	82.227500
729.000000	81.724300
728.000000	81.122300
727.000000	80.641700
726.000000	80.197800
725.000000	79.578200
724.000000	79.018300
723.000000	78.517500
722.000000	78.030400
721.000000	77.479400
720.000000	77.029500
719.000000	76.531400
718.000000	76.000200
717.000000	75.519700
716.000000	75.094400
715.000000	74.679700
714.000000	74.275200
713.000000	73.904900
712.000000	73.568900
711.000000	73.237900
710.000000	72.854900
709.000000	72.572200
708.000000	72.307000
707.000000	71.979500
706.000000	71.705500
705.000000	71.507700
704.000000	71.238600
703.000000	70.972200
702.000000	70.741300
701.000000	70.523600
700.000000	70.325200
699.000000	70.155900
698.000000	69.948800
697.000000	69.781800
696.000000	69.667500
695.000000	69.494400
694.000000	69.307500
693.000000	69.152700
692.000000	69.034100
691.000000	68.892400
690.000000	68.714200
689.000000	68.559400
688.000000	68.353000
687.000000	68.179200
686.000000	68.011300
685.000000	67.747300
684.000000	67.478100
683.000000	67.213700
682.000000	66.917900
681.000000	66.573200
680.000000	66.308500
679.000000	65.961500
678.000000	65.577700
677.000000	65.278900
676.000000	64.925400
675.000000	64.569400
674.000000	64.256000
673.000000	63.906800
672.000000	63.634700
671.000000	63.322800
670.000000	63.008500
669.000000	62.741500
668.000000	62.467100
667.000000	62.199300
666.000000	61.991500
665.000000	61.754700
664.000000	61.526500
663.000000	61.314900
662.000000	61.097500
661.000000	60.976000
660.000000	60.802700
659.000000	60.623000
658.000000	60.546200
657.000000	60.405000
656.000000	60.328000
655.000000	60.248500
654.000000	60.165200
653.000000	60.088200
652.000000	60.089600
651.000000	60.015600
650.000000	59.952600
649.000000	59.924300
648.000000	59.871800
647.000000	59.854800
646.000000	59.788400
645.000000	59.759300
644.000000	59.737200
643.000000	59.677500
642.000000	59.627400
641.000000	59.590000
640.000000	59.559600
639.000000	59.529500
638.000000	59.512200
637.000000	59.470000
636.000000	59.485400
635.000000	59.518700
634.000000	59.583200
633.000000	59.592900
632.000000	59.671200
631.000000	59.797800
630.000000	59.918500
629.000000	60.098000
628.000000	60.241600
627.000000	60.460600
626.000000	60.734900
625.000000	60.957700
624.000000	61.258600
623.000000	61.614600
622.000000	61.950300
621.000000	62.359900
620.000000	62.796100
619.000000	63.280100
618.000000	63.752000
617.000000	64.226600
616.000000	64.728600
615.000000	65.255100
614.000000	65.808700
613.000000	66.340500
612.000000	66.874500
611.000000	67.406800
610.000000	67.891800
609.000000	68.407300
608.000000	68.918900
607.000000	69.383700
606.000000	69.838000
605.000000	70.283600
604.000000	70.764800
603.000000	71.213300
602.000000	71.629900
601.000000	72.016500
600.000000	72.409700
599.000000	72.832400
598.000000	73.166500
597.000000	73.501200
596.000000	73.744300
595.000000	74.059200
594.000000	74.337900
593.000000	74.600600
592.000000	74.827700
591.000000	75.012800
590.000000	75.291800
589.000000	75.544000
588.000000	75.731100
587.000000	75.854200
586.000000	76.066600
585.000000	76.150300
584.000000	76.250700
583.000000	76.361900
582.000000	76.440700
581.000000	76.454300
580.000000	76.515200
579.000000	76.553900
578.000000	76.586900
577.000000	76.604600
576.000000	76.625000
575.000000	76.607800
574.000000	76.562700
573.000000	76.509900
572.000000	76.370300
571.000000	76.259800
570.000000	76.158100
569.000000	76.036300
568.000000	75.889600
567.000000	75.738700
566.000000	75.584200
565.000000	75.396500
564.000000	75.197300
563.000000	74.949900
562.000000	74.700400
561.000000	74.442300
560.000000	74.174200
559.000000	73.924800
558.000000	73.613900
557.000000	73.320000
556.000000	73.013700
555.000000	72.655400
554.000000	72.267500
553.000000	71.869000
552.000000	71.393000
551.000000	70.961500
550.000000	70.520100
549.000000	70.049400
548.000000	69.545700
547.000000	69.021400
546.000000	68.477500
545.000000	67.929700
544.000000	67.335800
543.000000	66.721100
542.000000	66.097700
541.000000	65.468000
540.000000	64.798500
539.000000	64.131600
538.000000	63.463500
537.000000	62.762300
536.000000	62.019600
535.000000	61.259500
534.000000	60.480500
533.000000	59.674700
532.000000	58.853500
531.000000	58.040300
530.000000	57.220100
529.000000	56.415500
528.000000	55.593300
527.000000	54.772400
526.000000	53.962100
525.000000	53.166000
524.000000	52.364400
523.000000	51.587500
522.000000	50.793200
521.000000	50.047500
520.000000	49.300900
519.000000	48.555900
518.000000	47.813300
517.000000	47.122300
516.000000	46.444100
515.000000	45.767900
514.000000	45.105300
513.000000	44.449700
512.000000	43.812800
511.000000	43.203200
510.000000	42.622000
509.000000	42.042000
508.000000	41.491100
507.000000	40.949100
506.000000	40.442500
505.000000	39.935500
504.000000	39.416500
503.000000	38.923900
502.000000	38.425300
501.000000	37.970100
500.000000	37.518600
499.000000	37.075200
498.000000	36.672100
497.000000	36.270600
496.000000	35.890500
495.000000	35.508600
494.000000	35.154600
493.000000	34.847300
492.000000	34.538900
491.000000	34.211700
490.000000	33.919500
489.000000	33.664600
488.000000	33.409100
487.000000	33.163900
486.000000	32.946800
485.000000	32.734100
484.000000	32.510900
483.000000	32.304400
482.000000	32.117200
481.000000	31.923600
480.000000	31.697800
479.000000	31.466100
478.000000	31.227400
477.000000	31.001800
476.000000	30.767400
475.000000	30.518500
474.000000	30.243400
473.000000	29.962100
472.000000	29.689400
471.000000	29.428000
470.000000	29.148300
469.000000	28.864500
468.000000	28.570200
467.000000	28.296100
466.000000	28.038300
465.000000	27.771500
464.000000	27.516100
463.000000	27.272500
462.000000	27.055400
461.000000	26.851900
460.000000	26.656500
459.000000	26.489700
458.000000	26.340400
457.000000	26.202000
456.000000	26.091600
455.000000	26.002500
454.000000	25.932700
453.000000	25.854600
452.000000	25.792200
451.000000	25.761800
450.000000	25.743400
449.000000	25.726300
448.000000	25.684400
447.000000	25.668500
446.000000	25.662400
445.000000	25.636800
444.000000	25.608900
443.000000	25.587400
442.000000	25.578600
441.000000	25.525300
440.000000	25.448100
439.000000	25.382200
438.000000	25.313300
437.000000	25.234000
436.000000	25.132400
435.000000	25.018500
434.000000	24.883600
433.000000	24.743600
432.000000	24.592200
431.000000	24.429700
430.000000	24.253000
429.000000	24.069300
428.000000	23.849400
427.000000	23.631700
426.000000	23.407000
425.000000	23.162500
424.000000	22.896500
423.000000	22.619400
422.000000	22.328200
421.000000	22.017800
420.000000	21.709700
419.000000	21.370900
418.000000	21.018800
417.000000	20.668200
416.000000	20.286300
415.000000	19.880200
414.000000	19.480600
413.000000	19.077100
412.000000	18.668200
411.000000	18.218700
410.000000	17.775400
409.000000	17.336200
408.000000	16.878300
407.000000	16.446200
406.000000	15.995300
405.000000	15.539800
404.000000	15.085800
403.000000	14.642100
402.000000	14.188000
401.000000	13.744500
400.000000	13.303500
399.000000	12.877600
398.000000	12.469100
397.000000	12.068000
396.000000	11.663500
395.000000	11.289000
394.000000	10.923200
393.000000	10.562600
392.000000	10.214500
391.000000	9.912700
390.000000	9.588400
389.000000	9.291800
388.000000	9.027700
387.000000	8.779100
386.000000	8.533000
385.000000	8.313400
384.000000	8.105600
383.000000	7.916100
382.000000	7.734600
381.000000	7.551800
380.000000	7.386100
379.000000	7.243400
378.000000	7.115800
377.000000	7.005000
376.000000	6.812600
375.000000	6.630700
374.000000	6.512300
373.000000	6.425200
372.000000	6.467100
371.000000	6.445700
370.000000	6.373000
369.000000	6.317500
368.000000	6.257300
367.000000	6.124100
366.000000	6.097800
365.000000	6.069100
364.000000	6.077700
363.000000	6.002200
362.000000	5.940800
361.000000	5.951200
360.000000	5.830700
359.000000	5.810900
358.000000	5.824000
357.000000	5.705500
356.000000	5.718200
355.000000	5.673800
354.000000	5.618400
353.000000	5.700500
352.000000	5.605000
351.000000	5.498400
350.000000	5.404100
349.000000	5.441300
348.000000	5.430400
347.000000	5.472200
346.000000	5.410200
345.000000	5.464400
344.000000	5.470400
343.000000	5.394100
342.000000	5.306900
341.000000	5.377100
340.000000	5.395800
339.000000	5.308700
338.000000	5.308900
337.000000	5.469800
336.000000	5.379000
335.000000	5.284600
334.000000	5.297300
333.000000	5.269900
332.000000	5.335000
331.000000	5.352600
330.000000	5.358000
329.000000	5.149000
328.000000	5.369000
327.000000	5.461000
326.000000	5.464300
325.000000	5.309900
324.000000	5.419500
323.000000	4.951600
322.000000	5.213800
321.000000	5.267700
320.000000	5.428800
319.000000	5.115800
318.000000	5.289300
317.000000	5.441300
316.000000	5.194800
315.000000	5.161800
314.000000	5.197700
313.000000	5.175800
312.000000	5.176000
311.000000	5.166200
310.000000	5.148200
309.000000	5.185300
308.000000	5.136500
307.000000	5.136500
306.000000	5.184400
305.000000	5.149500
304.000000	5.145500
303.000000	5.116800
302.000000	5.165500
301.000000	5.187600
300.000000	5.165800
299.000000	5.155000
298.000000	5.209900
297.000000	5.215700
296.000000	5.174700
295.000000	5.235500
294.000000	5.219200
293.000000	5.205200
292.000000	5.178900
291.000000	5.208900
290.000000	5.190900
289.000000	5.213200
288.000000	5.210200
287.000000	5.224000
286.000000	5.299300
285.000000	5.168600
284.000000	5.250700
283.000000	5.230700
282.000000	5.224700
281.000000	5.268400
280.000000	5.189700
279.000000	5.260600
278.000000	5.272500
277.000000	5.323200
276.000000	5.286700
275.000000	5.299900
274.000000	5.317300
273.000000	5.288000
272.000000	5.326500
271.000000	5.348600
270.000000	5.335400
269.000000	5.368400
268.000000	5.383900
267.000000	5.437500
266.000000	5.419900
265.000000	5.454700
264.000000	5.476100
263.000000	5.486100
262.000000	5.532700
261.000000	5.521800
260.000000	5.562000
259.000000	5.589500
258.000000	5.567300
257.000000	5.563500
256.000000	5.605100
255.000000	5.598500
254.000000	5.629400
253.000000	5.612400
252.000000	5.651000
251.000000	5.639200
250.000000	5.674900
