PE UV       SUBTECH     SPECTRUM    ASCII       PEDS        4.00        
   -1
CICIMAUCR0019-3.Sample.ASC
24/04/17
14:35:40.00
24/04/17
14:35:40.00
Vinicio Soto Monge
C. cupreomarginata
250,000000
1
Lambda 1050
1050L1511233
PerkinElmer UV WinLab 6.3.2.0749 / 2.02.05 Lambda 900 UV/VIS/NIR, Aug  7 2015 09:38:08

0
0
3350/servo 860,8/2
0
0
UV/VIS
1
1
1
DoubleDePol,CommonBeamDepol,RBeamAtt,SBeamAtt,60mm sphere, WB InGaAs Detector
0
0
0
0
Program
Program
3350/servo 860,8/2
3350/0,2 860,8/0,2
3350/0,2 860,8/0,2
0
15.00
 
 
 
0
 
860,8
319,2
860,8
Front
100
on
S:100 R:100
0
0
0
0
 
0
 
 
 
0
 
 
0
0
0
0
0
 
 
 
 
0
0


0
0
#HDR
-1
-1
#GR
nm
%R
1.0
0.0
2500,000000
-1,000000
2251
8
48,289000
3,625600
#DATA
2482.000000	8.671262
2481.000000	8.677396
2480.000000	8.727512
2479.000000	8.671262
2478.000000	8.669178
2477.000000	8.680405
2476.000000	8.629826
2475.000000	8.653438
2474.000000	8.689433
2473.000000	8.644178
2472.000000	8.673808
2471.000000	8.674503
2470.000000	8.659225
2469.000000	8.701123
2468.000000	8.702859
2467.000000	8.744411
2466.000000	8.742559
2465.000000	8.743253
2464.000000	8.753901
2463.000000	8.810036
2462.000000	8.851935
2461.000000	8.881333
2460.000000	8.907722
2459.000000	8.953440
2458.000000	9.034575
2457.000000	9.100548
2456.000000	9.131798
2455.000000	9.195919
2454.000000	9.244300
2453.000000	9.330064
2452.000000	9.389787
2451.000000	9.451246
2450.000000	9.498816
2449.000000	9.568724
2448.000000	9.627289
2447.000000	9.705183
2446.000000	9.768494
2445.000000	9.841990
2444.000000	9.886898
2443.000000	9.938519
2442.000000	10.016645
2441.000000	10.087247
2440.000000	10.132271
2439.000000	10.177063
2438.000000	10.238290
2437.000000	10.307967
2436.000000	10.366301
2435.000000	10.420584
2434.000000	10.449982
2433.000000	10.489450
2432.000000	10.536788
2431.000000	10.578340
2430.000000	10.620007
2429.000000	10.650563
2428.000000	10.687716
2427.000000	10.705656
2426.000000	10.745355
2425.000000	10.786907
2424.000000	10.812948
2423.000000	10.833898
2422.000000	10.860981
2421.000000	10.907510
2420.000000	10.951839
2419.000000	10.986330
2418.000000	11.044779
2417.000000	11.089108
2416.000000	11.121169
2415.000000	11.135637
2414.000000	11.162836
2413.000000	11.189109
2412.000000	11.250105
2411.000000	11.254272
2410.000000	11.290383
2409.000000	11.339458
2408.000000	11.347328
2407.000000	11.360870
2406.000000	11.400107
2405.000000	11.427769
2404.000000	11.460524
2403.000000	11.500108
2402.000000	11.529853
2401.000000	11.549298
2400.000000	11.569321
2399.000000	11.584020
2398.000000	11.626498
2397.000000	11.643396
2396.000000	11.671406
2395.000000	11.697795
2394.000000	11.710758
2393.000000	11.741661
2392.000000	11.749994
2391.000000	11.760643
2390.000000	11.773374
2389.000000	11.763536
2388.000000	11.756939
2387.000000	11.769555
2386.000000	11.780434
2385.000000	11.783907
2384.000000	11.776499
2383.000000	11.758328
2382.000000	11.738536
2381.000000	11.729971
2380.000000	11.730318
2379.000000	11.717355
2378.000000	11.695133
2377.000000	11.673257
2376.000000	11.667818
2375.000000	11.645132
2374.000000	11.611567
2373.000000	11.586335
2372.000000	11.551844
2371.000000	11.507399
2370.000000	11.470131
2369.000000	11.435524
2368.000000	11.404158
2367.000000	11.355546
2366.000000	11.278231
2365.000000	11.224642
2364.000000	11.172906
2363.000000	11.119201
2362.000000	11.065150
2361.000000	11.004617
2360.000000	10.954385
2359.000000	10.900334
2358.000000	10.854500
2357.000000	10.815611
2356.000000	10.782161
2355.000000	10.765494
2354.000000	10.746513
2353.000000	10.747207
2352.000000	10.756003
2351.000000	10.769777
2350.000000	10.799291
2349.000000	10.831236
2348.000000	10.848713
2347.000000	10.879037
2346.000000	10.921514
2345.000000	10.947325
2344.000000	10.977765
2343.000000	11.010173
2342.000000	11.041076
2341.000000	11.056701
2340.000000	11.072326
2339.000000	11.065034
2338.000000	11.054502
2337.000000	11.041770
2336.000000	11.024525
2335.000000	10.983436
2334.000000	10.953112
2333.000000	10.891074
2332.000000	10.841537
2331.000000	10.810518
2330.000000	10.773133
2329.000000	10.710285
2328.000000	10.648942
2327.000000	10.594775
2326.000000	10.534821
2325.000000	10.459704
2324.000000	10.359472
2323.000000	10.263638
2322.000000	10.191646
2321.000000	10.119886
2320.000000	10.012709
2319.000000	9.892569
2318.000000	9.794883
2317.000000	9.678100
2316.000000	9.568608
2315.000000	9.474626
2314.000000	9.397773
2313.000000	9.313282
2312.000000	9.220109
2311.000000	9.166058
2310.000000	9.105062
2309.000000	9.071728
2308.000000	9.058418
2307.000000	9.039668
2306.000000	9.050663
2305.000000	9.092099
2304.000000	9.115016
2303.000000	9.148234
2302.000000	9.198581
2301.000000	9.288166
2300.000000	9.359231
2299.000000	9.422889
2298.000000	9.487936
2297.000000	9.552983
2296.000000	9.617798
2295.000000	9.662243
2294.000000	9.712359
2293.000000	9.755647
2292.000000	9.798587
2291.000000	9.809351
2290.000000	9.809351
2289.000000	9.809004
2288.000000	9.785971
2287.000000	9.780647
2286.000000	9.742568
2285.000000	9.729374
2284.000000	9.678100
2283.000000	9.635507
2282.000000	9.577173
2281.000000	9.539094
2280.000000	9.500436
2279.000000	9.465482
2278.000000	9.420111
2277.000000	9.389671
2276.000000	9.353097
2275.000000	9.347310
2274.000000	9.301707
2273.000000	9.301592
2272.000000	9.298004
2271.000000	9.326245
2270.000000	9.338861
2269.000000	9.372773
2268.000000	9.450783
2267.000000	9.539788
2266.000000	9.637127
2265.000000	9.751712
2264.000000	9.882847
2263.000000	10.038288
2262.000000	10.223823
2261.000000	10.424635
2260.000000	10.599868
2259.000000	10.807740
2258.000000	11.035520
2257.000000	11.249642
2256.000000	11.467006
2255.000000	11.692355
2254.000000	11.884139
2253.000000	12.135530
2252.000000	12.308101
2251.000000	12.479978
2250.000000	12.700929
2249.000000	12.871417
2248.000000	13.008455
2247.000000	13.194568
2246.000000	13.312393
2245.000000	13.455913
2244.000000	13.577558
2243.000000	13.668415
2242.000000	13.787398
2241.000000	13.889945
2240.000000	13.983001
2239.000000	14.107539
2238.000000	14.172239
2237.000000	14.251638
2236.000000	14.331384
2235.000000	14.359509
2234.000000	14.425135
2233.000000	14.473631
2232.000000	14.502914
2231.000000	14.521895
2230.000000	14.570391
2229.000000	14.597475
2228.000000	14.591225
2227.000000	14.607544
2226.000000	14.602915
2225.000000	14.605114
2224.000000	14.621549
2223.000000	14.611827
2222.000000	14.559511
2221.000000	14.561710
2220.000000	14.563910
2219.000000	14.521548
2218.000000	14.520854
2217.000000	14.469811
2216.000000	14.462751
2215.000000	14.401755
2214.000000	14.408468
2213.000000	14.377681
2212.000000	14.343190
2211.000000	14.312750
2210.000000	14.279416
2209.000000	14.274439
2208.000000	14.267958
2207.000000	14.250828
2206.000000	14.227911
2205.000000	14.240758
2204.000000	14.196892
2203.000000	14.188443
2202.000000	14.193651
2201.000000	14.189948
2200.000000	14.182077
2199.000000	14.140642
2198.000000	14.122817
2197.000000	14.113790
2196.000000	14.117493
2195.000000	14.099438
2194.000000	14.105109
2193.000000	14.071197
2192.000000	14.044923
2191.000000	14.024668
2190.000000	14.016914
2189.000000	14.026173
2188.000000	13.990987
2187.000000	13.976983
2186.000000	13.977909
2185.000000	13.930223
2184.000000	13.926404
2183.000000	13.930339
2182.000000	13.907306
2181.000000	13.898047
2180.000000	13.888093
2179.000000	13.870500
2178.000000	13.889482
2177.000000	13.866102
2176.000000	13.849088
2175.000000	13.844690
2174.000000	13.867259
2173.000000	13.863556
2172.000000	13.885662
2171.000000	13.888903
2170.000000	13.893880
2169.000000	13.923047
2168.000000	13.919343
2167.000000	13.952330
2166.000000	13.968071
2165.000000	14.009390
2164.000000	14.040872
2163.000000	14.056382
2162.000000	14.095155
2161.000000	14.126868
2160.000000	14.146544
2159.000000	14.204300
2158.000000	14.239601
2157.000000	14.286824
2156.000000	14.352102
2155.000000	14.397357
2154.000000	14.434626
2153.000000	14.496895
2152.000000	14.540645
2151.000000	14.587289
2150.000000	14.628725
2149.000000	14.664721
2148.000000	14.700369
2147.000000	14.751527
2146.000000	14.791111
2145.000000	14.822014
2144.000000	14.873403
2143.000000	14.911135
2142.000000	14.953034
2141.000000	14.980580
2140.000000	15.023057
2139.000000	15.055812
2138.000000	15.064377
2137.000000	15.103266
2136.000000	15.156160
2135.000000	15.183244
2134.000000	15.218777
2133.000000	15.230698
2132.000000	15.222828
2131.000000	15.255467
2130.000000	15.281625
2129.000000	15.294125
2128.000000	15.309287
2127.000000	15.291926
2126.000000	15.286486
2125.000000	15.308014
2124.000000	15.311254
2123.000000	15.303500
2122.000000	15.273754
2121.000000	15.251184
2120.000000	15.247712
2119.000000	15.235907
2118.000000	15.220281
2117.000000	15.188221
2116.000000	15.172712
2115.000000	15.144471
2114.000000	15.122827
2113.000000	15.107202
2112.000000	15.079192
2111.000000	15.049562
2110.000000	15.037757
2109.000000	15.017386
2108.000000	14.982779
2107.000000	14.969122
2106.000000	14.961251
2105.000000	14.934399
2104.000000	14.899445
2103.000000	14.873982
2102.000000	14.852685
2101.000000	14.831157
2100.000000	14.808703
2099.000000	14.770740
2098.000000	14.748402
2097.000000	14.737291
2096.000000	14.715068
2095.000000	14.700485
2094.000000	14.699327
2093.000000	14.699327
2092.000000	14.671781
2091.000000	14.640994
2090.000000	14.646781
2089.000000	14.642151
2088.000000	14.631271
2087.000000	14.609280
2086.000000	14.590646
2085.000000	14.586479
2084.000000	14.559164
2083.000000	14.535784
2082.000000	14.531039
2081.000000	14.525946
2080.000000	14.505923
2079.000000	14.484048
2078.000000	14.449672
2077.000000	14.433353
2076.000000	14.412288
2075.000000	14.379996
2074.000000	14.359741
2073.000000	14.319810
2072.000000	14.294926
2071.000000	14.266916
2070.000000	14.228027
2069.000000	14.212749
2068.000000	14.182887
2067.000000	14.148859
2066.000000	14.141452
2065.000000	14.104414
2064.000000	14.072817
2063.000000	14.046775
2062.000000	14.022122
2061.000000	14.016566
2060.000000	13.994807
2059.000000	13.975825
2058.000000	13.969922
2057.000000	14.013210
2056.000000	14.045618
2055.000000	14.066798
2054.000000	14.107192
2053.000000	14.151521
2052.000000	14.208235
2051.000000	14.280342
2050.000000	14.358931
2049.000000	14.438098
2048.000000	14.547358
2047.000000	14.656966
2046.000000	14.763911
2045.000000	14.857894
2044.000000	14.980812
2043.000000	15.067502
2042.000000	15.189841
2041.000000	15.307898
2040.000000	15.459404
2039.000000	15.586836
2038.000000	15.686026
2037.000000	15.790773
2036.000000	15.889848
2035.000000	15.997835
2034.000000	16.095753
2033.000000	16.202351
2032.000000	16.297375
2031.000000	16.375616
2030.000000	16.444367
2029.000000	16.514854
2028.000000	16.601197
2027.000000	16.679902
2026.000000	16.739393
2025.000000	16.808954
2024.000000	16.884186
2023.000000	16.941131
2022.000000	16.992636
2021.000000	17.026433
2020.000000	17.074465
2019.000000	17.095993
2018.000000	17.151318
2017.000000	17.204791
2016.000000	17.255138
2015.000000	17.268333
2014.000000	17.285926
2013.000000	17.315671
2012.000000	17.325278
2011.000000	17.355834
2010.000000	17.368913
2009.000000	17.393566
2008.000000	17.349468
2007.000000	17.324699
2006.000000	17.333843
2005.000000	17.323195
2004.000000	17.295995
2003.000000	17.303634
2002.000000	17.268680
2001.000000	17.248194
2000.000000	17.217754
1999.000000	17.172267
1998.000000	17.117174
1997.000000	17.060808
1996.000000	17.017173
1995.000000	16.935112
1994.000000	16.906871
1993.000000	16.844139
1992.000000	16.786268
1991.000000	16.714971
1990.000000	16.649924
1989.000000	16.564738
1988.000000	16.505363
1987.000000	16.433487
1986.000000	16.360570
1985.000000	16.290315
1984.000000	16.185452
1983.000000	16.106632
1982.000000	16.003506
1981.000000	15.935682
1980.000000	15.834870
1979.000000	15.773296
1978.000000	15.709175
1977.000000	15.603387
1976.000000	15.531627
1975.000000	15.447714
1974.000000	15.368315
1973.000000	15.282203
1972.000000	15.218892
1971.000000	15.120975
1970.000000	15.064146
1969.000000	14.998404
1968.000000	14.905001
1967.000000	14.827801
1966.000000	14.736133
1965.000000	14.667498
1964.000000	14.592729
1963.000000	14.508816
1962.000000	14.464603
1961.000000	14.391917
1960.000000	14.298629
1959.000000	14.222818
1958.000000	14.165063
1957.000000	14.098627
1956.000000	13.991219
1955.000000	13.925130
1954.000000	13.888093
1953.000000	13.853602
1952.000000	13.740522
1951.000000	13.670846
1950.000000	13.583692
1949.000000	13.532881
1948.000000	13.486932
1947.000000	13.422348
1946.000000	13.392602
1945.000000	13.379408
1944.000000	13.276397
1943.000000	13.279870
1942.000000	13.222230
1941.000000	13.181836
1940.000000	13.168758
1939.000000	13.172461
1938.000000	13.223735
1937.000000	13.198272
1936.000000	13.239592
1935.000000	13.274661
1934.000000	13.264245
1933.000000	13.301861
1932.000000	13.298736
1931.000000	13.322810
1930.000000	13.370264
1929.000000	13.482071
1928.000000	13.611933
1927.000000	13.732305
1926.000000	13.875477
1925.000000	13.952098
1924.000000	14.010895
1923.000000	14.054877
1922.000000	14.184624
1921.000000	14.431617
1920.000000	14.689837
1919.000000	14.926992
1918.000000	15.055697
1917.000000	15.151184
1916.000000	15.205119
1915.000000	15.294472
1914.000000	15.568780
1913.000000	15.912186
1912.000000	16.292282
1911.000000	16.514391
1910.000000	16.707680
1909.000000	16.746685
1908.000000	16.798653
1907.000000	17.026780
1906.000000	17.351551
1905.000000	17.826787
1904.000000	18.233967
1903.000000	18.485937
1902.000000	18.677721
1901.000000	18.856542
1900.000000	19.187101
1899.000000	19.665346
1898.000000	20.123915
1897.000000	20.436765
1896.000000	20.615355
1895.000000	20.694638
1894.000000	20.832834
1893.000000	21.112119
1892.000000	21.520225
1891.000000	21.966178
1890.000000	22.376946
1889.000000	22.688986
1888.000000	22.987715
1887.000000	23.215495
1886.000000	23.492697
1885.000000	23.903812
1884.000000	24.414117
1883.000000	24.939701
1882.000000	25.467947
1881.000000	25.907881
1880.000000	26.251287
1879.000000	26.577564
1878.000000	26.947475
1877.000000	27.329423
1876.000000	27.667504
1875.000000	28.007554
1874.000000	28.333020
1873.000000	28.722028
1872.000000	29.124810
1871.000000	29.464975
1870.000000	29.908150
1869.000000	30.302946
1868.000000	30.551443
1867.000000	30.684199
1866.000000	30.680611
1865.000000	30.658042
1864.000000	30.586976
1863.000000	30.486860
1862.000000	30.445308
1861.000000	30.464521
1860.000000	30.532230
1859.000000	30.662671
1858.000000	30.816492
1857.000000	30.806654
1856.000000	30.688019
1855.000000	30.650634
1854.000000	30.728297
1853.000000	30.756538
1852.000000	30.722278
1851.000000	30.565680
1850.000000	30.255839
1849.000000	30.059888
1848.000000	30.222389
1847.000000	30.588481
1846.000000	30.716839
1845.000000	30.498897
1844.000000	30.137319
1843.000000	29.823427
1842.000000	29.800395
1841.000000	29.999702
1840.000000	30.103870
1839.000000	30.051786
1838.000000	29.937433
1837.000000	29.948081
1836.000000	30.047156
1835.000000	30.106763
1834.000000	30.011161
1833.000000	29.759075
1832.000000	29.549466
1831.000000	29.447035
1830.000000	29.473656
1829.000000	29.447845
1828.000000	29.339627
1827.000000	29.298307
1826.000000	29.307913
1825.000000	29.271107
1824.000000	29.131407
1823.000000	28.864391
1822.000000	28.748070
1821.000000	28.879206
1820.000000	29.079786
1819.000000	29.158259
1818.000000	29.045527
1817.000000	28.881289
1816.000000	28.883604
1815.000000	28.928859
1814.000000	28.924576
1813.000000	28.863117
1812.000000	28.829552
1811.000000	28.886613
1810.000000	28.883372
1809.000000	28.783371
1808.000000	28.684296
1807.000000	28.628856
1806.000000	28.636148
1805.000000	28.625731
1804.000000	28.552698
1803.000000	28.447952
1802.000000	28.398530
1801.000000	28.393900
1800.000000	28.383252
1799.000000	28.329895
1798.000000	28.263112
1797.000000	28.196560
1796.000000	28.141120
1795.000000	28.095865
1794.000000	28.049684
1793.000000	28.006628
1792.000000	27.951882
1791.000000	27.916118
1790.000000	27.868201
1789.000000	27.782899
1788.000000	27.725028
1787.000000	27.679310
1786.000000	27.603962
1785.000000	27.509633
1784.000000	27.418891
1783.000000	27.333589
1782.000000	27.248982
1781.000000	27.163680
1780.000000	27.093656
1779.000000	27.020045
1778.000000	26.935553
1777.000000	26.836478
1776.000000	26.737056
1775.000000	26.635898
1774.000000	26.516915
1773.000000	26.376752
1772.000000	26.233926
1771.000000	26.096888
1770.000000	25.951516
1769.000000	25.788552
1768.000000	25.636698
1767.000000	25.532415
1766.000000	25.458803
1765.000000	25.382645
1764.000000	25.339589
1763.000000	25.292829
1762.000000	25.297806
1761.000000	25.326279
1760.000000	25.376279
1759.000000	25.451280
1758.000000	25.499660
1757.000000	25.554753
1756.000000	25.625471
1755.000000	25.667370
1754.000000	25.691097
1753.000000	25.684847
1752.000000	25.655564
1751.000000	25.606490
1750.000000	25.550355
1749.000000	25.468525
1748.000000	25.372344
1747.000000	25.296765
1746.000000	25.180791
1745.000000	25.030443
1744.000000	24.865974
1743.000000	24.679398
1742.000000	24.456363
1741.000000	24.214116
1740.000000	23.953234
1739.000000	23.707977
1738.000000	23.457511
1737.000000	23.248366
1736.000000	23.089684
1735.000000	22.976257
1734.000000	22.904265
1733.000000	22.864103
1732.000000	22.922553
1731.000000	22.954613
1730.000000	23.071165
1729.000000	23.159129
1728.000000	23.270473
1727.000000	23.387372
1726.000000	23.494201
1725.000000	23.552767
1724.000000	23.604735
1723.000000	23.646055
1722.000000	23.658092
1721.000000	23.676611
1720.000000	23.685407
1719.000000	23.695824
1718.000000	23.761449
1717.000000	23.817584
1716.000000	23.834482
1715.000000	23.904275
1714.000000	23.978234
1713.000000	24.042586
1712.000000	24.090735
1711.000000	24.124300
1710.000000	24.149184
1709.000000	24.132865
1708.000000	24.130897
1707.000000	24.109716
1706.000000	24.085179
1705.000000	24.037378
1704.000000	23.975919
1703.000000	23.900224
1702.000000	23.791774
1701.000000	23.631008
1700.000000	23.473947
1699.000000	23.310172
1698.000000	23.124291
1697.000000	22.997553
1696.000000	22.929960
1695.000000	22.902182
1694.000000	22.914219
1693.000000	23.007276
1692.000000	23.160286
1691.000000	23.346283
1690.000000	23.506702
1689.000000	23.633670
1688.000000	23.727768
1687.000000	23.778348
1686.000000	23.781704
1685.000000	23.795940
1684.000000	23.871520
1683.000000	24.061568
1682.000000	24.388539
1681.000000	24.826158
1680.000000	25.350353
1679.000000	25.942835
1678.000000	26.508234
1677.000000	27.064952
1676.000000	27.534170
1675.000000	27.954544
1674.000000	28.344131
1673.000000	28.654203
1672.000000	28.917863
1671.000000	29.167055
1670.000000	29.376895
1669.000000	29.623194
1668.000000	29.736853
1667.000000	29.911854
1666.000000	30.040328
1665.000000	30.135120
1664.000000	30.200283
1663.000000	30.319381
1662.000000	30.366257
1661.000000	30.446697
1660.000000	30.496350
1659.000000	30.510355
1658.000000	30.550518
1657.000000	30.572161
1656.000000	30.599245
1655.000000	30.621004
1654.000000	30.626213
1653.000000	30.590911
1652.000000	30.563365
1651.000000	30.519614
1650.000000	30.518457
1649.000000	30.479452
1648.000000	30.447970
1647.000000	30.437322
1646.000000	30.400285
1645.000000	30.342529
1644.000000	30.280145
1643.000000	30.247042
1642.000000	30.210468
1641.000000	30.139750
1640.000000	30.089402
1639.000000	30.042758
1638.000000	29.959193
1637.000000	29.871576
1636.000000	29.837432
1635.000000	29.789168
1634.000000	29.714051
1633.000000	29.631759
1632.000000	29.564976
1631.000000	29.496457
1630.000000	29.435924
1629.000000	29.349928
1628.000000	29.271107
1627.000000	29.199810
1626.000000	29.114624
1625.000000	29.034878
1624.000000	28.952702
1623.000000	28.860571
1622.000000	28.821682
1621.000000	28.759644
1620.000000	28.674574
1619.000000	28.587073
1618.000000	28.515776
1617.000000	28.432905
1616.000000	28.383483
1615.000000	28.332441
1614.000000	28.259408
1613.000000	28.190889
1612.000000	28.139615
1611.000000	28.080008
1610.000000	28.009869
1609.000000	27.941465
1608.000000	27.874104
1607.000000	27.804080
1606.000000	27.741232
1605.000000	27.680583
1604.000000	27.627226
1603.000000	27.554888
1602.000000	27.485211
1601.000000	27.416460
1600.000000	27.362988
1599.000000	27.311946
1598.000000	27.271899
1597.000000	27.223403
1596.000000	27.167615
1595.000000	27.102684
1594.000000	27.027568
1593.000000	26.962174
1592.000000	26.927451
1591.000000	26.873747
1590.000000	26.829186
1589.000000	26.798399
1588.000000	26.767265
1587.000000	26.705458
1586.000000	26.672588
1585.000000	26.667611
1584.000000	26.641685
1583.000000	26.604532
1582.000000	26.584740
1581.000000	26.565179
1580.000000	26.558466
1579.000000	26.553721
1578.000000	26.545735
1577.000000	26.543883
1576.000000	26.547818
1575.000000	26.556036
1574.000000	26.549438
1573.000000	26.552100
1572.000000	26.566221
1571.000000	26.590874
1570.000000	26.614254
1569.000000	26.624902
1568.000000	26.646893
1567.000000	26.676986
1566.000000	26.708815
1565.000000	26.727218
1564.000000	26.755690
1563.000000	26.787519
1562.000000	26.803492
1561.000000	26.823862
1560.000000	26.845737
1559.000000	26.854187
1558.000000	26.858122
1557.000000	26.878145
1556.000000	26.874326
1555.000000	26.850367
1554.000000	26.846548
1553.000000	26.842034
1552.000000	26.846779
1551.000000	26.839719
1550.000000	26.828723
1549.000000	26.827335
1548.000000	26.806270
1547.000000	26.762751
1546.000000	26.761014
1545.000000	26.759047
1544.000000	26.730690
1543.000000	26.734625
1542.000000	26.730690
1541.000000	26.720042
1540.000000	26.711245
1539.000000	26.721431
1538.000000	26.710667
1537.000000	26.687866
1536.000000	26.669810
1535.000000	26.643305
1534.000000	26.632194
1533.000000	26.607541
1532.000000	26.585897
1531.000000	26.554068
1530.000000	26.539022
1529.000000	26.525364
1528.000000	26.498975
1527.000000	26.461127
1526.000000	26.432192
1525.000000	26.398511
1524.000000	26.359969
1523.000000	26.323626
1522.000000	26.295385
1521.000000	26.253024
1520.000000	26.213440
1519.000000	26.200940
1518.000000	26.168069
1517.000000	26.093763
1516.000000	26.068068
1515.000000	26.039133
1514.000000	25.985428
1513.000000	25.936701
1512.000000	25.893992
1511.000000	25.863900
1510.000000	25.819686
1509.000000	25.762741
1508.000000	25.741097
1507.000000	25.690981
1506.000000	25.653597
1505.000000	25.627555
1504.000000	25.585772
1503.000000	25.539591
1502.000000	25.508456
1501.000000	25.472924
1500.000000	25.452900
1499.000000	25.426743
1498.000000	25.401742
1497.000000	25.391673
1496.000000	25.383340
1495.000000	25.370724
1494.000000	25.374196
1493.000000	25.367830
1492.000000	25.388085
1491.000000	25.386465
1490.000000	25.382066
1489.000000	25.367367
1488.000000	25.401279
1487.000000	25.412969
1486.000000	25.404752
1485.000000	25.406488
1484.000000	25.425585
1483.000000	25.420840
1482.000000	25.446766
1481.000000	25.494452
1480.000000	25.526165
1479.000000	25.539012
1478.000000	25.571188
1477.000000	25.593527
1476.000000	25.634962
1475.000000	25.679870
1474.000000	25.697116
1473.000000	25.734963
1472.000000	25.761352
1471.000000	25.812163
1470.000000	25.859964
1469.000000	25.924548
1468.000000	25.968414
1467.000000	26.009387
1466.000000	26.068068
1465.000000	26.138439
1464.000000	26.178139
1463.000000	26.269806
1462.000000	26.314135
1461.000000	26.409507
1460.000000	26.497818
1459.000000	26.566800
1458.000000	26.626407
1457.000000	26.733931
1456.000000	26.810320
1455.000000	26.921433
1454.000000	27.022475
1453.000000	27.122360
1452.000000	27.241922
1451.000000	27.374678
1450.000000	27.526531
1449.000000	27.653268
1448.000000	27.734403
1447.000000	27.803617
1446.000000	27.966466
1445.000000	28.165310
1444.000000	28.310682
1443.000000	28.376423
1442.000000	28.512651
1441.000000	28.674343
1440.000000	28.798881
1439.000000	28.932563
1438.000000	29.063004
1437.000000	29.260228
1436.000000	29.371108
1435.000000	29.489049
1434.000000	29.657338
1433.000000	29.806876
1432.000000	29.971345
1431.000000	30.136278
1430.000000	30.254218
1429.000000	30.386627
1428.000000	30.627486
1427.000000	30.835590
1426.000000	31.032814
1425.000000	31.209551
1424.000000	31.453998
1423.000000	31.723792
1422.000000	31.966734
1421.000000	32.112569
1420.000000	32.352965
1419.000000	32.644519
1418.000000	32.972762
1417.000000	33.151121
1416.000000	33.295451
1415.000000	33.503902
1414.000000	33.873581
1413.000000	34.139672
1412.000000	34.276826
1411.000000	34.418609
1410.000000	34.670695
1409.000000	35.091532
1408.000000	35.421859
1407.000000	35.786793
1406.000000	36.073254
1405.000000	36.488768
1404.000000	36.898378
1403.000000	37.286460
1402.000000	37.397341
1401.000000	37.737043
1400.000000	38.343646
1399.000000	38.742724
1398.000000	38.723279
1397.000000	38.748858
1396.000000	39.067611
1395.000000	39.527338
1394.000000	39.641343
1393.000000	39.639260
1392.000000	39.831623
1391.000000	40.089496
1390.000000	40.190307
1389.000000	40.182899
1388.000000	40.555704
1387.000000	40.856864
1386.000000	41.065199
1385.000000	41.294252
1384.000000	41.646802
1383.000000	41.968911
1382.000000	42.369957
1381.000000	42.746002
1380.000000	42.848781
1379.000000	42.960240
1378.000000	42.983273
1377.000000	43.009778
1376.000000	43.104686
1375.000000	43.255729
1374.000000	43.389874
1373.000000	43.582700
1372.000000	43.816730
1371.000000	44.181316
1370.000000	44.469861
1369.000000	44.624492
1368.000000	44.893939
1367.000000	45.178895
1366.000000	45.265586
1365.000000	45.412462
1364.000000	45.610265
1363.000000	45.650196
1362.000000	45.774271
1361.000000	45.999042
1360.000000	46.114436
1359.000000	46.068834
1358.000000	46.087469
1357.000000	46.162701
1356.000000	46.317100
1355.000000	46.676363
1354.000000	47.111552
1353.000000	47.459819
1352.000000	47.816767
1351.000000	48.219433
1350.000000	48.589923
1349.000000	48.885990
1348.000000	49.211109
1347.000000	49.523265
1346.000000	49.756600
1345.000000	49.940977
1344.000000	50.204058
1343.000000	50.429060
1342.000000	50.625474
1341.000000	50.829643
1340.000000	51.029529
1339.000000	51.218072
1338.000000	51.395967
1337.000000	51.578839
1336.000000	51.740415
1335.000000	51.917616
1334.000000	52.061020
1333.000000	52.190188
1332.000000	52.336138
1331.000000	52.474797
1330.000000	52.594242
1329.000000	52.701419
1328.000000	52.782439
1327.000000	52.869014
1326.000000	52.971445
1325.000000	53.056863
1324.000000	53.144132
1323.000000	53.237651
1322.000000	53.316934
1321.000000	53.383717
1320.000000	53.432560
1319.000000	53.493672
1318.000000	53.568210
1317.000000	53.634414
1316.000000	53.701892
1315.000000	53.764161
1314.000000	53.811731
1313.000000	53.859764
1312.000000	53.882796
1311.000000	53.905482
1310.000000	53.934417
1309.000000	53.974811
1308.000000	54.018330
1307.000000	54.053863
1306.000000	54.085113
1305.000000	54.102127
1304.000000	54.114974
1303.000000	54.131988
1302.000000	54.162428
1301.000000	54.171919
1300.000000	54.158493
1299.000000	54.161040
1298.000000	54.154674
1297.000000	54.132336
1296.000000	54.138007
1295.000000	54.154442
1294.000000	54.146688
1293.000000	54.136387
1292.000000	54.118331
1291.000000	54.091942
1290.000000	54.065090
1289.000000	54.038700
1288.000000	54.022381
1287.000000	53.980251
1286.000000	53.934186
1285.000000	53.903051
1284.000000	53.878282
1283.000000	53.828860
1282.000000	53.785457
1281.000000	53.751313
1280.000000	53.703975
1279.000000	53.652586
1278.000000	53.619021
1277.000000	53.587886
1276.000000	53.545872
1275.000000	53.515084
1274.000000	53.481635
1273.000000	53.472028
1272.000000	53.455130
1271.000000	53.425037
1270.000000	53.400500
1269.000000	53.362074
1268.000000	53.341009
1267.000000	53.323763
1266.000000	53.273994
1265.000000	53.222026
1264.000000	53.188577
1263.000000	53.144016
1262.000000	53.079779
1261.000000	53.044362
1260.000000	53.014154
1259.000000	52.967047
1258.000000	52.922833
1257.000000	52.907903
1256.000000	52.864963
1255.000000	52.806629
1254.000000	52.742855
1253.000000	52.711257
1252.000000	52.649336
1251.000000	52.600145
1250.000000	52.555353
1249.000000	52.489959
1248.000000	52.390768
1247.000000	52.309518
1246.000000	52.258938
1245.000000	52.166229
1244.000000	52.072710
1243.000000	51.974792
1242.000000	51.884282
1241.000000	51.787290
1240.000000	51.676294
1239.000000	51.555460
1238.000000	51.459510
1237.000000	51.350365
1236.000000	51.244577
1235.000000	51.125247
1234.000000	51.009042
1233.000000	50.901981
1232.000000	50.774549
1231.000000	50.638437
1230.000000	50.479755
1229.000000	50.346768
1228.000000	50.214706
1227.000000	50.098733
1226.000000	49.966903
1225.000000	49.850582
1224.000000	49.725234
1223.000000	49.585765
1222.000000	49.453357
1221.000000	49.332059
1220.000000	49.207984
1219.000000	49.102659
1218.000000	48.990852
1217.000000	48.874300
1216.000000	48.781475
1215.000000	48.699993
1214.000000	48.606474
1213.000000	48.502769
1212.000000	48.420361
1211.000000	48.325800
1210.000000	48.260753
1209.000000	48.193854
1208.000000	48.130196
1207.000000	48.054617
1206.000000	48.035866
1205.000000	47.989570
1204.000000	47.968157
1203.000000	47.942231
1202.000000	47.924639
1201.000000	47.921976
1200.000000	47.890958
1199.000000	47.819429
1198.000000	47.762368
1197.000000	47.661442
1196.000000	47.527297
1195.000000	47.373013
1194.000000	47.176020
1193.000000	46.895231
1192.000000	46.598700
1191.000000	46.227053
1190.000000	45.859573
1189.000000	45.569755
1188.000000	45.318711
1187.000000	45.147413
1186.000000	45.114427
1185.000000	45.162460
1184.000000	45.319290
1183.000000	45.552626
1182.000000	45.901240
1181.000000	46.294068
1180.000000	46.658191
1179.000000	46.999283
1178.000000	47.323360
1177.000000	47.609011
1176.000000	47.848828
1175.000000	48.070126
1174.000000	48.278461
1173.000000	48.507283
1172.000000	48.729854
1171.000000	48.974070
1170.000000	49.231364
1169.000000	49.466783
1168.000000	49.699424
1167.000000	49.945375
1166.000000	50.186928
1165.000000	50.405565
1164.000000	50.653946
1163.000000	50.909620
1162.000000	51.161937
1161.000000	51.373976
1160.000000	51.595853
1159.000000	51.848634
1158.000000	52.042733
1157.000000	52.251184
1156.000000	52.403384
1155.000000	52.542969
1154.000000	52.625146
1153.000000	52.694591
1152.000000	52.714845
1151.000000	52.736721
1150.000000	52.724221
1149.000000	52.707438
1148.000000	52.688688
1147.000000	52.713688
1146.000000	52.759290
1145.000000	52.866351
1144.000000	53.004084
1143.000000	53.147604
1142.000000	53.307444
1141.000000	53.478278
1140.000000	53.655479
1139.000000	53.863236
1138.000000	54.070182
1137.000000	54.256642
1136.000000	54.455371
1135.000000	54.668567
1134.000000	54.920769
1133.000000	55.084775
1132.000000	55.177716
1131.000000	55.265448
1130.000000	55.385704
1129.000000	55.512904
1128.000000	55.611400
1127.000000	55.646586
1126.000000	55.692420
1125.000000	55.746818
1124.000000	55.794041
1123.000000	55.828300
1122.000000	55.858162
1121.000000	55.890570
1120.000000	55.861055
1119.000000	55.836634
1118.000000	55.843694
1117.000000	55.831541
1116.000000	55.839875
1115.000000	55.824018
1114.000000	55.784550
1113.000000	55.757004
1112.000000	55.738138
1111.000000	55.720082
1110.000000	55.714179
1109.000000	55.698670
1108.000000	55.680382
1107.000000	55.643229
1106.000000	55.643692
1105.000000	55.618113
1104.000000	55.593692
1103.000000	55.583738
1102.000000	55.567650
1101.000000	55.521006
1100.000000	55.479455
1099.000000	55.479339
1098.000000	55.462325
1097.000000	55.433505
1096.000000	55.407116
1095.000000	55.357694
1094.000000	55.325865
1093.000000	55.289638
1092.000000	55.263943
1091.000000	55.226096
1090.000000	55.153526
1089.000000	55.106997
1088.000000	55.053409
1087.000000	55.025052
1086.000000	54.986857
1085.000000	54.947621
1084.000000	54.885699
1083.000000	54.825513
1082.000000	54.781647
1081.000000	54.747735
1080.000000	54.722850
1079.000000	54.671808
1078.000000	54.608729
1077.000000	54.564863
1076.000000	54.501320
1075.000000	54.463589
1074.000000	54.410926
1073.000000	54.358148
1072.000000	54.309999
1071.000000	54.262545
1070.000000	54.218216
1069.000000	54.159766
1068.000000	54.102474
1067.000000	54.046455
1066.000000	54.014395
1065.000000	53.975274
1064.000000	53.934764
1063.000000	53.877704
1062.000000	53.783142
1061.000000	53.726776
1060.000000	53.681753
1059.000000	53.617169
1058.000000	53.541705
1057.000000	53.476658
1056.000000	53.441357
1055.000000	53.407329
1054.000000	53.351078
1053.000000	53.294943
1052.000000	53.277003
1051.000000	53.229086
1050.000000	53.171100
1049.000000	53.111840
1048.000000	53.050497
1047.000000	52.986723
1046.000000	52.917278
1045.000000	52.846328
1044.000000	52.812532
1043.000000	52.781165
1042.000000	52.733480
1041.000000	52.687646
1040.000000	52.635562
1039.000000	52.595863
1038.000000	52.561950
1037.000000	52.534983
1036.000000	52.481626
1035.000000	52.404079
1034.000000	52.335444
1033.000000	52.276994
1032.000000	52.229424
1031.000000	52.185790
1030.000000	52.125720
1029.000000	52.064029
1028.000000	52.012177
1027.000000	51.943426
1026.000000	51.892268
1025.000000	51.846203
1024.000000	51.769235
1023.000000	51.697706
1022.000000	51.644349
1021.000000	51.585784
1020.000000	51.533816
1019.000000	51.481153
1018.000000	51.403838
1017.000000	51.338559
1016.000000	51.289832
1015.000000	51.234276
1014.000000	51.193882
1013.000000	51.135664
1012.000000	51.100363
1011.000000	51.074900
1010.000000	51.043186
1009.000000	51.008579
1008.000000	50.968301
1007.000000	50.916102
1006.000000	50.892953
1005.000000	50.882421
1004.000000	50.869111
1003.000000	50.818531
1002.000000	50.778253
1001.000000	50.732535
1000.000000	50.705915
999.000000	50.688090
998.000000	50.634733
997.000000	50.594687
996.000000	50.552441
995.000000	50.507070
994.000000	50.446769
993.000000	50.419801
992.000000	50.388550
991.000000	50.315286
990.000000	50.275124
989.000000	50.249892
988.000000	50.228132
987.000000	50.197924
986.000000	50.149081
985.000000	50.098154
984.000000	50.087390
983.000000	50.073964
982.000000	50.004635
981.000000	49.948153
980.000000	49.930560
979.000000	49.896879
978.000000	49.846184
977.000000	49.806022
976.000000	49.790512
975.000000	49.761230
974.000000	49.706021
973.000000	49.669678
972.000000	49.649192
971.000000	49.624191
970.000000	49.560186
969.000000	49.511806
968.000000	49.461458
967.000000	49.427199
966.000000	49.409490
965.000000	49.346643
964.000000	49.304397
963.000000	49.284721
962.000000	49.237498
961.000000	49.202891
960.000000	49.176965
959.000000	49.131710
958.000000	49.127080
957.000000	49.075344
956.000000	49.009139
955.000000	49.006825
954.000000	48.974648
953.000000	48.922449
952.000000	48.901847
951.000000	48.836800
950.000000	48.825804
949.000000	48.779392
948.000000	48.722447
947.000000	48.668858
946.000000	48.633326
945.000000	48.616080
944.000000	48.538533
943.000000	48.495593
942.000000	48.461102
941.000000	48.420824
940.000000	48.430430
939.000000	48.350684
938.000000	48.254040
937.000000	48.182974
936.000000	48.176146
935.000000	48.205660
934.000000	48.183437
933.000000	48.169780
932.000000	48.168275
931.000000	48.177650
930.000000	48.112140
929.000000	48.042695
928.000000	48.050218
927.000000	47.995588
926.000000	47.904384
925.000000	47.876258
924.000000	47.825101
923.000000	47.817809
922.000000	47.771628
921.000000	47.726720
920.000000	47.726489
919.000000	47.702183
918.000000	47.658432
917.000000	47.672321
916.000000	47.640377
915.000000	47.624057
914.000000	47.611325
913.000000	47.576024
912.000000	47.579959
911.000000	47.549867
910.000000	47.524519
909.000000	47.517806
908.000000	47.534126
907.000000	47.507158
906.000000	47.519426
905.000000	47.530885
904.000000	47.590723
903.000000	47.598478
902.000000	47.625446
901.000000	47.632159
900.000000	47.667692
899.000000	47.651372
898.000000	47.675099
897.000000	47.718155
896.000000	47.767693
895.000000	47.782276
894.000000	47.824175
893.000000	47.831929
892.000000	47.809938
891.000000	47.804961
890.000000	47.810980
889.000000	47.827300
888.000000	47.811096
887.000000	47.804499
886.000000	47.799059
885.000000	47.740146
884.000000	47.730655
883.000000	47.687136
882.000000	47.656002
881.000000	47.576371
880.000000	47.541765
879.000000	47.468037
878.000000	47.351601
877.000000	47.306346
876.000000	47.274401
875.000000	47.174169
874.000000	47.039445
873.000000	46.905532
872.000000	46.769882
871.000000	46.648585
870.000000	46.480296
869.000000	46.335272
868.000000	46.170224
867.000000	46.056913
866.000000	45.892444
865.000000	45.729016
864.000000	45.549269
863.000000	45.367902
862.000000	45.168016
861.000000	44.992204
860.000000	44.726113
859.000000	44.488495
858.000000	45.589200
857.000000	45.616100
856.000000	45.390400
855.000000	45.761100
854.000000	46.052600
853.000000	45.972900
852.000000	45.797200
851.000000	45.838600
850.000000	46.069300
849.000000	45.863900
848.000000	45.884400
847.000000	46.059800
846.000000	46.035500
845.000000	46.088100
844.000000	45.997900
843.000000	45.833700
842.000000	45.893200
841.000000	45.904900
840.000000	45.976600
839.000000	46.124400
838.000000	45.964700
837.000000	45.955000
836.000000	45.897000
835.000000	45.702200
834.000000	45.847300
833.000000	45.823600
832.000000	45.786900
831.000000	45.713600
830.000000	45.713700
829.000000	45.581600
828.000000	45.662000
827.000000	45.585100
826.000000	45.519400
825.000000	45.429600
824.000000	45.476100
823.000000	45.344700
822.000000	45.209000
821.000000	45.194500
820.000000	45.168700
819.000000	45.151100
818.000000	45.107000
817.000000	45.066000
816.000000	45.080700
815.000000	44.902300
814.000000	44.948600
813.000000	44.875000
812.000000	44.718300
811.000000	44.672500
810.000000	44.647400
809.000000	44.687200
808.000000	44.649900
807.000000	44.606700
806.000000	44.476800
805.000000	44.404400
804.000000	44.349800
803.000000	44.316000
802.000000	44.240300
801.000000	44.295400
800.000000	44.264000
799.000000	44.129900
798.000000	44.040000
797.000000	44.020800
796.000000	43.984300
795.000000	43.898600
794.000000	43.770300
793.000000	43.683000
792.000000	43.591100
791.000000	43.513500
790.000000	43.354600
789.000000	43.304800
788.000000	43.215400
787.000000	43.051600
786.000000	42.941400
785.000000	42.908900
784.000000	42.821100
783.000000	42.680300
782.000000	42.584800
781.000000	42.550600
780.000000	42.474500
779.000000	42.365300
778.000000	42.320500
777.000000	42.224300
776.000000	42.166200
775.000000	42.157000
774.000000	42.085900
773.000000	41.995200
772.000000	41.917900
771.000000	41.899700
770.000000	41.829100
769.000000	41.727500
768.000000	41.708000
767.000000	41.676100
766.000000	41.626800
765.000000	41.603000
764.000000	41.632300
763.000000	41.602500
762.000000	41.536400
761.000000	41.511300
760.000000	41.546800
759.000000	41.534900
758.000000	41.467600
757.000000	41.462000
756.000000	41.467200
755.000000	41.446500
754.000000	41.394300
753.000000	41.326200
752.000000	41.287500
751.000000	41.200500
750.000000	41.142400
749.000000	41.093300
748.000000	40.991500
747.000000	40.932400
746.000000	40.928500
745.000000	40.895700
744.000000	40.776900
743.000000	40.683200
742.000000	40.647600
741.000000	40.596700
740.000000	40.591100
739.000000	40.608300
738.000000	40.543500
737.000000	40.501300
736.000000	40.498900
735.000000	40.487100
734.000000	40.439800
733.000000	40.418600
732.000000	40.400200
731.000000	40.381000
730.000000	40.379000
729.000000	40.341200
728.000000	40.298000
727.000000	40.288000
726.000000	40.263600
725.000000	40.243000
724.000000	40.246000
723.000000	40.232800
722.000000	40.210000
721.000000	40.210400
720.000000	40.155900
719.000000	40.111400
718.000000	40.092600
717.000000	40.031900
716.000000	39.984400
715.000000	40.003500
714.000000	39.936500
713.000000	39.896600
712.000000	39.860800
711.000000	39.775700
710.000000	39.726600
709.000000	39.649800
708.000000	39.548300
707.000000	39.470000
706.000000	39.458900
705.000000	39.407300
704.000000	39.351900
703.000000	39.300900
702.000000	39.213900
701.000000	39.104500
700.000000	39.009400
699.000000	38.953800
698.000000	38.877300
697.000000	38.772700
696.000000	38.669800
695.000000	38.627900
694.000000	38.569500
693.000000	38.447300
692.000000	38.341000
691.000000	38.198300
690.000000	38.101800
689.000000	38.018300
688.000000	37.945200
687.000000	37.875500
686.000000	37.786900
685.000000	37.679700
684.000000	37.611300
683.000000	37.548500
682.000000	37.455800
681.000000	37.363200
680.000000	37.288700
679.000000	37.182900
678.000000	37.084300
677.000000	37.013300
676.000000	36.939100
675.000000	36.918300
674.000000	36.869700
673.000000	36.775800
672.000000	36.713500
671.000000	36.687200
670.000000	36.655200
669.000000	36.606600
668.000000	36.582700
667.000000	36.531500
666.000000	36.473900
665.000000	36.396700
664.000000	36.348800
663.000000	36.293800
662.000000	36.228200
661.000000	36.173100
660.000000	36.104600
659.000000	36.032100
658.000000	35.927000
657.000000	35.844000
656.000000	35.771400
655.000000	35.673500
654.000000	35.569800
653.000000	35.452600
652.000000	35.331800
651.000000	35.180500
650.000000	35.053100
649.000000	34.903900
648.000000	34.762300
647.000000	34.600700
646.000000	34.439300
645.000000	34.264300
644.000000	34.098500
643.000000	33.879600
642.000000	33.677400
641.000000	33.443300
640.000000	33.218000
639.000000	33.026600
638.000000	32.845600
637.000000	32.645700
636.000000	32.393300
635.000000	32.173000
634.000000	32.039000
633.000000	31.919000
632.000000	31.774000
631.000000	31.700300
630.000000	31.608800
629.000000	31.545200
628.000000	31.487900
627.000000	31.415800
626.000000	31.432900
625.000000	31.431800
624.000000	31.448000
623.000000	31.436500
622.000000	31.465300
621.000000	31.517900
620.000000	31.605600
619.000000	31.715900
618.000000	31.843900
617.000000	32.040500
616.000000	32.226900
615.000000	32.465300
614.000000	32.730900
613.000000	33.010000
612.000000	33.309900
611.000000	33.620600
610.000000	33.917700
609.000000	34.246200
608.000000	34.582000
607.000000	34.887300
606.000000	35.231500
605.000000	35.608400
604.000000	35.934400
603.000000	36.289400
602.000000	36.637300
601.000000	37.002300
600.000000	37.343100
599.000000	37.637000
598.000000	38.023500
597.000000	38.356400
596.000000	38.718400
595.000000	39.037000
594.000000	39.435200
593.000000	39.784000
592.000000	40.132400
591.000000	40.482800
590.000000	40.809100
589.000000	41.136400
588.000000	41.424100
587.000000	41.668000
586.000000	41.947000
585.000000	42.202600
584.000000	42.397600
583.000000	42.613300
582.000000	42.786900
581.000000	43.006800
580.000000	43.183300
579.000000	43.390800
578.000000	43.542600
577.000000	43.677400
576.000000	43.821700
575.000000	43.963300
574.000000	44.098000
573.000000	44.271400
572.000000	44.435300
571.000000	44.583600
570.000000	44.776200
569.000000	44.927700
568.000000	45.127900
567.000000	45.249100
566.000000	45.358800
565.000000	45.449500
564.000000	45.536400
563.000000	45.621700
562.000000	45.647500
561.000000	45.623400
560.000000	45.557900
559.000000	45.733100
558.000000	45.703400
557.000000	45.654100
556.000000	45.582200
555.000000	45.498000
554.000000	45.407600
553.000000	45.352200
552.000000	45.247500
551.000000	45.140000
550.000000	45.079900
549.000000	45.014200
548.000000	44.885600
547.000000	44.783400
546.000000	44.680600
545.000000	44.553500
544.000000	44.410900
543.000000	44.266500
542.000000	44.079100
541.000000	43.854000
540.000000	43.611100
539.000000	43.315200
538.000000	42.935900
537.000000	42.534100
536.000000	42.109600
535.000000	41.667600
534.000000	41.179700
533.000000	40.694200
532.000000	40.155400
531.000000	39.583800
530.000000	38.979400
529.000000	38.381200
528.000000	37.736500
527.000000	37.120600
526.000000	36.487300
525.000000	35.815400
524.000000	35.146000
523.000000	34.498900
522.000000	33.809300
521.000000	33.109500
520.000000	32.400700
519.000000	31.688200
518.000000	31.020300
517.000000	30.362500
516.000000	29.725800
515.000000	29.077200
514.000000	28.446300
513.000000	27.801100
512.000000	27.183600
511.000000	26.590500
510.000000	26.029000
509.000000	25.486100
508.000000	24.936300
507.000000	24.415300
506.000000	23.945000
505.000000	23.463300
504.000000	22.987400
503.000000	22.536500
502.000000	22.114700
501.000000	21.728000
500.000000	21.339400
499.000000	20.965300
498.000000	20.602200
497.000000	20.255000
496.000000	19.917300
495.000000	19.586700
494.000000	19.241900
493.000000	18.916100
492.000000	18.576000
491.000000	18.247400
490.000000	17.925500
489.000000	17.603700
488.000000	17.284800
487.000000	17.001800
486.000000	16.718200
485.000000	16.422900
484.000000	16.138500
483.000000	15.856600
482.000000	15.564100
481.000000	15.247400
480.000000	14.923900
479.000000	14.658100
478.000000	14.463700
477.000000	14.265200
476.000000	14.057100
475.000000	13.854200
474.000000	13.659100
473.000000	13.473000
472.000000	13.286400
471.000000	13.097000
470.000000	12.894400
469.000000	12.700900
468.000000	12.513500
467.000000	12.323400
466.000000	12.138300
465.000000	11.945700
464.000000	11.768800
463.000000	11.596600
462.000000	11.418000
461.000000	11.246300
460.000000	11.077900
459.000000	10.928500
458.000000	10.785300
457.000000	10.633800
456.000000	10.492000
455.000000	10.362800
454.000000	10.236500
453.000000	10.106600
452.000000	9.984800
451.000000	9.874100
450.000000	9.761000
449.000000	9.661100
448.000000	9.571700
447.000000	9.469800
446.000000	9.387500
445.000000	9.333400
444.000000	9.280500
443.000000	9.199600
442.000000	9.126600
441.000000	9.074100
440.000000	9.027700
439.000000	8.981200
438.000000	8.934600
437.000000	8.893400
436.000000	8.862300
435.000000	8.846900
434.000000	8.811800
433.000000	8.769200
432.000000	8.732300
431.000000	8.699000
430.000000	8.661100
429.000000	8.637200
428.000000	8.619000
427.000000	8.579300
426.000000	8.547200
425.000000	8.530700
424.000000	8.508100
423.000000	8.493400
422.000000	8.467900
421.000000	8.431500
420.000000	8.403300
419.000000	8.383400
418.000000	8.355000
417.000000	8.310000
416.000000	8.248900
415.000000	8.207800
414.000000	8.160700
413.000000	8.100200
412.000000	8.032100
411.000000	7.961200
410.000000	7.891100
409.000000	7.829700
408.000000	7.781600
407.000000	7.707400
406.000000	7.622600
405.000000	7.544300
404.000000	7.467700
403.000000	7.376800
402.000000	7.274100
401.000000	7.167000
400.000000	7.056800
399.000000	6.948500
398.000000	6.846900
397.000000	6.747200
396.000000	6.637400
395.000000	6.509000
394.000000	6.404100
393.000000	6.291000
392.000000	6.158500
391.000000	6.044300
390.000000	5.943600
389.000000	5.819600
388.000000	5.707200
387.000000	5.596200
386.000000	5.492300
385.000000	5.379100
384.000000	5.277300
383.000000	5.186100
382.000000	5.092700
381.000000	4.985600
380.000000	4.912200
379.000000	4.812300
378.000000	4.734500
377.000000	4.657200
376.000000	4.683300
375.000000	4.266500
374.000000	4.141000
373.000000	4.200800
372.000000	4.285000
371.000000	4.206300
370.000000	4.120800
369.000000	4.105100
368.000000	4.091200
367.000000	4.071600
366.000000	4.061100
365.000000	4.093300
364.000000	4.104700
363.000000	4.173700
362.000000	4.041000
361.000000	3.989100
360.000000	3.899000
359.000000	3.912000
358.000000	3.915600
357.000000	3.927600
356.000000	3.785400
355.000000	3.782600
354.000000	3.727900
353.000000	3.868700
352.000000	3.938100
351.000000	3.925200
350.000000	3.818600
349.000000	3.850100
348.000000	3.805300
347.000000	3.735800
346.000000	3.729300
345.000000	3.864400
344.000000	3.903400
343.000000	3.923600
342.000000	3.888800
341.000000	3.902300
340.000000	3.759600
339.000000	3.794500
338.000000	3.850100
337.000000	3.950700
336.000000	3.902800
335.000000	3.718000
334.000000	3.893300
333.000000	3.966300
332.000000	3.891700
331.000000	3.843400
330.000000	3.808900
329.000000	4.014800
328.000000	3.988100
327.000000	4.027200
326.000000	3.743200
325.000000	4.112000
324.000000	4.137000
323.000000	3.967200
322.000000	3.870900
321.000000	4.060000
320.000000	4.492600
319.000000	4.159900
318.000000	4.040300
317.000000	4.229200
316.000000	3.795400
315.000000	3.732100
314.000000	3.735400
313.000000	3.659000
312.000000	3.705900
311.000000	3.744700
310.000000	3.682500
309.000000	3.630000
308.000000	3.696300
307.000000	3.625600
306.000000	3.713000
305.000000	3.710700
304.000000	3.631200
303.000000	3.761000
302.000000	3.751500
301.000000	3.654200
300.000000	3.708800
299.000000	3.671700
298.000000	3.693500
297.000000	3.730900
296.000000	3.699900
295.000000	3.713000
294.000000	3.708400
293.000000	3.712000
292.000000	3.700500
291.000000	3.770400
290.000000	3.730200
289.000000	3.713700
288.000000	3.765000
287.000000	3.803200
286.000000	3.758500
285.000000	3.722900
284.000000	3.696900
283.000000	3.767200
282.000000	3.746900
281.000000	3.776000
280.000000	3.678700
279.000000	3.742300
278.000000	3.735700
277.000000	3.733400
276.000000	3.771000
275.000000	3.754700
274.000000	3.830200
273.000000	3.848500
272.000000	3.778100
271.000000	3.792500
270.000000	3.782500
269.000000	3.832500
268.000000	3.801300
267.000000	3.867300
266.000000	3.786200
265.000000	3.826700
264.000000	3.838500
263.000000	3.887400
262.000000	3.889200
261.000000	3.920600
260.000000	3.954700
259.000000	3.946400
258.000000	3.955500
257.000000	3.932500
256.000000	3.975600
255.000000	4.016800
254.000000	4.023000
253.000000	4.012100
252.000000	4.026600
251.000000	4.031400
250.000000	4.089100
