PE UV       SUBTECH     SPECTRUM    ASCII       PEDS        4.00        
   -1
CICIMAUCR0070-1.ASC
24/04/03
14:43:34.00
24/04/03
14:43:34.00
Vinicio Soto Monge
C. resplendens
250,000000
1
Lambda 1050
1050L1511233
PerkinElmer UV WinLab 6.3.2.0749 / 2.02.05 Lambda 900 UV/VIS/NIR, Aug  7 2015 09:38:08

0
0
3350/servo 860,8/2
0
0
UV/VIS
1
1
1
DoubleDePol,CommonBeamDepol,RBeamAtt,SBeamAtt,60mm sphere, WB InGaAs Detector
0
0
0
0
Program
Program
3350/servo 860,8/2
3350/0,2 860,8/0,2
3350/0,2 860,8/0,2
0
15.00
 
 
 
0
 
860,8
319,2
860,8
Front
100
on
S:100 R:100
0
0
0
0
 
0
 
 
 
0
 
 
0
0
0
0
0
 
 
 
 
0
0


0
0
#HDR
-1
-1
#GR
nm
%R
1.0
0.0
2500,000000
-1,000000
2251
8
71,428400
5,238700
#DATA
2482.000000	14.919444
2481.000000	14.959172
2480.000000	15.001568
2479.000000	14.985954
2478.000000	15.074107
2477.000000	15.096738
2476.000000	15.223137
2475.000000	15.243002
2474.000000	15.266720
2473.000000	15.319889
2472.000000	15.436504
2471.000000	15.463582
2470.000000	15.546597
2469.000000	15.603521
2468.000000	15.615182
2467.000000	15.703335
2466.000000	15.761940
2465.000000	15.862841
2464.000000	15.917987
2463.000000	16.021853
2462.000000	16.087474
2461.000000	16.157542
2460.000000	16.260025
2459.000000	16.356678
2458.000000	16.449970
2457.000000	16.517369
2456.000000	16.645646
2455.000000	16.723620
2454.000000	16.832626
2453.000000	16.976913
2452.000000	17.061409
2451.000000	17.183855
2450.000000	17.292960
2449.000000	17.413034
2448.000000	17.552083
2447.000000	17.658816
2446.000000	17.756852
2445.000000	17.906673
2444.000000	18.034752
2443.000000	18.162633
2442.000000	18.283795
2441.000000	18.407624
2440.000000	18.523054
2439.000000	18.658051
2438.000000	18.809255
2437.000000	18.921324
2436.000000	19.045055
2435.000000	19.180349
2434.000000	19.307736
2433.000000	19.422375
2432.000000	19.555988
2431.000000	19.673493
2430.000000	19.792974
2429.000000	19.906822
2428.000000	20.010294
2427.000000	20.127700
2426.000000	20.241152
2425.000000	20.353419
2424.000000	20.465192
2423.000000	20.571530
2422.000000	20.671147
2421.000000	20.786181
2420.000000	20.902005
2419.000000	20.994013
2418.000000	21.092246
2417.000000	21.186626
2416.000000	21.270529
2415.000000	21.345736
2414.000000	21.445255
2413.000000	21.516805
2412.000000	21.584501
2411.000000	21.667812
2410.000000	21.745786
2409.000000	21.811209
2408.000000	21.878115
2407.000000	21.936620
2406.000000	21.998980
2405.000000	22.060746
2404.000000	22.102550
2403.000000	22.152062
2402.000000	22.210468
2401.000000	22.276485
2400.000000	22.330444
2399.000000	22.379165
2398.000000	22.402587
2397.000000	22.439351
2396.000000	22.503884
2395.000000	22.541834
2394.000000	22.572865
2393.000000	22.599351
2392.000000	22.629789
2391.000000	22.665070
2390.000000	22.697782
2389.000000	22.714780
2388.000000	22.729505
2387.000000	22.747591
2386.000000	22.769135
2385.000000	22.784354
2384.000000	22.803032
2383.000000	22.815386
2382.000000	22.809357
2381.000000	22.811729
2380.000000	22.811531
2379.000000	22.813113
2378.000000	22.810642
2377.000000	22.796114
2376.000000	22.797992
2375.000000	22.799573
2374.000000	22.790086
2373.000000	22.784947
2372.000000	22.777041
2371.000000	22.767553
2370.000000	22.765873
2369.000000	22.774768
2368.000000	22.772692
2367.000000	22.777337
2366.000000	22.783465
2365.000000	22.775756
2364.000000	22.776053
2363.000000	22.785046
2362.000000	22.776843
2361.000000	22.777930
2360.000000	22.781192
2359.000000	22.775361
2358.000000	22.773878
2357.000000	22.767158
2356.000000	22.766170
2355.000000	22.747986
2354.000000	22.724169
2353.000000	22.704107
2352.000000	22.693137
2351.000000	22.677325
2350.000000	22.641451
2349.000000	22.627417
2348.000000	22.617140
2347.000000	22.600043
2346.000000	22.570395
2345.000000	22.548257
2344.000000	22.541636
2343.000000	22.520388
2342.000000	22.488467
2341.000000	22.484218
2340.000000	22.482637
2339.000000	22.462278
2338.000000	22.443403
2337.000000	22.439845
2336.000000	22.427788
2335.000000	22.411383
2334.000000	22.408220
2333.000000	22.403180
2332.000000	22.407133
2331.000000	22.406244
2330.000000	22.401302
2329.000000	22.405058
2328.000000	22.416225
2327.000000	22.417510
2326.000000	22.430654
2325.000000	22.412569
2324.000000	22.433718
2323.000000	22.444786
2322.000000	22.438165
2321.000000	22.424033
2320.000000	22.408616
2319.000000	22.388949
2318.000000	22.353075
2317.000000	22.311963
2316.000000	22.267689
2315.000000	22.243476
2314.000000	22.186849
2313.000000	22.135163
2312.000000	22.077250
2311.000000	22.014100
2310.000000	21.948677
2309.000000	21.889282
2308.000000	21.838881
2307.000000	21.769307
2306.000000	21.712778
2305.000000	21.640635
2304.000000	21.576398
2303.000000	21.523229
2302.000000	21.469171
2301.000000	21.418275
2300.000000	21.353643
2299.000000	21.304822
2298.000000	21.264699
2297.000000	21.217657
2296.000000	21.165279
2295.000000	21.127429
2294.000000	21.067342
2293.000000	21.032358
2292.000000	21.002808
2291.000000	20.960906
2290.000000	20.930863
2289.000000	20.898250
2288.000000	20.862574
2287.000000	20.809998
2286.000000	20.795372
2285.000000	20.751196
2284.000000	20.740819
2283.000000	20.683796
2282.000000	20.659782
2281.000000	20.624204
2280.000000	20.609578
2279.000000	20.564612
2278.000000	20.524290
2277.000000	20.491085
2276.000000	20.426452
2275.000000	20.386922
2274.000000	20.350652
2273.000000	20.299361
2272.000000	20.229787
2271.000000	20.177607
2270.000000	20.126316
2269.000000	20.077496
2268.000000	20.049133
2267.000000	20.019880
2266.000000	19.981931
2265.000000	19.931430
2264.000000	19.928070
2263.000000	19.919571
2262.000000	19.902771
2261.000000	19.908601
2260.000000	19.923129
2259.000000	19.943784
2258.000000	19.997249
2257.000000	20.035593
2256.000000	20.052097
2255.000000	20.126415
2254.000000	20.175038
2253.000000	20.220992
2252.000000	20.289577
2251.000000	20.335334
2250.000000	20.393246
2249.000000	20.475668
2248.000000	20.535952
2247.000000	20.604933
2246.000000	20.649108
2245.000000	20.703364
2244.000000	20.749417
2243.000000	20.806440
2242.000000	20.823043
2241.000000	20.863364
2240.000000	20.870282
2239.000000	20.884908
2238.000000	20.912481
2237.000000	20.906551
2236.000000	20.899139
2235.000000	20.872061
2234.000000	20.832036
2233.000000	20.786181
2232.000000	20.729355
2231.000000	20.666403
2230.000000	20.582499
2229.000000	20.478040
2228.000000	20.388503
2227.000000	20.286316
2226.000000	20.147366
2225.000000	20.027490
2224.000000	19.866896
2223.000000	19.736149
2222.000000	19.565970
2221.000000	19.408638
2220.000000	19.251010
2219.000000	19.078854
2218.000000	18.925772
2217.000000	18.773776
2216.000000	18.636309
2215.000000	18.513270
2214.000000	18.399422
2213.000000	18.321250
2212.000000	18.258693
2211.000000	18.221929
2210.000000	18.204338
2209.000000	18.235172
2208.000000	18.266500
2207.000000	18.353072
2206.000000	18.465042
2205.000000	18.632356
2204.000000	18.795123
2203.000000	18.986155
2202.000000	19.216717
2201.000000	19.489280
2200.000000	19.738521
2199.000000	20.006242
2198.000000	20.296495
2197.000000	20.590702
2196.000000	20.839942
2195.000000	21.130393
2194.000000	21.407701
2193.000000	21.640734
2192.000000	21.852321
2191.000000	22.071222
2190.000000	22.278758
2189.000000	22.460796
2188.000000	22.625441
2187.000000	22.784354
2186.000000	22.915596
2185.000000	23.038338
2184.000000	23.137461
2183.000000	23.235497
2182.000000	23.327109
2181.000000	23.407258
2180.000000	23.465664
2179.000000	23.538796
2178.000000	23.582675
2177.000000	23.632187
2176.000000	23.704923
2175.000000	23.753842
2174.000000	23.776375
2173.000000	23.846047
2172.000000	23.908308
2171.000000	23.965627
2170.000000	24.018895
2169.000000	24.070087
2168.000000	24.123849
2167.000000	24.192928
2166.000000	24.258747
2165.000000	24.329210
2164.000000	24.403132
2163.000000	24.474386
2162.000000	24.548901
2161.000000	24.634386
2160.000000	24.725702
2159.000000	24.826900
2158.000000	24.916833
2157.000000	25.023466
2156.000000	25.153621
2155.000000	25.261935
2154.000000	25.374300
2153.000000	25.501589
2152.000000	25.624332
2151.000000	25.744801
2150.000000	25.892349
2149.000000	26.027445
2148.000000	26.144060
2147.000000	26.290818
2146.000000	26.426309
2145.000000	26.552313
2144.000000	26.669323
2143.000000	26.788211
2142.000000	26.904530
2141.000000	27.036068
2140.000000	27.141615
2139.000000	27.241034
2138.000000	27.354290
2137.000000	27.466260
2136.000000	27.572894
2135.000000	27.656699
2134.000000	27.742184
2133.000000	27.835772
2132.000000	27.923036
2131.000000	28.000417
2130.000000	28.081159
2129.000000	28.151424
2128.000000	28.214574
2127.000000	28.272783
2126.000000	28.329114
2125.000000	28.381097
2124.000000	28.438318
2123.000000	28.463815
2122.000000	28.506903
2121.000000	28.542975
2120.000000	28.578256
2119.000000	28.622333
2118.000000	28.642987
2117.000000	28.667595
2116.000000	28.684297
2115.000000	28.685977
2114.000000	28.698726
2113.000000	28.718590
2112.000000	28.724124
2111.000000	28.732228
2110.000000	28.732623
2109.000000	28.729164
2108.000000	28.733710
2107.000000	28.734995
2106.000000	28.725013
2105.000000	28.725804
2104.000000	28.729658
2103.000000	28.729856
2102.000000	28.724025
2101.000000	28.706731
2100.000000	28.703173
2099.000000	28.709596
2098.000000	28.693389
2097.000000	28.687558
2096.000000	28.703963
2095.000000	28.720369
2094.000000	28.732327
2093.000000	28.725013
2092.000000	28.720171
2091.000000	28.737070
2090.000000	28.751400
2089.000000	28.753574
2088.000000	28.759800
2087.000000	28.764742
2086.000000	28.754563
2085.000000	28.737466
2084.000000	28.728275
2083.000000	28.705248
2082.000000	28.677280
2081.000000	28.641011
2080.000000	28.593278
2079.000000	28.542777
2078.000000	28.492573
2077.000000	28.431597
2076.000000	28.355402
2075.000000	28.288694
2074.000000	28.212796
2073.000000	28.125235
2072.000000	28.021665
2071.000000	27.932919
2070.000000	27.817984
2069.000000	27.715797
2068.000000	27.620825
2067.000000	27.503320
2066.000000	27.380479
2065.000000	27.262579
2064.000000	27.142208
2063.000000	27.039132
2062.000000	26.944950
2061.000000	26.847903
2060.000000	26.759058
2059.000000	26.674561
2058.000000	26.592733
2057.000000	26.524641
2056.000000	26.485308
2055.000000	26.456055
2054.000000	26.437674
2053.000000	26.443702
2052.000000	26.470484
2051.000000	26.494598
2050.000000	26.550731
2049.000000	26.630484
2048.000000	26.716562
2047.000000	26.832189
2046.000000	26.943863
2045.000000	27.071547
2044.000000	27.185395
2043.000000	27.301319
2042.000000	27.445902
2041.000000	27.562517
2040.000000	27.685062
2039.000000	27.815414
2038.000000	27.932326
2037.000000	28.036291
2036.000000	28.156069
2035.000000	28.246298
2034.000000	28.349670
2033.000000	28.443753
2032.000000	28.538923
2031.000000	28.598021
2030.000000	28.692796
2029.000000	28.758318
2028.000000	28.833327
2027.000000	28.884322
2026.000000	28.941839
2025.000000	28.993822
2024.000000	29.039875
2023.000000	29.066558
2022.000000	29.118837
2021.000000	29.165187
2020.000000	29.185150
2019.000000	29.191870
2018.000000	29.212228
2017.000000	29.233772
2016.000000	29.239603
2015.000000	29.232685
2014.000000	29.225570
2013.000000	29.219541
2012.000000	29.216972
2011.000000	29.189498
2010.000000	29.169041
2009.000000	29.154513
2008.000000	29.124470
2007.000000	29.080295
2006.000000	29.030190
2005.000000	28.981567
2004.000000	28.944013
2003.000000	28.877602
2002.000000	28.788954
2001.000000	28.719578
2000.000000	28.673920
1999.000000	28.584877
1998.000000	28.503642
1997.000000	28.443259
1996.000000	28.338108
1995.000000	28.238985
1994.000000	28.156662
1993.000000	28.058132
1992.000000	27.972944
1991.000000	27.862851
1990.000000	27.766594
1989.000000	27.651263
1988.000000	27.567063
1987.000000	27.442344
1986.000000	27.329781
1985.000000	27.245679
1984.000000	27.124222
1983.000000	26.989422
1982.000000	26.916389
1981.000000	26.788409
1980.000000	26.679700
1979.000000	26.573066
1978.000000	26.470583
1977.000000	26.348038
1976.000000	26.234289
1975.000000	26.127457
1974.000000	26.031596
1973.000000	25.926444
1972.000000	25.825938
1971.000000	25.738674
1970.000000	25.606246
1969.000000	25.527284
1968.000000	25.416203
1967.000000	25.320242
1966.000000	25.212818
1965.000000	25.133263
1964.000000	25.022379
1963.000000	24.899933
1962.000000	24.810396
1961.000000	24.711372
1960.000000	24.604541
1959.000000	24.511249
1958.000000	24.417264
1957.000000	24.320711
1956.000000	24.222972
1955.000000	24.112484
1954.000000	24.039352
1953.000000	23.936276
1952.000000	23.836066
1951.000000	23.744750
1950.000000	23.654719
1949.000000	23.580204
1948.000000	23.508159
1947.000000	23.416251
1946.000000	23.375337
1945.000000	23.296177
1944.000000	23.236683
1943.000000	23.171359
1942.000000	23.141414
1941.000000	23.129654
1940.000000	23.078956
1939.000000	23.047430
1938.000000	23.020055
1937.000000	23.008987
1936.000000	22.996040
1935.000000	23.005725
1934.000000	23.029641
1933.000000	23.068184
1932.000000	23.092792
1931.000000	23.174225
1930.000000	23.232532
1929.000000	23.305960
1928.000000	23.380673
1927.000000	23.490865
1926.000000	23.578722
1925.000000	23.686541
1924.000000	23.841205
1923.000000	23.974818
1922.000000	24.125331
1921.000000	24.318438
1920.000000	24.507790
1919.000000	24.685183
1918.000000	24.896474
1917.000000	25.097883
1916.000000	25.342083
1915.000000	25.585592
1914.000000	25.883257
1913.000000	26.176278
1912.000000	26.470781
1911.000000	26.768248
1910.000000	27.098625
1909.000000	27.412894
1908.000000	27.773314
1907.000000	28.171190
1906.000000	28.616996
1905.000000	29.082765
1904.000000	29.533513
1903.000000	29.967065
1902.000000	30.455565
1901.000000	30.920543
1900.000000	31.445609
1899.000000	31.991526
1898.000000	32.547919
1897.000000	33.056975
1896.000000	33.558519
1895.000000	34.057989
1894.000000	34.598866
1893.000000	35.157236
1892.000000	35.742190
1891.000000	36.297892
1890.000000	36.817324
1889.000000	37.327071
1888.000000	37.844922
1887.000000	38.306540
1886.000000	38.771420
1885.000000	39.236103
1884.000000	39.694164
1883.000000	40.095696
1882.000000	40.467679
1881.000000	40.851422
1880.000000	41.169643
1879.000000	41.521565
1878.000000	41.861133
1877.000000	42.184592
1876.000000	42.482850
1875.000000	42.786939
1874.000000	43.060689
1873.000000	43.323666
1872.000000	43.565989
1871.000000	43.758602
1870.000000	43.894982
1869.000000	44.056366
1868.000000	44.202431
1867.000000	44.276650
1866.000000	44.357490
1865.000000	44.455526
1864.000000	44.542395
1863.000000	44.646755
1862.000000	44.765347
1861.000000	44.886904
1860.000000	45.001049
1859.000000	45.078528
1858.000000	45.138220
1857.000000	45.201963
1856.000000	45.256910
1855.000000	45.305434
1854.000000	45.341308
1853.000000	45.334292
1852.000000	45.364928
1851.000000	45.439641
1850.000000	45.520579
1849.000000	45.609326
1848.000000	45.619110
1847.000000	45.570882
1846.000000	45.522062
1845.000000	45.503680
1844.000000	45.510104
1843.000000	45.554872
1842.000000	45.599740
1841.000000	45.601420
1840.000000	45.582544
1839.000000	45.559616
1838.000000	45.539554
1837.000000	45.515441
1836.000000	45.470870
1835.000000	45.411673
1834.000000	45.350993
1833.000000	45.309881
1832.000000	45.308992
1831.000000	45.298813
1830.000000	45.262148
1829.000000	45.246435
1828.000000	45.204038
1827.000000	45.170536
1826.000000	45.155119
1825.000000	45.118751
1824.000000	45.120925
1823.000000	45.157886
1822.000000	45.214415
1821.000000	45.234674
1820.000000	45.203742
1819.000000	45.148695
1818.000000	45.121518
1817.000000	45.126459
1816.000000	45.128238
1815.000000	45.111932
1814.000000	45.105409
1813.000000	45.109461
1812.000000	45.094044
1811.000000	45.061234
1810.000000	45.021407
1809.000000	45.011623
1808.000000	45.017553
1807.000000	45.013204
1806.000000	44.974168
1805.000000	44.939084
1804.000000	44.926237
1803.000000	44.929004
1802.000000	44.927522
1801.000000	44.910425
1800.000000	44.854093
1799.000000	44.819504
1798.000000	44.814859
1797.000000	44.800826
1796.000000	44.789461
1795.000000	44.786496
1794.000000	44.775922
1793.000000	44.751116
1792.000000	44.731746
1791.000000	44.715341
1790.000000	44.715440
1789.000000	44.724532
1788.000000	44.732735
1787.000000	44.739059
1786.000000	44.735600
1785.000000	44.754575
1784.000000	44.742716
1783.000000	44.737972
1782.000000	44.736292
1781.000000	44.741530
1780.000000	44.742024
1779.000000	44.723445
1778.000000	44.701901
1777.000000	44.684804
1776.000000	44.664643
1775.000000	44.640431
1774.000000	44.617404
1773.000000	44.589041
1772.000000	44.576490
1771.000000	44.552376
1770.000000	44.526187
1769.000000	44.495551
1768.000000	44.477466
1767.000000	44.453550
1766.000000	44.438726
1765.000000	44.416589
1764.000000	44.407991
1763.000000	44.404927
1762.000000	44.409868
1761.000000	44.400183
1760.000000	44.403445
1759.000000	44.410560
1758.000000	44.418367
1757.000000	44.425779
1756.000000	44.420937
1755.000000	44.421135
1754.000000	44.425186
1753.000000	44.430622
1752.000000	44.430622
1751.000000	44.409473
1750.000000	44.411252
1749.000000	44.405619
1748.000000	44.358775
1747.000000	44.326459
1746.000000	44.299776
1745.000000	44.255304
1744.000000	44.216366
1743.000000	44.163691
1742.000000	44.088682
1741.000000	44.055081
1740.000000	43.991536
1739.000000	43.929571
1738.000000	43.890831
1737.000000	43.846162
1736.000000	43.789633
1735.000000	43.756427
1734.000000	43.715711
1733.000000	43.693080
1732.000000	43.676378
1731.000000	43.630127
1730.000000	43.604432
1729.000000	43.567175
1728.000000	43.526260
1727.000000	43.497996
1726.000000	43.475661
1725.000000	43.464000
1724.000000	43.466965
1723.000000	43.495427
1722.000000	43.557786
1721.000000	43.660566
1720.000000	43.804457
1719.000000	43.965445
1718.000000	44.135131
1717.000000	44.311239
1716.000000	44.482012
1715.000000	44.639146
1714.000000	44.797762
1713.000000	44.958355
1712.000000	45.086237
1711.000000	45.202259
1710.000000	45.293674
1709.000000	45.401592
1708.000000	45.481049
1707.000000	45.555366
1706.000000	45.615156
1705.000000	45.647572
1704.000000	45.691352
1703.000000	45.712599
1702.000000	45.734440
1701.000000	45.739283
1700.000000	45.751735
1699.000000	45.746695
1698.000000	45.741457
1697.000000	45.733155
1696.000000	45.711413
1695.000000	45.697281
1694.000000	45.646188
1693.000000	45.587189
1692.000000	45.536293
1691.000000	45.468201
1690.000000	45.413649
1689.000000	45.404557
1688.000000	45.399517
1687.000000	45.432624
1686.000000	45.527695
1685.000000	45.608337
1684.000000	45.755885
1683.000000	45.909363
1682.000000	46.065015
1681.000000	46.220271
1680.000000	46.370488
1679.000000	46.537010
1678.000000	46.678134
1677.000000	46.819951
1676.000000	46.942792
1675.000000	47.078382
1674.000000	47.201816
1673.000000	47.324954
1672.000000	47.432477
1671.000000	47.569055
1670.000000	47.685177
1669.000000	47.805943
1668.000000	47.940742
1667.000000	48.023163
1666.000000	48.131576
1665.000000	48.234553
1664.000000	48.321619
1663.000000	48.412243
1662.000000	48.493380
1661.000000	48.587660
1660.000000	48.662472
1659.000000	48.717518
1658.000000	48.785017
1657.000000	48.826821
1656.000000	48.878803
1655.000000	48.913195
1654.000000	48.945215
1653.000000	48.973677
1652.000000	48.993936
1651.000000	49.004906
1650.000000	49.008365
1649.000000	49.015085
1648.000000	49.012812
1647.000000	49.006388
1646.000000	48.993047
1645.000000	48.973183
1644.000000	48.969921
1643.000000	48.961027
1642.000000	48.946598
1641.000000	48.957074
1640.000000	48.956679
1639.000000	48.932565
1638.000000	48.917840
1637.000000	48.899162
1636.000000	48.888093
1635.000000	48.863090
1634.000000	48.862102
1633.000000	48.830774
1632.000000	48.808636
1631.000000	48.793220
1630.000000	48.756851
1629.000000	48.736691
1628.000000	48.708328
1627.000000	48.680656
1626.000000	48.646462
1625.000000	48.606932
1624.000000	48.577185
1623.000000	48.548130
1622.000000	48.514331
1621.000000	48.490119
1620.000000	48.465708
1619.000000	48.429241
1618.000000	48.405820
1617.000000	48.387141
1616.000000	48.360952
1615.000000	48.322509
1614.000000	48.303139
1613.000000	48.272898
1612.000000	48.236925
1611.000000	48.212515
1610.000000	48.167747
1609.000000	48.130687
1608.000000	48.093528
1607.000000	48.051329
1606.000000	48.008537
1605.000000	47.958926
1604.000000	47.907635
1603.000000	47.852688
1602.000000	47.797246
1601.000000	47.745955
1600.000000	47.684485
1599.000000	47.633984
1598.000000	47.588030
1597.000000	47.539012
1596.000000	47.506202
1595.000000	47.449475
1594.000000	47.406387
1593.000000	47.368734
1592.000000	47.317838
1591.000000	47.274948
1590.000000	47.242829
1589.000000	47.208635
1588.000000	47.171378
1587.000000	47.144200
1586.000000	47.104274
1585.000000	47.073342
1584.000000	47.022940
1583.000000	46.981631
1582.000000	46.963249
1581.000000	46.923125
1580.000000	46.892193
1579.000000	46.873218
1578.000000	46.852069
1577.000000	46.821334
1576.000000	46.797122
1575.000000	46.775874
1574.000000	46.767869
1573.000000	46.762829
1572.000000	46.762928
1571.000000	46.765201
1570.000000	46.763916
1569.000000	46.763817
1568.000000	46.760457
1567.000000	46.758579
1566.000000	46.761346
1565.000000	46.773403
1564.000000	46.790303
1563.000000	46.784768
1562.000000	46.765299
1561.000000	46.757393
1560.000000	46.745534
1559.000000	46.721519
1558.000000	46.681791
1557.000000	46.655306
1556.000000	46.626745
1555.000000	46.575750
1554.000000	46.526930
1553.000000	46.460222
1552.000000	46.401519
1551.000000	46.354774
1550.000000	46.288758
1549.000000	46.216812
1548.000000	46.158208
1547.000000	46.087844
1546.000000	46.028350
1545.000000	45.982099
1544.000000	45.924286
1543.000000	45.866373
1542.000000	45.816664
1541.000000	45.781383
1540.000000	45.745311
1539.000000	45.707164
1538.000000	45.669313
1537.000000	45.635416
1536.000000	45.587880
1535.000000	45.542914
1534.000000	45.506348
1533.000000	45.449820
1532.000000	45.401494
1531.000000	45.361469
1530.000000	45.305237
1529.000000	45.250684
1528.000000	45.193760
1527.000000	45.150672
1526.000000	45.095033
1525.000000	45.042358
1524.000000	44.983655
1523.000000	44.925446
1522.000000	44.855675
1521.000000	44.804680
1520.000000	44.759220
1519.000000	44.688361
1518.000000	44.603568
1517.000000	44.546842
1516.000000	44.500986
1515.000000	44.426175
1514.000000	44.361641
1513.000000	44.291375
1512.000000	44.234550
1511.000000	44.177626
1510.000000	44.114278
1509.000000	44.030276
1508.000000	43.968015
1507.000000	43.905458
1506.000000	43.841023
1505.000000	43.786273
1504.000000	43.730140
1503.000000	43.668472
1502.000000	43.615501
1501.000000	43.571029
1500.000000	43.519441
1499.000000	43.476650
1498.000000	43.444432
1497.000000	43.404605
1496.000000	43.385531
1495.000000	43.350843
1494.000000	43.341554
1493.000000	43.344123
1492.000000	43.336810
1491.000000	43.329497
1490.000000	43.323370
1489.000000	43.304197
1488.000000	43.322678
1487.000000	43.323370
1486.000000	43.310819
1485.000000	43.307063
1484.000000	43.301529
1483.000000	43.323073
1482.000000	43.328311
1481.000000	43.340467
1480.000000	43.336217
1479.000000	43.335229
1478.000000	43.357860
1477.000000	43.369126
1476.000000	43.378515
1475.000000	43.406680
1474.000000	43.446211
1473.000000	43.490090
1472.000000	43.540195
1471.000000	43.592968
1470.000000	43.619355
1469.000000	43.637737
1468.000000	43.682406
1467.000000	43.740813
1466.000000	43.799219
1465.000000	43.847842
1464.000000	43.891721
1463.000000	43.928089
1462.000000	44.002604
1461.000000	44.057848
1460.000000	44.120504
1459.000000	44.180097
1458.000000	44.240578
1457.000000	44.312821
1456.000000	44.379529
1455.000000	44.441789
1454.000000	44.509288
1453.000000	44.563939
1452.000000	44.674526
1451.000000	44.744890
1450.000000	44.762580
1449.000000	44.798652
1448.000000	44.867732
1447.000000	44.948374
1446.000000	45.071117
1445.000000	45.092068
1444.000000	45.155613
1443.000000	45.214514
1442.000000	45.286163
1441.000000	45.357219
1440.000000	45.449326
1439.000000	45.512476
1438.000000	45.628498
1437.000000	45.697677
1436.000000	45.773180
1435.000000	45.863211
1434.000000	45.976170
1433.000000	46.100197
1432.000000	46.179258
1431.000000	46.282730
1430.000000	46.374638
1429.000000	46.515268
1428.000000	46.660049
1427.000000	46.764015
1426.000000	46.883199
1425.000000	47.062273
1424.000000	47.233539
1423.000000	47.367746
1422.000000	47.499185
1421.000000	47.701187
1420.000000	47.952107
1419.000000	48.108846
1418.000000	48.256295
1417.000000	48.389316
1416.000000	48.623633
1415.000000	48.864078
1414.000000	49.093751
1413.000000	49.241002
1412.000000	49.412763
1411.000000	49.700645
1410.000000	49.947316
1409.000000	50.193394
1408.000000	50.388576
1407.000000	50.605698
1406.000000	50.807304
1405.000000	50.996952
1404.000000	51.100127
1403.000000	51.307267
1402.000000	51.531406
1401.000000	51.830751
1400.000000	51.831443
1399.000000	51.825513
1398.000000	51.851208
1397.000000	52.026428
1396.000000	52.174075
1395.000000	52.214495
1394.000000	52.168738
1393.000000	52.180894
1392.000000	52.198781
1391.000000	52.173383
1390.000000	52.175755
1389.000000	52.236928
1388.000000	52.297114
1387.000000	52.277151
1386.000000	52.333383
1385.000000	52.473420
1384.000000	52.656447
1383.000000	52.794112
1382.000000	53.012222
1381.000000	53.270258
1380.000000	53.498350
1379.000000	53.999796
1378.000000	54.464379
1377.000000	55.035300
1376.000000	55.594658
1375.000000	56.157277
1374.000000	56.740947
1373.000000	57.304752
1372.000000	57.779910
1371.000000	58.172053
1370.000000	58.462504
1369.000000	58.716192
1368.000000	58.923827
1367.000000	59.069102
1366.000000	59.224259
1365.000000	59.372400
1364.000000	59.468954
1363.000000	59.598614
1362.000000	59.725903
1361.000000	59.774130
1360.000000	59.765433
1359.000000	59.802987
1358.000000	59.869399
1357.000000	59.931066
1356.000000	60.017836
1355.000000	60.117354
1354.000000	60.130004
1353.000000	60.159850
1352.000000	60.311252
1351.000000	60.426879
1350.000000	60.538850
1349.000000	60.658430
1348.000000	60.778306
1347.000000	60.850746
1346.000000	60.950758
1345.000000	61.081111
1344.000000	61.200790
1343.000000	61.303866
1342.000000	61.405360
1341.000000	61.522173
1340.000000	61.618529
1339.000000	61.714193
1338.000000	61.808276
1337.000000	61.907794
1336.000000	62.001284
1335.000000	62.088054
1334.000000	62.181643
1333.000000	62.253588
1332.000000	62.338876
1331.000000	62.427325
1330.000000	62.494132
1329.000000	62.561729
1328.000000	62.623990
1327.000000	62.672514
1326.000000	62.725979
1325.000000	62.791699
1324.000000	62.845362
1323.000000	62.890822
1322.000000	62.946165
1321.000000	62.996270
1320.000000	63.032045
1319.000000	63.075232
1318.000000	63.125634
1317.000000	63.164966
1316.000000	63.198666
1315.000000	63.233354
1314.000000	63.276640
1313.000000	63.315973
1312.000000	63.335047
1311.000000	63.362125
1310.000000	63.400174
1309.000000	63.430118
1308.000000	63.460458
1307.000000	63.479432
1306.000000	63.510958
1305.000000	63.530723
1304.000000	63.535665
1303.000000	63.566499
1302.000000	63.588833
1301.000000	63.598914
1300.000000	63.607610
1299.000000	63.616011
1298.000000	63.628364
1297.000000	63.636468
1296.000000	63.643287
1295.000000	63.645461
1294.000000	63.639037
1293.000000	63.634294
1292.000000	63.634392
1291.000000	63.642002
1290.000000	63.638049
1289.000000	63.627277
1288.000000	63.622237
1287.000000	63.616011
1286.000000	63.607017
1285.000000	63.597431
1284.000000	63.589229
1283.000000	63.579643
1282.000000	63.574306
1281.000000	63.570649
1280.000000	63.556122
1279.000000	63.546338
1278.000000	63.538135
1277.000000	63.528450
1276.000000	63.519951
1275.000000	63.510760
1274.000000	63.517579
1273.000000	63.520445
1272.000000	63.520149
1271.000000	63.518172
1270.000000	63.516789
1269.000000	63.519260
1268.000000	63.516690
1267.000000	63.523509
1266.000000	63.527067
1265.000000	63.519457
1264.000000	63.511848
1263.000000	63.505029
1262.000000	63.491588
1261.000000	63.484670
1260.000000	63.473404
1259.000000	63.460161
1258.000000	63.445140
1257.000000	63.427944
1256.000000	63.393948
1255.000000	63.385844
1254.000000	63.380606
1253.000000	63.356986
1252.000000	63.328524
1251.000000	63.305300
1250.000000	63.286227
1249.000000	63.252428
1248.000000	63.231971
1247.000000	63.212304
1246.000000	63.180482
1245.000000	63.145399
1244.000000	63.124250
1243.000000	63.106066
1242.000000	63.095096
1241.000000	63.091341
1240.000000	63.081063
1239.000000	63.082150
1238.000000	63.082842
1237.000000	63.074145
1236.000000	63.072860
1235.000000	63.079778
1234.000000	63.076714
1233.000000	63.072366
1232.000000	63.060112
1231.000000	63.053490
1230.000000	63.038963
1229.000000	63.032440
1228.000000	63.030365
1227.000000	63.024435
1226.000000	63.018209
1225.000000	63.007931
1224.000000	62.985201
1223.000000	62.971958
1222.000000	62.962076
1221.000000	62.950612
1220.000000	62.935985
1219.000000	62.925806
1218.000000	62.922940
1217.000000	62.901396
1216.000000	62.888549
1215.000000	62.872341
1214.000000	62.851291
1213.000000	62.846251
1212.000000	62.822038
1211.000000	62.794071
1210.000000	62.787548
1209.000000	62.767585
1208.000000	62.729636
1207.000000	62.709772
1206.000000	62.676072
1205.000000	62.650871
1204.000000	62.625077
1203.000000	62.602149
1202.000000	62.568054
1201.000000	62.543447
1200.000000	62.524867
1199.000000	62.470513
1198.000000	62.455590
1197.000000	62.437900
1196.000000	62.393131
1195.000000	62.366646
1194.000000	62.312785
1193.000000	62.301717
1192.000000	62.266041
1191.000000	62.253193
1190.000000	62.212674
1189.000000	62.206250
1188.000000	62.185991
1187.000000	62.180852
1186.000000	62.185695
1185.000000	62.202100
1184.000000	62.199926
1183.000000	62.230265
1182.000000	62.267424
1181.000000	62.316343
1180.000000	62.334725
1179.000000	62.380185
1178.000000	62.419815
1177.000000	62.467844
1176.000000	62.482372
1175.000000	62.544138
1174.000000	62.579716
1173.000000	62.608771
1172.000000	62.667177
1171.000000	62.731118
1170.000000	62.795751
1169.000000	62.832119
1168.000000	62.919778
1167.000000	62.979074
1166.000000	63.062286
1165.000000	63.141248
1164.000000	63.217938
1163.000000	63.294133
1162.000000	63.360643
1161.000000	63.466190
1160.000000	63.532601
1159.000000	63.599309
1158.000000	63.693392
1157.000000	63.740927
1156.000000	63.803682
1155.000000	63.859420
1154.000000	63.913676
1153.000000	63.983349
1152.000000	64.012799
1151.000000	64.052033
1150.000000	64.095715
1149.000000	64.143151
1148.000000	64.188315
1147.000000	64.227055
1146.000000	64.277160
1145.000000	64.284770
1144.000000	64.311453
1143.000000	64.344856
1142.000000	64.397234
1141.000000	64.448229
1140.000000	64.503670
1139.000000	64.563658
1138.000000	64.603189
1137.000000	64.700138
1136.000000	64.770403
1135.000000	64.820508
1134.000000	64.857074
1133.000000	64.857272
1132.000000	64.888995
1131.000000	64.942065
1130.000000	64.998594
1129.000000	65.043856
1128.000000	65.068168
1127.000000	65.082794
1126.000000	65.111454
1125.000000	65.124004
1124.000000	65.164326
1123.000000	65.155332
1122.000000	65.161064
1121.000000	65.159483
1120.000000	65.162843
1119.000000	65.144165
1118.000000	65.158890
1117.000000	65.146043
1116.000000	65.135370
1115.000000	65.125092
1114.000000	65.127859
1113.000000	65.119854
1112.000000	65.115802
1111.000000	65.102460
1110.000000	65.106117
1109.000000	65.092973
1108.000000	65.099298
1107.000000	65.080521
1106.000000	65.078445
1105.000000	65.075184
1104.000000	65.067179
1103.000000	65.069749
1102.000000	65.068069
1101.000000	65.075876
1100.000000	65.070342
1099.000000	65.063918
1098.000000	65.053344
1097.000000	65.054628
1096.000000	65.054727
1095.000000	65.038025
1094.000000	65.035258
1093.000000	65.043757
1092.000000	65.035950
1091.000000	65.037432
1090.000000	65.029625
1089.000000	65.037729
1088.000000	65.031305
1087.000000	65.015394
1086.000000	65.013516
1085.000000	65.018161
1084.000000	65.016086
1083.000000	65.018557
1082.000000	65.004919
1081.000000	64.982188
1080.000000	64.974381
1079.000000	64.981497
1078.000000	64.978038
1077.000000	64.962522
1076.000000	64.954912
1075.000000	64.947698
1074.000000	64.944041
1073.000000	64.923881
1072.000000	64.908069
1071.000000	64.895122
1070.000000	64.882374
1069.000000	64.868439
1068.000000	64.858853
1067.000000	64.836617
1066.000000	64.826734
1065.000000	64.822287
1064.000000	64.802522
1063.000000	64.788291
1062.000000	64.771688
1061.000000	64.753702
1060.000000	64.753306
1059.000000	64.736802
1058.000000	64.723164
1057.000000	64.700434
1056.000000	64.689464
1055.000000	64.667327
1054.000000	64.643213
1053.000000	64.619001
1052.000000	64.596271
1051.000000	64.591132
1050.000000	64.561583
1049.000000	64.543596
1048.000000	64.533911
1047.000000	64.509995
1046.000000	64.497939
1045.000000	64.469674
1044.000000	64.430835
1043.000000	64.405536
1042.000000	64.406228
1041.000000	64.391601
1040.000000	64.367784
1039.000000	64.351478
1038.000000	64.335468
1037.000000	64.315505
1036.000000	64.285462
1035.000000	64.256110
1034.000000	64.249785
1033.000000	64.244943
1032.000000	64.222311
1031.000000	64.208970
1030.000000	64.185844
1029.000000	64.165980
1028.000000	64.150267
1027.000000	64.133269
1026.000000	64.128031
1025.000000	64.122892
1024.000000	64.116172
1023.000000	64.108661
1022.000000	64.113701
1021.000000	64.114096
1020.000000	64.119038
1019.000000	64.122101
1018.000000	64.128031
1017.000000	64.139890
1016.000000	64.140681
1015.000000	64.151947
1014.000000	64.174776
1013.000000	64.202546
1012.000000	64.220532
1011.000000	64.239902
1010.000000	64.266487
1009.000000	64.296234
1008.000000	64.332206
1007.000000	64.366895
1006.000000	64.405338
1005.000000	64.433602
1004.000000	64.474912
1003.000000	64.510094
1002.000000	64.552688
1001.000000	64.596271
1000.000000	64.631058
999.000000	64.677012
998.000000	64.701225
997.000000	64.734134
996.000000	64.779298
995.000000	64.807364
994.000000	64.846697
993.000000	64.874171
992.000000	64.914690
991.000000	64.972701
990.000000	65.015592
989.000000	65.054628
988.000000	65.095542
987.000000	65.147822
986.000000	65.186562
985.000000	65.242695
984.000000	65.289539
983.000000	65.333714
982.000000	65.384017
981.000000	65.432047
980.000000	65.452899
979.000000	65.483338
978.000000	65.539471
977.000000	65.587402
976.000000	65.607464
975.000000	65.639582
974.000000	65.666859
973.000000	65.709156
972.000000	65.751158
971.000000	65.780213
970.000000	65.815197
969.000000	65.849391
968.000000	65.910565
967.000000	65.941497
966.000000	65.988045
965.000000	66.025500
964.000000	66.076099
963.000000	66.126599
962.000000	66.187674
961.000000	66.221769
960.000000	66.255865
959.000000	66.297866
958.000000	66.368428
957.000000	66.414876
956.000000	66.454802
955.000000	66.501053
954.000000	66.539892
953.000000	66.605612
952.000000	66.637137
951.000000	66.669750
950.000000	66.738533
949.000000	66.773814
948.000000	66.821053
947.000000	66.897150
946.000000	66.941918
945.000000	67.002400
944.000000	67.070195
943.000000	67.132555
942.000000	67.194025
941.000000	67.288602
940.000000	67.361634
939.000000	67.450084
938.000000	67.544167
937.000000	67.649813
936.000000	67.716323
935.000000	67.795088
934.000000	67.885020
933.000000	67.956768
932.000000	68.048182
931.000000	68.089096
930.000000	68.149084
929.000000	68.230715
928.000000	68.278547
927.000000	68.328355
926.000000	68.424118
925.000000	68.491518
924.000000	68.529467
923.000000	68.618905
922.000000	68.691839
921.000000	68.751432
920.000000	68.807269
919.000000	68.883958
918.000000	68.931098
917.000000	68.974780
916.000000	69.023798
915.000000	69.080623
914.000000	69.129048
913.000000	69.186960
912.000000	69.230543
911.000000	69.290728
910.000000	69.362278
909.000000	69.376509
908.000000	69.411197
907.000000	69.466540
906.000000	69.519017
905.000000	69.567146
904.000000	69.659351
903.000000	69.682575
902.000000	69.731593
901.000000	69.781204
900.000000	69.837634
899.000000	69.888431
898.000000	69.955534
897.000000	69.992890
896.000000	70.031927
895.000000	70.066615
894.000000	70.097054
893.000000	70.144589
892.000000	70.179574
891.000000	70.210506
890.000000	70.241044
889.000000	70.283836
888.000000	70.304095
887.000000	70.332952
886.000000	70.366949
885.000000	70.402823
884.000000	70.414188
883.000000	70.447591
882.000000	70.448184
881.000000	70.487418
880.000000	70.509753
879.000000	70.531495
878.000000	70.547011
877.000000	70.566183
876.000000	70.588221
875.000000	70.579228
874.000000	70.570531
873.000000	70.590198
872.000000	70.570729
871.000000	70.555905
870.000000	70.548592
869.000000	70.511730
868.000000	70.488604
867.000000	70.452137
866.000000	70.401044
865.000000	70.345108
864.000000	70.270000
863.000000	70.184614
862.000000	70.063156
861.000000	69.923316
860.000000	69.750370
859.000000	69.614484
858.000000	69.481167
857.000000	69.731600
856.000000	69.518500
855.000000	69.193400
854.000000	69.251000
853.000000	69.339100
852.000000	69.267800
851.000000	69.333500
850.000000	69.122500
849.000000	68.777000
848.000000	69.228600
847.000000	68.812400
846.000000	68.553600
845.000000	68.533200
844.000000	68.448500
843.000000	68.575100
842.000000	68.459100
841.000000	68.118200
840.000000	68.142300
839.000000	68.058000
838.000000	67.938300
837.000000	67.949600
836.000000	67.906100
835.000000	67.714000
834.000000	67.776500
833.000000	67.593800
832.000000	67.426900
831.000000	67.303800
830.000000	67.029900
829.000000	67.098900
828.000000	67.070400
827.000000	66.891800
826.000000	66.877300
825.000000	66.505200
824.000000	66.385500
823.000000	66.441500
822.000000	66.230200
821.000000	66.085500
820.000000	65.824000
819.000000	65.675500
818.000000	65.512100
817.000000	65.411200
816.000000	65.213200
815.000000	65.107700
814.000000	65.006900
813.000000	64.644000
812.000000	64.482800
811.000000	64.508300
810.000000	64.335900
809.000000	64.372700
808.000000	64.161200
807.000000	64.025300
806.000000	63.891700
805.000000	63.728800
804.000000	63.655300
803.000000	63.521600
802.000000	63.359200
801.000000	63.232400
800.000000	63.149700
799.000000	63.006800
798.000000	62.859700
797.000000	62.676800
796.000000	62.660600
795.000000	62.460500
794.000000	62.323000
793.000000	62.168000
792.000000	61.923400
791.000000	61.906400
790.000000	61.899300
789.000000	61.709100
788.000000	61.498900
787.000000	61.426400
786.000000	61.295200
785.000000	61.178900
784.000000	61.090400
783.000000	61.025300
782.000000	60.892400
781.000000	60.783400
780.000000	60.648800
779.000000	60.485100
778.000000	60.415600
777.000000	60.318100
776.000000	60.196600
775.000000	60.021200
774.000000	59.845400
773.000000	59.740500
772.000000	59.614900
771.000000	59.459800
770.000000	59.369000
769.000000	59.259800
768.000000	59.144100
767.000000	59.003200
766.000000	58.763300
765.000000	58.688000
764.000000	58.591700
763.000000	58.419100
762.000000	58.300000
761.000000	58.175700
760.000000	58.004300
759.000000	57.909800
758.000000	57.827300
757.000000	57.663200
756.000000	57.497000
755.000000	57.409800
754.000000	57.299800
753.000000	57.157700
752.000000	57.030900
751.000000	56.868900
750.000000	56.678200
749.000000	56.550700
748.000000	56.408300
747.000000	56.236700
746.000000	56.116500
745.000000	55.980100
744.000000	55.739400
743.000000	55.575400
742.000000	55.443000
741.000000	55.221700
740.000000	55.000900
739.000000	54.820800
738.000000	54.604600
737.000000	54.397200
736.000000	54.217000
735.000000	54.028800
734.000000	53.806800
733.000000	53.586800
732.000000	53.364400
731.000000	53.183800
730.000000	52.940700
729.000000	52.696900
728.000000	52.517600
727.000000	52.344000
726.000000	52.134700
725.000000	51.914100
724.000000	51.738500
723.000000	51.509200
722.000000	51.306500
721.000000	51.135600
720.000000	50.964600
719.000000	50.745600
718.000000	50.502500
717.000000	50.332800
716.000000	50.141400
715.000000	49.850600
714.000000	49.615100
713.000000	49.400000
712.000000	49.134900
711.000000	48.809800
710.000000	48.513000
709.000000	48.250300
708.000000	47.970400
707.000000	47.732800
706.000000	47.505700
705.000000	47.266600
704.000000	47.089800
703.000000	46.906000
702.000000	46.779200
701.000000	46.711000
700.000000	46.616200
699.000000	46.528200
698.000000	46.512800
697.000000	46.454600
696.000000	46.488500
695.000000	46.503400
694.000000	46.559500
693.000000	46.597300
692.000000	46.651500
691.000000	46.677700
690.000000	46.648700
689.000000	46.601700
688.000000	46.532700
687.000000	46.430900
686.000000	46.315400
685.000000	46.080300
684.000000	45.825900
683.000000	45.587900
682.000000	45.302600
681.000000	44.963000
680.000000	44.648500
679.000000	44.333300
678.000000	44.036000
677.000000	43.780800
676.000000	43.555000
675.000000	43.328900
674.000000	43.158100
673.000000	43.033100
672.000000	42.940700
671.000000	42.847800
670.000000	42.851100
669.000000	42.880400
668.000000	42.925500
667.000000	42.928500
666.000000	42.986400
665.000000	43.035300
664.000000	43.055200
663.000000	43.051300
662.000000	42.993000
661.000000	42.891700
660.000000	42.778000
659.000000	42.584900
658.000000	42.355800
657.000000	42.017200
656.000000	41.666800
655.000000	41.243900
654.000000	40.774300
653.000000	40.238200
652.000000	39.735800
651.000000	39.218400
650.000000	38.761400
649.000000	38.345100
648.000000	38.050400
647.000000	37.809500
646.000000	37.690600
645.000000	37.628600
644.000000	37.708900
643.000000	37.926700
642.000000	38.270100
641.000000	38.664500
640.000000	39.196400
639.000000	39.763100
638.000000	40.435800
637.000000	41.059000
636.000000	41.794100
635.000000	42.501300
634.000000	43.251900
633.000000	43.960700
632.000000	44.657100
631.000000	45.312200
630.000000	45.977700
629.000000	46.581300
628.000000	47.127000
627.000000	47.588800
626.000000	48.054900
625.000000	48.458500
624.000000	48.858900
623.000000	49.181100
622.000000	49.432900
621.000000	49.724200
620.000000	49.916900
619.000000	50.095300
618.000000	50.280600
617.000000	50.453400
616.000000	50.595700
615.000000	50.775800
614.000000	50.944300
613.000000	51.127300
612.000000	51.352200
611.000000	51.594800
610.000000	51.865400
609.000000	52.180200
608.000000	52.509600
607.000000	52.804200
606.000000	53.177400
605.000000	53.518400
604.000000	53.881000
603.000000	54.226500
602.000000	54.565300
601.000000	54.869200
600.000000	55.157700
599.000000	55.390600
598.000000	55.561400
597.000000	55.692300
596.000000	55.823200
595.000000	55.929100
594.000000	55.905800
593.000000	55.932100
592.000000	55.935700
591.000000	55.823700
590.000000	55.791800
589.000000	55.755300
588.000000	55.708800
587.000000	55.631500
586.000000	55.566000
585.000000	55.529700
584.000000	55.488100
583.000000	55.426500
582.000000	55.341400
581.000000	55.209600
580.000000	55.133300
579.000000	54.976600
578.000000	54.863500
577.000000	54.653800
576.000000	54.472300
575.000000	54.308200
574.000000	54.131300
573.000000	53.922300
572.000000	53.744400
571.000000	53.577200
570.000000	53.433700
569.000000	53.314100
568.000000	53.201500
567.000000	53.116900
566.000000	53.055700
565.000000	52.987300
564.000000	52.889200
563.000000	52.819200
562.000000	52.781200
561.000000	52.691400
560.000000	52.610400
559.000000	52.547300
558.000000	52.381000
557.000000	52.197300
556.000000	51.897200
555.000000	51.599500
554.000000	51.269500
553.000000	50.812300
552.000000	50.368500
551.000000	49.862000
550.000000	49.312600
549.000000	48.754500
548.000000	48.185800
547.000000	47.564300
546.000000	46.898000
545.000000	46.164600
544.000000	45.391300
543.000000	44.576200
542.000000	43.692100
541.000000	42.749600
540.000000	41.759700
539.000000	40.699600
538.000000	39.626200
537.000000	38.466500
536.000000	37.266500
535.000000	36.058300
534.000000	34.819600
533.000000	33.580100
532.000000	32.365700
531.000000	31.185100
530.000000	30.098500
529.000000	29.096700
528.000000	28.182100
527.000000	27.365500
526.000000	26.647600
525.000000	26.029200
524.000000	25.511400
523.000000	25.097200
522.000000	24.766900
521.000000	24.514900
520.000000	24.331800
519.000000	24.223100
518.000000	24.154400
517.000000	24.099300
516.000000	24.057600
515.000000	24.031900
514.000000	24.001300
513.000000	23.960000
512.000000	23.943700
511.000000	23.904500
510.000000	23.834700
509.000000	23.760100
508.000000	23.673600
507.000000	23.576100
506.000000	23.463200
505.000000	23.341100
504.000000	23.209600
503.000000	23.061600
502.000000	22.926500
501.000000	22.769500
500.000000	22.594800
499.000000	22.417700
498.000000	22.243800
497.000000	22.049300
496.000000	21.843100
495.000000	21.644900
494.000000	21.440100
493.000000	21.249000
492.000000	21.031100
491.000000	20.811700
490.000000	20.583200
489.000000	20.362800
488.000000	20.138100
487.000000	19.938300
486.000000	19.723500
485.000000	19.521600
484.000000	19.322100
483.000000	19.104500
482.000000	18.900100
481.000000	18.683800
480.000000	18.464300
479.000000	18.253700
478.000000	18.047000
477.000000	17.827100
476.000000	17.618000
475.000000	17.414700
474.000000	17.198500
473.000000	16.990500
472.000000	16.791500
471.000000	16.557500
470.000000	16.326800
469.000000	16.109700
468.000000	15.900800
467.000000	15.673700
466.000000	15.427600
465.000000	15.190500
464.000000	14.969100
463.000000	14.728900
462.000000	14.466300
461.000000	14.212500
460.000000	13.955400
459.000000	13.694000
458.000000	13.431900
457.000000	13.165200
456.000000	12.893600
455.000000	12.602200
454.000000	12.294900
453.000000	11.994800
452.000000	11.700600
451.000000	11.397100
450.000000	11.079900
449.000000	10.768500
448.000000	10.461100
447.000000	10.139700
446.000000	9.837900
445.000000	9.554700
444.000000	9.258900
443.000000	8.960200
442.000000	8.677000
441.000000	8.417700
440.000000	8.168000
439.000000	7.917000
438.000000	7.703800
437.000000	7.495100
436.000000	7.284800
435.000000	7.104300
434.000000	6.941800
433.000000	6.789800
432.000000	6.643600
431.000000	6.508100
430.000000	6.386500
429.000000	6.290700
428.000000	6.190200
427.000000	6.097000
426.000000	6.022700
425.000000	5.958900
424.000000	5.903600
423.000000	5.849800
422.000000	5.801600
421.000000	5.756800
420.000000	5.722200
419.000000	5.681300
418.000000	5.644700
417.000000	5.627000
416.000000	5.614400
415.000000	5.591200
414.000000	5.564200
413.000000	5.546500
412.000000	5.545400
411.000000	5.536400
410.000000	5.523500
409.000000	5.510000
408.000000	5.506800
407.000000	5.500800
406.000000	5.494500
405.000000	5.492600
404.000000	5.487600
403.000000	5.482500
402.000000	5.471600
401.000000	5.461800
400.000000	5.456000
399.000000	5.456500
398.000000	5.455700
397.000000	5.447400
396.000000	5.444500
395.000000	5.434900
394.000000	5.443800
393.000000	5.445500
392.000000	5.426300
391.000000	5.427700
390.000000	5.449700
389.000000	5.436100
388.000000	5.416200
387.000000	5.420800
386.000000	5.416500
385.000000	5.406500
384.000000	5.403900
383.000000	5.411800
382.000000	5.410000
381.000000	5.418700
380.000000	5.397700
379.000000	5.383900
378.000000	5.389800
377.000000	5.392300
376.000000	5.382400
375.000000	5.289400
374.000000	5.341000
373.000000	5.390800
372.000000	5.404900
371.000000	5.392300
370.000000	5.360100
369.000000	5.393500
368.000000	5.420700
367.000000	5.385900
366.000000	5.424400
365.000000	5.409900
364.000000	5.348400
363.000000	5.391700
362.000000	5.423900
361.000000	5.407400
360.000000	5.476100
359.000000	5.563200
358.000000	5.449900
357.000000	5.563100
356.000000	5.376400
355.000000	5.417800
354.000000	5.396900
353.000000	5.369000
352.000000	5.354800
351.000000	5.402200
350.000000	5.460000
349.000000	5.556900
348.000000	5.445000
347.000000	5.238700
346.000000	5.352300
345.000000	5.494100
344.000000	5.314200
343.000000	5.432500
342.000000	5.464800
341.000000	5.571500
340.000000	5.463900
339.000000	5.554400
338.000000	5.471000
337.000000	5.327100
336.000000	5.412200
335.000000	5.537500
334.000000	5.442400
333.000000	5.513100
332.000000	5.554100
331.000000	5.603500
330.000000	5.788200
329.000000	5.599700
328.000000	5.367100
327.000000	5.587900
326.000000	5.609900
325.000000	5.910200
324.000000	5.957900
323.000000	5.860300
322.000000	5.926900
321.000000	6.092600
320.000000	6.163200
319.000000	5.881500
318.000000	6.103400
317.000000	6.133600
316.000000	5.494600
315.000000	5.473300
314.000000	5.439000
313.000000	5.426200
312.000000	5.478500
311.000000	5.476400
310.000000	5.460700
309.000000	5.503200
308.000000	5.523200
307.000000	5.478800
306.000000	5.528600
305.000000	5.504200
304.000000	5.533700
303.000000	5.545900
302.000000	5.507700
301.000000	5.558700
300.000000	5.566000
299.000000	5.479000
298.000000	5.513800
297.000000	5.541800
296.000000	5.454600
295.000000	5.509600
294.000000	5.499800
293.000000	5.599000
292.000000	5.613400
291.000000	5.545200
290.000000	5.552500
289.000000	5.598000
288.000000	5.563900
287.000000	5.547800
286.000000	5.633400
285.000000	5.607500
284.000000	5.613400
283.000000	5.586200
282.000000	5.610400
281.000000	5.661200
280.000000	5.707200
279.000000	5.648800
278.000000	5.622100
277.000000	5.675200
276.000000	5.712100
275.000000	5.660900
274.000000	5.802400
273.000000	5.719100
272.000000	5.724900
271.000000	5.814200
270.000000	5.758800
269.000000	5.788900
268.000000	5.863100
267.000000	5.836100
266.000000	5.863600
265.000000	5.871400
264.000000	5.926200
263.000000	5.979500
262.000000	5.974000
261.000000	6.046900
260.000000	6.057200
259.000000	6.072900
258.000000	6.118200
257.000000	6.120000
256.000000	6.091500
255.000000	6.146200
254.000000	6.179500
253.000000	6.144000
252.000000	6.240600
251.000000	6.242700
250.000000	6.219000
