PE UV       SUBTECH     SPECTRUM    ASCII       PEDS        4.00        
   -1
CICIMAUCR0260-1.ASC
24/07/01
14:34:09.00
24/07/01
14:34:09.00
Vinicio Soto Monge
C. resplendens. Sex F. Ventral
250,000000
1
Lambda 1050
1050L1511233
PerkinElmer UV WinLab 6.3.2.0749 / 2.02.05 Lambda 900 UV/VIS/NIR, Aug  7 2015 09:38:08

0
0
3350/servo 860,8/2
0
0
UV/VIS
1
1
1
DoubleDePol,CommonBeamDepol,RBeamAtt,SBeamAtt,60mm sphere, WB InGaAs Detector
0
0
0
0
Program
Program
3350/servo 860,8/2
3350/0,2 860,8/0,2
3350/0,2 860,8/0,2
0
15.00
 
 
 
0
 
860,8
319,2
860,8
Front
100
on
S:100 R:100
0
0
0
0
 
0
 
 
 
0
 
 
0
0
0
0
0
 
 
 
 
0
0


0
0
#HDR
-1
-1
#GR
nm
%R
1.0
0.0
2500,000000
-1,000000
2251
8
49,439300
3,886400
#DATA
2482.000000	5.608598
2481.000000	5.601526
2480.000000	5.541988
2479.000000	5.648747
2478.000000	5.627075
2477.000000	5.619662
2476.000000	5.630155
2475.000000	5.583277
2474.000000	5.562632
2473.000000	5.568792
2472.000000	5.625022
2471.000000	5.593542
2470.000000	5.581224
2469.000000	5.562975
2468.000000	5.566054
2467.000000	5.616012
2466.000000	5.625136
2465.000000	5.623882
2464.000000	5.590349
2463.000000	5.604378
2462.000000	5.655818
2461.000000	5.648176
2460.000000	5.654678
2459.000000	5.655704
2458.000000	5.679542
2457.000000	5.683648
2456.000000	5.692887
2455.000000	5.736800
2454.000000	5.754821
2453.000000	5.752654
2452.000000	5.767595
2451.000000	5.782195
2450.000000	5.789951
2449.000000	5.839795
2448.000000	5.858044
2447.000000	5.860097
2446.000000	5.907431
2445.000000	5.895341
2444.000000	5.953625
2443.000000	5.946667
2442.000000	5.962179
2441.000000	5.975410
2440.000000	6.008373
2439.000000	6.030044
2438.000000	6.056962
2437.000000	6.086503
2436.000000	6.136461
2435.000000	6.145357
2434.000000	6.165203
2433.000000	6.178092
2432.000000	6.174214
2431.000000	6.203413
2430.000000	6.233638
2429.000000	6.244702
2428.000000	6.254169
2427.000000	6.271278
2426.000000	6.295458
2425.000000	6.317814
2424.000000	6.337660
2423.000000	6.352259
2422.000000	6.369026
2421.000000	6.397769
2420.000000	6.395145
2419.000000	6.404498
2418.000000	6.422976
2417.000000	6.448068
2416.000000	6.444419
2415.000000	6.461641
2414.000000	6.491753
2413.000000	6.502360
2412.000000	6.502588
2411.000000	6.520610
2410.000000	6.519127
2409.000000	6.528480
2408.000000	6.544562
2407.000000	6.565663
2406.000000	6.580376
2405.000000	6.583228
2404.000000	6.604557
2403.000000	6.596915
2402.000000	6.592238
2401.000000	6.590185
2400.000000	6.616647
2399.000000	6.642538
2398.000000	6.635809
2397.000000	6.630562
2396.000000	6.643108
2395.000000	6.641626
2394.000000	6.654286
2393.000000	6.669456
2392.000000	6.685196
2391.000000	6.679151
2390.000000	6.681432
2389.000000	6.699339
2388.000000	6.705042
2387.000000	6.700366
2386.000000	6.691583
2385.000000	6.699567
2384.000000	6.700138
2383.000000	6.704472
2382.000000	6.709605
2381.000000	6.717361
2380.000000	6.722607
2379.000000	6.717132
2378.000000	6.718387
2377.000000	6.703445
2376.000000	6.685880
2375.000000	6.691127
2374.000000	6.697628
2373.000000	6.697628
2372.000000	6.685424
2371.000000	6.670939
2370.000000	6.673106
2369.000000	6.663183
2368.000000	6.657138
2367.000000	6.656681
2366.000000	6.640485
2365.000000	6.641854
2364.000000	6.629992
2363.000000	6.605697
2362.000000	6.603872
2361.000000	6.598854
2360.000000	6.589729
2359.000000	6.567716
2358.000000	6.551063
2357.000000	6.538289
2356.000000	6.525400
2355.000000	6.521294
2354.000000	6.514565
2353.000000	6.509888
2352.000000	6.491525
2351.000000	6.487761
2350.000000	6.493920
2349.000000	6.490156
2348.000000	6.480461
2347.000000	6.491639
2346.000000	6.496657
2345.000000	6.492095
2344.000000	6.517416
2343.000000	6.545931
2342.000000	6.561671
2341.000000	6.552090
2340.000000	6.561214
2339.000000	6.580148
2338.000000	6.589729
2337.000000	6.603872
2336.000000	6.606610
2335.000000	6.607408
2334.000000	6.596002
2333.000000	6.609005
2332.000000	6.609005
2331.000000	6.605583
2330.000000	6.605013
2329.000000	6.593493
2328.000000	6.579350
2327.000000	6.568172
2326.000000	6.557907
2325.000000	6.539543
2324.000000	6.521408
2323.000000	6.506238
2322.000000	6.484567
2321.000000	6.460159
2320.000000	6.462098
2319.000000	6.444989
2318.000000	6.393320
2317.000000	6.355225
2316.000000	6.322832
2315.000000	6.307092
2314.000000	6.273103
2313.000000	6.247325
2312.000000	6.225768
2311.000000	6.194174
2310.000000	6.152657
2309.000000	6.135776
2308.000000	6.153569
2307.000000	6.122546
2306.000000	6.082967
2305.000000	6.074527
2304.000000	6.089012
2303.000000	6.069280
2302.000000	6.080344
2301.000000	6.108174
2300.000000	6.113307
2299.000000	6.131328
2298.000000	6.159386
2297.000000	6.178092
2296.000000	6.211739
2295.000000	6.225540
2294.000000	6.230331
2293.000000	6.259530
2292.000000	6.293177
2291.000000	6.303556
2290.000000	6.314848
2289.000000	6.355339
2288.000000	6.357962
2287.000000	6.364806
2286.000000	6.357278
2285.000000	6.374273
2284.000000	6.365832
2283.000000	6.366174
2282.000000	6.348153
2281.000000	6.334352
2280.000000	6.317814
2279.000000	6.316901
2278.000000	6.282341
2277.000000	6.297853
2276.000000	6.306066
2275.000000	6.287018
2274.000000	6.283254
2273.000000	6.256792
2272.000000	6.243447
2271.000000	6.238315
2270.000000	6.233296
2269.000000	6.227023
2268.000000	6.278349
2267.000000	6.286333
2266.000000	6.302758
2265.000000	6.356708
2264.000000	6.365262
2263.000000	6.434495
2262.000000	6.474074
2261.000000	6.529620
2260.000000	6.617559
2259.000000	6.657708
2258.000000	6.736979
2257.000000	6.824005
2256.000000	6.872366
2255.000000	6.991671
2254.000000	7.081549
2253.000000	7.173709
2252.000000	7.249671
2251.000000	7.347191
2250.000000	7.445738
2249.000000	7.538353
2248.000000	7.609526
2247.000000	7.679444
2246.000000	7.773200
2245.000000	7.857489
2244.000000	7.889996
2243.000000	7.959571
2242.000000	8.010898
2241.000000	8.072718
2240.000000	8.132484
2239.000000	8.143320
2238.000000	8.218826
2237.000000	8.260002
2236.000000	8.285208
2235.000000	8.318628
2234.000000	8.326498
2233.000000	8.362768
2232.000000	8.378166
2231.000000	8.429949
2230.000000	8.439187
2229.000000	8.435994
2228.000000	8.475344
2227.000000	8.442495
2226.000000	8.482872
2225.000000	8.448996
2224.000000	8.457437
2223.000000	8.455954
2222.000000	8.444434
2221.000000	8.417744
2220.000000	8.401092
2219.000000	8.405882
2218.000000	8.377938
2217.000000	8.378965
2216.000000	8.370866
2215.000000	8.339728
2214.000000	8.337333
2213.000000	8.302431
2212.000000	8.309275
2211.000000	8.288744
2210.000000	8.300606
2209.000000	8.284182
2208.000000	8.274601
2207.000000	8.236391
2206.000000	8.215975
2205.000000	8.220765
2204.000000	8.217230
2203.000000	8.204455
2202.000000	8.233654
2201.000000	8.239357
2200.000000	8.194076
2199.000000	8.182784
2198.000000	8.177993
2197.000000	8.172405
2196.000000	8.167158
2195.000000	8.184951
2194.000000	8.153813
2193.000000	8.129747
2192.000000	8.142863
2191.000000	8.133739
2190.000000	8.130659
2189.000000	8.118113
2188.000000	8.121763
2187.000000	8.121078
2186.000000	8.110015
2185.000000	8.096214
2184.000000	8.088229
2183.000000	8.064049
2182.000000	8.082641
2181.000000	8.079333
2180.000000	8.047853
2179.000000	8.053670
2178.000000	8.061426
2177.000000	8.042264
2176.000000	8.044431
2175.000000	8.024471
2174.000000	8.017855
2173.000000	8.021619
2172.000000	8.021733
2171.000000	8.021049
2170.000000	8.027094
2169.000000	8.028805
2168.000000	8.028235
2167.000000	8.031200
2166.000000	8.034166
2165.000000	8.055381
2164.000000	8.058916
2163.000000	8.036219
2162.000000	8.050590
2161.000000	8.059373
2160.000000	8.067357
2159.000000	8.079903
2158.000000	8.099863
2157.000000	8.130887
2156.000000	8.151760
2155.000000	8.161911
2154.000000	8.178222
2153.000000	8.207763
2152.000000	8.223161
2151.000000	8.253614
2150.000000	8.284410
2149.000000	8.293078
2148.000000	8.310187
2147.000000	8.327410
2146.000000	8.350906
2145.000000	8.374060
2144.000000	8.390484
2143.000000	8.405312
2142.000000	8.418429
2141.000000	8.440100
2140.000000	8.457209
2139.000000	8.485951
2138.000000	8.487320
2137.000000	8.503174
2136.000000	8.541156
2135.000000	8.558036
2134.000000	8.548341
2133.000000	8.565450
2132.000000	8.593166
2131.000000	8.596246
2130.000000	8.596018
2129.000000	8.608336
2128.000000	8.614153
2127.000000	8.627156
2126.000000	8.607880
2125.000000	8.600010
2124.000000	8.598641
2123.000000	8.609477
2122.000000	8.618944
2121.000000	8.617689
2120.000000	8.606055
2119.000000	8.608564
2118.000000	8.606511
2117.000000	8.606511
2116.000000	8.599097
2115.000000	8.583700
2114.000000	8.585981
2113.000000	8.571495
2112.000000	8.553474
2111.000000	8.558264
2110.000000	8.541042
2109.000000	8.510018
2108.000000	8.503060
2107.000000	8.498498
2106.000000	8.490286
2105.000000	8.480477
2104.000000	8.462569
2103.000000	8.459946
2102.000000	8.452988
2101.000000	8.429492
2100.000000	8.416148
2099.000000	8.420482
2098.000000	8.416262
2097.000000	8.401776
2096.000000	8.398925
2095.000000	8.381816
2094.000000	8.363567
2093.000000	8.360601
2092.000000	8.356495
2091.000000	8.339044
2090.000000	8.324331
2089.000000	8.324102
2088.000000	8.319198
2087.000000	8.304370
2086.000000	8.299922
2085.000000	8.314293
2084.000000	8.307564
2083.000000	8.280532
2082.000000	8.261256
2081.000000	8.249280
2080.000000	8.242094
2079.000000	8.222704
2078.000000	8.185978
2077.000000	8.171036
2076.000000	8.159174
2075.000000	8.129062
2074.000000	8.120508
2073.000000	8.094959
2072.000000	8.061654
2071.000000	8.042834
2070.000000	8.021163
2069.000000	7.994017
2068.000000	7.959115
2067.000000	7.923415
2066.000000	7.896497
2065.000000	7.882354
2064.000000	7.860227
2063.000000	7.836388
2062.000000	7.804680
2061.000000	7.781184
2060.000000	7.771489
2059.000000	7.753354
2058.000000	7.737728
2057.000000	7.735104
2056.000000	7.719250
2055.000000	7.707958
2054.000000	7.705221
2053.000000	7.701457
2052.000000	7.707046
2051.000000	7.723584
2050.000000	7.737157
2049.000000	7.763505
2048.000000	7.783009
2047.000000	7.791107
2046.000000	7.824412
2045.000000	7.863306
2044.000000	7.899919
2043.000000	7.914404
2042.000000	7.968012
2041.000000	8.008845
2040.000000	8.023444
2039.000000	8.079105
2038.000000	8.102601
2037.000000	8.123930
2036.000000	8.153243
2035.000000	8.161227
2034.000000	8.202630
2033.000000	8.222362
2032.000000	8.242208
2031.000000	8.264678
2030.000000	8.279391
2029.000000	8.308134
2028.000000	8.303230
2027.000000	8.325471
2026.000000	8.330718
2025.000000	8.344177
2024.000000	8.352389
2023.000000	8.347370
2022.000000	8.376683
2021.000000	8.363110
2020.000000	8.366874
2019.000000	8.389344
2018.000000	8.369612
2017.000000	8.355811
2016.000000	8.371779
2015.000000	8.368129
2014.000000	8.355697
2013.000000	8.357636
2012.000000	8.324331
2011.000000	8.309617
2010.000000	8.317487
2009.000000	8.310415
2008.000000	8.299922
2007.000000	8.278935
2006.000000	8.264906
2005.000000	8.246543
2004.000000	8.223389
2003.000000	8.201604
2002.000000	8.169781
2001.000000	8.140126
2000.000000	8.118341
1999.000000	8.103855
1998.000000	8.076938
1997.000000	8.047853
1996.000000	8.020935
1995.000000	7.988086
1994.000000	7.968240
1993.000000	7.955693
1992.000000	7.926495
1991.000000	7.854752
1990.000000	7.826693
1989.000000	7.805478
1988.000000	7.779701
1987.000000	7.738640
1986.000000	7.704879
1985.000000	7.649218
1984.000000	7.651157
1983.000000	7.611807
1982.000000	7.563674
1981.000000	7.530027
1980.000000	7.503109
1979.000000	7.470375
1978.000000	7.419390
1977.000000	7.384945
1976.000000	7.353921
1975.000000	7.326319
1974.000000	7.315597
1973.000000	7.274422
1972.000000	7.231650
1971.000000	7.203706
1970.000000	7.172226
1969.000000	7.151581
1968.000000	7.121013
1967.000000	7.094552
1966.000000	7.066151
1965.000000	7.026003
1964.000000	6.983117
1963.000000	6.959164
1962.000000	6.945249
1961.000000	6.914111
1960.000000	6.894151
1959.000000	6.864952
1958.000000	6.804387
1957.000000	6.778838
1956.000000	6.767432
1955.000000	6.758992
1954.000000	6.751008
1953.000000	6.722151
1952.000000	6.677896
1951.000000	6.672992
1950.000000	6.633756
1949.000000	6.636949
1948.000000	6.600679
1947.000000	6.579464
1946.000000	6.570111
1945.000000	6.573647
1944.000000	6.540798
1943.000000	6.525172
1942.000000	6.489472
1941.000000	6.502018
1940.000000	6.503957
1939.000000	6.469625
1938.000000	6.460387
1937.000000	6.481944
1936.000000	6.490384
1935.000000	6.477039
1934.000000	6.477724
1933.000000	6.479320
1932.000000	6.482172
1931.000000	6.504071
1930.000000	6.515135
1929.000000	6.505668
1928.000000	6.556538
1927.000000	6.556766
1926.000000	6.609119
1925.000000	6.628509
1924.000000	6.647557
1923.000000	6.666376
1922.000000	6.723748
1921.000000	6.724318
1920.000000	6.813626
1919.000000	6.893467
1918.000000	6.903960
1917.000000	6.958024
1916.000000	7.023608
1915.000000	7.072196
1914.000000	7.109380
1913.000000	7.209637
1912.000000	7.303735
1911.000000	7.365327
1910.000000	7.443685
1909.000000	7.513033
1908.000000	7.566526
1907.000000	7.649332
1906.000000	7.746282
1905.000000	7.857717
1904.000000	7.984892
1903.000000	8.125869
1902.000000	8.252702
1901.000000	8.381018
1900.000000	8.467702
1899.000000	8.636280
1898.000000	8.803376
1897.000000	8.978342
1896.000000	9.130952
1895.000000	9.260294
1894.000000	9.400586
1893.000000	9.552170
1892.000000	9.722231
1891.000000	9.973274
1890.000000	10.213253
1889.000000	10.439431
1888.000000	10.668118
1887.000000	10.886883
1886.000000	11.119106
1885.000000	11.368323
1884.000000	11.657576
1883.000000	11.967473
1882.000000	12.306340
1881.000000	12.612473
1880.000000	12.929442
1879.000000	13.227363
1878.000000	13.491750
1877.000000	13.818756
1876.000000	14.132303
1875.000000	14.406727
1874.000000	14.737155
1873.000000	15.057431
1872.000000	15.374514
1871.000000	15.692737
1870.000000	16.017918
1869.000000	16.309679
1868.000000	16.604977
1867.000000	16.825338
1866.000000	17.023457
1865.000000	17.167627
1864.000000	17.351946
1863.000000	17.479121
1862.000000	17.595232
1861.000000	17.742026
1860.000000	17.902050
1859.000000	18.054546
1858.000000	18.177957
1857.000000	18.311063
1856.000000	18.403223
1855.000000	18.459454
1854.000000	18.520361
1853.000000	18.596894
1852.000000	18.653125
1851.000000	18.703881
1850.000000	18.723613
1849.000000	18.716427
1848.000000	18.767297
1847.000000	18.824327
1846.000000	18.890823
1845.000000	18.896754
1844.000000	18.848279
1843.000000	18.787030
1842.000000	18.774939
1841.000000	18.815316
1840.000000	18.851473
1839.000000	18.853982
1838.000000	18.829916
1837.000000	18.810069
1836.000000	18.790793
1835.000000	18.804024
1834.000000	18.804595
1833.000000	18.761138
1832.000000	18.695212
1831.000000	18.652783
1830.000000	18.620846
1829.000000	18.609440
1828.000000	18.587085
1827.000000	18.538496
1826.000000	18.506788
1825.000000	18.485459
1824.000000	18.429684
1823.000000	18.390676
1822.000000	18.352125
1821.000000	18.324865
1820.000000	18.338894
1819.000000	18.345737
1818.000000	18.308668
1817.000000	18.266923
1816.000000	18.233846
1815.000000	18.230994
1814.000000	18.223124
1813.000000	18.200427
1812.000000	18.204647
1811.000000	18.185371
1810.000000	18.158909
1809.000000	18.146819
1808.000000	18.104846
1807.000000	18.065724
1806.000000	18.037323
1805.000000	18.001281
1804.000000	17.984514
1803.000000	17.949498
1802.000000	17.909235
1801.000000	17.888477
1800.000000	17.850495
1799.000000	17.798257
1798.000000	17.755485
1797.000000	17.722978
1796.000000	17.700394
1795.000000	17.655569
1794.000000	17.620553
1793.000000	17.587248
1792.000000	17.552346
1791.000000	17.519840
1790.000000	17.472277
1789.000000	17.436349
1788.000000	17.409887
1787.000000	17.374301
1786.000000	17.327993
1785.000000	17.290240
1784.000000	17.263550
1783.000000	17.234351
1782.000000	17.183709
1781.000000	17.146184
1780.000000	17.102842
1779.000000	17.040338
1778.000000	17.007033
1777.000000	16.963006
1776.000000	16.916584
1775.000000	16.858415
1774.000000	16.800929
1773.000000	16.743330
1772.000000	16.688582
1771.000000	16.647977
1770.000000	16.572242
1769.000000	16.513958
1768.000000	16.453735
1767.000000	16.387239
1766.000000	16.333289
1765.000000	16.286868
1764.000000	16.240332
1763.000000	16.216608
1762.000000	16.212159
1761.000000	16.200639
1760.000000	16.222196
1759.000000	16.261547
1758.000000	16.309337
1757.000000	16.361462
1756.000000	16.404348
1755.000000	16.454191
1754.000000	16.483504
1753.000000	16.529698
1752.000000	16.574865
1751.000000	16.581937
1750.000000	16.592316
1749.000000	16.589008
1748.000000	16.580682
1747.000000	16.581367
1746.000000	16.557985
1745.000000	16.510080
1744.000000	16.446663
1743.000000	16.397504
1742.000000	16.326332
1741.000000	16.237024
1740.000000	16.122281
1739.000000	15.999440
1738.000000	15.890400
1737.000000	15.772350
1736.000000	15.676883
1735.000000	15.573432
1734.000000	15.482299
1733.000000	15.413294
1732.000000	15.390824
1731.000000	15.396071
1730.000000	15.410100
1729.000000	15.436676
1728.000000	15.488116
1727.000000	15.533853
1726.000000	15.589514
1725.000000	15.653501
1724.000000	15.720339
1723.000000	15.767331
1722.000000	15.811586
1721.000000	15.869413
1720.000000	15.892567
1719.000000	15.927583
1718.000000	15.992026
1717.000000	16.034684
1716.000000	16.091257
1715.000000	16.161745
1714.000000	16.250711
1713.000000	16.323937
1712.000000	16.381308
1711.000000	16.429213
1710.000000	16.484303
1709.000000	16.519547
1708.000000	16.536770
1707.000000	16.562661
1706.000000	16.568820
1705.000000	16.509053
1704.000000	16.503807
1703.000000	16.488979
1702.000000	16.434801
1701.000000	16.363287
1700.000000	16.318120
1699.000000	16.215353
1698.000000	16.107910
1697.000000	16.015865
1696.000000	15.922793
1695.000000	15.864395
1694.000000	15.834740
1693.000000	15.844207
1692.000000	15.852761
1691.000000	15.901236
1690.000000	15.980735
1689.000000	16.088634
1688.000000	16.146804
1687.000000	16.237138
1686.000000	16.294966
1685.000000	16.361234
1684.000000	16.416666
1683.000000	16.487040
1682.000000	16.591632
1681.000000	16.757017
1680.000000	16.993004
1679.000000	17.248267
1678.000000	17.564209
1677.000000	17.882090
1676.000000	18.209551
1675.000000	18.534618
1674.000000	18.813263
1673.000000	19.075369
1672.000000	19.282043
1671.000000	19.497614
1670.000000	19.649540
1669.000000	19.816407
1668.000000	19.956129
1667.000000	20.063800
1666.000000	20.164628
1665.000000	20.259296
1664.000000	20.342217
1663.000000	20.395710
1662.000000	20.483992
1661.000000	20.514331
1660.000000	20.555849
1659.000000	20.585960
1658.000000	20.624740
1657.000000	20.670363
1656.000000	20.672759
1655.000000	20.697851
1654.000000	20.698878
1653.000000	20.698079
1652.000000	20.680743
1651.000000	20.668424
1650.000000	20.658957
1649.000000	20.650175
1648.000000	20.610597
1647.000000	20.560069
1646.000000	20.541135
1645.000000	20.530642
1644.000000	20.479543
1643.000000	20.432665
1642.000000	20.422400
1641.000000	20.363546
1640.000000	20.306973
1639.000000	20.263859
1638.000000	20.228957
1637.000000	20.174893
1636.000000	20.141474
1635.000000	20.070758
1634.000000	20.009394
1633.000000	19.982248
1632.000000	19.920315
1631.000000	19.861460
1630.000000	19.808994
1629.000000	19.745805
1628.000000	19.674519
1627.000000	19.616007
1626.000000	19.549625
1625.000000	19.502632
1624.000000	19.428951
1623.000000	19.352646
1622.000000	19.298582
1621.000000	19.240184
1620.000000	19.195587
1619.000000	19.138444
1618.000000	19.055067
1617.000000	18.994274
1616.000000	18.949677
1615.000000	18.899833
1614.000000	18.841778
1613.000000	18.770149
1612.000000	18.716655
1611.000000	18.659056
1610.000000	18.629173
1609.000000	18.564387
1608.000000	18.483862
1607.000000	18.455119
1606.000000	18.385658
1605.000000	18.333077
1604.000000	18.266010
1603.000000	18.221756
1602.000000	18.145451
1601.000000	18.088307
1600.000000	18.027514
1599.000000	17.966379
1598.000000	17.905015
1597.000000	17.860418
1596.000000	17.794835
1595.000000	17.752063
1594.000000	17.697885
1593.000000	17.633784
1592.000000	17.588389
1591.000000	17.534211
1590.000000	17.485508
1589.000000	17.447869
1588.000000	17.392550
1587.000000	17.342821
1586.000000	17.303585
1585.000000	17.270850
1584.000000	17.229105
1583.000000	17.161240
1582.000000	17.127022
1581.000000	17.089383
1580.000000	17.042733
1579.000000	17.014789
1578.000000	16.979545
1577.000000	16.938940
1576.000000	16.907916
1575.000000	16.909741
1574.000000	16.888868
1573.000000	16.851001
1572.000000	16.815643
1571.000000	16.804123
1570.000000	16.785531
1569.000000	16.758613
1568.000000	16.749945
1567.000000	16.755876
1566.000000	16.741961
1565.000000	16.714131
1564.000000	16.697706
1563.000000	16.697592
1562.000000	16.684133
1561.000000	16.674438
1560.000000	16.659839
1559.000000	16.631096
1558.000000	16.607372
1557.000000	16.586385
1556.000000	16.574067
1555.000000	16.553308
1554.000000	16.514642
1553.000000	16.481109
1552.000000	16.442101
1551.000000	16.407884
1550.000000	16.368533
1549.000000	16.342072
1548.000000	16.317663
1547.000000	16.288008
1546.000000	16.238963
1545.000000	16.204631
1544.000000	16.179653
1543.000000	16.152164
1542.000000	16.117149
1541.000000	16.090459
1540.000000	16.054873
1539.000000	16.027042
1538.000000	16.013926
1537.000000	15.988491
1536.000000	15.962827
1535.000000	15.920626
1534.000000	15.876713
1533.000000	15.863825
1532.000000	15.829037
1531.000000	15.791968
1530.000000	15.758663
1529.000000	15.703915
1528.000000	15.674830
1527.000000	15.638445
1526.000000	15.584153
1525.000000	15.543662
1524.000000	15.511270
1523.000000	15.474087
1522.000000	15.425384
1521.000000	15.369723
1520.000000	15.333567
1519.000000	15.284407
1518.000000	15.226010
1517.000000	15.187572
1516.000000	15.133850
1515.000000	15.078076
1514.000000	15.032680
1513.000000	14.972914
1512.000000	14.930826
1511.000000	14.897977
1510.000000	14.849274
1509.000000	14.790534
1508.000000	14.730425
1507.000000	14.680012
1506.000000	14.626062
1505.000000	14.566409
1504.000000	14.516908
1503.000000	14.463529
1502.000000	14.405131
1501.000000	14.367263
1500.000000	14.333958
1499.000000	14.289475
1498.000000	14.239860
1497.000000	14.187393
1496.000000	14.150210
1495.000000	14.109035
1494.000000	14.072992
1493.000000	14.040600
1492.000000	13.994064
1491.000000	13.944791
1490.000000	13.915249
1489.000000	13.893806
1488.000000	13.856623
1487.000000	13.839058
1486.000000	13.820809
1485.000000	13.797313
1484.000000	13.767544
1483.000000	13.743363
1482.000000	13.715077
1481.000000	13.690554
1480.000000	13.672875
1479.000000	13.644018
1478.000000	13.611169
1477.000000	13.600904
1476.000000	13.595429
1475.000000	13.575241
1474.000000	13.576724
1473.000000	13.584594
1472.000000	13.564291
1471.000000	13.556307
1470.000000	13.566116
1469.000000	13.586305
1468.000000	13.565660
1467.000000	13.562124
1466.000000	13.565546
1465.000000	13.575469
1464.000000	13.575469
1463.000000	13.579575
1462.000000	13.596114
1461.000000	13.625313
1460.000000	13.633753
1459.000000	13.662838
1458.000000	13.695915
1457.000000	13.707207
1456.000000	13.745074
1455.000000	13.784310
1454.000000	13.814536
1453.000000	13.839629
1452.000000	13.881260
1451.000000	13.920268
1450.000000	13.967944
1449.000000	14.024746
1448.000000	14.061586
1447.000000	14.102077
1446.000000	14.140401
1445.000000	14.206213
1444.000000	14.292099
1443.000000	14.331677
1442.000000	14.359393
1441.000000	14.428627
1440.000000	14.486796
1439.000000	14.533446
1438.000000	14.625720
1437.000000	14.680924
1436.000000	14.751868
1435.000000	14.841632
1434.000000	14.908585
1433.000000	14.991049
1432.000000	15.076479
1431.000000	15.159057
1430.000000	15.270492
1429.000000	15.365389
1428.000000	15.472034
1427.000000	15.569554
1426.000000	15.688973
1425.000000	15.807366
1424.000000	15.941841
1423.000000	16.077228
1422.000000	16.227443
1421.000000	16.367279
1420.000000	16.513844
1419.000000	16.692345
1418.000000	16.903696
1417.000000	17.063834
1416.000000	17.217357
1415.000000	17.396314
1414.000000	17.625686
1413.000000	17.853689
1412.000000	18.092299
1411.000000	18.272968
1410.000000	18.505761
1409.000000	18.822958
1408.000000	19.106051
1407.000000	19.413895
1406.000000	19.708850
1405.000000	19.991715
1404.000000	20.358299
1403.000000	20.752029
1402.000000	21.048809
1401.000000	21.350608
1400.000000	21.755059
1399.000000	22.184262
1398.000000	22.526095
1397.000000	22.750220
1396.000000	23.085096
1395.000000	23.492284
1394.000000	23.962205
1393.000000	24.285903
1392.000000	24.595458
1391.000000	25.020668
1390.000000	25.446220
1389.000000	25.812120
1388.000000	26.273372
1387.000000	26.806368
1386.000000	27.302294
1385.000000	27.798334
1384.000000	28.312396
1383.000000	28.833757
1382.000000	29.438039
1381.000000	29.987687
1380.000000	30.473804
1379.000000	30.837309
1378.000000	31.150285
1377.000000	31.409882
1376.000000	31.671304
1375.000000	31.894973
1374.000000	32.135408
1373.000000	32.377098
1372.000000	32.629282
1371.000000	32.952523
1370.000000	33.290479
1369.000000	33.577564
1368.000000	33.838758
1367.000000	34.145917
1366.000000	34.394679
1365.000000	34.552878
1364.000000	34.809395
1363.000000	34.994284
1362.000000	35.111080
1361.000000	35.340908
1360.000000	35.538914
1359.000000	35.624457
1358.000000	35.725513
1357.000000	35.830219
1356.000000	35.966633
1355.000000	36.156996
1354.000000	36.412944
1353.000000	36.720902
1352.000000	36.986886
1351.000000	37.384950
1350.000000	37.756667
1349.000000	38.145036
1348.000000	38.495538
1347.000000	38.834063
1346.000000	39.188557
1345.000000	39.463666
1344.000000	39.788505
1343.000000	40.129882
1342.000000	40.422442
1341.000000	40.703938
1340.000000	41.029803
1339.000000	41.307421
1338.000000	41.600780
1337.000000	41.905658
1336.000000	42.195481
1335.000000	42.485075
1334.000000	42.757903
1333.000000	43.050121
1332.000000	43.306639
1331.000000	43.584257
1330.000000	43.851382
1329.000000	44.099915
1328.000000	44.343088
1327.000000	44.613293
1326.000000	44.846884
1325.000000	45.056638
1324.000000	45.280079
1323.000000	45.517891
1322.000000	45.714755
1321.000000	45.928273
1320.000000	46.118523
1319.000000	46.314475
1318.000000	46.518069
1317.000000	46.706152
1316.000000	46.859675
1315.000000	47.023577
1314.000000	47.209492
1313.000000	47.366665
1312.000000	47.507071
1311.000000	47.640405
1310.000000	47.780355
1309.000000	47.934220
1308.000000	48.042461
1307.000000	48.150132
1306.000000	48.258944
1305.000000	48.377793
1304.000000	48.482157
1303.000000	48.557093
1302.000000	48.630547
1301.000000	48.709133
1300.000000	48.783499
1299.000000	48.843950
1298.000000	48.908735
1297.000000	48.958693
1296.000000	49.015152
1295.000000	49.049369
1294.000000	49.093396
1293.000000	49.113926
1292.000000	49.139133
1291.000000	49.157725
1290.000000	49.173579
1289.000000	49.190574
1288.000000	49.199470
1287.000000	49.191372
1286.000000	49.177229
1285.000000	49.176202
1284.000000	49.151794
1283.000000	49.136396
1282.000000	49.116550
1281.000000	49.089404
1280.000000	49.043438
1279.000000	49.009107
1278.000000	48.974205
1277.000000	48.952876
1276.000000	48.920483
1275.000000	48.887977
1274.000000	48.863454
1273.000000	48.832088
1272.000000	48.815549
1271.000000	48.786579
1270.000000	48.770040
1269.000000	48.724417
1268.000000	48.696815
1267.000000	48.687120
1266.000000	48.657693
1265.000000	48.630661
1264.000000	48.603173
1263.000000	48.574886
1262.000000	48.548539
1261.000000	48.508048
1260.000000	48.462767
1259.000000	48.421477
1258.000000	48.370379
1257.000000	48.327037
1256.000000	48.281756
1255.000000	48.238756
1254.000000	48.191878
1253.000000	48.135647
1252.000000	48.072573
1251.000000	48.000259
1250.000000	47.948705
1249.000000	47.877761
1248.000000	47.804079
1247.000000	47.728686
1246.000000	47.637211
1245.000000	47.539691
1244.000000	47.450269
1243.000000	47.346134
1242.000000	47.242683
1241.000000	47.141399
1240.000000	47.041142
1239.000000	46.934269
1238.000000	46.814850
1237.000000	46.704783
1236.000000	46.591523
1235.000000	46.475868
1234.000000	46.351658
1233.000000	46.226422
1232.000000	46.108599
1231.000000	45.969676
1230.000000	45.832578
1229.000000	45.708368
1228.000000	45.556899
1227.000000	45.410676
1226.000000	45.275288
1225.000000	45.126328
1224.000000	44.976683
1223.000000	44.831829
1222.000000	44.672603
1221.000000	44.513606
1220.000000	44.359398
1219.000000	44.209298
1218.000000	44.050642
1217.000000	43.901226
1216.000000	43.774621
1215.000000	43.643567
1214.000000	43.498827
1213.000000	43.364124
1212.000000	43.235124
1211.000000	43.106580
1210.000000	42.983853
1209.000000	42.856108
1208.000000	42.745585
1207.000000	42.634378
1206.000000	42.524768
1205.000000	42.408542
1204.000000	42.331895
1203.000000	42.281709
1202.000000	42.211335
1201.000000	42.140277
1200.000000	42.084844
1199.000000	42.028385
1198.000000	41.966451
1197.000000	41.895507
1196.000000	41.787151
1195.000000	41.659292
1194.000000	41.504515
1193.000000	41.302175
1192.000000	41.066758
1191.000000	40.792790
1190.000000	40.480726
1189.000000	40.158510
1188.000000	39.873820
1187.000000	39.606581
1186.000000	39.431502
1185.000000	39.332499
1184.000000	39.337974
1183.000000	39.427966
1182.000000	39.624260
1181.000000	39.908836
1180.000000	40.235272
1179.000000	40.623071
1178.000000	41.006307
1177.000000	41.368785
1176.000000	41.700809
1175.000000	42.000327
1174.000000	42.265513
1173.000000	42.511195
1172.000000	42.781285
1171.000000	43.037118
1170.000000	43.273220
1169.000000	43.542283
1168.000000	43.807584
1167.000000	44.079613
1166.000000	44.360083
1165.000000	44.657205
1164.000000	44.927410
1163.000000	45.237307
1162.000000	45.570243
1161.000000	45.883334
1160.000000	46.182966
1159.000000	46.496056
1158.000000	46.815648
1157.000000	47.102277
1156.000000	47.398829
1155.000000	47.669262
1154.000000	47.915856
1153.000000	48.140665
1152.000000	48.346883
1151.000000	48.519568
1150.000000	48.680276
1149.000000	48.825587
1148.000000	48.945576
1147.000000	49.069900
1146.000000	49.258439
1145.000000	49.455189
1144.000000	49.666882
1143.000000	49.916214
1142.000000	50.237745
1141.000000	50.583342
1140.000000	50.933387
1139.000000	51.303849
1138.000000	51.670433
1137.000000	52.062566
1136.000000	52.480021
1135.000000	52.921769
1134.000000	53.374239
1133.000000	53.800590
1132.000000	54.150521
1131.000000	54.500567
1130.000000	54.819360
1129.000000	55.086029
1128.000000	55.340721
1127.000000	55.544658
1126.000000	55.713921
1125.000000	55.861855
1124.000000	55.968043
1123.000000	56.058720
1122.000000	56.140271
1121.000000	56.214866
1120.000000	56.250794
1119.000000	56.295049
1118.000000	56.340672
1117.000000	56.364510
1116.000000	56.366335
1115.000000	56.369871
1114.000000	56.389717
1113.000000	56.386980
1112.000000	56.360861
1111.000000	56.363028
1110.000000	56.365765
1109.000000	56.357097
1108.000000	56.344778
1107.000000	56.333144
1106.000000	56.316834
1105.000000	56.315123
1104.000000	56.310561
1103.000000	56.299839
1102.000000	56.266762
1101.000000	56.255242
1100.000000	56.238020
1099.000000	56.220569
1098.000000	56.221709
1097.000000	56.175516
1096.000000	56.158179
1095.000000	56.150423
1094.000000	56.110844
1093.000000	56.074003
1092.000000	56.034653
1091.000000	56.012640
1090.000000	55.976369
1089.000000	55.939072
1088.000000	55.885351
1087.000000	55.828892
1086.000000	55.788059
1085.000000	55.756465
1084.000000	55.696926
1083.000000	55.637274
1082.000000	55.586289
1081.000000	55.544088
1080.000000	55.487971
1079.000000	55.441663
1078.000000	55.386801
1077.000000	55.313804
1076.000000	55.264530
1075.000000	55.206246
1074.000000	55.131538
1073.000000	55.081010
1072.000000	55.039607
1071.000000	54.962389
1070.000000	54.895551
1069.000000	54.835899
1068.000000	54.758339
1067.000000	54.695949
1066.000000	54.645193
1065.000000	54.568774
1064.000000	54.506041
1063.000000	54.443994
1062.000000	54.382630
1061.000000	54.301991
1060.000000	54.254086
1059.000000	54.163410
1058.000000	54.076155
1057.000000	54.002473
1056.000000	53.949892
1055.000000	53.860014
1054.000000	53.763863
1053.000000	53.706035
1052.000000	53.634178
1051.000000	53.545441
1050.000000	53.485332
1049.000000	53.400473
1048.000000	53.348462
1047.000000	53.272271
1046.000000	53.212162
1045.000000	53.126618
1044.000000	53.065369
1043.000000	52.993854
1042.000000	52.914811
1041.000000	52.863143
1040.000000	52.784329
1039.000000	52.716350
1038.000000	52.619742
1037.000000	52.568302
1036.000000	52.501692
1035.000000	52.422535
1034.000000	52.343493
1033.000000	52.275057
1032.000000	52.210500
1031.000000	52.098495
1030.000000	52.015460
1029.000000	51.947367
1028.000000	51.850532
1027.000000	51.770235
1026.000000	51.694842
1025.000000	51.607131
1024.000000	51.506189
1023.000000	51.425094
1022.000000	51.330311
1021.000000	51.256059
1020.000000	51.171542
1019.000000	51.095693
1018.000000	51.015167
1017.000000	50.950838
1016.000000	50.889019
1015.000000	50.788761
1014.000000	50.722950
1013.000000	50.673562
1012.000000	50.604215
1011.000000	50.577411
1010.000000	50.519583
1009.000000	50.482971
1008.000000	50.440199
1007.000000	50.394347
1006.000000	50.387846
1005.000000	50.370281
1004.000000	50.317586
1003.000000	50.298766
1002.000000	50.256678
1001.000000	50.243448
1000.000000	50.210941
999.000000	50.176723
998.000000	50.144445
997.000000	50.129275
996.000000	50.099734
995.000000	50.096198
994.000000	50.050689
993.000000	50.024455
992.000000	50.032097
991.000000	50.012251
990.000000	49.994572
989.000000	49.987386
988.000000	49.986132
987.000000	49.976551
986.000000	49.951458
985.000000	49.960355
984.000000	49.948036
983.000000	49.966514
982.000000	49.978490
981.000000	49.963092
980.000000	49.960925
979.000000	49.982938
978.000000	49.994914
977.000000	50.010084
976.000000	50.012707
975.000000	50.007461
974.000000	50.013392
973.000000	50.022402
972.000000	50.020007
971.000000	50.053654
970.000000	50.082739
969.000000	50.079089
968.000000	50.066315
967.000000	50.101559
966.000000	50.123458
965.000000	50.137487
964.000000	50.167028
963.000000	50.199307
962.000000	50.220066
961.000000	50.232954
960.000000	50.247896
959.000000	50.313366
958.000000	50.353628
957.000000	50.373931
956.000000	50.412482
955.000000	50.421037
954.000000	50.451947
953.000000	50.491753
952.000000	50.513994
951.000000	50.558933
950.000000	50.601819
949.000000	50.631247
948.000000	50.661472
947.000000	50.680178
946.000000	50.695918
945.000000	50.716904
944.000000	50.749753
943.000000	50.766520
942.000000	50.760703
941.000000	50.773363
940.000000	50.786708
939.000000	50.765836
938.000000	50.740286
937.000000	50.736523
936.000000	50.743708
935.000000	50.738918
934.000000	50.730021
933.000000	50.733101
932.000000	50.729565
931.000000	50.731618
930.000000	50.732759
929.000000	50.717019
928.000000	50.681660
927.000000	50.675501
926.000000	50.666605
925.000000	50.634440
924.000000	50.601705
923.000000	50.585281
922.000000	50.583684
921.000000	50.560302
920.000000	50.515021
919.000000	50.494947
918.000000	50.460045
917.000000	50.423774
916.000000	50.389214
915.000000	50.362639
914.000000	50.329448
913.000000	50.284851
912.000000	50.231700
911.000000	50.194973
910.000000	50.158702
909.000000	50.128477
908.000000	50.095058
907.000000	50.072360
906.000000	50.026166
905.000000	49.994800
904.000000	49.987386
903.000000	49.970506
902.000000	49.959670
901.000000	49.968795
900.000000	49.933665
899.000000	49.915758
898.000000	49.920320
897.000000	49.918495
896.000000	49.909256
895.000000	49.885190
894.000000	49.849033
893.000000	49.807858
892.000000	49.804893
891.000000	49.778773
890.000000	49.724482
889.000000	49.656161
888.000000	49.620004
887.000000	49.566397
886.000000	49.513245
885.000000	49.431922
884.000000	49.375577
883.000000	49.303492
882.000000	49.197988
881.000000	49.141415
880.000000	49.047773
879.000000	48.964054
878.000000	48.860831
877.000000	48.765022
876.000000	48.634196
875.000000	48.480218
874.000000	48.333310
873.000000	48.199177
872.000000	48.015201
871.000000	47.820161
870.000000	47.649416
869.000000	47.602309
868.000000	47.601397
867.000000	47.633219
866.000000	47.679983
865.000000	47.705418
864.000000	47.709752
863.000000	47.737012
862.000000	47.761079
861.000000	47.780583
860.000000	47.791646
859.000000	47.815257
858.000000	47.838867
857.000000	47.046000
856.000000	47.905700
855.000000	48.564900
854.000000	49.028400
853.000000	48.718400
852.000000	48.543400
851.000000	48.535800
850.000000	48.355300
849.000000	48.518400
848.000000	48.406800
847.000000	48.350700
846.000000	48.722100
845.000000	48.366700
844.000000	48.409500
843.000000	48.542600
842.000000	48.310000
841.000000	48.600500
840.000000	48.496100
839.000000	48.470500
838.000000	48.408700
837.000000	48.511100
836.000000	48.240700
835.000000	48.470600
834.000000	48.368500
833.000000	48.230600
832.000000	48.120800
831.000000	48.007400
830.000000	48.151700
829.000000	48.097800
828.000000	48.070100
827.000000	48.068200
826.000000	48.096800
825.000000	48.032300
824.000000	48.053200
823.000000	47.825700
822.000000	47.864800
821.000000	47.889900
820.000000	47.854200
819.000000	47.718300
818.000000	47.655400
817.000000	47.681000
816.000000	47.505900
815.000000	47.457000
814.000000	47.419300
813.000000	47.442200
812.000000	47.153800
811.000000	47.111800
810.000000	47.255300
809.000000	47.046700
808.000000	46.920900
807.000000	47.034400
806.000000	46.868700
805.000000	46.829900
804.000000	46.738900
803.000000	46.630500
802.000000	46.645400
801.000000	46.466800
800.000000	46.367200
799.000000	46.245700
798.000000	46.238300
797.000000	46.226200
796.000000	46.045600
795.000000	45.968000
794.000000	45.788100
793.000000	45.799400
792.000000	45.736500
791.000000	45.584500
790.000000	45.428000
789.000000	45.355000
788.000000	45.295000
787.000000	45.136300
786.000000	45.080100
785.000000	45.042000
784.000000	44.946700
783.000000	44.746100
782.000000	44.666600
781.000000	44.625400
780.000000	44.482800
779.000000	44.389700
778.000000	44.244600
777.000000	44.031500
776.000000	44.019300
775.000000	43.864800
774.000000	43.879000
773.000000	43.645200
772.000000	43.548300
771.000000	43.391500
770.000000	43.282300
769.000000	43.154100
768.000000	43.039400
767.000000	42.929100
766.000000	42.852200
765.000000	42.810500
764.000000	42.602000
763.000000	42.478000
762.000000	42.309400
761.000000	42.244300
760.000000	42.182700
759.000000	42.019500
758.000000	41.886700
757.000000	41.730200
756.000000	41.593700
755.000000	41.387400
754.000000	41.216900
753.000000	41.150200
752.000000	40.960000
751.000000	40.763900
750.000000	40.658900
749.000000	40.512500
748.000000	40.375900
747.000000	40.179000
746.000000	40.007900
745.000000	39.863600
744.000000	39.722700
743.000000	39.628300
742.000000	39.510700
741.000000	39.326600
740.000000	39.072400
739.000000	38.924100
738.000000	38.773900
737.000000	38.557700
736.000000	38.408300
735.000000	38.184200
734.000000	37.990200
733.000000	37.829000
732.000000	37.638000
731.000000	37.405700
730.000000	37.267800
729.000000	37.054700
728.000000	36.923600
727.000000	36.666500
726.000000	36.437700
725.000000	36.199300
724.000000	35.956100
723.000000	35.797400
722.000000	35.615200
721.000000	35.349600
720.000000	35.127000
719.000000	34.911000
718.000000	34.699000
717.000000	34.440300
716.000000	34.213800
715.000000	33.989600
714.000000	33.769600
713.000000	33.572600
712.000000	33.324600
711.000000	33.132300
710.000000	32.863000
709.000000	32.619000
708.000000	32.412300
707.000000	32.212300
706.000000	31.960700
705.000000	31.755100
704.000000	31.566200
703.000000	31.295500
702.000000	31.068800
701.000000	30.853400
700.000000	30.667300
699.000000	30.414900
698.000000	30.205100
697.000000	29.999700
696.000000	29.818500
695.000000	29.628500
694.000000	29.463000
693.000000	29.264300
692.000000	29.037200
691.000000	28.859600
690.000000	28.656100
689.000000	28.473200
688.000000	28.295900
687.000000	28.095400
686.000000	27.931500
685.000000	27.757900
684.000000	27.578000
683.000000	27.404500
682.000000	27.192700
681.000000	27.041900
680.000000	26.886600
679.000000	26.733400
678.000000	26.553400
677.000000	26.385700
676.000000	26.262900
675.000000	26.134300
674.000000	25.980500
673.000000	25.820400
672.000000	25.681300
671.000000	25.541000
670.000000	25.404300
669.000000	25.281000
668.000000	25.136700
667.000000	25.000300
666.000000	24.890400
665.000000	24.772400
664.000000	24.652300
663.000000	24.541200
662.000000	24.409500
661.000000	24.301300
660.000000	24.214200
659.000000	24.109400
658.000000	24.015000
657.000000	23.932600
656.000000	23.852500
655.000000	23.767100
654.000000	23.672400
653.000000	23.605000
652.000000	23.542200
651.000000	23.449500
650.000000	23.374700
649.000000	23.318300
648.000000	23.253200
647.000000	23.181800
646.000000	23.113900
645.000000	23.061300
644.000000	23.002400
643.000000	22.952100
642.000000	22.908300
641.000000	22.865700
640.000000	22.828300
639.000000	22.802700
638.000000	22.768600
637.000000	22.739800
636.000000	22.722200
635.000000	22.689800
634.000000	22.657900
633.000000	22.636700
632.000000	22.633700
631.000000	22.620400
630.000000	22.611000
629.000000	22.617800
628.000000	22.624200
627.000000	22.623600
626.000000	22.637000
625.000000	22.652600
624.000000	22.665200
623.000000	22.691300
622.000000	22.710800
621.000000	22.736800
620.000000	22.786400
619.000000	22.835700
618.000000	22.871500
617.000000	22.912100
616.000000	22.959300
615.000000	23.016400
614.000000	23.076400
613.000000	23.127000
612.000000	23.190500
611.000000	23.263500
610.000000	23.326500
609.000000	23.401900
608.000000	23.485900
607.000000	23.580800
606.000000	23.666400
605.000000	23.736200
604.000000	23.809500
603.000000	23.904200
602.000000	23.995000
601.000000	24.085300
600.000000	24.169400
599.000000	24.270600
598.000000	24.341200
597.000000	24.423200
596.000000	24.517100
595.000000	24.607600
594.000000	24.699700
593.000000	24.783900
592.000000	24.865700
591.000000	24.948600
590.000000	25.035000
589.000000	25.123800
588.000000	25.193900
587.000000	25.267900
586.000000	25.318900
585.000000	25.388800
584.000000	25.442600
583.000000	25.470300
582.000000	25.533000
581.000000	25.574300
580.000000	25.623100
579.000000	25.635800
578.000000	25.676400
577.000000	25.698400
576.000000	25.700800
575.000000	25.699000
574.000000	25.684800
573.000000	25.673700
572.000000	25.657000
571.000000	25.626100
570.000000	25.597900
569.000000	25.548000
568.000000	25.500400
567.000000	25.466100
566.000000	25.388100
565.000000	25.322400
564.000000	25.241800
563.000000	25.166200
562.000000	25.069200
561.000000	24.962400
560.000000	24.852400
559.000000	24.705600
558.000000	24.558500
557.000000	24.419200
556.000000	24.277500
555.000000	24.133400
554.000000	23.979000
553.000000	23.819100
552.000000	23.664100
551.000000	23.500000
550.000000	23.310600
549.000000	23.105400
548.000000	22.895300
547.000000	22.691200
546.000000	22.474400
545.000000	22.250600
544.000000	22.016900
543.000000	21.782900
542.000000	21.554300
541.000000	21.282300
540.000000	21.021400
539.000000	20.760000
538.000000	20.509000
537.000000	20.253800
536.000000	19.963600
535.000000	19.683600
534.000000	19.402300
533.000000	19.108700
532.000000	18.821100
531.000000	18.521800
530.000000	18.209700
529.000000	17.918900
528.000000	17.609900
527.000000	17.314600
526.000000	17.001400
525.000000	16.701000
524.000000	16.381100
523.000000	16.085500
522.000000	15.782800
521.000000	15.463800
520.000000	15.171900
519.000000	14.880300
518.000000	14.589400
517.000000	14.294000
516.000000	14.031200
515.000000	13.759400
514.000000	13.482400
513.000000	13.216000
512.000000	12.982100
511.000000	12.734200
510.000000	12.491900
509.000000	12.279000
508.000000	12.070100
507.000000	11.883100
506.000000	11.667500
505.000000	11.510600
504.000000	11.310000
503.000000	11.161900
502.000000	10.981200
501.000000	10.844600
500.000000	10.691800
499.000000	10.556800
498.000000	10.429500
497.000000	10.308500
496.000000	10.204400
495.000000	10.081600
494.000000	10.005200
493.000000	9.888800
492.000000	9.805300
491.000000	9.704200
490.000000	9.635000
489.000000	9.556200
488.000000	9.492300
487.000000	9.440800
486.000000	9.356900
485.000000	9.294200
484.000000	9.226800
483.000000	9.180500
482.000000	9.113300
481.000000	9.030600
480.000000	8.951400
479.000000	8.884800
478.000000	8.811200
477.000000	8.730100
476.000000	8.671700
475.000000	8.602100
474.000000	8.535900
473.000000	8.475500
472.000000	8.426700
471.000000	8.362100
470.000000	8.291500
469.000000	8.234400
468.000000	8.187100
467.000000	8.131600
466.000000	8.083100
465.000000	8.033900
464.000000	7.995800
463.000000	7.947900
462.000000	7.893900
461.000000	7.834500
460.000000	7.797900
459.000000	7.754500
458.000000	7.695300
457.000000	7.673100
456.000000	7.620900
455.000000	7.587800
454.000000	7.541800
453.000000	7.502200
452.000000	7.449100
451.000000	7.425500
450.000000	7.382500
449.000000	7.348400
448.000000	7.305600
447.000000	7.262600
446.000000	7.233600
445.000000	7.176400
444.000000	7.160800
443.000000	7.109800
442.000000	7.064800
441.000000	7.029500
440.000000	7.002800
439.000000	6.965400
438.000000	6.930900
437.000000	6.866400
436.000000	6.843700
435.000000	6.818500
434.000000	6.780800
433.000000	6.754500
432.000000	6.722700
431.000000	6.698100
430.000000	6.651400
429.000000	6.626200
428.000000	6.594400
427.000000	6.558900
426.000000	6.565900
425.000000	6.522300
424.000000	6.480400
423.000000	6.462600
422.000000	6.444200
421.000000	6.412100
420.000000	6.378400
419.000000	6.361800
418.000000	6.341000
417.000000	6.308800
416.000000	6.279800
415.000000	6.241000
414.000000	6.213100
413.000000	6.178800
412.000000	6.157000
411.000000	6.121300
410.000000	6.096400
409.000000	6.077400
408.000000	6.049100
407.000000	6.006400
406.000000	5.982400
405.000000	5.941600
404.000000	5.903400
403.000000	5.850200
402.000000	5.808700
401.000000	5.775400
400.000000	5.733400
399.000000	5.697100
398.000000	5.655700
397.000000	5.602500
396.000000	5.566800
395.000000	5.519500
394.000000	5.476200
393.000000	5.439000
392.000000	5.372000
391.000000	5.335700
390.000000	5.278500
389.000000	5.234600
388.000000	5.196200
387.000000	5.137600
386.000000	5.104800
385.000000	5.044200
384.000000	4.975100
383.000000	4.931900
382.000000	4.895700
381.000000	4.852500
380.000000	4.793200
379.000000	4.760900
378.000000	4.718100
377.000000	4.671700
376.000000	4.430100
375.000000	4.041500
374.000000	3.971100
373.000000	4.047000
372.000000	4.167400
371.000000	4.136400
370.000000	3.975100
369.000000	4.030300
368.000000	4.109700
367.000000	3.953400
366.000000	4.051200
365.000000	4.116300
364.000000	4.133000
363.000000	4.093900
362.000000	4.225800
361.000000	4.110100
360.000000	4.042900
359.000000	4.221300
358.000000	4.181300
357.000000	4.128500
356.000000	4.016900
355.000000	3.988800
354.000000	4.032200
353.000000	3.986500
352.000000	4.011200
351.000000	4.027500
350.000000	3.998800
349.000000	3.932600
348.000000	3.982800
347.000000	3.943700
346.000000	3.886400
345.000000	4.091800
344.000000	4.072000
343.000000	3.914300
342.000000	3.990300
341.000000	4.065200
340.000000	4.094600
339.000000	4.081800
338.000000	4.034100
337.000000	4.088300
336.000000	4.020300
335.000000	4.070300
334.000000	4.209600
333.000000	4.138600
332.000000	4.427200
331.000000	4.413700
330.000000	4.183600
329.000000	4.283000
328.000000	4.453100
327.000000	4.678300
326.000000	4.470900
325.000000	4.283300
324.000000	4.260200
323.000000	4.254400
322.000000	4.341100
321.000000	4.552900
320.000000	4.874700
319.000000	5.230100
318.000000	5.174100
317.000000	5.055000
316.000000	4.412900
315.000000	3.893400
314.000000	3.906700
313.000000	3.899300
312.000000	3.928900
311.000000	3.928300
310.000000	3.939800
309.000000	3.947200
308.000000	3.910100
307.000000	3.908500
306.000000	3.897700
305.000000	3.948200
304.000000	3.943100
303.000000	3.948300
302.000000	3.935500
301.000000	3.932100
300.000000	3.957100
299.000000	3.931900
298.000000	3.921800
297.000000	3.915000
296.000000	3.961400
295.000000	3.971200
294.000000	3.976700
293.000000	3.979800
292.000000	3.982700
291.000000	4.007900
290.000000	3.998200
289.000000	4.002600
288.000000	3.986600
287.000000	4.028200
286.000000	4.026300
285.000000	4.013900
284.000000	4.002500
283.000000	4.004200
282.000000	4.020300
281.000000	4.065100
280.000000	4.075800
279.000000	4.042100
278.000000	3.985200
277.000000	4.037100
276.000000	4.075000
275.000000	4.081700
274.000000	4.101800
273.000000	4.116800
272.000000	4.120100
271.000000	4.144000
270.000000	4.140200
269.000000	4.163200
268.000000	4.149800
267.000000	4.154800
266.000000	4.180500
265.000000	4.186700
264.000000	4.245100
263.000000	4.244500
262.000000	4.275500
261.000000	4.291600
260.000000	4.309100
259.000000	4.316200
258.000000	4.326900
257.000000	4.297000
256.000000	4.332200
255.000000	4.361900
254.000000	4.374600
253.000000	4.378800
252.000000	4.379000
251.000000	4.381700
250.000000	4.379400
