PE UV       SUBTECH     SPECTRUM    ASCII       PEDS        4.00        
   -1
CICIMAUCR0260-3.ASC
24/07/01
16:48:21.00
24/07/01
16:48:21.00
Vinicio Soto Monge
C. resplendens. Sex F. Ventral
250,000000
1
Lambda 1050
1050L1511233
PerkinElmer UV WinLab 6.3.2.0749 / 2.02.05 Lambda 900 UV/VIS/NIR, Aug  7 2015 09:38:08

0
0
3350/servo 860,8/2
0
0
UV/VIS
1
1
1
DoubleDePol,CommonBeamDepol,RBeamAtt,SBeamAtt,60mm sphere, WB InGaAs Detector
0
0
0
0
Program
Program
3350/servo 860,8/2
3350/0,2 860,8/0,2
3350/0,2 860,8/0,2
0
15.00
 
 
 
0
 
860,8
319,2
860,8
Front
100
on
S:100 R:100
0
0
0
0
 
0
 
 
 
0
 
 
0
0
0
0
0
 
 
 
 
0
0


0
0
#HDR
-1
-1
#GR
nm
%R
1.0
0.0
2500,000000
-1,000000
2251
8
62,063100
4,168500
#DATA
2482.000000	5.716871
2481.000000	5.700831
2480.000000	5.712673
2479.000000	5.724729
2478.000000	5.732049
2477.000000	5.756808
2476.000000	5.708905
2475.000000	5.713641
2474.000000	5.692650
2473.000000	5.745828
2472.000000	5.722146
2471.000000	5.735063
2470.000000	5.752718
2469.000000	5.680916
2468.000000	5.680163
2467.000000	5.730865
2466.000000	5.717840
2465.000000	5.748519
2464.000000	5.737109
2463.000000	5.743029
2462.000000	5.754763
2461.000000	5.749165
2460.000000	5.775647
2459.000000	5.775862
2458.000000	5.797607
2457.000000	5.798791
2456.000000	5.841420
2455.000000	5.859074
2454.000000	5.851969
2453.000000	5.882326
2452.000000	5.913867
2451.000000	5.911606
2450.000000	5.923878
2449.000000	5.972535
2448.000000	6.002354
2447.000000	6.024960
2446.000000	6.030665
2445.000000	6.046167
2444.000000	6.077600
2443.000000	6.124534
2442.000000	6.122166
2441.000000	6.176421
2440.000000	6.224540
2439.000000	6.228200
2438.000000	6.238534
2437.000000	6.265984
2436.000000	6.300862
2435.000000	6.322499
2434.000000	6.344675
2433.000000	6.385043
2432.000000	6.392686
2431.000000	6.412386
2430.000000	6.444465
2429.000000	6.444034
2428.000000	6.465564
2427.000000	6.486125
2426.000000	6.549422
2425.000000	6.553405
2424.000000	6.541563
2423.000000	6.577087
2422.000000	6.609920
2421.000000	6.629297
2420.000000	6.629404
2419.000000	6.633926
2418.000000	6.654594
2417.000000	6.680537
2416.000000	6.688826
2415.000000	6.714123
2414.000000	6.733392
2413.000000	6.734146
2412.000000	6.764180
2411.000000	6.781726
2410.000000	6.782157
2409.000000	6.801103
2408.000000	6.808746
2407.000000	6.820265
2406.000000	6.836412
2405.000000	6.843624
2404.000000	6.862140
2403.000000	6.883023
2402.000000	6.891420
2401.000000	6.901862
2400.000000	6.938677
2399.000000	6.951703
2398.000000	6.941692
2397.000000	6.955901
2396.000000	6.976893
2395.000000	6.990994
2394.000000	6.994977
2393.000000	7.000683
2392.000000	7.004881
2391.000000	7.029425
2390.000000	7.052139
2389.000000	7.043527
2388.000000	7.047294
2387.000000	7.058490
2386.000000	7.076790
2385.000000	7.086155
2384.000000	7.082818
2383.000000	7.080881
2382.000000	7.088631
2381.000000	7.103056
2380.000000	7.114790
2379.000000	7.099504
2378.000000	7.103272
2377.000000	7.110592
2376.000000	7.091646
2375.000000	7.083787
2374.000000	7.084325
2373.000000	7.091000
2372.000000	7.088308
2371.000000	7.074960
2370.000000	7.071408
2369.000000	7.072054
2368.000000	7.066994
2367.000000	7.060966
2366.000000	7.051708
2365.000000	7.043527
2364.000000	7.033731
2363.000000	7.018660
2362.000000	7.008649
2361.000000	7.004881
2360.000000	6.992825
2359.000000	6.983890
2358.000000	6.962791
2357.000000	6.940830
2356.000000	6.936202
2355.000000	6.920054
2354.000000	6.907029
2353.000000	6.917578
2352.000000	6.923822
2351.000000	6.920593
2350.000000	6.922853
2349.000000	6.913057
2348.000000	6.925975
2347.000000	6.939862
2346.000000	6.947397
2345.000000	6.959238
2344.000000	6.961499
2343.000000	6.972910
2342.000000	7.009295
2341.000000	7.022212
2340.000000	7.005096
2339.000000	7.020705
2338.000000	7.041697
2337.000000	7.049017
2336.000000	7.048263
2335.000000	7.047833
2334.000000	7.061073
2333.000000	7.059997
2332.000000	7.052569
2331.000000	7.051062
2330.000000	7.049125
2329.000000	7.040728
2328.000000	7.019737
2327.000000	7.023181
2326.000000	7.023720
2325.000000	6.997453
2324.000000	6.974847
2323.000000	6.972048
2322.000000	6.945352
2321.000000	6.929312
2320.000000	6.916717
2319.000000	6.903046
2318.000000	6.872259
2317.000000	6.834905
2316.000000	6.792384
2315.000000	6.751908
2314.000000	6.751908
2313.000000	6.714339
2312.000000	6.696146
2311.000000	6.650826
2310.000000	6.624130
2309.000000	6.603138
2308.000000	6.594849
2307.000000	6.590543
2306.000000	6.561155
2305.000000	6.547484
2304.000000	6.555127
2303.000000	6.559648
2302.000000	6.570951
2301.000000	6.566753
2300.000000	6.575042
2299.000000	6.598617
2298.000000	6.632849
2297.000000	6.648027
2296.000000	6.682475
2295.000000	6.683444
2294.000000	6.728548
2293.000000	6.751154
2292.000000	6.774191
2291.000000	6.794429
2290.000000	6.826400
2289.000000	6.834689
2288.000000	6.849437
2287.000000	6.853205
2286.000000	6.853420
2285.000000	6.871182
2284.000000	6.873550
2283.000000	6.860956
2282.000000	6.860417
2281.000000	6.847822
2280.000000	6.834797
2279.000000	6.835766
2278.000000	6.829630
2277.000000	6.805517
2276.000000	6.769885
2275.000000	6.793998
2274.000000	6.796474
2273.000000	6.754922
2272.000000	6.762457
2271.000000	6.746095
2270.000000	6.751262
2269.000000	6.763642
2268.000000	6.771069
2267.000000	6.796367
2266.000000	6.819188
2265.000000	6.855896
2264.000000	6.896695
2263.000000	6.935771
2262.000000	6.971510
2261.000000	7.040297
2260.000000	7.126201
2259.000000	7.189928
2258.000000	7.274863
2257.000000	7.366256
2256.000000	7.450544
2255.000000	7.555286
2254.000000	7.649155
2253.000000	7.729999
2252.000000	7.837863
2251.000000	7.926349
2250.000000	8.026355
2249.000000	8.129266
2248.000000	8.225073
2247.000000	8.301503
2246.000000	8.370075
2245.000000	8.463298
2244.000000	8.552754
2243.000000	8.618958
2242.000000	8.668583
2241.000000	8.721331
2240.000000	8.766005
2239.000000	8.821982
2238.000000	8.868486
2237.000000	8.919511
2236.000000	8.950083
2235.000000	8.988729
2234.000000	9.032004
2233.000000	9.048258
2232.000000	9.092287
2231.000000	9.073663
2230.000000	9.115000
2229.000000	9.129963
2228.000000	9.139867
2227.000000	9.141912
2226.000000	9.133946
2225.000000	9.136745
2224.000000	9.147187
2223.000000	9.158275
2222.000000	9.122105
2221.000000	9.124473
2220.000000	9.095624
2219.000000	9.117369
2218.000000	9.051165
2217.000000	9.059777
2216.000000	9.028667
2215.000000	9.034049
2214.000000	9.009613
2213.000000	8.969675
2212.000000	8.954389
2211.000000	8.964185
2210.000000	8.915098
2209.000000	8.909069
2208.000000	8.905302
2207.000000	8.873761
2206.000000	8.875698
2205.000000	8.839529
2204.000000	8.844265
2203.000000	8.832962
2202.000000	8.840713
2201.000000	8.824781
2200.000000	8.797115
2199.000000	8.795501
2198.000000	8.782152
2197.000000	8.771387
2196.000000	8.758470
2195.000000	8.749965
2194.000000	8.757931
2193.000000	8.753625
2192.000000	8.748889
2191.000000	8.761376
2190.000000	8.740492
2189.000000	8.732634
2188.000000	8.736940
2187.000000	8.708951
2186.000000	8.717563
2185.000000	8.704000
2184.000000	8.705184
2183.000000	8.699478
2182.000000	8.693665
2181.000000	8.668906
2180.000000	8.662555
2179.000000	8.652867
2178.000000	8.654482
2177.000000	8.645977
2176.000000	8.638011
2175.000000	8.646085
2174.000000	8.604640
2173.000000	8.620357
2172.000000	8.640703
2171.000000	8.638442
2170.000000	8.619819
2169.000000	8.631552
2168.000000	8.659003
2167.000000	8.649207
2166.000000	8.642317
2165.000000	8.655450
2164.000000	8.656419
2163.000000	8.659864
2162.000000	8.678595
2161.000000	8.676011
2160.000000	8.714011
2159.000000	8.729728
2158.000000	8.748458
2157.000000	8.754164
2156.000000	8.770526
2155.000000	8.800668
2154.000000	8.836945
2153.000000	8.849432
2152.000000	8.882373
2151.000000	8.886894
2150.000000	8.913914
2149.000000	8.944916
2148.000000	8.959449
2147.000000	8.986038
2146.000000	9.001970
2145.000000	9.043091
2144.000000	9.069896
2143.000000	9.087981
2142.000000	9.119737
2141.000000	9.138252
2140.000000	9.153754
2139.000000	9.183034
2138.000000	9.200904
2137.000000	9.212314
2136.000000	9.255051
2135.000000	9.259141
2134.000000	9.276150
2133.000000	9.299832
2132.000000	9.309198
2131.000000	9.303708
2130.000000	9.308767
2129.000000	9.318132
2128.000000	9.340739
2127.000000	9.365605
2126.000000	9.361515
2125.000000	9.351073
2124.000000	9.355271
2123.000000	9.356132
2122.000000	9.356670
2121.000000	9.363560
2120.000000	9.363991
2119.000000	9.378738
2118.000000	9.356670
2117.000000	9.337079
2116.000000	9.338370
2115.000000	9.340523
2114.000000	9.338263
2113.000000	9.325130
2112.000000	9.305538
2111.000000	9.300693
2110.000000	9.289498
2109.000000	9.286053
2108.000000	9.278518
2107.000000	9.270014
2106.000000	9.256450
2105.000000	9.229753
2104.000000	9.216513
2103.000000	9.217697
2102.000000	9.203379
2101.000000	9.190677
2100.000000	9.176252
2099.000000	9.158706
2098.000000	9.153754
2097.000000	9.156553
2096.000000	9.135776
2095.000000	9.126196
2094.000000	9.124043
2093.000000	9.114462
2092.000000	9.097669
2091.000000	9.079046
2090.000000	9.083459
2089.000000	9.075063
2088.000000	9.049443
2087.000000	9.048689
2086.000000	9.048904
2085.000000	9.032434
2084.000000	9.006814
2083.000000	8.984854
2082.000000	8.977964
2081.000000	8.970644
2080.000000	8.949545
2079.000000	8.928338
2078.000000	8.914452
2077.000000	8.890877
2076.000000	8.856860
2075.000000	8.842973
2074.000000	8.813370
2073.000000	8.786028
2072.000000	8.757178
2071.000000	8.726068
2070.000000	8.701847
2069.000000	8.675904
2068.000000	8.645331
2067.000000	8.609485
2066.000000	8.566641
2065.000000	8.525627
2064.000000	8.497100
2063.000000	8.465344
2062.000000	8.431219
2061.000000	8.406891
2060.000000	8.390313
2059.000000	8.354466
2058.000000	8.333798
2057.000000	8.331106
2056.000000	8.327769
2055.000000	8.313345
2054.000000	8.298489
2053.000000	8.303979
2052.000000	8.298058
2051.000000	8.315928
2050.000000	8.321956
2049.000000	8.328738
2048.000000	8.356188
2047.000000	8.392143
2046.000000	8.433910
2045.000000	8.467604
2044.000000	8.502159
2043.000000	8.535423
2042.000000	8.561796
2041.000000	8.604317
2040.000000	8.643394
2039.000000	8.672566
2038.000000	8.715087
2037.000000	8.739093
2036.000000	8.761914
2035.000000	8.802282
2034.000000	8.846741
2033.000000	8.868271
2032.000000	8.892276
2031.000000	8.904441
2030.000000	8.918220
2029.000000	8.945132
2028.000000	8.951590
2027.000000	8.975058
2026.000000	8.989913
2025.000000	8.999386
2024.000000	9.019839
2023.000000	9.013488
2022.000000	9.015641
2021.000000	9.023176
2020.000000	9.018548
2019.000000	9.035879
2018.000000	9.038678
2017.000000	9.030174
2016.000000	9.025545
2015.000000	9.029958
2014.000000	9.022100
2013.000000	9.025329
2012.000000	9.029635
2011.000000	8.998633
2010.000000	8.967522
2009.000000	8.985177
2008.000000	8.962894
2007.000000	8.947930
2006.000000	8.928338
2005.000000	8.911330
2004.000000	8.897228
2003.000000	8.870962
2002.000000	8.842435
2001.000000	8.822305
2000.000000	8.805189
1999.000000	8.758685
1998.000000	8.734034
1997.000000	8.708198
1996.000000	8.672136
1995.000000	8.635751
1994.000000	8.624878
1993.000000	8.581604
1992.000000	8.536284
1991.000000	8.503236
1990.000000	8.474924
1989.000000	8.443599
1988.000000	8.410551
1987.000000	8.355112
1986.000000	8.316036
1985.000000	8.299135
1984.000000	8.271254
1983.000000	8.229702
1982.000000	8.175340
1981.000000	8.146059
1980.000000	8.118286
1979.000000	8.062201
1978.000000	8.037765
1977.000000	8.019788
1976.000000	7.974145
1975.000000	7.918706
1974.000000	7.891471
1973.000000	7.877908
1972.000000	7.829358
1971.000000	7.798894
1970.000000	7.774781
1969.000000	7.730537
1968.000000	7.705994
1967.000000	7.659597
1966.000000	7.645065
1965.000000	7.612770
1964.000000	7.596946
1963.000000	7.548612
1962.000000	7.522346
1961.000000	7.506091
1960.000000	7.465077
1959.000000	7.442363
1958.000000	7.393922
1957.000000	7.392953
1956.000000	7.351508
1955.000000	7.335576
1954.000000	7.303928
1953.000000	7.290364
1952.000000	7.243537
1951.000000	7.217917
1950.000000	7.216517
1949.000000	7.188959
1948.000000	7.173028
1947.000000	7.128999
1946.000000	7.108331
1945.000000	7.103487
1944.000000	7.075175
1943.000000	7.067748
1942.000000	7.084110
1941.000000	7.048694
1940.000000	7.039329
1939.000000	7.039006
1938.000000	7.034915
1937.000000	7.002513
1936.000000	7.011663
1935.000000	7.026949
1934.000000	7.030717
1933.000000	7.023181
1932.000000	7.039436
1931.000000	7.075175
1930.000000	7.050739
1929.000000	7.092507
1928.000000	7.122002
1927.000000	7.129753
1926.000000	7.155589
1925.000000	7.174319
1924.000000	7.216087
1923.000000	7.246121
1922.000000	7.298007
1921.000000	7.328256
1920.000000	7.394998
1919.000000	7.422448
1918.000000	7.462924
1917.000000	7.552380
1916.000000	7.618476
1915.000000	7.674022
1914.000000	7.732583
1913.000000	7.793834
1912.000000	7.898038
1911.000000	7.969086
1910.000000	8.020864
1909.000000	8.128620
1908.000000	8.241328
1907.000000	8.333475
1906.000000	8.428097
1905.000000	8.559751
1904.000000	8.676226
1903.000000	8.810464
1902.000000	8.949222
1901.000000	9.086581
1900.000000	9.236212
1899.000000	9.387027
1898.000000	9.553236
1897.000000	9.750986
1896.000000	9.906860
1895.000000	10.095245
1894.000000	10.281906
1893.000000	10.490098
1892.000000	10.702595
1891.000000	10.963212
1890.000000	11.197239
1889.000000	11.438694
1888.000000	11.696403
1887.000000	11.977042
1886.000000	12.266293
1885.000000	12.567492
1884.000000	12.899371
1883.000000	13.243523
1882.000000	13.605543
1881.000000	13.955400
1880.000000	14.320112
1879.000000	14.685900
1878.000000	15.069343
1877.000000	15.441913
1876.000000	15.795645
1875.000000	16.157989
1874.000000	16.543908
1873.000000	16.893549
1872.000000	17.239422
1871.000000	17.588525
1870.000000	17.921266
1869.000000	18.223649
1868.000000	18.545517
1867.000000	18.808610
1866.000000	19.040807
1865.000000	19.246738
1864.000000	19.464079
1863.000000	19.653971
1862.000000	19.833635
1861.000000	20.014269
1860.000000	20.189305
1859.000000	20.345718
1858.000000	20.504929
1857.000000	20.642288
1856.000000	20.754888
1855.000000	20.829273
1854.000000	20.911193
1853.000000	21.001941
1852.000000	21.045431
1851.000000	21.100870
1850.000000	21.149849
1849.000000	21.193985
1848.000000	21.215622
1847.000000	21.246733
1846.000000	21.251469
1845.000000	21.244257
1844.000000	21.226603
1843.000000	21.211424
1842.000000	21.257713
1841.000000	21.278704
1840.000000	21.272676
1839.000000	21.261265
1838.000000	21.253407
1837.000000	21.224880
1836.000000	21.195708
1835.000000	21.173317
1834.000000	21.138008
1833.000000	21.098609
1832.000000	21.061686
1831.000000	21.022932
1830.000000	20.987947
1829.000000	20.955006
1828.000000	20.913346
1827.000000	20.864582
1826.000000	20.796010
1825.000000	20.746922
1824.000000	20.703432
1823.000000	20.661773
1822.000000	20.647455
1821.000000	20.640781
1820.000000	20.605042
1819.000000	20.580391
1818.000000	20.539807
1817.000000	20.491366
1816.000000	20.469621
1815.000000	20.476510
1814.000000	20.459286
1813.000000	20.436573
1812.000000	20.427746
1811.000000	20.394482
1810.000000	20.364879
1809.000000	20.330755
1808.000000	20.284681
1807.000000	20.267457
1806.000000	20.242375
1805.000000	20.184676
1804.000000	20.138818
1803.000000	20.114059
1802.000000	20.072184
1801.000000	20.031708
1800.000000	19.989402
1799.000000	19.930303
1798.000000	19.880247
1797.000000	19.829329
1796.000000	19.784655
1795.000000	19.750531
1794.000000	19.715976
1793.000000	19.674424
1792.000000	19.630719
1791.000000	19.590135
1790.000000	19.549982
1789.000000	19.501648
1788.000000	19.454176
1787.000000	19.408102
1786.000000	19.351802
1785.000000	19.305944
1784.000000	19.261701
1783.000000	19.215950
1782.000000	19.162557
1781.000000	19.111101
1780.000000	19.056523
1779.000000	18.990427
1778.000000	18.944569
1777.000000	18.897419
1776.000000	18.835522
1775.000000	18.777930
1774.000000	18.724321
1773.000000	18.658010
1772.000000	18.565540
1771.000000	18.487172
1770.000000	18.414725
1769.000000	18.342708
1768.000000	18.282102
1767.000000	18.207502
1766.000000	18.137423
1765.000000	18.072189
1764.000000	18.034296
1763.000000	17.999418
1762.000000	17.963249
1761.000000	17.967554
1760.000000	18.001571
1759.000000	18.014381
1758.000000	18.059378
1757.000000	18.113633
1756.000000	18.177038
1755.000000	18.245071
1754.000000	18.282210
1753.000000	18.312890
1752.000000	18.351751
1751.000000	18.379309
1750.000000	18.382753
1749.000000	18.371127
1748.000000	18.364884
1747.000000	18.335819
1746.000000	18.308907
1745.000000	18.257128
1744.000000	18.195446
1743.000000	18.126120
1742.000000	18.024500
1741.000000	17.938705
1740.000000	17.807051
1739.000000	17.662480
1738.000000	17.509835
1737.000000	17.382702
1736.000000	17.246635
1735.000000	17.140494
1734.000000	17.057066
1733.000000	16.987203
1732.000000	16.960829
1731.000000	16.940914
1730.000000	16.950602
1729.000000	17.006902
1728.000000	17.058896
1727.000000	17.100126
1726.000000	17.188828
1725.000000	17.252125
1724.000000	17.325971
1723.000000	17.383886
1722.000000	17.429206
1721.000000	17.477432
1720.000000	17.528027
1719.000000	17.583574
1718.000000	17.635783
1717.000000	17.710168
1716.000000	17.779170
1715.000000	17.855493
1714.000000	17.929985
1713.000000	18.003294
1712.000000	18.093610
1711.000000	18.168426
1710.000000	18.217944
1709.000000	18.254114
1708.000000	18.282533
1707.000000	18.311490
1706.000000	18.286516
1705.000000	18.263802
1704.000000	18.226987
1703.000000	18.198029
1702.000000	18.144420
1701.000000	18.071435
1700.000000	17.983486
1699.000000	17.889187
1698.000000	17.792411
1697.000000	17.677981
1696.000000	17.564089
1695.000000	17.516078
1694.000000	17.486583
1693.000000	17.480447
1692.000000	17.494226
1691.000000	17.578191
1690.000000	17.674967
1689.000000	17.777448
1688.000000	17.881867
1687.000000	17.948070
1686.000000	18.034081
1685.000000	18.113633
1684.000000	18.181128
1683.000000	18.270369
1682.000000	18.398685
1681.000000	18.614951
1680.000000	18.870723
1679.000000	19.192806
1678.000000	19.557410
1677.000000	19.944621
1676.000000	20.307718
1675.000000	20.711398
1674.000000	21.045323
1673.000000	21.370743
1672.000000	21.615751
1671.000000	21.857528
1670.000000	22.053448
1669.000000	22.244847
1668.000000	22.411594
1667.000000	22.559287
1666.000000	22.690079
1665.000000	22.787609
1664.000000	22.905376
1663.000000	22.976746
1662.000000	23.061035
1661.000000	23.113890
1660.000000	23.184400
1659.000000	23.228320
1658.000000	23.278807
1657.000000	23.307011
1656.000000	23.323804
1655.000000	23.328648
1654.000000	23.334784
1653.000000	23.348994
1652.000000	23.334999
1651.000000	23.315085
1650.000000	23.289141
1649.000000	23.269980
1648.000000	23.235963
1647.000000	23.211204
1646.000000	23.184615
1645.000000	23.130037
1644.000000	23.071692
1643.000000	23.042519
1642.000000	22.995047
1641.000000	22.943806
1640.000000	22.891274
1639.000000	22.838849
1638.000000	22.792560
1637.000000	22.730663
1636.000000	22.671564
1635.000000	22.603638
1634.000000	22.552613
1633.000000	22.484041
1632.000000	22.398999
1631.000000	22.333441
1630.000000	22.260778
1629.000000	22.193068
1628.000000	22.124388
1627.000000	22.053986
1626.000000	21.970021
1625.000000	21.907585
1624.000000	21.822005
1623.000000	21.746220
1622.000000	21.660532
1621.000000	21.614567
1620.000000	21.540505
1619.000000	21.458800
1618.000000	21.383661
1617.000000	21.323809
1616.000000	21.246733
1615.000000	21.189787
1614.000000	21.111850
1613.000000	21.059533
1612.000000	20.995267
1611.000000	20.904196
1610.000000	20.827228
1609.000000	20.785460
1608.000000	20.716027
1607.000000	20.636798
1606.000000	20.565320
1605.000000	20.517094
1604.000000	20.449813
1603.000000	20.366601
1602.000000	20.276069
1601.000000	20.213741
1600.000000	20.141186
1599.000000	20.075198
1598.000000	20.005119
1597.000000	19.929012
1596.000000	19.864530
1595.000000	19.800049
1594.000000	19.729863
1593.000000	19.656554
1592.000000	19.597025
1591.000000	19.539864
1590.000000	19.484102
1589.000000	19.424572
1588.000000	19.378284
1587.000000	19.330811
1586.000000	19.284953
1585.000000	19.224777
1584.000000	19.166217
1583.000000	19.118206
1582.000000	19.064166
1581.000000	19.013033
1580.000000	18.957487
1579.000000	18.924331
1578.000000	18.886224
1577.000000	18.847794
1576.000000	18.809363
1575.000000	18.792785
1574.000000	18.748650
1573.000000	18.704299
1572.000000	18.684276
1571.000000	18.664361
1570.000000	18.641540
1569.000000	18.646384
1568.000000	18.642401
1567.000000	18.614951
1566.000000	18.598373
1565.000000	18.581687
1564.000000	18.565432
1563.000000	18.546702
1562.000000	18.555852
1561.000000	18.527217
1560.000000	18.496860
1559.000000	18.479960
1558.000000	18.454985
1557.000000	18.428612
1556.000000	18.394379
1555.000000	18.364561
1554.000000	18.332482
1553.000000	18.301264
1552.000000	18.256375
1551.000000	18.216437
1550.000000	18.169933
1549.000000	18.124075
1548.000000	18.068421
1547.000000	18.037095
1546.000000	17.998450
1545.000000	17.946240
1544.000000	17.904365
1543.000000	17.854309
1542.000000	17.820722
1541.000000	17.794456
1540.000000	17.767329
1539.000000	17.731482
1538.000000	17.699834
1537.000000	17.670984
1536.000000	17.641273
1535.000000	17.617806
1534.000000	17.572486
1533.000000	17.530072
1532.000000	17.482600
1531.000000	17.444923
1530.000000	17.401756
1529.000000	17.349546
1528.000000	17.295076
1527.000000	17.247388
1526.000000	17.214986
1525.000000	17.163207
1524.000000	17.109060
1523.000000	17.054698
1522.000000	17.007763
1521.000000	16.960398
1520.000000	16.905282
1519.000000	16.849951
1518.000000	16.800971
1517.000000	16.742949
1516.000000	16.670179
1515.000000	16.619800
1514.000000	16.579431
1513.000000	16.518395
1512.000000	16.458112
1511.000000	16.397937
1510.000000	16.346588
1509.000000	16.284153
1508.000000	16.210414
1507.000000	16.153037
1506.000000	16.102012
1505.000000	16.045820
1504.000000	15.981661
1503.000000	15.927514
1502.000000	15.878104
1501.000000	15.818790
1500.000000	15.759906
1499.000000	15.702530
1498.000000	15.655595
1497.000000	15.612536
1496.000000	15.570230
1495.000000	15.522004
1494.000000	15.472162
1493.000000	15.436854
1492.000000	15.412418
1491.000000	15.374418
1490.000000	15.336418
1489.000000	15.308107
1488.000000	15.255897
1487.000000	15.225218
1486.000000	15.202719
1485.000000	15.172685
1484.000000	15.156107
1483.000000	15.130703
1482.000000	15.104221
1481.000000	15.083337
1480.000000	15.053088
1479.000000	15.014658
1478.000000	15.003032
1477.000000	14.992052
1476.000000	14.976335
1475.000000	14.970307
1474.000000	14.968477
1473.000000	14.958035
1472.000000	14.969553
1471.000000	14.973859
1470.000000	14.966862
1469.000000	14.943179
1468.000000	14.952007
1467.000000	14.957604
1466.000000	14.961910
1465.000000	14.978165
1464.000000	14.976227
1463.000000	14.984086
1462.000000	14.984516
1461.000000	15.018210
1460.000000	15.050612
1459.000000	15.075802
1458.000000	15.092918
1457.000000	15.106266
1456.000000	15.149649
1455.000000	15.202934
1454.000000	15.258589
1453.000000	15.279365
1452.000000	15.339432
1451.000000	15.398639
1450.000000	15.434916
1449.000000	15.494446
1448.000000	15.523403
1447.000000	15.580995
1446.000000	15.663023
1445.000000	15.724167
1444.000000	15.792523
1443.000000	15.833430
1442.000000	15.887146
1441.000000	15.963792
1440.000000	16.052601
1439.000000	16.119451
1438.000000	16.192867
1437.000000	16.270697
1436.000000	16.343897
1435.000000	16.438089
1434.000000	16.514950
1433.000000	16.611726
1432.000000	16.721958
1431.000000	16.828852
1430.000000	16.915078
1429.000000	17.034030
1428.000000	17.156103
1427.000000	17.273116
1426.000000	17.387331
1425.000000	17.543851
1424.000000	17.704247
1423.000000	17.858184
1422.000000	18.041078
1421.000000	18.224080
1420.000000	18.403637
1419.000000	18.603970
1418.000000	18.793431
1417.000000	19.000008
1416.000000	19.183010
1415.000000	19.414992
1414.000000	19.689387
1413.000000	19.958077
1412.000000	20.193180
1411.000000	20.423224
1410.000000	20.750798
1409.000000	21.073957
1408.000000	21.417247
1407.000000	21.745897
1406.000000	22.107810
1405.000000	22.475214
1404.000000	22.879863
1403.000000	23.264490
1402.000000	23.676352
1401.000000	24.071098
1400.000000	24.557883
1399.000000	25.009574
1398.000000	25.406473
1397.000000	25.728341
1396.000000	26.140956
1395.000000	26.639583
1394.000000	27.121846
1393.000000	27.500014
1392.000000	27.891208
1391.000000	28.394463
1390.000000	28.889429
1389.000000	29.345642
1388.000000	29.900353
1387.000000	30.501891
1386.000000	31.115486
1385.000000	31.723482
1384.000000	32.372278
1383.000000	33.012246
1382.000000	33.668792
1381.000000	34.328675
1380.000000	34.889738
1379.000000	35.300308
1378.000000	35.690425
1377.000000	35.996899
1376.000000	36.319198
1375.000000	36.589395
1374.000000	36.871756
1373.000000	37.181782
1372.000000	37.528948
1371.000000	37.900011
1370.000000	38.293034
1369.000000	38.644398
1368.000000	38.978107
1367.000000	39.323442
1366.000000	39.632285
1365.000000	39.850918
1364.000000	40.113257
1363.000000	40.340825
1362.000000	40.577651
1361.000000	40.781429
1360.000000	40.994895
1359.000000	41.067343
1358.000000	41.218911
1357.000000	41.376939
1356.000000	41.534859
1355.000000	41.751554
1354.000000	42.058352
1353.000000	42.416066
1352.000000	42.739119
1351.000000	43.224935
1350.000000	43.709351
1349.000000	44.157706
1348.000000	44.551052
1347.000000	45.019753
1346.000000	45.389416
1345.000000	45.780717
1344.000000	46.150812
1343.000000	46.551263
1342.000000	46.901012
1341.000000	47.283163
1340.000000	47.641954
1339.000000	47.981476
1338.000000	48.333486
1337.000000	48.696475
1336.000000	49.054298
1335.000000	49.400064
1334.000000	49.757025
1333.000000	50.079862
1332.000000	50.412925
1331.000000	50.742759
1330.000000	51.060537
1329.000000	51.368841
1328.000000	51.674777
1327.000000	51.986419
1326.000000	52.265012
1325.000000	52.550495
1324.000000	52.808635
1323.000000	53.075603
1322.000000	53.334927
1321.000000	53.571645
1320.000000	53.832154
1319.000000	54.051971
1318.000000	54.280939
1317.000000	54.492575
1316.000000	54.708410
1315.000000	54.913372
1314.000000	55.134158
1313.000000	55.319959
1312.000000	55.494134
1311.000000	55.670462
1310.000000	55.837532
1309.000000	55.994160
1308.000000	56.149496
1307.000000	56.287824
1306.000000	56.436055
1305.000000	56.544349
1304.000000	56.663085
1303.000000	56.769119
1302.000000	56.867724
1301.000000	56.950829
1300.000000	57.035763
1299.000000	57.116607
1298.000000	57.185071
1297.000000	57.239756
1296.000000	57.297025
1295.000000	57.343099
1294.000000	57.386481
1293.000000	57.440628
1292.000000	57.468509
1291.000000	57.493698
1290.000000	57.513936
1289.000000	57.519857
1288.000000	57.523948
1287.000000	57.518350
1286.000000	57.517596
1285.000000	57.498327
1284.000000	57.467540
1283.000000	57.444503
1282.000000	57.403166
1281.000000	57.365274
1280.000000	57.336532
1279.000000	57.293796
1278.000000	57.242232
1277.000000	57.218012
1276.000000	57.170323
1275.000000	57.135122
1274.000000	57.094216
1273.000000	57.067519
1272.000000	57.037916
1271.000000	57.001423
1270.000000	56.973866
1269.000000	56.958795
1268.000000	56.941679
1267.000000	56.901418
1266.000000	56.862988
1265.000000	56.823696
1264.000000	56.787742
1263.000000	56.748666
1262.000000	56.704422
1261.000000	56.659210
1260.000000	56.610015
1259.000000	56.560927
1258.000000	56.507857
1257.000000	56.463506
1256.000000	56.413880
1255.000000	56.355965
1254.000000	56.285133
1253.000000	56.217960
1252.000000	56.144221
1251.000000	56.055519
1250.000000	55.961865
1249.000000	55.866381
1248.000000	55.786829
1247.000000	55.689731
1246.000000	55.566796
1245.000000	55.454950
1244.000000	55.333953
1243.000000	55.207359
1242.000000	55.103694
1241.000000	54.981513
1240.000000	54.834466
1239.000000	54.690648
1238.000000	54.561255
1237.000000	54.434445
1236.000000	54.284061
1235.000000	54.144549
1234.000000	54.010096
1233.000000	53.855298
1232.000000	53.697917
1231.000000	53.535045
1230.000000	53.369805
1229.000000	53.210378
1228.000000	53.034481
1227.000000	52.852017
1226.000000	52.678058
1225.000000	52.499577
1224.000000	52.303658
1223.000000	52.109676
1222.000000	51.913325
1221.000000	51.724188
1220.000000	51.547645
1219.000000	51.347204
1218.000000	51.147301
1217.000000	50.965268
1216.000000	50.792278
1215.000000	50.622839
1214.000000	50.461690
1213.000000	50.296665
1212.000000	50.134547
1211.000000	49.972321
1210.000000	49.799869
1209.000000	49.645502
1208.000000	49.497378
1207.000000	49.351730
1206.000000	49.225997
1205.000000	49.112966
1204.000000	49.012853
1203.000000	48.917047
1202.000000	48.849228
1201.000000	48.777319
1200.000000	48.708317
1199.000000	48.632963
1198.000000	48.556425
1197.000000	48.461264
1196.000000	48.330256
1195.000000	48.168138
1194.000000	47.970496
1193.000000	47.714401
1192.000000	47.422782
1191.000000	47.102422
1190.000000	46.731574
1189.000000	46.354374
1188.000000	45.999028
1187.000000	45.693845
1186.000000	45.482101
1185.000000	45.368748
1184.000000	45.361751
1183.000000	45.478980
1182.000000	45.720434
1181.000000	46.085685
1180.000000	46.505082
1179.000000	46.950853
1178.000000	47.417185
1177.000000	47.865539
1176.000000	48.273311
1175.000000	48.652555
1174.000000	48.983358
1173.000000	49.297045
1172.000000	49.590386
1171.000000	49.896752
1170.000000	50.221312
1169.000000	50.538336
1168.000000	50.874413
1167.000000	51.210383
1166.000000	51.559809
1165.000000	51.918062
1164.000000	52.282774
1163.000000	52.646302
1162.000000	53.030175
1161.000000	53.419754
1160.000000	53.827740
1159.000000	54.235942
1158.000000	54.586014
1157.000000	54.967196
1156.000000	55.339443
1155.000000	55.675198
1154.000000	56.001049
1153.000000	56.298158
1152.000000	56.542519
1151.000000	56.754371
1150.000000	56.921979
1149.000000	57.115638
1148.000000	57.287660
1147.000000	57.471954
1146.000000	57.680791
1145.000000	57.911804
1144.000000	58.202023
1143.000000	58.519262
1142.000000	58.910564
1141.000000	59.334482
1140.000000	59.780253
1139.000000	60.231299
1138.000000	60.715716
1137.000000	61.231673
1136.000000	61.737404
1135.000000	62.295022
1134.000000	62.869217
1133.000000	63.406274
1132.000000	63.849999
1131.000000	64.288773
1130.000000	64.726794
1129.000000	65.102163
1128.000000	65.420048
1127.000000	65.675820
1126.000000	65.903388
1125.000000	66.077993
1124.000000	66.234514
1123.000000	66.363476
1122.000000	66.476722
1121.000000	66.550784
1120.000000	66.627860
1119.000000	66.696001
1118.000000	66.720976
1117.000000	66.760590
1116.000000	66.784704
1115.000000	66.802681
1114.000000	66.799451
1113.000000	66.802681
1112.000000	66.807310
1111.000000	66.809786
1110.000000	66.801604
1109.000000	66.805587
1108.000000	66.801389
1107.000000	66.789225
1106.000000	66.787825
1105.000000	66.774585
1104.000000	66.768987
1103.000000	66.762420
1102.000000	66.774692
1101.000000	66.748426
1100.000000	66.736154
1099.000000	66.713763
1098.000000	66.698370
1097.000000	66.662523
1096.000000	66.673826
1095.000000	66.641316
1094.000000	66.598795
1093.000000	66.579311
1092.000000	66.532592
1091.000000	66.504495
1090.000000	66.466819
1089.000000	66.405782
1088.000000	66.372842
1087.000000	66.315142
1086.000000	66.279080
1085.000000	66.221704
1084.000000	66.127404
1083.000000	66.100277
1082.000000	66.014158
1081.000000	65.974005
1080.000000	65.904572
1079.000000	65.845366
1078.000000	65.794018
1077.000000	65.712205
1076.000000	65.651384
1075.000000	65.557622
1074.000000	65.509826
1073.000000	65.438133
1072.000000	65.362241
1071.000000	65.296252
1070.000000	65.214117
1069.000000	65.134565
1068.000000	65.040050
1067.000000	64.971909
1066.000000	64.903337
1065.000000	64.820771
1064.000000	64.755751
1063.000000	64.650902
1062.000000	64.578455
1061.000000	64.487922
1060.000000	64.412784
1059.000000	64.312456
1058.000000	64.223861
1057.000000	64.140649
1056.000000	64.056792
1055.000000	63.954095
1054.000000	63.847308
1053.000000	63.760436
1052.000000	63.670227
1051.000000	63.570114
1050.000000	63.460636
1049.000000	63.395509
1048.000000	63.312727
1047.000000	63.215844
1046.000000	63.131771
1045.000000	63.044038
1044.000000	62.951460
1043.000000	62.888055
1042.000000	62.772980
1041.000000	62.688476
1040.000000	62.590193
1039.000000	62.535185
1038.000000	62.445944
1037.000000	62.345724
1036.000000	62.249917
1035.000000	62.140116
1034.000000	62.053675
1033.000000	61.968202
1032.000000	61.837086
1031.000000	61.736220
1030.000000	61.643643
1029.000000	61.529320
1028.000000	61.421672
1027.000000	61.321452
1026.000000	61.201101
1025.000000	61.090008
1024.000000	60.978700
1023.000000	60.863839
1022.000000	60.745965
1021.000000	60.624753
1020.000000	60.495683
1019.000000	60.397831
1018.000000	60.290505
1017.000000	60.191146
1016.000000	60.079730
1015.000000	59.968637
1014.000000	59.889947
1013.000000	59.820083
1012.000000	59.742469
1011.000000	59.651829
1010.000000	59.556453
1009.000000	59.488742
1008.000000	59.443314
1007.000000	59.390674
1006.000000	59.333728
1005.000000	59.296805
1004.000000	59.256222
1003.000000	59.185712
1002.000000	59.151372
1001.000000	59.097118
1000.000000	59.041248
999.000000	59.000988
998.000000	58.976444
997.000000	58.919498
996.000000	58.877085
995.000000	58.825844
994.000000	58.790966
993.000000	58.760610
992.000000	58.715290
991.000000	58.673307
990.000000	58.628202
989.000000	58.596769
988.000000	58.569749
987.000000	58.530135
986.000000	58.503546
985.000000	58.478679
984.000000	58.470175
983.000000	58.446062
982.000000	58.422702
981.000000	58.410861
980.000000	58.391269
979.000000	58.388578
978.000000	58.387716
977.000000	58.371892
976.000000	58.356176
975.000000	58.344872
974.000000	58.334754
973.000000	58.338306
972.000000	58.333246
971.000000	58.326895
970.000000	58.332278
969.000000	58.339598
968.000000	58.342720
967.000000	58.331847
966.000000	58.316992
965.000000	58.333139
964.000000	58.372753
963.000000	58.382119
962.000000	58.374799
961.000000	58.397728
960.000000	58.417750
959.000000	58.423025
958.000000	58.456719
957.000000	58.481155
956.000000	58.502254
955.000000	58.537132
954.000000	58.545421
953.000000	58.559523
952.000000	58.604627
951.000000	58.657698
950.000000	58.679012
949.000000	58.688378
948.000000	58.708831
947.000000	58.731437
946.000000	58.769006
945.000000	58.786983
944.000000	58.772774
943.000000	58.790751
942.000000	58.800117
941.000000	58.780094
940.000000	58.762763
939.000000	58.766315
938.000000	58.756734
937.000000	58.731437
936.000000	58.722825
935.000000	58.688701
934.000000	58.677721
933.000000	58.668893
932.000000	58.639290
931.000000	58.611517
930.000000	58.582883
929.000000	58.578038
928.000000	58.561568
927.000000	58.508821
926.000000	58.505591
925.000000	58.484923
924.000000	58.432606
923.000000	58.384487
922.000000	58.354884
921.000000	58.325281
920.000000	58.284912
919.000000	58.276624
918.000000	58.236901
917.000000	58.175757
916.000000	58.120103
915.000000	58.055299
914.000000	58.002551
913.000000	57.986404
912.000000	57.928166
911.000000	57.848614
910.000000	57.785425
909.000000	57.743550
908.000000	57.697046
907.000000	57.660123
906.000000	57.628689
905.000000	57.601777
904.000000	57.579602
903.000000	57.560010
902.000000	57.558395
901.000000	57.551290
900.000000	57.548168
899.000000	57.544724
898.000000	57.531375
897.000000	57.526208
896.000000	57.511460
895.000000	57.522441
894.000000	57.527285
893.000000	57.502526
892.000000	57.478305
891.000000	57.475506
890.000000	57.451285
889.000000	57.429648
888.000000	57.381960
887.000000	57.327059
886.000000	57.274204
885.000000	57.239003
884.000000	57.209830
883.000000	57.128771
882.000000	57.071395
881.000000	57.003469
880.000000	56.927254
879.000000	56.846948
878.000000	56.775255
877.000000	56.691181
876.000000	56.623901
875.000000	56.498276
874.000000	56.355319
873.000000	56.192986
872.000000	56.054227
871.000000	55.912455
870.000000	55.752920
869.000000	55.613839
868.000000	55.591125
867.000000	55.612977
866.000000	55.643872
865.000000	55.669600
864.000000	55.684456
863.000000	55.695974
862.000000	55.699204
861.000000	55.698127
860.000000	55.706524
859.000000	55.704478
858.000000	55.689300
857.000000	55.191000
856.000000	55.946000
855.000000	55.930900
854.000000	55.545900
853.000000	55.437200
852.000000	55.516300
851.000000	55.578000
850.000000	55.498000
849.000000	55.309300
848.000000	55.580600
847.000000	55.553100
846.000000	55.513000
845.000000	55.506800
844.000000	55.372600
843.000000	55.560100
842.000000	55.323000
841.000000	55.203900
840.000000	55.067200
839.000000	55.199500
838.000000	54.966000
837.000000	55.253700
836.000000	55.080400
835.000000	54.987800
834.000000	54.931500
833.000000	54.564800
832.000000	54.738100
831.000000	54.810500
830.000000	54.977300
829.000000	54.722800
828.000000	54.470600
827.000000	54.403200
826.000000	54.298400
825.000000	54.125200
824.000000	54.169800
823.000000	53.878000
822.000000	54.096900
821.000000	53.903800
820.000000	53.721600
819.000000	53.727800
818.000000	53.632400
817.000000	53.539900
816.000000	53.387800
815.000000	53.277100
814.000000	53.120400
813.000000	53.124200
812.000000	53.049100
811.000000	52.844400
810.000000	52.731200
809.000000	52.719100
808.000000	52.616500
807.000000	52.474000
806.000000	52.424900
805.000000	52.322700
804.000000	52.317900
803.000000	52.163200
802.000000	51.913700
801.000000	51.766900
800.000000	51.677100
799.000000	51.534300
798.000000	51.347400
797.000000	51.359300
796.000000	51.244100
795.000000	50.968100
794.000000	51.009900
793.000000	50.777200
792.000000	50.550200
791.000000	50.539000
790.000000	50.355600
789.000000	50.237400
788.000000	50.075900
787.000000	49.951400
786.000000	49.892800
785.000000	49.558600
784.000000	49.584300
783.000000	49.417700
782.000000	49.332000
781.000000	49.020000
780.000000	48.916300
779.000000	48.788300
778.000000	48.595500
777.000000	48.434300
776.000000	48.278400
775.000000	48.080300
774.000000	47.918700
773.000000	47.694100
772.000000	47.709700
771.000000	47.461800
770.000000	47.259100
769.000000	47.082600
768.000000	46.963800
767.000000	46.744000
766.000000	46.658700
765.000000	46.460000
764.000000	46.333600
763.000000	46.208300
762.000000	46.073400
761.000000	45.790400
760.000000	45.686200
759.000000	45.416300
758.000000	45.199500
757.000000	44.984700
756.000000	44.822400
755.000000	44.703900
754.000000	44.475300
753.000000	44.300200
752.000000	44.077100
751.000000	43.918700
750.000000	43.671200
749.000000	43.585900
748.000000	43.314900
747.000000	43.145800
746.000000	42.983700
745.000000	42.770300
744.000000	42.571800
743.000000	42.396300
742.000000	42.138500
741.000000	41.917900
740.000000	41.674600
739.000000	41.529400
738.000000	41.303600
737.000000	41.089300
736.000000	40.822100
735.000000	40.570900
734.000000	40.420200
733.000000	40.177300
732.000000	39.897600
731.000000	39.706400
730.000000	39.474700
729.000000	39.153500
728.000000	38.941000
727.000000	38.724300
726.000000	38.461600
725.000000	38.233700
724.000000	38.011200
723.000000	37.779200
722.000000	37.452300
721.000000	37.159400
720.000000	36.944500
719.000000	36.708700
718.000000	36.430800
717.000000	36.133000
716.000000	35.917200
715.000000	35.610200
714.000000	35.324100
713.000000	35.131300
712.000000	34.844300
711.000000	34.593000
710.000000	34.305200
709.000000	34.067800
708.000000	33.821400
707.000000	33.543300
706.000000	33.268000
705.000000	33.000800
704.000000	32.767000
703.000000	32.513700
702.000000	32.267400
701.000000	32.051100
700.000000	31.816000
699.000000	31.568800
698.000000	31.339300
697.000000	31.153800
696.000000	30.928800
695.000000	30.713000
694.000000	30.474800
693.000000	30.224300
692.000000	29.990800
691.000000	29.800600
690.000000	29.602600
689.000000	29.382900
688.000000	29.189400
687.000000	29.023100
686.000000	28.822100
685.000000	28.621500
684.000000	28.479700
683.000000	28.264500
682.000000	28.045100
681.000000	27.895000
680.000000	27.745800
679.000000	27.542600
678.000000	27.367400
677.000000	27.227100
676.000000	27.026000
675.000000	26.866000
674.000000	26.743100
673.000000	26.596700
672.000000	26.434100
671.000000	26.277100
670.000000	26.132000
669.000000	25.981900
668.000000	25.865900
667.000000	25.756900
666.000000	25.610700
665.000000	25.466100
664.000000	25.329100
663.000000	25.199600
662.000000	25.088900
661.000000	24.982700
660.000000	24.868300
659.000000	24.734700
658.000000	24.637300
657.000000	24.552400
656.000000	24.471600
655.000000	24.375900
654.000000	24.261700
653.000000	24.151600
652.000000	24.050600
651.000000	23.975000
650.000000	23.886600
649.000000	23.804300
648.000000	23.738500
647.000000	23.663200
646.000000	23.585600
645.000000	23.494500
644.000000	23.433300
643.000000	23.392200
642.000000	23.317500
641.000000	23.259200
640.000000	23.222800
639.000000	23.174700
638.000000	23.139000
637.000000	23.104300
636.000000	23.069700
635.000000	23.039300
634.000000	23.000400
633.000000	22.972500
632.000000	22.952100
631.000000	22.936200
630.000000	22.925800
629.000000	22.917200
628.000000	22.918200
627.000000	22.917500
626.000000	22.912600
625.000000	22.917300
624.000000	22.936000
623.000000	22.968400
622.000000	22.991100
621.000000	23.006800
620.000000	23.041700
619.000000	23.081900
618.000000	23.118200
617.000000	23.157500
616.000000	23.204100
615.000000	23.262000
614.000000	23.333600
613.000000	23.398900
612.000000	23.461900
611.000000	23.504100
610.000000	23.569500
609.000000	23.644100
608.000000	23.710300
607.000000	23.787200
606.000000	23.883800
605.000000	23.989200
604.000000	24.089100
603.000000	24.202000
602.000000	24.294600
601.000000	24.391100
600.000000	24.490900
599.000000	24.582600
598.000000	24.671800
597.000000	24.761600
596.000000	24.871200
595.000000	24.975100
594.000000	25.060400
593.000000	25.156000
592.000000	25.251200
591.000000	25.343500
590.000000	25.425100
589.000000	25.509600
588.000000	25.592900
587.000000	25.653400
586.000000	25.708000
585.000000	25.757300
584.000000	25.818100
583.000000	25.864200
582.000000	25.910400
581.000000	25.934000
580.000000	25.958500
579.000000	25.997000
578.000000	26.005300
577.000000	25.991100
576.000000	25.991000
575.000000	25.975100
574.000000	25.942800
573.000000	25.923100
572.000000	25.907900
571.000000	25.874100
570.000000	25.845300
569.000000	25.828100
568.000000	25.754700
567.000000	25.691700
566.000000	25.610500
565.000000	25.540100
564.000000	25.449000
563.000000	25.360500
562.000000	25.273500
561.000000	25.175000
560.000000	25.070300
559.000000	24.906800
558.000000	24.780000
557.000000	24.668700
556.000000	24.529700
555.000000	24.401400
554.000000	24.234400
553.000000	24.088200
552.000000	23.929600
551.000000	23.749200
550.000000	23.566800
549.000000	23.391500
548.000000	23.203400
547.000000	22.998100
546.000000	22.769900
545.000000	22.551900
544.000000	22.340800
543.000000	22.123800
542.000000	21.888700
541.000000	21.647000
540.000000	21.388200
539.000000	21.126700
538.000000	20.855200
537.000000	20.580800
536.000000	20.296300
535.000000	20.023700
534.000000	19.735400
533.000000	19.445400
532.000000	19.137300
531.000000	18.842200
530.000000	18.528600
529.000000	18.218300
528.000000	17.916800
527.000000	17.603200
526.000000	17.301100
525.000000	16.983200
524.000000	16.668300
523.000000	16.348900
522.000000	16.043900
521.000000	15.729800
520.000000	15.423100
519.000000	15.135900
518.000000	14.848500
517.000000	14.564000
516.000000	14.281500
515.000000	14.003800
514.000000	13.752000
513.000000	13.493400
512.000000	13.246800
511.000000	13.006800
510.000000	12.773800
509.000000	12.530500
508.000000	12.326200
507.000000	12.120100
506.000000	11.947100
505.000000	11.750400
504.000000	11.578600
503.000000	11.412300
502.000000	11.259200
501.000000	11.114300
500.000000	10.972400
499.000000	10.830300
498.000000	10.714300
497.000000	10.603600
496.000000	10.471900
495.000000	10.346600
494.000000	10.274600
493.000000	10.168300
492.000000	10.086200
491.000000	9.988100
490.000000	9.925300
489.000000	9.839900
488.000000	9.766600
487.000000	9.691100
486.000000	9.637200
485.000000	9.561100
484.000000	9.511800
483.000000	9.444300
482.000000	9.368100
481.000000	9.293700
480.000000	9.226900
479.000000	9.152000
478.000000	9.091000
477.000000	9.028700
476.000000	8.958500
475.000000	8.906600
474.000000	8.820700
473.000000	8.766000
472.000000	8.703100
471.000000	8.652100
470.000000	8.586700
469.000000	8.538000
468.000000	8.470600
467.000000	8.427400
466.000000	8.378200
465.000000	8.326500
464.000000	8.271000
463.000000	8.244500
462.000000	8.177200
461.000000	8.137500
460.000000	8.101800
459.000000	8.059100
458.000000	8.003600
457.000000	7.957100
456.000000	7.908300
455.000000	7.882500
454.000000	7.856100
453.000000	7.798600
452.000000	7.758600
451.000000	7.704800
450.000000	7.681500
449.000000	7.623900
448.000000	7.595600
447.000000	7.555300
446.000000	7.522500
445.000000	7.483000
444.000000	7.445600
443.000000	7.413600
442.000000	7.353100
441.000000	7.321700
440.000000	7.279200
439.000000	7.242700
438.000000	7.200900
437.000000	7.177800
436.000000	7.122000
435.000000	7.096200
434.000000	7.068600
433.000000	7.024500
432.000000	6.984300
431.000000	6.954100
430.000000	6.925700
429.000000	6.902400
428.000000	6.861500
427.000000	6.831800
426.000000	6.804500
425.000000	6.776900
424.000000	6.758400
423.000000	6.718400
422.000000	6.693900
421.000000	6.669900
420.000000	6.652800
419.000000	6.628400
418.000000	6.587200
417.000000	6.563800
416.000000	6.545800
415.000000	6.518400
414.000000	6.489200
413.000000	6.458100
412.000000	6.428200
411.000000	6.405100
410.000000	6.369800
409.000000	6.342500
408.000000	6.299700
407.000000	6.260400
406.000000	6.235700
405.000000	6.201100
404.000000	6.161100
403.000000	6.134400
402.000000	6.106500
401.000000	6.081800
400.000000	6.020200
399.000000	5.975300
398.000000	5.930500
397.000000	5.908000
396.000000	5.865300
395.000000	5.809200
394.000000	5.761000
393.000000	5.737500
392.000000	5.695500
391.000000	5.665700
390.000000	5.592900
389.000000	5.564100
388.000000	5.525500
387.000000	5.469300
386.000000	5.418000
385.000000	5.383200
384.000000	5.350200
383.000000	5.286400
382.000000	5.249000
381.000000	5.222700
380.000000	5.184500
379.000000	5.142800
378.000000	5.085100
377.000000	5.061300
376.000000	4.988900
375.000000	4.764100
374.000000	4.527500
373.000000	4.489200
372.000000	4.541500
371.000000	4.555600
370.000000	4.562300
369.000000	4.590900
368.000000	4.636600
367.000000	4.528000
366.000000	4.461400
365.000000	4.536000
364.000000	4.541300
363.000000	4.448700
362.000000	4.410200
361.000000	4.474400
360.000000	4.521200
359.000000	4.442200
358.000000	4.342700
357.000000	4.397000
356.000000	4.491300
355.000000	4.524200
354.000000	4.440400
353.000000	4.423200
352.000000	4.485300
351.000000	4.497600
350.000000	4.431800
349.000000	4.377300
348.000000	4.306200
347.000000	4.361600
346.000000	4.361900
345.000000	4.264800
344.000000	4.293800
343.000000	4.334700
342.000000	4.323000
341.000000	4.349600
340.000000	4.465000
339.000000	4.486400
338.000000	4.514900
337.000000	4.515800
336.000000	4.543200
335.000000	4.387500
334.000000	4.203200
333.000000	4.296300
332.000000	4.250400
331.000000	4.168500
330.000000	4.384300
329.000000	4.581400
328.000000	4.535700
327.000000	4.579000
326.000000	4.538300
325.000000	4.586500
324.000000	4.662800
323.000000	4.714100
322.000000	4.735800
321.000000	4.658400
320.000000	4.538800
319.000000	4.928200
318.000000	4.956900
317.000000	4.795500
316.000000	4.588800
315.000000	4.352500
314.000000	4.342100
313.000000	4.341100
312.000000	4.324300
311.000000	4.329400
310.000000	4.350300
309.000000	4.350000
308.000000	4.343100
307.000000	4.345200
306.000000	4.392500
305.000000	4.361700
304.000000	4.325600
303.000000	4.354700
302.000000	4.365700
301.000000	4.363700
300.000000	4.351200
299.000000	4.348900
298.000000	4.375300
297.000000	4.368900
296.000000	4.378800
295.000000	4.386900
294.000000	4.370900
293.000000	4.368700
292.000000	4.393600
291.000000	4.372500
290.000000	4.386600
289.000000	4.406700
288.000000	4.381200
287.000000	4.378300
286.000000	4.381700
285.000000	4.390800
284.000000	4.420100
283.000000	4.426400
282.000000	4.415500
281.000000	4.410000
280.000000	4.458300
279.000000	4.458700
278.000000	4.463700
277.000000	4.490300
276.000000	4.475700
275.000000	4.450300
274.000000	4.488800
273.000000	4.524100
272.000000	4.542900
271.000000	4.547300
270.000000	4.541900
269.000000	4.529200
268.000000	4.562100
267.000000	4.640300
266.000000	4.655100
265.000000	4.637400
264.000000	4.682200
263.000000	4.685600
262.000000	4.713000
261.000000	4.741600
260.000000	4.762900
259.000000	4.767700
258.000000	4.785100
257.000000	4.775800
256.000000	4.804900
255.000000	4.813900
254.000000	4.850600
253.000000	4.871900
252.000000	4.841100
251.000000	4.897400
250.000000	4.883400
