PE UV       SUBTECH     SPECTRUM    ASCII       PEDS        4.00        
   -1
CICIMAUCR0013-5.Sample.ASC
24/04/23
11:02:20.00
24/04/23
11:02:20.00
Vinicio Soto Monge
C. resplendens
250,000000
1
Lambda 1050
1050L1511233
PerkinElmer UV WinLab 6.3.2.0749 / 2.02.05 Lambda 900 UV/VIS/NIR, Aug  7 2015 09:38:08

0
0
3350/servo 860,8/2
0
0
UV/VIS
1
1
1
DoubleDePol,CommonBeamDepol,RBeamAtt,SBeamAtt,60mm sphere, WB InGaAs Detector
0
0
0
0
Program
Program
3350/servo 860,8/2
3350/0,2 860,8/0,2
3350/0,2 860,8/0,2
0
15.00
 
 
 
0
 
860,8
319,2
860,8
Front
100
on
S:100 R:100
0
0
0
0
 
0
 
 
 
0
 
 
0
0
0
0
0
 
 
 
 
0
0


0
0
#HDR
-1
-1
#GR
nm
%R
1.0
0.0
2500,000000
-1,000000
2251
8
89,800900
5,734500
#DATA
250.000000	4.685613
251.000000	4.686702
252.000000	4.662811
253.000000	4.670457
254.000000	4.653284
255.000000	4.635563
256.000000	4.637749
257.000000	4.629364
258.000000	4.619658
259.000000	4.614465
260.000000	4.586116
261.000000	4.570770
262.000000	4.566090
263.000000	4.544321
264.000000	4.505141
265.000000	4.497521
266.000000	4.483483
267.000000	4.471220
268.000000	4.440928
269.000000	4.427746
270.000000	4.424921
271.000000	4.422274
272.000000	4.414455
273.000000	4.415056
274.000000	4.388441
275.000000	4.378580
276.000000	4.363748
277.000000	4.365496
278.000000	4.352904
279.000000	4.359229
280.000000	4.345709
281.000000	4.342757
282.000000	4.337125
283.000000	4.334557
284.000000	4.317409
285.000000	4.319901
286.000000	4.320243
287.000000	4.330842
288.000000	4.304411
289.000000	4.309126
290.000000	4.302522
291.000000	4.295599
292.000000	4.288030
293.000000	4.295275
294.000000	4.299793
295.000000	4.297546
296.000000	4.289621
297.000000	4.305625
298.000000	4.301508
299.000000	4.299957
300.000000	4.292755
301.000000	4.300391
302.000000	4.303832
303.000000	4.298242
304.000000	4.292470
305.000000	4.281427
306.000000	4.264380
307.000000	4.277739
308.000000	4.290796
309.000000	4.279784
310.000000	4.280648
311.000000	4.288826
312.000000	4.303274
313.000000	4.280614
314.000000	4.276793
315.000000	4.271663
316.000000	4.389436
317.000000	4.499973
318.000000	4.408893
319.000000	4.418890
320.000000	4.433901
321.000000	4.464452
322.000000	4.415318
323.000000	4.369599
324.000000	4.415757
325.000000	4.379300
326.000000	4.422432
327.000000	4.404744
328.000000	4.418113
329.000000	4.374662
330.000000	4.354432
331.000000	4.371073
332.000000	4.376150
333.000000	4.395379
334.000000	4.446513
335.000000	4.457743
336.000000	4.458512
337.000000	4.445312
338.000000	4.408764
339.000000	4.418705
340.000000	4.432026
341.000000	4.477045
342.000000	4.473092
343.000000	4.468487
344.000000	4.477053
345.000000	4.490955
346.000000	4.491482
347.000000	4.518136
348.000000	4.542104
349.000000	4.558510
350.000000	4.599665
351.000000	4.642788
352.000000	4.666529
353.000000	4.706541
354.000000	4.741915
355.000000	4.762320
356.000000	4.812630
357.000000	4.871330
358.000000	4.926781
359.000000	5.007552
360.000000	5.044666
361.000000	5.062848
362.000000	5.148505
363.000000	5.230278
364.000000	5.305432
365.000000	5.370600
366.000000	5.432831
367.000000	5.519580
368.000000	5.579461
369.000000	5.683979
370.000000	5.775049
371.000000	5.877468
372.000000	5.988137
373.000000	6.076104
374.000000	6.182093
375.000000	6.359314
376.000000	6.489741
377.000000	6.658870
378.000000	6.823920
379.000000	7.002382
380.000000	7.192247
381.000000	7.396043
382.000000	7.600690
383.000000	7.827905
384.000000	8.057993
385.000000	8.294005
386.000000	8.542910
387.000000	8.784029
388.000000	9.035318
389.000000	9.300648
390.000000	9.581431
391.000000	9.847658
392.000000	10.124676
393.000000	10.409497
394.000000	10.681438
395.000000	10.951839
396.000000	11.225083
397.000000	11.490692
398.000000	11.745977
399.000000	12.007853
400.000000	12.267043
401.000000	12.509894
402.000000	12.748130
403.000000	12.982248
404.000000	13.209106
405.000000	13.421648
406.000000	13.631118
407.000000	13.836398
408.000000	14.024711
409.000000	14.208658
410.000000	14.374130
411.000000	14.546426
412.000000	14.698302
413.000000	14.849824
414.000000	14.989264
415.000000	15.114449
416.000000	15.236098
417.000000	15.355478
418.000000	15.450317
419.000000	15.546541
420.000000	15.639817
421.000000	15.716413
422.000000	15.774759
423.000000	15.833565
424.000000	15.888929
425.000000	15.929377
426.000000	15.957690
427.000000	15.990241
428.000000	16.006196
429.000000	16.004577
430.000000	15.997213
431.000000	15.980230
432.000000	15.947060
433.000000	15.913476
434.000000	15.872197
435.000000	15.833518
436.000000	15.779532
437.000000	15.712235
438.000000	15.663035
439.000000	15.621108
440.000000	15.563984
441.000000	15.528980
442.000000	15.505290
443.000000	15.495874
444.000000	15.497429
445.000000	15.514642
446.000000	15.561541
447.000000	15.623728
448.000000	15.716525
449.000000	15.835276
450.000000	15.987277
451.000000	16.168486
452.000000	16.367785
453.000000	16.611127
454.000000	16.864285
455.000000	17.132912
456.000000	17.412995
457.000000	17.718523
458.000000	18.033433
459.000000	18.349332
460.000000	18.668615
461.000000	18.996343
462.000000	19.312695
463.000000	19.622316
464.000000	19.933488
465.000000	20.220058
466.000000	20.484483
467.000000	20.729316
468.000000	20.975424
469.000000	21.194615
470.000000	21.397144
471.000000	21.591091
472.000000	21.756357
473.000000	21.917549
474.000000	22.066133
475.000000	22.187686
476.000000	22.306830
477.000000	22.421893
478.000000	22.536115
479.000000	22.637666
480.000000	22.758365
481.000000	22.890109
482.000000	23.026116
483.000000	23.187622
484.000000	23.359448
485.000000	23.552596
486.000000	23.772528
487.000000	24.011265
488.000000	24.276903
489.000000	24.573115
490.000000	24.889379
491.000000	25.237293
492.000000	25.611408
493.000000	26.003225
494.000000	26.423470
495.000000	26.864303
496.000000	27.329865
497.000000	27.810277
498.000000	28.292639
499.000000	28.800852
500.000000	29.323321
501.000000	29.863474
502.000000	30.432706
503.000000	31.018998
504.000000	31.611490
505.000000	32.220137
506.000000	32.852553
507.000000	33.484887
508.000000	34.147315
509.000000	34.850428
510.000000	35.547203
511.000000	36.289313
512.000000	37.032356
513.000000	37.800811
514.000000	38.587186
515.000000	39.399460
516.000000	40.214536
517.000000	41.032863
518.000000	41.873023
519.000000	42.726913
520.000000	43.575514
521.000000	44.432727
522.000000	45.290513
523.000000	46.144875
524.000000	46.966842
525.000000	47.794907
526.000000	48.602268
527.000000	49.369505
528.000000	50.108814
529.000000	50.826424
530.000000	51.517004
531.000000	52.185209
532.000000	52.816630
533.000000	53.416059
534.000000	53.976691
535.000000	54.506731
536.000000	55.024158
537.000000	55.511036
538.000000	55.954228
539.000000	56.383782
540.000000	56.796348
541.000000	57.185588
542.000000	57.565324
543.000000	57.923972
544.000000	58.251934
545.000000	58.562128
546.000000	58.827336
547.000000	59.082522
548.000000	59.330534
549.000000	59.553457
550.000000	59.765381
551.000000	59.945881
552.000000	60.135911
553.000000	60.300999
554.000000	60.418432
555.000000	60.562584
556.000000	60.704979
557.000000	60.816461
558.000000	60.940133
559.000000	61.001502
560.000000	60.961138
561.000000	61.055198
562.000000	61.120913
563.000000	61.177783
564.000000	61.250070
565.000000	61.287575
566.000000	61.319385
567.000000	61.330647
568.000000	61.347795
569.000000	61.326896
570.000000	61.295250
571.000000	61.246190
572.000000	61.181067
573.000000	61.106207
574.000000	61.015204
575.000000	60.920943
576.000000	60.814679
577.000000	60.710167
578.000000	60.594884
579.000000	60.467221
580.000000	60.343066
581.000000	60.218200
582.000000	60.076899
583.000000	59.924722
584.000000	59.749124
585.000000	59.588419
586.000000	59.415759
587.000000	59.225637
588.000000	59.028307
589.000000	58.818106
590.000000	58.609131
591.000000	58.368850
592.000000	58.109251
593.000000	57.882788
594.000000	57.634902
595.000000	57.361725
596.000000	57.141762
597.000000	56.885552
598.000000	56.615933
599.000000	56.359445
600.000000	56.082701
601.000000	55.812821
602.000000	55.526950
603.000000	55.228922
604.000000	54.918493
605.000000	54.601658
606.000000	54.256424
607.000000	53.893561
608.000000	53.518884
609.000000	53.115656
610.000000	52.708473
611.000000	52.270708
612.000000	51.828361
613.000000	51.386446
614.000000	50.933328
615.000000	50.462712
616.000000	49.983811
617.000000	49.516262
618.000000	49.033234
619.000000	48.567919
620.000000	48.062264
621.000000	47.565675
622.000000	47.060063
623.000000	46.548620
624.000000	46.028562
625.000000	45.507515
626.000000	44.982227
627.000000	44.495387
628.000000	44.012883
629.000000	43.542925
630.000000	43.090018
631.000000	42.681455
632.000000	42.302515
633.000000	41.977937
634.000000	41.702462
635.000000	41.492438
636.000000	41.323650
637.000000	41.216237
638.000000	41.181238
639.000000	41.211630
640.000000	41.285742
641.000000	41.399315
642.000000	41.584586
643.000000	41.814109
644.000000	42.084397
645.000000	42.403442
646.000000	42.753402
647.000000	43.105568
648.000000	43.487563
649.000000	43.902881
650.000000	44.329682
651.000000	44.777200
652.000000	45.234691
653.000000	45.697275
654.000000	46.143623
655.000000	46.584966
656.000000	47.030655
657.000000	47.452460
658.000000	47.854146
659.000000	48.259413
660.000000	48.654239
661.000000	49.052075
662.000000	49.410678
663.000000	49.744159
664.000000	50.081197
665.000000	50.397092
666.000000	50.688315
667.000000	50.965079
668.000000	51.216879
669.000000	51.463023
670.000000	51.722286
671.000000	51.942678
672.000000	52.156630
673.000000	52.392533
674.000000	52.604374
675.000000	52.774767
676.000000	52.975257
677.000000	53.145952
678.000000	53.288645
679.000000	53.442716
680.000000	53.567733
681.000000	53.652419
682.000000	53.730603
683.000000	53.771038
684.000000	53.816877
685.000000	53.829020
686.000000	53.821695
687.000000	53.791323
688.000000	53.717445
689.000000	53.655503
690.000000	53.592884
691.000000	53.485707
692.000000	53.406948
693.000000	53.323001
694.000000	53.234707
695.000000	53.128849
696.000000	53.010056
697.000000	52.898524
698.000000	52.809539
699.000000	52.702593
700.000000	52.580354
701.000000	52.460751
702.000000	52.368664
703.000000	52.282909
704.000000	52.192457
705.000000	52.131046
706.000000	52.092064
707.000000	52.069927
708.000000	52.050708
709.000000	52.063688
710.000000	52.099741
711.000000	52.190945
712.000000	52.308767
713.000000	52.439191
714.000000	52.550992
715.000000	52.746969
716.000000	52.961862
717.000000	53.173039
718.000000	53.398475
719.000000	53.643214
720.000000	53.908664
721.000000	54.158489
722.000000	54.464890
723.000000	54.765649
724.000000	55.087815
725.000000	55.397786
726.000000	55.740687
727.000000	56.075839
728.000000	56.422105
729.000000	56.763080
730.000000	57.102236
731.000000	57.433735
732.000000	57.814814
733.000000	58.173149
734.000000	58.487071
735.000000	58.832114
736.000000	59.153102
737.000000	59.432200
738.000000	59.744000
739.000000	60.021300
740.000000	60.264663
741.000000	60.543356
742.000000	60.782712
743.000000	61.029550
744.000000	61.263009
745.000000	61.468889
746.000000	61.661005
747.000000	61.848218
748.000000	62.015989
749.000000	62.175256
750.000000	62.304507
751.000000	62.461270
752.000000	62.606468
753.000000	62.726186
754.000000	62.864137
755.000000	62.961141
756.000000	63.043970
757.000000	63.164291
758.000000	63.267344
759.000000	63.369294
760.000000	63.494006
761.000000	63.580838
762.000000	63.692914
763.000000	63.777322
764.000000	63.888548
765.000000	63.958720
766.000000	64.050215
767.000000	64.182974
768.000000	64.286423
769.000000	64.360214
770.000000	64.464110
771.000000	64.532238
772.000000	64.600079
773.000000	64.642405
774.000000	64.669449
775.000000	64.721311
776.000000	64.666774
777.000000	64.684892
778.000000	64.644582
779.000000	64.605893
780.000000	64.604393
781.000000	64.504333
782.000000	64.480959
783.000000	64.423887
784.000000	64.364052
785.000000	64.349535
786.000000	64.287895
787.000000	64.206195
788.000000	64.184456
789.000000	64.149090
790.000000	64.236123
791.000000	64.213058
792.000000	64.132954
793.000000	64.151569
794.000000	64.156128
795.000000	64.174504
796.000000	64.187077
797.000000	64.172431
798.000000	64.245455
799.000000	64.304700
800.000000	64.394028
801.000000	64.421540
802.000000	64.455222
803.000000	64.575979
804.000000	64.526461
805.000000	64.604622
806.000000	64.651498
807.000000	64.686824
808.000000	64.741962
809.000000	64.749927
810.000000	64.735278
811.000000	64.723105
812.000000	64.721834
813.000000	64.611243
814.000000	64.526871
815.000000	64.401676
816.000000	64.227190
817.000000	64.118686
818.000000	64.037016
819.000000	63.828951
820.000000	63.713404
821.000000	63.540233
822.000000	63.380356
823.000000	63.191901
824.000000	63.047582
825.000000	62.892312
826.000000	62.688208
827.000000	62.572445
828.000000	62.378910
829.000000	62.195209
830.000000	62.076093
831.000000	61.845636
832.000000	61.673054
833.000000	61.515701
834.000000	61.360577
835.000000	61.166864
836.000000	61.077444
837.000000	60.947661
838.000000	60.625211
839.000000	60.362365
840.000000	60.166253
841.000000	60.052277
842.000000	59.863670
843.000000	59.627562
844.000000	59.469717
845.000000	59.253550
846.000000	59.102201
847.000000	58.844257
848.000000	58.560177
849.000000	58.330291
850.000000	58.031670
851.000000	57.893549
852.000000	57.609409
853.000000	57.481657
854.000000	57.230459
855.000000	57.089881
856.000000	56.895673
857.000000	56.774060
858.000000	55.922880
859.000000	56.988040
860.000000	56.986460
861.000000	57.217240
862.000000	57.221980
863.000000	56.984460
864.000000	57.028460
865.000000	57.142340
866.000000	57.137480
867.000000	57.289160
868.000000	57.167340
869.000000	57.205000
870.000000	57.040440
871.000000	57.006060
872.000000	57.060200
873.000000	56.823240
874.000000	56.899300
875.000000	56.739980
876.000000	56.481800
877.000000	56.633600
878.000000	56.753660
879.000000	56.617280
880.000000	56.558400
881.000000	56.396040
882.000000	56.184040
883.000000	56.112440
884.000000	56.184860
885.000000	56.010420
886.000000	55.887220
887.000000	55.764300
888.000000	55.855600
889.000000	55.690860
890.000000	55.606200
891.000000	55.545860
892.000000	55.407120
893.000000	55.283140
894.000000	55.211880
895.000000	55.140640
896.000000	55.034300
897.000000	54.858880
898.000000	54.873040
899.000000	54.762380
900.000000	54.640600
901.000000	54.498740
902.000000	54.398380
903.000000	54.316800
904.000000	54.173000
905.000000	53.999300
906.000000	53.843300
907.000000	53.764340
908.000000	53.715580
909.000000	53.652740
910.000000	53.512360
911.000000	53.412520
912.000000	53.423640
913.000000	53.304400
914.000000	53.225980
915.000000	53.245180
916.000000	53.168340
917.000000	53.127040
918.000000	53.123620
919.000000	52.962100
920.000000	52.851360
921.000000	52.860380
922.000000	52.832920
923.000000	52.785340
924.000000	52.728580
925.000000	52.654480
926.000000	52.611660
927.000000	52.580140
928.000000	52.538500
929.000000	52.467120
930.000000	52.434460
931.000000	52.411960
932.000000	52.384980
933.000000	52.353180
934.000000	52.297300
935.000000	52.234780
936.000000	52.192300
937.000000	52.155520
938.000000	52.129160
939.000000	52.069720
940.000000	51.977020
941.000000	51.926500
942.000000	51.885500
943.000000	51.800420
944.000000	51.752460
945.000000	51.702020
946.000000	51.667840
947.000000	51.596740
948.000000	51.541720
949.000000	51.509800
950.000000	51.457300
951.000000	51.404400
952.000000	51.319320
953.000000	51.277740
954.000000	51.225760
955.000000	51.168860
956.000000	51.135100
957.000000	51.072480
958.000000	51.027400
959.000000	50.982640
960.000000	50.913200
961.000000	50.876120
962.000000	50.827120
963.000000	50.800280
964.000000	50.754320
965.000000	50.712900
966.000000	50.691600
967.000000	50.669120
968.000000	50.647080
969.000000	50.628440
970.000000	50.599440
971.000000	50.585900
972.000000	50.558380
973.000000	50.545100
974.000000	50.493940
975.000000	50.449980
976.000000	50.411820
977.000000	50.383020
978.000000	50.330080
979.000000	50.294900
980.000000	50.259360
981.000000	50.224920
982.000000	50.202000
983.000000	50.165500
984.000000	50.090440
985.000000	50.022540
986.000000	50.000240
987.000000	49.978380
988.000000	49.933000
989.000000	49.885180
990.000000	49.842260
991.000000	49.816000
992.000000	49.786080
993.000000	49.755500
994.000000	49.755680
995.000000	49.744560
996.000000	49.696460
997.000000	49.678440
998.000000	49.657400
999.000000	49.639280
1000.000000	49.622940
1001.000000	49.590100
1002.000000	49.577800
1003.000000	49.602300
1004.000000	49.580260
1005.000000	49.599540
1006.000000	49.583820
1007.000000	49.561560
1008.000000	49.549920
1009.000000	49.555440
1010.000000	49.539460
1011.000000	49.527780
1012.000000	49.536500
1013.000000	49.557440
1014.000000	49.573420
1015.000000	49.579100
1016.000000	49.606100
1017.000000	49.641740
1018.000000	49.674200
1019.000000	49.697260
1020.000000	49.731020
1021.000000	49.777100
1022.000000	49.824700
1023.000000	49.869740
1024.000000	49.908160
1025.000000	49.974860
1026.000000	50.005080
1027.000000	50.053660
1028.000000	50.109620
1029.000000	50.172780
1030.000000	50.197080
1031.000000	50.219780
1032.000000	50.272740
1033.000000	50.305040
1034.000000	50.368800
1035.000000	50.415640
1036.000000	50.479180
1037.000000	50.506040
1038.000000	50.563480
1039.000000	50.607180
1040.000000	50.649980
1041.000000	50.689940
1042.000000	50.728000
1043.000000	50.777720
1044.000000	50.834920
1045.000000	50.858980
1046.000000	50.900020
1047.000000	50.939440
1048.000000	50.987340
1049.000000	51.018480
1050.000000	51.070840
1051.000000	51.134120
1052.000000	51.192320
1053.000000	51.231560
1054.000000	51.290840
1055.000000	51.326260
1056.000000	51.382120
1057.000000	51.441460
1058.000000	51.514200
1059.000000	51.575920
1060.000000	51.623560
1061.000000	51.676840
1062.000000	51.735720
1063.000000	51.777480
1064.000000	51.827680
1065.000000	51.891000
1066.000000	51.947280
1067.000000	51.992220
1068.000000	52.042760
1069.000000	52.106860
1070.000000	52.142100
1071.000000	52.195620
1072.000000	52.260480
1073.000000	52.298980
1074.000000	52.343740
1075.000000	52.394840
1076.000000	52.447080
1077.000000	52.488560
1078.000000	52.533820
1079.000000	52.595640
1080.000000	52.646200
1081.000000	52.685900
1082.000000	52.755820
1083.000000	52.804340
1084.000000	52.874440
1085.000000	52.923060
1086.000000	52.976940
1087.000000	53.027020
1088.000000	53.082840
1089.000000	53.137400
1090.000000	53.173300
1091.000000	53.222380
1092.000000	53.275140
1093.000000	53.339380
1094.000000	53.370140
1095.000000	53.416960
1096.000000	53.452220
1097.000000	53.481860
1098.000000	53.536400
1099.000000	53.567400
1100.000000	53.610240
1101.000000	53.638420
1102.000000	53.678700
1103.000000	53.692100
1104.000000	53.711080
1105.000000	53.748020
1106.000000	53.780800
1107.000000	53.804220
1108.000000	53.833060
1109.000000	53.847200
1110.000000	53.867120
1111.000000	53.880840
1112.000000	53.902920
1113.000000	53.925060
1114.000000	53.955340
1115.000000	53.987220
1116.000000	54.008560
1117.000000	54.030720
1118.000000	54.036340
1119.000000	54.052300
1120.000000	54.037300
1121.000000	54.026100
1122.000000	54.019360
1123.000000	54.003200
1124.000000	53.962380
1125.000000	53.905940
1126.000000	53.875580
1127.000000	53.807740
1128.000000	53.724900
1129.000000	53.638040
1130.000000	53.518060
1131.000000	53.340000
1132.000000	53.146920
1133.000000	52.939660
1134.000000	52.758900
1135.000000	52.560480
1136.000000	52.272280
1137.000000	51.974420
1138.000000	51.671060
1139.000000	51.400640
1140.000000	51.134620
1141.000000	50.892940
1142.000000	50.624360
1143.000000	50.378740
1144.000000	50.154020
1145.000000	49.953660
1146.000000	49.810720
1147.000000	49.720660
1148.000000	49.688140
1149.000000	49.711060
1150.000000	49.730320
1151.000000	49.741400
1152.000000	49.766140
1153.000000	49.764500
1154.000000	49.715340
1155.000000	49.616180
1156.000000	49.479900
1157.000000	49.287340
1158.000000	49.070140
1159.000000	48.811360
1160.000000	48.544940
1161.000000	48.266940
1162.000000	47.985060
1163.000000	47.688100
1164.000000	47.390520
1165.000000	47.096620
1166.000000	46.784360
1167.000000	46.494780
1168.000000	46.209780
1169.000000	45.919840
1170.000000	45.633380
1171.000000	45.349540
1172.000000	45.078040
1173.000000	44.805420
1174.000000	44.543580
1175.000000	44.307860
1176.000000	44.057080
1177.000000	43.792980
1178.000000	43.499060
1179.000000	43.154680
1180.000000	42.762600
1181.000000	42.344200
1182.000000	41.920060
1183.000000	41.529160
1184.000000	41.227000
1185.000000	41.039240
1186.000000	40.960940
1187.000000	40.976120
1188.000000	41.107300
1189.000000	41.353280
1190.000000	41.681640
1191.000000	42.058480
1192.000000	42.463660
1193.000000	42.850620
1194.000000	43.182860
1195.000000	43.464260
1196.000000	43.686920
1197.000000	43.859140
1198.000000	43.992180
1199.000000	44.077600
1200.000000	44.137180
1201.000000	44.185160
1202.000000	44.215000
1203.000000	44.230760
1204.000000	44.246480
1205.000000	44.266180
1206.000000	44.291700
1207.000000	44.336420
1208.000000	44.387660
1209.000000	44.458200
1210.000000	44.530360
1211.000000	44.609740
1212.000000	44.693740
1213.000000	44.782860
1214.000000	44.882640
1215.000000	44.983060
1216.000000	45.088540
1217.000000	45.199640
1218.000000	45.307680
1219.000000	45.431460
1220.000000	45.571360
1221.000000	45.710120
1222.000000	45.846740
1223.000000	45.995740
1224.000000	46.155720
1225.000000	46.311980
1226.000000	46.464640
1227.000000	46.620340
1228.000000	46.769040
1229.000000	46.929300
1230.000000	47.091000
1231.000000	47.243420
1232.000000	47.394720
1233.000000	47.549940
1234.000000	47.704600
1235.000000	47.854440
1236.000000	48.002160
1237.000000	48.150680
1238.000000	48.291960
1239.000000	48.424520
1240.000000	48.563540
1241.000000	48.699720
1242.000000	48.830100
1243.000000	48.955920
1244.000000	49.071760
1245.000000	49.175700
1246.000000	49.279520
1247.000000	49.382700
1248.000000	49.475340
1249.000000	49.557940
1250.000000	49.642860
1251.000000	49.719400
1252.000000	49.787300
1253.000000	49.852280
1254.000000	49.915320
1255.000000	49.972220
1256.000000	50.024420
1257.000000	50.086660
1258.000000	50.134140
1259.000000	50.173900
1260.000000	50.219660
1261.000000	50.259640
1262.000000	50.311260
1263.000000	50.352940
1264.000000	50.390760
1265.000000	50.438100
1266.000000	50.476740
1267.000000	50.518320
1268.000000	50.553360
1269.000000	50.603940
1270.000000	50.641280
1271.000000	50.677380
1272.000000	50.713820
1273.000000	50.757520
1274.000000	50.792840
1275.000000	50.837260
1276.000000	50.878220
1277.000000	50.921760
1278.000000	50.975040
1279.000000	51.031220
1280.000000	51.081440
1281.000000	51.147840
1282.000000	51.205260
1283.000000	51.264920
1284.000000	51.317580
1285.000000	51.374140
1286.000000	51.428220
1287.000000	51.473060
1288.000000	51.520600
1289.000000	51.563260
1290.000000	51.607080
1291.000000	51.644020
1292.000000	51.667680
1293.000000	51.686480
1294.000000	51.705940
1295.000000	51.719380
1296.000000	51.736960
1297.000000	51.747420
1298.000000	51.756360
1299.000000	51.764540
1300.000000	51.776520
1301.000000	51.780580
1302.000000	51.786660
1303.000000	51.805200
1304.000000	51.805940
1305.000000	51.798960
1306.000000	51.780840
1307.000000	51.764000
1308.000000	51.736600
1309.000000	51.712380
1310.000000	51.689760
1311.000000	51.653480
1312.000000	51.606460
1313.000000	51.559900
1314.000000	51.524980
1315.000000	51.467140
1316.000000	51.407540
1317.000000	51.356540
1318.000000	51.300760
1319.000000	51.234620
1320.000000	51.156660
1321.000000	51.081960
1322.000000	51.007720
1323.000000	50.922540
1324.000000	50.841520
1325.000000	50.752720
1326.000000	50.654200
1327.000000	50.557700
1328.000000	50.444820
1329.000000	50.336800
1330.000000	50.222240
1331.000000	50.089640
1332.000000	49.946280
1333.000000	49.807040
1334.000000	49.660020
1335.000000	49.484800
1336.000000	49.327680
1337.000000	49.132260
1338.000000	48.948760
1339.000000	48.749880
1340.000000	48.530980
1341.000000	48.307560
1342.000000	48.069080
1343.000000	47.823540
1344.000000	47.590640
1345.000000	47.309780
1346.000000	46.998920
1347.000000	46.710040
1348.000000	46.403080
1349.000000	46.040860
1350.000000	45.657820
1351.000000	45.224260
1352.000000	44.742080
1353.000000	44.234540
1354.000000	43.786880
1355.000000	43.358780
1356.000000	42.994640
1357.000000	42.727040
1358.000000	42.557680
1359.000000	42.460120
1360.000000	42.398020
1361.000000	42.420420
1362.000000	42.396680
1363.000000	42.173880
1364.000000	42.012660
1365.000000	41.897020
1366.000000	41.673540
1367.000000	41.493860
1368.000000	41.293260
1369.000000	41.020780
1370.000000	40.741760
1371.000000	40.483280
1372.000000	40.181160
1373.000000	39.836240
1374.000000	39.529980
1375.000000	39.295080
1376.000000	39.147940
1377.000000	39.031420
1378.000000	38.948620
1379.000000	38.901780
1380.000000	38.873700
1381.000000	38.799980
1382.000000	38.663480
1383.000000	38.458280
1384.000000	38.128040
1385.000000	37.807580
1386.000000	37.442220
1387.000000	37.170920
1388.000000	36.974220
1389.000000	36.722680
1390.000000	36.475000
1391.000000	36.309880
1392.000000	36.211480
1393.000000	36.058500
1394.000000	35.914920
1395.000000	35.855380
1396.000000	35.768980
1397.000000	35.530480
1398.000000	35.247960
1399.000000	35.041000
1400.000000	34.890420
1401.000000	34.641060
1402.000000	34.250400
1403.000000	33.881720
1404.000000	33.593960
1405.000000	33.301620
1406.000000	32.954180
1407.000000	32.644580
1408.000000	32.327240
1409.000000	32.053420
1410.000000	31.782500
1411.000000	31.505440
1412.000000	31.259060
1413.000000	31.088640
1414.000000	30.944320
1415.000000	30.753360
1416.000000	30.511480
1417.000000	30.298080
1418.000000	30.137280
1419.000000	29.970700
1420.000000	29.758880
1421.000000	29.529920
1422.000000	29.313160
1423.000000	29.139340
1424.000000	28.952760
1425.000000	28.732840
1426.000000	28.536660
1427.000000	28.340880
1428.000000	28.179540
1429.000000	28.030500
1430.000000	27.855240
1431.000000	27.727620
1432.000000	27.610860
1433.000000	27.481860
1434.000000	27.350140
1435.000000	27.222860
1436.000000	27.092500
1437.000000	26.992800
1438.000000	26.886540
1439.000000	26.759340
1440.000000	26.636060
1441.000000	26.512080
1442.000000	26.398700
1443.000000	26.279560
1444.000000	26.142220
1445.000000	26.047260
1446.000000	25.943020
1447.000000	25.810020
1448.000000	25.680920
1449.000000	25.562360
1450.000000	25.481300
1451.000000	25.393060
1452.000000	25.284000
1453.000000	25.169220
1454.000000	25.060600
1455.000000	24.977320
1456.000000	24.899320
1457.000000	24.800020
1458.000000	24.717320
1459.000000	24.638080
1460.000000	24.562900
1461.000000	24.492440
1462.000000	24.427380
1463.000000	24.356760
1464.000000	24.295380
1465.000000	24.240340
1466.000000	24.202900
1467.000000	24.165780
1468.000000	24.117600
1469.000000	24.087680
1470.000000	24.056820
1471.000000	24.023680
1472.000000	23.981660
1473.000000	23.945300
1474.000000	23.906040
1475.000000	23.871580
1476.000000	23.828700
1477.000000	23.800800
1478.000000	23.767300
1479.000000	23.727000
1480.000000	23.716180
1481.000000	23.696360
1482.000000	23.671940
1483.000000	23.644820
1484.000000	23.618520
1485.000000	23.600060
1486.000000	23.593360
1487.000000	23.589840
1488.000000	23.580780
1489.000000	23.576580
1490.000000	23.571900
1491.000000	23.566260
1492.000000	23.548500
1493.000000	23.550540
1494.000000	23.551640
1495.000000	23.556400
1496.000000	23.553260
1497.000000	23.560080
1498.000000	23.571740
1499.000000	23.588260
1500.000000	23.606080
1501.000000	23.626840
1502.000000	23.638420
1503.000000	23.658640
1504.000000	23.693440
1505.000000	23.713880
1506.000000	23.732420
1507.000000	23.751320
1508.000000	23.776120
1509.000000	23.810300
1510.000000	23.829280
1511.000000	23.854720
1512.000000	23.886920
1513.000000	23.913460
1514.000000	23.944960
1515.000000	23.961440
1516.000000	23.980400
1517.000000	24.013060
1518.000000	24.044460
1519.000000	24.062940
1520.000000	24.084100
1521.000000	24.108660
1522.000000	24.127060
1523.000000	24.145440
1524.000000	24.155300
1525.000000	24.171900
1526.000000	24.195800
1527.000000	24.214480
1528.000000	24.235940
1529.000000	24.258720
1530.000000	24.268800
1531.000000	24.272200
1532.000000	24.283200
1533.000000	24.291360
1534.000000	24.310400
1535.000000	24.308040
1536.000000	24.312220
1537.000000	24.319500
1538.000000	24.312580
1539.000000	24.312440
1540.000000	24.314200
1541.000000	24.319100
1542.000000	24.317940
1543.000000	24.319400
1544.000000	24.314160
1545.000000	24.313440
1546.000000	24.319500
1547.000000	24.319080
1548.000000	24.323120
1549.000000	24.322880
1550.000000	24.334740
1551.000000	24.343980
1552.000000	24.348080
1553.000000	24.335900
1554.000000	24.332220
1555.000000	24.335420
1556.000000	24.331760
1557.000000	24.325640
1558.000000	24.311040
1559.000000	24.309580
1560.000000	24.291500
1561.000000	24.272240
1562.000000	24.230300
1563.000000	24.228020
1564.000000	24.204080
1565.000000	24.183360
1566.000000	24.149840
1567.000000	24.122340
1568.000000	24.111900
1569.000000	24.084040
1570.000000	24.045120
1571.000000	24.029100
1572.000000	24.015760
1573.000000	24.008640
1574.000000	23.999960
1575.000000	23.994320
1576.000000	23.978820
1577.000000	23.988180
1578.000000	23.991540
1579.000000	23.989500
1580.000000	24.000120
1581.000000	24.002880
1582.000000	24.019880
1583.000000	24.026800
1584.000000	24.056840
1585.000000	24.079000
1586.000000	24.098320
1587.000000	24.125380
1588.000000	24.158960
1589.000000	24.195100
1590.000000	24.227500
1591.000000	24.251200
1592.000000	24.305080
1593.000000	24.341200
1594.000000	24.385400
1595.000000	24.430760
1596.000000	24.473780
1597.000000	24.529020
1598.000000	24.587680
1599.000000	24.641820
1600.000000	24.690420
1601.000000	24.757560
1602.000000	24.817520
1603.000000	24.882380
1604.000000	24.957140
1605.000000	25.009840
1606.000000	25.090780
1607.000000	25.140840
1608.000000	25.201840
1609.000000	25.272520
1610.000000	25.333220
1611.000000	25.410060
1612.000000	25.464060
1613.000000	25.532640
1614.000000	25.603840
1615.000000	25.673340
1616.000000	25.751920
1617.000000	25.810880
1618.000000	25.892700
1619.000000	25.958100
1620.000000	26.033820
1621.000000	26.111500
1622.000000	26.171180
1623.000000	26.263360
1624.000000	26.326020
1625.000000	26.410760
1626.000000	26.492440
1627.000000	26.573760
1628.000000	26.637760
1629.000000	26.720440
1630.000000	26.790000
1631.000000	26.865620
1632.000000	26.945860
1633.000000	27.009480
1634.000000	27.075380
1635.000000	27.139020
1636.000000	27.221400
1637.000000	27.280940
1638.000000	27.339760
1639.000000	27.402200
1640.000000	27.454620
1641.000000	27.507620
1642.000000	27.569580
1643.000000	27.629180
1644.000000	27.672680
1645.000000	27.726620
1646.000000	27.777940
1647.000000	27.818960
1648.000000	27.858780
1649.000000	27.903880
1650.000000	27.940500
1651.000000	27.963340
1652.000000	27.978020
1653.000000	27.995420
1654.000000	28.004620
1655.000000	28.008980
1656.000000	28.015140
1657.000000	28.015300
1658.000000	27.996460
1659.000000	27.968700
1660.000000	27.948520
1661.000000	27.901860
1662.000000	27.864700
1663.000000	27.800460
1664.000000	27.747880
1665.000000	27.683000
1666.000000	27.604600
1667.000000	27.513200
1668.000000	27.396060
1669.000000	27.276860
1670.000000	27.145000
1671.000000	26.977260
1672.000000	26.784720
1673.000000	26.565380
1674.000000	26.316140
1675.000000	26.010800
1676.000000	25.676920
1677.000000	25.271760
1678.000000	24.823980
1679.000000	24.324180
1680.000000	23.839680
1681.000000	23.372160
1682.000000	22.974320
1683.000000	22.679380
1684.000000	22.516780
1685.000000	22.445960
1686.000000	22.442220
1687.000000	22.440640
1688.000000	22.427860
1689.000000	22.362800
1690.000000	22.252160
1691.000000	22.112920
1692.000000	21.951200
1693.000000	21.806220
1694.000000	21.683380
1695.000000	21.630160
1696.000000	21.627320
1697.000000	21.669240
1698.000000	21.770780
1699.000000	21.895660
1700.000000	22.030640
1701.000000	22.155420
1702.000000	22.265600
1703.000000	22.356140
1704.000000	22.425760
1705.000000	22.463020
1706.000000	22.489000
1707.000000	22.525880
1708.000000	22.542880
1709.000000	22.559720
1710.000000	22.567000
1711.000000	22.556040
1712.000000	22.535520
1713.000000	22.503180
1714.000000	22.455980
1715.000000	22.410720
1716.000000	22.356040
1717.000000	22.311540
1718.000000	22.278560
1719.000000	22.251360
1720.000000	22.250460
1721.000000	22.251640
1722.000000	22.234180
1723.000000	22.210280
1724.000000	22.184380
1725.000000	22.136580
1726.000000	22.073040
1727.000000	21.987200
1728.000000	21.888540
1729.000000	21.783040
1730.000000	21.675320
1731.000000	21.566400
1732.000000	21.481140
1733.000000	21.435660
1734.000000	21.431280
1735.000000	21.470020
1736.000000	21.547200
1737.000000	21.659380
1738.000000	21.806320
1739.000000	21.996840
1740.000000	22.192640
1741.000000	22.412280
1742.000000	22.611700
1743.000000	22.792240
1744.000000	22.956040
1745.000000	23.095620
1746.000000	23.220300
1747.000000	23.317240
1748.000000	23.400720
1749.000000	23.482000
1750.000000	23.540020
1751.000000	23.581280
1752.000000	23.614480
1753.000000	23.634440
1754.000000	23.650880
1755.000000	23.637120
1756.000000	23.603420
1757.000000	23.573980
1758.000000	23.517040
1759.000000	23.446720
1760.000000	23.392240
1761.000000	23.349280
1762.000000	23.318680
1763.000000	23.303540
1764.000000	23.307980
1765.000000	23.352080
1766.000000	23.407220
1767.000000	23.478980
1768.000000	23.581580
1769.000000	23.689000
1770.000000	23.803140
1771.000000	23.915420
1772.000000	24.042180
1773.000000	24.164280
1774.000000	24.289320
1775.000000	24.397920
1776.000000	24.494260
1777.000000	24.576920
1778.000000	24.668380
1779.000000	24.757560
1780.000000	24.826900
1781.000000	24.891620
1782.000000	24.956580
1783.000000	25.032620
1784.000000	25.101940
1785.000000	25.171500
1786.000000	25.244880
1787.000000	25.302860
1788.000000	25.352780
1789.000000	25.406340
1790.000000	25.463800
1791.000000	25.514140
1792.000000	25.574900
1793.000000	25.624760
1794.000000	25.666760
1795.000000	25.714880
1796.000000	25.761120
1797.000000	25.797960
1798.000000	25.812100
1799.000000	25.843840
1800.000000	25.905100
1801.000000	25.977140
1802.000000	26.023960
1803.000000	26.068220
1804.000000	26.054540
1805.000000	26.109380
1806.000000	26.170640
1807.000000	26.200900
1808.000000	26.236520
1809.000000	26.254600
1810.000000	26.287940
1811.000000	26.344480
1812.000000	26.392180
1813.000000	26.387300
1814.000000	26.364280
1815.000000	26.393400
1816.000000	26.401500
1817.000000	26.380200
1818.000000	26.373420
1819.000000	26.398280
1820.000000	26.502120
1821.000000	26.589260
1822.000000	26.583620
1823.000000	26.542740
1824.000000	26.482080
1825.000000	26.542400
1826.000000	26.659780
1827.000000	26.716060
1828.000000	26.778160
1829.000000	26.837760
1830.000000	26.908960
1831.000000	27.018240
1832.000000	27.064940
1833.000000	27.098340
1834.000000	27.141380
1835.000000	27.262700
1836.000000	27.393640
1837.000000	27.496340
1838.000000	27.491100
1839.000000	27.466080
1840.000000	27.535800
1841.000000	27.664000
1842.000000	27.740760
1843.000000	27.686200
1844.000000	27.603380
1845.000000	27.579880
1846.000000	27.638620
1847.000000	27.920320
1848.000000	28.087200
1849.000000	28.036500
1850.000000	28.014160
1851.000000	27.975360
1852.000000	27.989240
1853.000000	28.129540
1854.000000	28.209080
1855.000000	28.171340
1856.000000	28.263460
1857.000000	28.282940
1858.000000	28.206460
1859.000000	28.297100
1860.000000	28.394160
1861.000000	28.276820
1862.000000	28.185120
1863.000000	28.176420
1864.000000	28.145020
1865.000000	28.034700
1866.000000	27.928940
1867.000000	27.967640
1868.000000	27.992940
1869.000000	27.785800
1870.000000	27.689060
1871.000000	27.578460
1872.000000	27.385340
1873.000000	27.215780
1874.000000	26.944080
1875.000000	26.645820
1876.000000	26.363000
1877.000000	26.115280
1878.000000	25.700120
1879.000000	25.302280
1880.000000	24.943680
1881.000000	24.603520
1882.000000	24.115120
1883.000000	23.755640
1884.000000	23.451920
1885.000000	23.051920
1886.000000	22.723060
1887.000000	22.434240
1888.000000	22.095860
1889.000000	21.851500
1890.000000	21.650080
1891.000000	21.361160
1892.000000	21.132440
1893.000000	20.875380
1894.000000	20.573980
1895.000000	20.279920
1896.000000	20.049380
1897.000000	19.788340
1898.000000	19.584440
1899.000000	19.415960
1900.000000	19.164480
1901.000000	18.818600
1902.000000	18.588960
1903.000000	18.374540
1904.000000	18.150500
1905.000000	18.005280
1906.000000	17.844980
1907.000000	17.502720
1908.000000	17.217980
1909.000000	17.015240
1910.000000	16.851220
1911.000000	16.650580
1912.000000	16.496800
1913.000000	16.338580
1914.000000	16.141500
1915.000000	15.941180
1916.000000	15.802060
1917.000000	15.585140
1918.000000	15.405060
1919.000000	15.311440
1920.000000	15.308060
1921.000000	15.105720
1922.000000	14.888120
1923.000000	14.806100
1924.000000	14.731140
1925.000000	14.598280
1926.000000	14.485760
1927.000000	14.404460
1928.000000	14.314440
1929.000000	14.260760
1930.000000	14.182240
1931.000000	14.132780
1932.000000	14.079360
1933.000000	14.035500
1934.000000	14.001500
1935.000000	13.941360
1936.000000	13.913060
1937.000000	13.913600
1938.000000	13.920380
1939.000000	13.911380
1940.000000	13.903620
1941.000000	13.900480
1942.000000	13.907900
1943.000000	13.888080
1944.000000	13.906440
1945.000000	13.928380
1946.000000	13.982920
1947.000000	14.004620
1948.000000	14.051940
1949.000000	14.120620
1950.000000	14.121820
1951.000000	14.166480
1952.000000	14.250320
1953.000000	14.318800
1954.000000	14.385700
1955.000000	14.408000
1956.000000	14.445200
1957.000000	14.519260
1958.000000	14.576480
1959.000000	14.650820
1960.000000	14.686280
1961.000000	14.737060
1962.000000	14.782360
1963.000000	14.858340
1964.000000	14.922140
1965.000000	14.964360
1966.000000	15.007220
1967.000000	15.069480
1968.000000	15.123900
1969.000000	15.197280
1970.000000	15.253040
1971.000000	15.313300
1972.000000	15.384960
1973.000000	15.430440
1974.000000	15.471580
1975.000000	15.532700
1976.000000	15.603800
1977.000000	15.662620
1978.000000	15.743420
1979.000000	15.818220
1980.000000	15.886060
1981.000000	15.947360
1982.000000	15.995520
1983.000000	16.076440
1984.000000	16.127840
1985.000000	16.183460
1986.000000	16.255020
1987.000000	16.315600
1988.000000	16.376280
1989.000000	16.445340
1990.000000	16.497900
1991.000000	16.532980
1992.000000	16.584760
1993.000000	16.648440
1994.000000	16.660460
1995.000000	16.704140
1996.000000	16.762140
1997.000000	16.811860
1998.000000	16.853100
1999.000000	16.863880
2000.000000	16.881060
2001.000000	16.888300
2002.000000	16.909580
2003.000000	16.977080
2004.000000	16.997140
2005.000000	16.992020
2006.000000	17.002660
2007.000000	16.992680
2008.000000	16.981960
2009.000000	17.029140
2010.000000	17.042360
2011.000000	17.020740
2012.000000	16.995140
2013.000000	16.976340
2014.000000	16.959000
2015.000000	16.950120
2016.000000	16.920480
2017.000000	16.867820
2018.000000	16.811960
2019.000000	16.766700
2020.000000	16.758360
2021.000000	16.733320
2022.000000	16.646120
2023.000000	16.586800
2024.000000	16.574620
2025.000000	16.547640
2026.000000	16.455680
2027.000000	16.404860
2028.000000	16.327540
2029.000000	16.271260
2030.000000	16.221160
2031.000000	16.153840
2032.000000	16.076560
2033.000000	15.985980
2034.000000	15.943260
2035.000000	15.846200
2036.000000	15.726140
2037.000000	15.674680
2038.000000	15.592920
2039.000000	15.472000
2040.000000	15.370080
2041.000000	15.308540
2042.000000	15.241160
2043.000000	15.109920
2044.000000	14.999080
2045.000000	14.873000
2046.000000	14.773580
2047.000000	14.663720
2048.000000	14.582320
2049.000000	14.487960
2050.000000	14.444200
2051.000000	14.352660
2052.000000	14.278700
2053.000000	14.205600
2054.000000	14.165280
2055.000000	14.165680
2056.000000	14.099840
2057.000000	14.084200
2058.000000	14.097680
2059.000000	14.103860
2060.000000	14.140220
2061.000000	14.023100
2062.000000	14.024860
2063.000000	14.061400
2064.000000	14.053820
2065.000000	14.068180
2066.000000	13.994200
2067.000000	14.081560
2068.000000	14.053600
2069.000000	14.051740
2070.000000	14.078480
2071.000000	14.151260
2072.000000	14.153460
2073.000000	14.116120
2074.000000	14.127080
2075.000000	14.113640
2076.000000	14.108800
2077.000000	14.106920
2078.000000	14.154940
2079.000000	14.203420
2080.000000	14.273020
2081.000000	14.218720
2082.000000	14.199780
2083.000000	14.301480
2084.000000	14.253940
2085.000000	14.323320
2086.000000	14.293040
2087.000000	14.277060
2088.000000	14.216620
2089.000000	14.301800
2090.000000	14.382460
2091.000000	14.204700
2092.000000	14.342800
2093.000000	14.270040
2094.000000	14.302440
2095.000000	14.336820
2096.000000	14.341440
2097.000000	14.448620
2098.000000	14.513240
2099.000000	14.512800
2100.000000	14.576100
2101.000000	14.532060
2102.000000	14.473420
2103.000000	14.537140
2104.000000	14.669020
2105.000000	14.619800
2106.000000	14.559260
2107.000000	14.684540
2108.000000	14.751160
2109.000000	14.860740
2110.000000	14.856820
2111.000000	14.902140
2112.000000	14.863600
2113.000000	14.810400
2114.000000	14.990300
2115.000000	14.955480
2116.000000	15.036220
2117.000000	15.102940
2118.000000	15.006300
2119.000000	15.104920
2120.000000	14.966380
2121.000000	15.115660
2122.000000	15.281440
2123.000000	15.218040
2124.000000	15.176420
2125.000000	15.310140
2126.000000	15.195560
2127.000000	15.265640
2128.000000	15.313120
2129.000000	15.146660
2130.000000	15.443500
2131.000000	15.274900
2132.000000	15.246600
2133.000000	15.356040
2134.000000	15.313820
2135.000000	15.212960
2136.000000	15.277020
2137.000000	15.286040
2138.000000	15.261680
2139.000000	15.263180
2140.000000	15.387200
2141.000000	15.335360
2142.000000	15.377380
2143.000000	15.353880
2144.000000	15.265340
2145.000000	15.244580
2146.000000	15.150020
2147.000000	15.092140
2148.000000	15.153460
2149.000000	15.126580
2150.000000	15.083480
2151.000000	15.178580
2152.000000	15.040080
2153.000000	15.117120
2154.000000	15.056840
2155.000000	14.997640
2156.000000	15.008620
2157.000000	14.889600
2158.000000	14.903660
2159.000000	14.864700
2160.000000	15.009420
2161.000000	14.890980
2162.000000	15.053380
2163.000000	14.913680
2164.000000	14.884340
2165.000000	14.900360
2166.000000	14.913460
2167.000000	14.899600
2168.000000	14.917360
2169.000000	14.849160
2170.000000	14.828080
2171.000000	14.778300
2172.000000	14.773200
2173.000000	14.731160
2174.000000	14.792840
2175.000000	14.765360
2176.000000	14.830880
2177.000000	14.805620
2178.000000	14.810440
2179.000000	14.881640
2180.000000	14.915500
2181.000000	14.815920
2182.000000	14.785140
2183.000000	14.774900
2184.000000	14.894400
2185.000000	14.946280
2186.000000	14.907680
2187.000000	14.956120
2188.000000	14.876300
2189.000000	14.952720
2190.000000	14.935080
2191.000000	15.025260
2192.000000	14.944020
2193.000000	14.891000
2194.000000	14.985960
2195.000000	15.031960
2196.000000	14.958160
2197.000000	15.009540
2198.000000	15.069160
2199.000000	14.949200
2200.000000	15.038660
2201.000000	15.005820
2202.000000	14.963500
2203.000000	15.062820
2204.000000	15.132200
2205.000000	15.160580
2206.000000	15.185580
2207.000000	15.059340
2208.000000	15.071400
2209.000000	15.092720
2210.000000	15.174380
2211.000000	15.185140
2212.000000	15.189020
2213.000000	15.152040
2214.000000	15.204240
2215.000000	15.258880
2216.000000	15.312040
2217.000000	15.223880
2218.000000	15.146720
2219.000000	15.233860
2220.000000	15.263040
2221.000000	15.284100
2222.000000	15.234020
2223.000000	15.258680
2224.000000	15.302120
2225.000000	15.238900
2226.000000	15.215220
2227.000000	15.236400
2228.000000	15.197040
2229.000000	15.188560
2230.000000	15.242620
2231.000000	15.159400
2232.000000	15.077120
2233.000000	14.968720
2234.000000	15.004540
2235.000000	14.989820
2236.000000	14.743720
2237.000000	14.706760
2238.000000	14.711620
2239.000000	14.748400
2240.000000	14.671760
2241.000000	14.547780
2242.000000	14.399000
2243.000000	14.222640
2244.000000	14.082980
2245.000000	13.992560
2246.000000	13.976300
2247.000000	13.835720
2248.000000	13.593080
2249.000000	13.488960
2250.000000	13.357400
2251.000000	13.157760
2252.000000	12.963740
2253.000000	12.723420
2254.000000	12.614240
2255.000000	12.450980
2256.000000	12.265220
2257.000000	12.117700
2258.000000	11.865340
2259.000000	11.656740
2260.000000	11.457520
2261.000000	11.238020
2262.000000	11.035300
2263.000000	10.837220
2264.000000	10.728760
2265.000000	10.636840
2266.000000	10.504480
2267.000000	10.410260
2268.000000	10.401560
2269.000000	10.465880
2270.000000	10.372560
2271.000000	10.337960
2272.000000	10.340700
2273.000000	10.345200
2274.000000	10.391560
2275.000000	10.403840
2276.000000	10.524880
2277.000000	10.507820
2278.000000	10.420100
2279.000000	10.480580
2280.000000	10.613420
2281.000000	10.662140
2282.000000	10.699620
2283.000000	10.710800
2284.000000	10.602960
2285.000000	10.805580
2286.000000	10.999360
2287.000000	10.954380
2288.000000	10.936380
2289.000000	10.913500
2290.000000	10.901860
2291.000000	10.870240
2292.000000	10.812300
2293.000000	10.786900
2294.000000	10.879740
2295.000000	10.813720
2296.000000	10.674080
2297.000000	10.578340
2298.000000	10.584720
2299.000000	10.481860
2300.000000	10.266020
2301.000000	10.460500
2302.000000	10.477140
2303.000000	10.244080
2304.000000	10.138900
2305.000000	10.035520
2306.000000	9.992120
2307.000000	10.055340
2308.000000	10.174060
2309.000000	10.098520
2310.000000	10.038580
2311.000000	10.071620
2312.000000	10.209360
2313.000000	10.269020
2314.000000	10.538320
2315.000000	10.716840
2316.000000	10.705480
2317.000000	10.740160
2318.000000	10.881500
2319.000000	11.055320
2320.000000	11.185180
2321.000000	11.251440
2322.000000	11.199760
2323.000000	11.243420
2324.000000	11.331480
2325.000000	11.368780
2326.000000	11.512460
2327.000000	11.524100
2328.000000	11.632580
2329.000000	11.603400
2330.000000	11.710480
2331.000000	11.801100
2332.000000	11.876220
2333.000000	11.717040
2334.000000	11.839160
2335.000000	11.892820
2336.000000	11.898620
2337.000000	12.057800
2338.000000	12.141400
2339.000000	12.029700
2340.000000	11.930680
2341.000000	12.080580
2342.000000	12.173220
2343.000000	12.040860
2344.000000	11.691760
2345.000000	11.898860
2346.000000	11.933020
2347.000000	11.826540
2348.000000	11.557440
2349.000000	11.585280
2350.000000	11.863260
2351.000000	11.953380
2352.000000	11.684480
2353.000000	11.547160
2354.000000	11.697160
2355.000000	11.733520
2356.000000	11.685000
2357.000000	11.850300
2358.000000	12.110280
2359.000000	11.956160
2360.000000	12.087380
2361.000000	12.103660
2362.000000	12.120340
2363.000000	12.532560
2364.000000	12.376740
2365.000000	12.376860
2366.000000	12.506840
2367.000000	12.437860
2368.000000	12.687840
2369.000000	12.632860
2370.000000	12.456560
2371.000000	12.625620
2372.000000	12.652180
2373.000000	12.589340
2374.000000	12.817160
2375.000000	12.883600
2376.000000	12.421220
2377.000000	12.732140
2378.000000	12.880140
2379.000000	12.866400
2380.000000	12.699640
2381.000000	13.001460
2382.000000	12.817360
2383.000000	12.859680
2384.000000	12.588340
2385.000000	12.875180
2386.000000	12.664680
2387.000000	13.099560
2388.000000	12.656800
2389.000000	12.757580
2390.000000	12.908320
2391.000000	12.624660
2392.000000	12.722540
2393.000000	12.687440
2394.000000	12.719480
2395.000000	12.751440
2396.000000	12.665700
2397.000000	12.450140
2398.000000	12.343000
2399.000000	12.872840
2400.000000	12.684220
2401.000000	10.715900
2402.000000	10.686450
2403.000000	10.650950
2404.000000	10.631750
2405.000000	10.596350
2406.000000	10.562900
2407.000000	10.531400
2408.000000	10.509550
2409.000000	10.485050
2410.000000	10.452850
2411.000000	10.412800
2412.000000	10.382500
2413.000000	10.363700
2414.000000	10.316900
2415.000000	10.286450
2416.000000	10.250900
2417.000000	10.228250
2418.000000	10.198050
2419.000000	10.170450
2420.000000	10.130850
2421.000000	10.092800
2422.000000	10.047200
2423.000000	9.982450
2424.000000	9.914750
2425.000000	9.848400
2426.000000	9.795750
2427.000000	9.749050
2428.000000	9.718450
2429.000000	9.686850
2430.000000	9.649750
2431.000000	9.603450
2432.000000	9.553450
2433.000000	9.520100
2434.000000	9.477350
2435.000000	9.430100
2436.000000	9.384200
2437.000000	9.331300
2438.000000	9.258900
2439.000000	9.214300
2440.000000	9.155200
2441.000000	9.118350
2442.000000	9.040250
2443.000000	8.981800
2444.000000	8.913100
2445.000000	8.865150
2446.000000	8.795200
2447.000000	8.723450
2448.000000	8.655900
2449.000000	8.589000
2450.000000	8.549350
2451.000000	8.481050
2452.000000	8.428200
2453.000000	8.361650
2454.000000	8.312450
2455.000000	8.254350
2456.000000	8.216550
2457.000000	8.178800
2458.000000	8.115000
2459.000000	8.079000
2460.000000	8.047000
2461.000000	8.017750
2462.000000	7.977200
2463.000000	7.944600
2464.000000	7.920900
2465.000000	7.927600
2466.000000	7.903750
2467.000000	7.882400
2468.000000	7.881150
2469.000000	7.884500
2470.000000	7.845700
2471.000000	7.836450
2472.000000	7.846400
2473.000000	7.879200
2474.000000	7.847350
2475.000000	7.852000
2476.000000	7.840250
2477.000000	7.818750
2478.000000	7.871950
2479.000000	7.882100
2480.000000	7.895750
2481.000000	7.828400
2482.000000	7.855050
2483.000000	7.846050
2484.000000	7.850850
2485.000000	7.862350
2486.000000	7.905200
2487.000000	7.908050
2488.000000	7.864650
2489.000000	7.885200
2490.000000	7.923700
2491.000000	7.952900
2492.000000	7.925250
2493.000000	7.925800
2494.000000	7.946500
2495.000000	8.044450
2496.000000	8.026450
2497.000000	8.076550
2498.000000	8.078000
2499.000000	8.079350
2500.000000	8.106550
