PE UV       SUBTECH     SPECTRUM    ASCII       PEDS        4.00        
   -1
CICIMAUCR0019-7.Sample.ASC
24/04/25
16:57:29.00
24/04/25
16:57:29.00
Vinicio Soto Monge
C. cupreomarginata
250,000000
1
Lambda 1050
1050L1511233
PerkinElmer UV WinLab 6.3.2.0749 / 2.02.05 Lambda 900 UV/VIS/NIR, Aug  7 2015 09:38:08

0
0
3350/servo 860,8/2
0
0
UV/VIS
1
1
1
DoubleDePol,CommonBeamDepol,RBeamAtt,SBeamAtt,60mm sphere, WB InGaAs Detector
0
0
0
0
Program
Program
3350/servo 860,8/2
3350/0,2 860,8/0,2
3350/0,2 860,8/0,2
0
15.00
 
 
 
0
 
860,8
319,2
860,8
Front
100
on
S:100 R:100
0
0
0
0
 
0
 
 
 
0
 
 
0
0
0
0
0
 
 
 
 
0
0


0
0
#HDR
-1
-1
#GR
nm
%R
1.0
0.0
2500,000000
-1,000000
2251
8
70,963300
5,343700
#DATA
250.000000	5.109535
251.000000	5.100344
252.000000	5.095404
253.000000	5.064406
254.000000	5.057418
255.000000	5.041867
256.000000	5.025258
257.000000	4.994482
258.000000	5.015209
259.000000	4.987948
260.000000	4.969503
261.000000	4.959140
262.000000	4.915899
263.000000	4.899090
264.000000	4.885632
265.000000	4.846967
266.000000	4.831857
267.000000	4.808758
268.000000	4.784187
269.000000	4.778867
270.000000	4.768149
271.000000	4.746319
272.000000	4.728677
273.000000	4.704039
274.000000	4.703206
275.000000	4.705781
276.000000	4.706244
277.000000	4.666657
278.000000	4.662873
279.000000	4.673596
280.000000	4.652325
281.000000	4.649789
282.000000	4.648528
283.000000	4.627549
284.000000	4.592694
285.000000	4.593674
286.000000	4.572877
287.000000	4.615276
288.000000	4.597856
289.000000	4.575376
290.000000	4.586536
291.000000	4.583916
292.000000	4.575556
293.000000	4.546467
294.000000	4.538214
295.000000	4.546701
296.000000	4.561392
297.000000	4.541498
298.000000	4.514757
299.000000	4.541479
300.000000	4.510147
301.000000	4.529252
302.000000	4.502097
303.000000	4.499856
304.000000	4.478224
305.000000	4.486858
306.000000	4.490713
307.000000	4.500261
308.000000	4.485363
309.000000	4.473100
310.000000	4.474547
311.000000	4.456596
312.000000	4.471017
313.000000	4.459714
314.000000	4.482684
315.000000	4.468491
316.000000	4.495587
317.000000	5.112208
318.000000	4.830181
319.000000	4.806737
320.000000	4.962492
321.000000	4.682343
322.000000	4.850161
323.000000	4.749985
324.000000	4.712166
325.000000	4.556134
326.000000	4.600595
327.000000	4.620450
328.000000	4.582685
329.000000	4.618091
330.000000	4.558548
331.000000	4.601885
332.000000	4.635135
333.000000	4.619274
334.000000	4.522001
335.000000	4.468414
336.000000	4.502274
337.000000	4.490413
338.000000	4.495349
339.000000	4.487113
340.000000	4.520115
341.000000	4.561539
342.000000	4.496922
343.000000	4.467740
344.000000	4.512727
345.000000	4.560681
346.000000	4.552540
347.000000	4.522005
348.000000	4.543498
349.000000	4.588372
350.000000	4.600009
351.000000	4.605460
352.000000	4.600516
353.000000	4.554864
354.000000	4.573946
355.000000	4.589397
356.000000	4.577141
357.000000	4.588830
358.000000	4.599832
359.000000	4.565602
360.000000	4.658573
361.000000	4.701869
362.000000	4.672188
363.000000	4.665503
364.000000	4.738925
365.000000	4.772940
366.000000	4.742751
367.000000	4.769011
368.000000	4.831991
369.000000	4.855698
370.000000	4.893000
371.000000	4.921603
372.000000	4.842146
373.000000	4.856138
374.000000	4.866000
375.000000	5.005670
376.000000	5.236003
377.000000	5.366242
378.000000	5.445690
379.000000	5.528576
380.000000	5.621320
381.000000	5.716629
382.000000	5.814864
383.000000	5.918630
384.000000	6.035665
385.000000	6.160452
386.000000	6.282555
387.000000	6.407373
388.000000	6.532759
389.000000	6.670757
390.000000	6.807142
391.000000	6.947555
392.000000	7.104562
393.000000	7.249013
394.000000	7.389372
395.000000	7.547946
396.000000	7.700884
397.000000	7.846072
398.000000	7.993355
399.000000	8.144171
400.000000	8.290493
401.000000	8.438059
402.000000	8.583340
403.000000	8.721457
404.000000	8.853907
405.000000	9.002855
406.000000	9.140938
407.000000	9.271710
408.000000	9.397037
409.000000	9.515115
410.000000	9.631601
411.000000	9.741786
412.000000	9.855232
413.000000	9.965962
414.000000	10.068530
415.000000	10.172096
416.000000	10.276002
417.000000	10.365448
418.000000	10.444330
419.000000	10.527200
420.000000	10.598026
421.000000	10.659199
422.000000	10.733482
423.000000	10.802492
424.000000	10.861781
425.000000	10.925697
426.000000	10.977526
427.000000	11.024226
428.000000	11.070129
429.000000	11.115557
430.000000	11.154801
431.000000	11.190051
432.000000	11.232928
433.000000	11.269678
434.000000	11.299892
435.000000	11.337196
436.000000	11.372101
437.000000	11.405367
438.000000	11.441728
439.000000	11.475777
440.000000	11.516896
441.000000	11.562558
442.000000	11.608706
443.000000	11.654660
444.000000	11.706933
445.000000	11.779253
446.000000	11.853176
447.000000	11.926875
448.000000	12.015353
449.000000	12.111360
450.000000	12.212630
451.000000	12.322491
452.000000	12.441726
453.000000	12.574101
454.000000	12.723721
455.000000	12.876463
456.000000	13.042403
457.000000	13.220823
458.000000	13.398143
459.000000	13.587031
460.000000	13.794779
461.000000	14.008543
462.000000	14.224166
463.000000	14.447346
464.000000	14.681821
465.000000	14.927320
466.000000	15.162605
467.000000	15.403207
468.000000	15.650689
469.000000	15.907911
470.000000	16.164983
471.000000	16.418584
472.000000	16.675699
473.000000	16.929863
474.000000	17.193778
475.000000	17.452852
476.000000	17.707454
477.000000	17.971401
478.000000	18.232022
479.000000	18.499585
480.000000	18.775225
481.000000	19.041876
482.000000	19.311433
483.000000	19.586520
484.000000	19.873094
485.000000	20.161749
486.000000	20.457257
487.000000	20.758425
488.000000	21.061751
489.000000	21.384915
490.000000	21.708999
491.000000	22.050110
492.000000	22.404445
493.000000	22.769896
494.000000	23.148194
495.000000	23.547509
496.000000	23.959274
497.000000	24.371976
498.000000	24.798356
499.000000	25.233935
500.000000	25.683109
501.000000	26.155521
502.000000	26.631366
503.000000	27.141572
504.000000	27.661048
505.000000	28.184850
506.000000	28.722796
507.000000	29.268350
508.000000	29.844865
509.000000	30.444615
510.000000	31.057771
511.000000	31.681369
512.000000	32.325095
513.000000	32.994074
514.000000	33.677504
515.000000	34.370967
516.000000	35.092632
517.000000	35.835554
518.000000	36.582562
519.000000	37.349218
520.000000	38.130378
521.000000	38.946563
522.000000	39.772397
523.000000	40.602530
524.000000	41.453480
525.000000	42.308164
526.000000	43.163658
527.000000	44.008432
528.000000	44.850031
529.000000	45.689542
530.000000	46.527380
531.000000	47.348888
532.000000	48.158147
533.000000	48.946127
534.000000	49.725493
535.000000	50.461597
536.000000	51.175087
537.000000	51.858893
538.000000	52.510529
539.000000	53.121733
540.000000	53.693261
541.000000	54.251150
542.000000	54.760809
543.000000	55.220148
544.000000	55.651876
545.000000	56.050929
546.000000	56.401857
547.000000	56.726618
548.000000	57.029542
549.000000	57.296651
550.000000	57.526577
551.000000	57.731558
552.000000	57.940117
553.000000	58.097905
554.000000	58.263433
555.000000	58.381718
556.000000	58.495447
557.000000	58.584653
558.000000	58.671122
559.000000	58.740501
560.000000	58.830744
561.000000	58.899731
562.000000	58.941058
563.000000	58.982058
564.000000	59.000352
565.000000	59.013317
566.000000	59.022762
567.000000	59.011694
568.000000	58.997719
569.000000	58.948493
570.000000	58.900514
571.000000	58.796162
572.000000	58.720047
573.000000	58.599443
574.000000	58.463843
575.000000	58.322297
576.000000	58.163752
577.000000	57.982959
578.000000	57.804497
579.000000	57.614959
580.000000	57.383988
581.000000	57.176503
582.000000	56.953884
583.000000	56.727642
584.000000	56.472679
585.000000	56.244687
586.000000	55.980602
587.000000	55.700053
588.000000	55.461877
589.000000	55.167934
590.000000	54.892399
591.000000	54.618722
592.000000	54.305199
593.000000	54.004463
594.000000	53.686520
595.000000	53.316494
596.000000	52.964767
597.000000	52.593739
598.000000	52.189524
599.000000	51.769486
600.000000	51.334564
601.000000	50.868167
602.000000	50.390939
603.000000	49.863559
604.000000	49.355041
605.000000	48.804029
606.000000	48.262558
607.000000	47.717945
608.000000	47.169633
609.000000	46.628677
610.000000	46.101330
611.000000	45.570549
612.000000	45.065550
613.000000	44.565629
614.000000	44.082368
615.000000	43.607323
616.000000	43.172148
617.000000	42.751174
618.000000	42.353558
619.000000	41.980704
620.000000	41.647508
621.000000	41.335363
622.000000	41.020539
623.000000	40.738520
624.000000	40.506932
625.000000	40.269093
626.000000	40.085110
627.000000	39.964090
628.000000	39.853310
629.000000	39.791685
630.000000	39.763327
631.000000	39.780908
632.000000	39.834657
633.000000	39.904936
634.000000	40.034861
635.000000	40.185017
636.000000	40.365819
637.000000	40.553981
638.000000	40.755530
639.000000	40.958637
640.000000	41.177510
641.000000	41.375566
642.000000	41.565510
643.000000	41.761646
644.000000	41.957276
645.000000	42.115077
646.000000	42.292076
647.000000	42.427264
648.000000	42.585800
649.000000	42.716420
650.000000	42.848252
651.000000	42.990560
652.000000	43.118393
653.000000	43.251330
654.000000	43.373586
655.000000	43.491545
656.000000	43.611888
657.000000	43.667237
658.000000	43.762028
659.000000	43.847320
660.000000	43.909368
661.000000	43.985480
662.000000	44.044697
663.000000	44.120840
664.000000	44.166352
665.000000	44.216583
666.000000	44.269788
667.000000	44.323726
668.000000	44.388531
669.000000	44.456818
670.000000	44.534094
671.000000	44.594285
672.000000	44.676574
673.000000	44.765622
674.000000	44.863869
675.000000	44.966294
676.000000	45.075617
677.000000	45.189371
678.000000	45.321333
679.000000	45.433422
680.000000	45.552997
681.000000	45.700592
682.000000	45.855325
683.000000	45.966416
684.000000	46.108536
685.000000	46.249130
686.000000	46.369428
687.000000	46.519415
688.000000	46.662927
689.000000	46.791145
690.000000	46.911198
691.000000	47.065843
692.000000	47.214571
693.000000	47.347743
694.000000	47.499290
695.000000	47.648566
696.000000	47.778057
697.000000	47.901480
698.000000	48.045698
699.000000	48.189294
700.000000	48.318964
701.000000	48.435489
702.000000	48.529003
703.000000	48.650253
704.000000	48.749999
705.000000	48.836326
706.000000	48.918431
707.000000	48.994857
708.000000	49.062275
709.000000	49.152014
710.000000	49.226802
711.000000	49.290394
712.000000	49.368796
713.000000	49.441010
714.000000	49.488144
715.000000	49.553257
716.000000	49.602305
717.000000	49.637668
718.000000	49.696592
719.000000	49.723318
720.000000	49.772340
721.000000	49.825953
722.000000	49.847759
723.000000	49.873571
724.000000	49.918496
725.000000	49.946955
726.000000	49.962709
727.000000	50.010410
728.000000	50.029311
729.000000	50.030943
730.000000	50.064549
731.000000	50.095432
732.000000	50.119494
733.000000	50.174039
734.000000	50.208340
735.000000	50.232678
736.000000	50.292656
737.000000	50.340216
738.000000	50.377702
739.000000	50.420928
740.000000	50.462637
741.000000	50.502604
742.000000	50.536288
743.000000	50.581498
744.000000	50.638631
745.000000	50.698102
746.000000	50.735508
747.000000	50.791027
748.000000	50.846159
749.000000	50.892936
750.000000	50.986649
751.000000	51.069205
752.000000	51.103346
753.000000	51.152544
754.000000	51.231021
755.000000	51.313966
756.000000	51.342835
757.000000	51.378603
758.000000	51.464528
759.000000	51.519996
760.000000	51.576427
761.000000	51.617589
762.000000	51.690632
763.000000	51.762397
764.000000	51.804149
765.000000	51.818385
766.000000	51.876248
767.000000	51.931330
768.000000	51.948211
769.000000	52.013938
770.000000	52.087235
771.000000	52.139745
772.000000	52.198643
773.000000	52.232964
774.000000	52.285416
775.000000	52.318824
776.000000	52.335029
777.000000	52.388138
778.000000	52.458339
779.000000	52.503053
780.000000	52.526266
781.000000	52.546190
782.000000	52.613987
783.000000	52.683145
784.000000	52.750920
785.000000	52.814458
786.000000	52.853795
787.000000	52.924443
788.000000	53.021526
789.000000	53.098644
790.000000	53.133749
791.000000	53.185047
792.000000	53.245723
793.000000	53.302065
794.000000	53.333540
795.000000	53.413348
796.000000	53.476222
797.000000	53.577293
798.000000	53.650264
799.000000	53.654252
800.000000	53.725808
801.000000	53.795647
802.000000	53.876145
803.000000	53.977181
804.000000	54.040163
805.000000	54.120701
806.000000	54.205866
807.000000	54.201071
808.000000	54.315769
809.000000	54.384223
810.000000	54.460570
811.000000	54.534025
812.000000	54.658709
813.000000	54.680596
814.000000	54.840766
815.000000	54.920749
816.000000	54.965126
817.000000	55.024006
818.000000	55.112507
819.000000	55.162256
820.000000	55.281800
821.000000	55.363495
822.000000	55.433717
823.000000	55.524639
824.000000	55.602179
825.000000	55.641064
826.000000	55.714193
827.000000	55.830248
828.000000	55.870007
829.000000	55.913734
830.000000	55.925664
831.000000	56.016912
832.000000	56.175445
833.000000	56.158064
834.000000	56.199430
835.000000	56.226337
836.000000	56.222788
837.000000	56.293929
838.000000	56.274943
839.000000	56.367839
840.000000	56.460285
841.000000	56.478053
842.000000	56.514118
843.000000	56.482872
844.000000	56.391153
845.000000	56.379829
846.000000	56.454689
847.000000	56.356143
848.000000	56.401206
849.000000	56.496828
850.000000	56.321387
851.000000	56.269992
852.000000	56.342671
853.000000	56.469588
854.000000	56.366701
855.000000	56.302349
856.000000	56.208418
857.000000	56.187835
858.000000	57.468700
859.000000	55.886950
860.000000	55.861175
861.000000	55.835975
862.000000	55.791000
863.000000	55.734525
864.000000	55.685575
865.000000	55.693325
866.000000	55.856400
867.000000	56.237200
868.000000	56.644800
869.000000	57.113850
870.000000	57.533850
871.000000	57.974025
872.000000	58.312525
873.000000	58.647700
874.000000	58.880600
875.000000	59.178650
876.000000	59.395275
877.000000	59.660825
878.000000	59.845850
879.000000	60.084825
880.000000	60.241875
881.000000	60.438100
882.000000	60.589025
883.000000	60.709675
884.000000	60.870925
885.000000	60.965050
886.000000	61.079600
887.000000	61.168300
888.000000	61.250150
889.000000	61.310800
890.000000	61.368250
891.000000	61.427175
892.000000	61.473175
893.000000	61.491600
894.000000	61.529000
895.000000	61.519875
896.000000	61.508100
897.000000	61.494050
898.000000	61.499075
899.000000	61.471675
900.000000	61.456075
901.000000	61.429100
902.000000	61.394200
903.000000	61.375625
904.000000	61.328400
905.000000	61.277950
906.000000	61.241425
907.000000	61.207250
908.000000	61.186700
909.000000	61.153125
910.000000	61.131175
911.000000	61.105275
912.000000	61.085225
913.000000	61.082525
914.000000	61.035725
915.000000	61.025425
916.000000	61.026525
917.000000	60.979575
918.000000	60.957350
919.000000	60.948550
920.000000	60.925175
921.000000	60.859400
922.000000	60.834950
923.000000	60.792675
924.000000	60.751900
925.000000	60.718950
926.000000	60.692800
927.000000	60.623575
928.000000	60.591375
929.000000	60.566275
930.000000	60.523525
931.000000	60.493950
932.000000	60.421475
933.000000	60.394675
934.000000	60.334325
935.000000	60.296975
936.000000	60.270175
937.000000	60.207600
938.000000	60.179025
939.000000	60.152000
940.000000	60.116725
941.000000	60.079325
942.000000	60.061675
943.000000	60.029700
944.000000	59.997400
945.000000	59.968675
946.000000	59.953800
947.000000	59.919325
948.000000	59.894125
949.000000	59.873750
950.000000	59.849525
951.000000	59.818050
952.000000	59.803800
953.000000	59.777050
954.000000	59.746350
955.000000	59.717050
956.000000	59.693475
957.000000	59.664300
958.000000	59.635300
959.000000	59.592825
960.000000	59.561475
961.000000	59.525625
962.000000	59.482425
963.000000	59.463225
964.000000	59.420225
965.000000	59.394800
966.000000	59.365600
967.000000	59.347425
968.000000	59.325225
969.000000	59.306200
970.000000	59.277700
971.000000	59.266525
972.000000	59.240350
973.000000	59.212175
974.000000	59.187750
975.000000	59.175250
976.000000	59.160075
977.000000	59.133400
978.000000	59.107800
979.000000	59.090450
980.000000	59.053925
981.000000	59.038625
982.000000	59.034550
983.000000	59.006000
984.000000	58.979000
985.000000	58.957300
986.000000	58.942725
987.000000	58.920075
988.000000	58.903950
989.000000	58.887650
990.000000	58.868525
991.000000	58.856725
992.000000	58.842700
993.000000	58.842600
994.000000	58.838450
995.000000	58.821725
996.000000	58.811200
997.000000	58.808800
998.000000	58.806300
999.000000	58.802550
1000.000000	58.797875
1001.000000	58.791425
1002.000000	58.800925
1003.000000	58.803825
1004.000000	58.798975
1005.000000	58.796175
1006.000000	58.790700
1007.000000	58.787975
1008.000000	58.787775
1009.000000	58.782625
1010.000000	58.780650
1011.000000	58.791350
1012.000000	58.808375
1013.000000	58.820375
1014.000000	58.844350
1015.000000	58.875300
1016.000000	58.911675
1017.000000	58.956475
1018.000000	59.006175
1019.000000	59.051325
1020.000000	59.102125
1021.000000	59.158725
1022.000000	59.220025
1023.000000	59.274550
1024.000000	59.331375
1025.000000	59.398150
1026.000000	59.459475
1027.000000	59.518600
1028.000000	59.583050
1029.000000	59.638825
1030.000000	59.693400
1031.000000	59.754650
1032.000000	59.820700
1033.000000	59.868950
1034.000000	59.913550
1035.000000	59.972700
1036.000000	60.023050
1037.000000	60.072000
1038.000000	60.122575
1039.000000	60.174475
1040.000000	60.217250
1041.000000	60.258875
1042.000000	60.304350
1043.000000	60.348200
1044.000000	60.391850
1045.000000	60.434925
1046.000000	60.484275
1047.000000	60.524800
1048.000000	60.575225
1049.000000	60.629800
1050.000000	60.667575
1051.000000	60.715500
1052.000000	60.775675
1053.000000	60.829100
1054.000000	60.881925
1055.000000	60.939200
1056.000000	60.999075
1057.000000	61.061100
1058.000000	61.126400
1059.000000	61.179550
1060.000000	61.229100
1061.000000	61.290300
1062.000000	61.348400
1063.000000	61.405300
1064.000000	61.458750
1065.000000	61.507550
1066.000000	61.563625
1067.000000	61.612300
1068.000000	61.666300
1069.000000	61.717175
1070.000000	61.765350
1071.000000	61.815225
1072.000000	61.864600
1073.000000	61.908500
1074.000000	61.955250
1075.000000	62.007475
1076.000000	62.055400
1077.000000	62.103750
1078.000000	62.156575
1079.000000	62.199100
1080.000000	62.238450
1081.000000	62.285250
1082.000000	62.338900
1083.000000	62.386525
1084.000000	62.434500
1085.000000	62.481600
1086.000000	62.530725
1087.000000	62.585650
1088.000000	62.628675
1089.000000	62.668000
1090.000000	62.723500
1091.000000	62.764100
1092.000000	62.800800
1093.000000	62.845025
1094.000000	62.877500
1095.000000	62.910625
1096.000000	62.953650
1097.000000	62.987625
1098.000000	63.016425
1099.000000	63.045725
1100.000000	63.068225
1101.000000	63.095625
1102.000000	63.112825
1103.000000	63.143200
1104.000000	63.164375
1105.000000	63.183225
1106.000000	63.199175
1107.000000	63.222775
1108.000000	63.238450
1109.000000	63.248850
1110.000000	63.268475
1111.000000	63.285425
1112.000000	63.296450
1113.000000	63.310750
1114.000000	63.332050
1115.000000	63.344925
1116.000000	63.355325
1117.000000	63.374850
1118.000000	63.377225
1119.000000	63.371975
1120.000000	63.356075
1121.000000	63.333175
1122.000000	63.316825
1123.000000	63.285075
1124.000000	63.233650
1125.000000	63.168600
1126.000000	63.107450
1127.000000	63.016875
1128.000000	62.926450
1129.000000	62.799775
1130.000000	62.640625
1131.000000	62.453725
1132.000000	62.243450
1133.000000	62.002650
1134.000000	61.791050
1135.000000	61.519900
1136.000000	61.189225
1137.000000	60.873825
1138.000000	60.530400
1139.000000	60.212425
1140.000000	59.913425
1141.000000	59.611475
1142.000000	59.325750
1143.000000	59.029225
1144.000000	58.766350
1145.000000	58.548250
1146.000000	58.368325
1147.000000	58.246000
1148.000000	58.177875
1149.000000	58.155075
1150.000000	58.158050
1151.000000	58.151550
1152.000000	58.138600
1153.000000	58.113675
1154.000000	58.048100
1155.000000	57.934450
1156.000000	57.761700
1157.000000	57.556650
1158.000000	57.294325
1159.000000	57.011875
1160.000000	56.704475
1161.000000	56.384150
1162.000000	56.050300
1163.000000	55.723475
1164.000000	55.359575
1165.000000	55.007000
1166.000000	54.664575
1167.000000	54.315075
1168.000000	53.974425
1169.000000	53.643275
1170.000000	53.309300
1171.000000	52.969375
1172.000000	52.641425
1173.000000	52.326950
1174.000000	52.028575
1175.000000	51.733125
1176.000000	51.441050
1177.000000	51.130275
1178.000000	50.779200
1179.000000	50.381000
1180.000000	49.915925
1181.000000	49.440750
1182.000000	48.953125
1183.000000	48.512275
1184.000000	48.123925
1185.000000	47.880800
1186.000000	47.753025
1187.000000	47.757900
1188.000000	47.873300
1189.000000	48.124975
1190.000000	48.465600
1191.000000	48.873100
1192.000000	49.304625
1193.000000	49.740550
1194.000000	50.124525
1195.000000	50.437750
1196.000000	50.688675
1197.000000	50.878775
1198.000000	51.029775
1199.000000	51.146875
1200.000000	51.231350
1201.000000	51.287975
1202.000000	51.324225
1203.000000	51.353975
1204.000000	51.388225
1205.000000	51.417500
1206.000000	51.455850
1207.000000	51.508850
1208.000000	51.580925
1209.000000	51.662750
1210.000000	51.748475
1211.000000	51.838575
1212.000000	51.955650
1213.000000	52.069300
1214.000000	52.180825
1215.000000	52.304275
1216.000000	52.426750
1217.000000	52.560375
1218.000000	52.697625
1219.000000	52.841325
1220.000000	52.982925
1221.000000	53.140150
1222.000000	53.297100
1223.000000	53.463125
1224.000000	53.638175
1225.000000	53.803925
1226.000000	53.972350
1227.000000	54.144975
1228.000000	54.320725
1229.000000	54.494525
1230.000000	54.663675
1231.000000	54.828875
1232.000000	55.007975
1233.000000	55.166325
1234.000000	55.334425
1235.000000	55.491350
1236.000000	55.650325
1237.000000	55.804800
1238.000000	55.958250
1239.000000	56.102700
1240.000000	56.248525
1241.000000	56.396175
1242.000000	56.531675
1243.000000	56.669250
1244.000000	56.796475
1245.000000	56.921925
1246.000000	57.043800
1247.000000	57.146325
1248.000000	57.246050
1249.000000	57.344625
1250.000000	57.434525
1251.000000	57.512950
1252.000000	57.588800
1253.000000	57.656400
1254.000000	57.725975
1255.000000	57.786825
1256.000000	57.845450
1257.000000	57.897375
1258.000000	57.948825
1259.000000	57.996200
1260.000000	58.052650
1261.000000	58.093875
1262.000000	58.133425
1263.000000	58.177200
1264.000000	58.223925
1265.000000	58.268525
1266.000000	58.311750
1267.000000	58.357025
1268.000000	58.394275
1269.000000	58.437450
1270.000000	58.478025
1271.000000	58.512200
1272.000000	58.540300
1273.000000	58.578475
1274.000000	58.620550
1275.000000	58.659825
1276.000000	58.706400
1277.000000	58.755025
1278.000000	58.805750
1279.000000	58.862775
1280.000000	58.916925
1281.000000	58.973600
1282.000000	59.040400
1283.000000	59.102400
1284.000000	59.163000
1285.000000	59.220250
1286.000000	59.273900
1287.000000	59.327025
1288.000000	59.372900
1289.000000	59.418000
1290.000000	59.461475
1291.000000	59.490575
1292.000000	59.514175
1293.000000	59.540100
1294.000000	59.555975
1295.000000	59.567100
1296.000000	59.580175
1297.000000	59.596200
1298.000000	59.603250
1299.000000	59.601400
1300.000000	59.600500
1301.000000	59.605950
1302.000000	59.598400
1303.000000	59.587625
1304.000000	59.576300
1305.000000	59.556450
1306.000000	59.535700
1307.000000	59.504700
1308.000000	59.467300
1309.000000	59.429275
1310.000000	59.385400
1311.000000	59.330000
1312.000000	59.268775
1313.000000	59.209125
1314.000000	59.148175
1315.000000	59.079725
1316.000000	59.005900
1317.000000	58.925250
1318.000000	58.839675
1319.000000	58.757750
1320.000000	58.669750
1321.000000	58.577400
1322.000000	58.476350
1323.000000	58.375225
1324.000000	58.269525
1325.000000	58.152600
1326.000000	58.033800
1327.000000	57.902900
1328.000000	57.774100
1329.000000	57.635550
1330.000000	57.483150
1331.000000	57.326625
1332.000000	57.160650
1333.000000	56.984425
1334.000000	56.800025
1335.000000	56.603475
1336.000000	56.406375
1337.000000	56.188500
1338.000000	55.957400
1339.000000	55.732225
1340.000000	55.492300
1341.000000	55.237225
1342.000000	54.965475
1343.000000	54.696900
1344.000000	54.412200
1345.000000	54.090100
1346.000000	53.755175
1347.000000	53.426775
1348.000000	53.083950
1349.000000	52.692375
1350.000000	52.281300
1351.000000	51.826525
1352.000000	51.316625
1353.000000	50.758250
1354.000000	50.298800
1355.000000	49.843550
1356.000000	49.415475
1357.000000	49.102725
1358.000000	48.913000
1359.000000	48.797725
1360.000000	48.704950
1361.000000	48.682925
1362.000000	48.594150
1363.000000	48.433625
1364.000000	48.263125
1365.000000	48.089525
1366.000000	47.884775
1367.000000	47.682075
1368.000000	47.456475
1369.000000	47.176925
1370.000000	46.870700
1371.000000	46.562525
1372.000000	46.198975
1373.000000	45.833025
1374.000000	45.506825
1375.000000	45.238075
1376.000000	45.026900
1377.000000	44.880100
1378.000000	44.758200
1379.000000	44.682400
1380.000000	44.566275
1381.000000	44.437725
1382.000000	44.202250
1383.000000	43.865900
1384.000000	43.469850
1385.000000	43.034750
1386.000000	42.602025
1387.000000	42.223950
1388.000000	41.901100
1389.000000	41.552400
1390.000000	41.248075
1391.000000	41.026025
1392.000000	40.808800
1393.000000	40.571375
1394.000000	40.384725
1395.000000	40.229025
1396.000000	40.029625
1397.000000	39.714025
1398.000000	39.419125
1399.000000	39.191025
1400.000000	38.949850
1401.000000	38.580900
1402.000000	38.139650
1403.000000	37.727000
1404.000000	37.328300
1405.000000	36.957525
1406.000000	36.546450
1407.000000	36.135550
1408.000000	35.763925
1409.000000	35.374900
1410.000000	35.031925
1411.000000	34.657525
1412.000000	34.332025
1413.000000	34.093575
1414.000000	33.866225
1415.000000	33.601750
1416.000000	33.310625
1417.000000	33.030400
1418.000000	32.812425
1419.000000	32.572425
1420.000000	32.315650
1421.000000	32.029000
1422.000000	31.757425
1423.000000	31.538950
1424.000000	31.297425
1425.000000	31.058725
1426.000000	30.813075
1427.000000	30.567275
1428.000000	30.373500
1429.000000	30.174275
1430.000000	29.969750
1431.000000	29.797575
1432.000000	29.642650
1433.000000	29.489225
1434.000000	29.334275
1435.000000	29.184025
1436.000000	29.036700
1437.000000	28.909400
1438.000000	28.785850
1439.000000	28.639800
1440.000000	28.499300
1441.000000	28.356850
1442.000000	28.219750
1443.000000	28.085050
1444.000000	27.949400
1445.000000	27.829550
1446.000000	27.726425
1447.000000	27.576450
1448.000000	27.441550
1449.000000	27.302625
1450.000000	27.208150
1451.000000	27.118625
1452.000000	27.002150
1453.000000	26.880325
1454.000000	26.777350
1455.000000	26.670125
1456.000000	26.580625
1457.000000	26.487050
1458.000000	26.386850
1459.000000	26.306025
1460.000000	26.219750
1461.000000	26.151150
1462.000000	26.090000
1463.000000	26.037425
1464.000000	25.978100
1465.000000	25.919900
1466.000000	25.876900
1467.000000	25.833225
1468.000000	25.794900
1469.000000	25.752175
1470.000000	25.726750
1471.000000	25.702750
1472.000000	25.666325
1473.000000	25.621550
1474.000000	25.591475
1475.000000	25.551850
1476.000000	25.528775
1477.000000	25.500925
1478.000000	25.475850
1479.000000	25.448075
1480.000000	25.434475
1481.000000	25.419800
1482.000000	25.405950
1483.000000	25.381775
1484.000000	25.364575
1485.000000	25.357925
1486.000000	25.365650
1487.000000	25.368025
1488.000000	25.372475
1489.000000	25.361400
1490.000000	25.366725
1491.000000	25.364525
1492.000000	25.367500
1493.000000	25.382000
1494.000000	25.379075
1495.000000	25.392350
1496.000000	25.409725
1497.000000	25.428325
1498.000000	25.450025
1499.000000	25.471450
1500.000000	25.498550
1501.000000	25.522475
1502.000000	25.549825
1503.000000	25.586925
1504.000000	25.622625
1505.000000	25.664125
1506.000000	25.701400
1507.000000	25.736575
1508.000000	25.778850
1509.000000	25.815975
1510.000000	25.862750
1511.000000	25.903050
1512.000000	25.937450
1513.000000	25.977950
1514.000000	26.016125
1515.000000	26.055150
1516.000000	26.095825
1517.000000	26.131800
1518.000000	26.166350
1519.000000	26.194825
1520.000000	26.229200
1521.000000	26.264925
1522.000000	26.298475
1523.000000	26.338975
1524.000000	26.368775
1525.000000	26.400200
1526.000000	26.425425
1527.000000	26.457800
1528.000000	26.485400
1529.000000	26.502500
1530.000000	26.521025
1531.000000	26.537675
1532.000000	26.562600
1533.000000	26.584900
1534.000000	26.607975
1535.000000	26.622400
1536.000000	26.633275
1537.000000	26.642800
1538.000000	26.646525
1539.000000	26.649725
1540.000000	26.655900
1541.000000	26.662075
1542.000000	26.671200
1543.000000	26.677100
1544.000000	26.683375
1545.000000	26.691750
1546.000000	26.700825
1547.000000	26.713200
1548.000000	26.728850
1549.000000	26.744275
1550.000000	26.758275
1551.000000	26.774350
1552.000000	26.789075
1553.000000	26.801150
1554.000000	26.808800
1555.000000	26.809850
1556.000000	26.812775
1557.000000	26.811050
1558.000000	26.802875
1559.000000	26.795575
1560.000000	26.783650
1561.000000	26.767625
1562.000000	26.751425
1563.000000	26.731550
1564.000000	26.705750
1565.000000	26.681125
1566.000000	26.653400
1567.000000	26.626325
1568.000000	26.602025
1569.000000	26.576625
1570.000000	26.555450
1571.000000	26.540225
1572.000000	26.524925
1573.000000	26.506400
1574.000000	26.497425
1575.000000	26.496250
1576.000000	26.495275
1577.000000	26.492900
1578.000000	26.494700
1579.000000	26.505150
1580.000000	26.517950
1581.000000	26.531900
1582.000000	26.551725
1583.000000	26.576975
1584.000000	26.606075
1585.000000	26.639500
1586.000000	26.674675
1587.000000	26.716025
1588.000000	26.759225
1589.000000	26.803675
1590.000000	26.842400
1591.000000	26.881300
1592.000000	26.929075
1593.000000	26.979925
1594.000000	27.030575
1595.000000	27.086325
1596.000000	27.141950
1597.000000	27.199025
1598.000000	27.270125
1599.000000	27.339625
1600.000000	27.407075
1601.000000	27.471825
1602.000000	27.540250
1603.000000	27.613925
1604.000000	27.686800
1605.000000	27.758250
1606.000000	27.834000
1607.000000	27.915925
1608.000000	27.985400
1609.000000	28.063400
1610.000000	28.141125
1611.000000	28.204300
1612.000000	28.270275
1613.000000	28.345500
1614.000000	28.433375
1615.000000	28.504900
1616.000000	28.587375
1617.000000	28.664150
1618.000000	28.739475
1619.000000	28.825950
1620.000000	28.906275
1621.000000	28.990000
1622.000000	29.077150
1623.000000	29.159975
1624.000000	29.248025
1625.000000	29.335200
1626.000000	29.423375
1627.000000	29.505350
1628.000000	29.592250
1629.000000	29.680225
1630.000000	29.765950
1631.000000	29.850325
1632.000000	29.943150
1633.000000	30.022575
1634.000000	30.101475
1635.000000	30.182150
1636.000000	30.252425
1637.000000	30.325325
1638.000000	30.411900
1639.000000	30.476200
1640.000000	30.544500
1641.000000	30.612300
1642.000000	30.665450
1643.000000	30.730150
1644.000000	30.785450
1645.000000	30.848575
1646.000000	30.899575
1647.000000	30.965825
1648.000000	31.011350
1649.000000	31.057975
1650.000000	31.102175
1651.000000	31.129700
1652.000000	31.162300
1653.000000	31.183525
1654.000000	31.194775
1655.000000	31.208625
1656.000000	31.206800
1657.000000	31.205150
1658.000000	31.186900
1659.000000	31.162825
1660.000000	31.126475
1661.000000	31.080450
1662.000000	31.029750
1663.000000	30.955725
1664.000000	30.882575
1665.000000	30.796175
1666.000000	30.692975
1667.000000	30.586425
1668.000000	30.437650
1669.000000	30.276650
1670.000000	30.097425
1671.000000	29.885925
1672.000000	29.648350
1673.000000	29.382575
1674.000000	29.081925
1675.000000	28.720025
1676.000000	28.297550
1677.000000	27.838450
1678.000000	27.302025
1679.000000	26.735475
1680.000000	26.141975
1681.000000	25.594775
1682.000000	25.104075
1683.000000	24.727500
1684.000000	24.478350
1685.000000	24.351675
1686.000000	24.290775
1687.000000	24.273050
1688.000000	24.239950
1689.000000	24.163625
1690.000000	24.057700
1691.000000	23.902425
1692.000000	23.735800
1693.000000	23.584150
1694.000000	23.461425
1695.000000	23.392050
1696.000000	23.395525
1697.000000	23.450725
1698.000000	23.553900
1699.000000	23.708775
1700.000000	23.871175
1701.000000	24.039225
1702.000000	24.184475
1703.000000	24.301550
1704.000000	24.391550
1705.000000	24.467750
1706.000000	24.517350
1707.000000	24.557950
1708.000000	24.587625
1709.000000	24.602575
1710.000000	24.605525
1711.000000	24.585425
1712.000000	24.550225
1713.000000	24.494900
1714.000000	24.430675
1715.000000	24.357625
1716.000000	24.284475
1717.000000	24.215200
1718.000000	24.158875
1719.000000	24.116275
1720.000000	24.074100
1721.000000	24.050275
1722.000000	24.034475
1723.000000	24.004500
1724.000000	23.968925
1725.000000	23.910950
1726.000000	23.839800
1727.000000	23.747975
1728.000000	23.641825
1729.000000	23.520175
1730.000000	23.407450
1731.000000	23.292300
1732.000000	23.209150
1733.000000	23.157225
1734.000000	23.145225
1735.000000	23.183500
1736.000000	23.286575
1737.000000	23.423550
1738.000000	23.601225
1739.000000	23.828850
1740.000000	24.052550
1741.000000	24.301100
1742.000000	24.538150
1743.000000	24.762550
1744.000000	24.960275
1745.000000	25.134075
1746.000000	25.284650
1747.000000	25.418075
1748.000000	25.525600
1749.000000	25.613350
1750.000000	25.682550
1751.000000	25.741675
1752.000000	25.775600
1753.000000	25.793075
1754.000000	25.805750
1755.000000	25.791175
1756.000000	25.759550
1757.000000	25.710600
1758.000000	25.655075
1759.000000	25.591925
1760.000000	25.519325
1761.000000	25.453300
1762.000000	25.413575
1763.000000	25.400600
1764.000000	25.409875
1765.000000	25.456300
1766.000000	25.530425
1767.000000	25.617800
1768.000000	25.717875
1769.000000	25.843000
1770.000000	25.972400
1771.000000	26.104775
1772.000000	26.247600
1773.000000	26.391675
1774.000000	26.522725
1775.000000	26.657925
1776.000000	26.781250
1777.000000	26.907475
1778.000000	27.011725
1779.000000	27.110800
1780.000000	27.204925
1781.000000	27.291350
1782.000000	27.372125
1783.000000	27.451250
1784.000000	27.546725
1785.000000	27.632450
1786.000000	27.704225
1787.000000	27.780100
1788.000000	27.863700
1789.000000	27.920800
1790.000000	27.977600
1791.000000	28.046325
1792.000000	28.109275
1793.000000	28.167550
1794.000000	28.218550
1795.000000	28.271100
1796.000000	28.330600
1797.000000	28.380550
1798.000000	28.425850
1799.000000	28.467925
1800.000000	28.523175
1801.000000	28.587800
1802.000000	28.651150
1803.000000	28.706325
1804.000000	28.743075
1805.000000	28.792750
1806.000000	28.855425
1807.000000	28.912000
1808.000000	28.951125
1809.000000	28.993375
1810.000000	29.032550
1811.000000	29.074500
1812.000000	29.114375
1813.000000	29.137700
1814.000000	29.154625
1815.000000	29.171175
1816.000000	29.185175
1817.000000	29.185500
1818.000000	29.192375
1819.000000	29.218000
1820.000000	29.263025
1821.000000	29.303750
1822.000000	29.336300
1823.000000	29.346525
1824.000000	29.354750
1825.000000	29.399000
1826.000000	29.473325
1827.000000	29.546125
1828.000000	29.625900
1829.000000	29.730500
1830.000000	29.816350
1831.000000	29.898050
1832.000000	29.975125
1833.000000	30.046050
1834.000000	30.126375
1835.000000	30.217175
1836.000000	30.309400
1837.000000	30.376175
1838.000000	30.431200
1839.000000	30.481200
1840.000000	30.531275
1841.000000	30.585950
1842.000000	30.631375
1843.000000	30.644325
1844.000000	30.650650
1845.000000	30.685175
1846.000000	30.755575
1847.000000	30.849725
1848.000000	30.931075
1849.000000	30.992300
1850.000000	31.036025
1851.000000	31.067600
1852.000000	31.097700
1853.000000	31.147875
1854.000000	31.208050
1855.000000	31.240800
1856.000000	31.262650
1857.000000	31.281100
1858.000000	31.280225
1859.000000	31.266500
1860.000000	31.241550
1861.000000	31.187350
1862.000000	31.114325
1863.000000	31.030300
1864.000000	30.964300
1865.000000	30.885800
1866.000000	30.788825
1867.000000	30.698150
1868.000000	30.571950
1869.000000	30.414500
1870.000000	30.191650
1871.000000	29.952800
1872.000000	29.686200
1873.000000	29.383475
1874.000000	29.049400
1875.000000	28.681400
1876.000000	28.301450
1877.000000	27.903725
1878.000000	27.466925
1879.000000	27.004950
1880.000000	26.550300
1881.000000	26.090600
1882.000000	25.573575
1883.000000	25.089300
1884.000000	24.605875
1885.000000	24.111000
1886.000000	23.662350
1887.000000	23.258250
1888.000000	22.896025
1889.000000	22.540900
1890.000000	22.216475
1891.000000	21.894775
1892.000000	21.549125
1893.000000	21.200200
1894.000000	20.899225
1895.000000	20.608525
1896.000000	20.336225
1897.000000	20.077500
1898.000000	19.796800
1899.000000	19.500825
1900.000000	19.191075
1901.000000	18.899350
1902.000000	18.627300
1903.000000	18.367050
1904.000000	18.114600
1905.000000	17.861000
1906.000000	17.586500
1907.000000	17.322375
1908.000000	17.081125
1909.000000	16.868800
1910.000000	16.678900
1911.000000	16.468275
1912.000000	16.275025
1913.000000	16.069350
1914.000000	15.865725
1915.000000	15.654775
1916.000000	15.474675
1917.000000	15.319025
1918.000000	15.169400
1919.000000	15.007600
1920.000000	14.873150
1921.000000	14.729675
1922.000000	14.569275
1923.000000	14.435825
1924.000000	14.326650
1925.000000	14.221950
1926.000000	14.111900
1927.000000	14.019475
1928.000000	13.944900
1929.000000	13.861600
1930.000000	13.791925
1931.000000	13.731175
1932.000000	13.669225
1933.000000	13.622425
1934.000000	13.591075
1935.000000	13.546850
1936.000000	13.527750
1937.000000	13.524525
1938.000000	13.511250
1939.000000	13.512850
1940.000000	13.510025
1941.000000	13.519050
1942.000000	13.542150
1943.000000	13.544700
1944.000000	13.572025
1945.000000	13.594525
1946.000000	13.643575
1947.000000	13.674325
1948.000000	13.721200
1949.000000	13.773525
1950.000000	13.806325
1951.000000	13.859925
1952.000000	13.925600
1953.000000	13.979925
1954.000000	14.028400
1955.000000	14.084825
1956.000000	14.148825
1957.000000	14.214100
1958.000000	14.277325
1959.000000	14.338075
1960.000000	14.396525
1961.000000	14.458650
1962.000000	14.530600
1963.000000	14.594375
1964.000000	14.658850
1965.000000	14.726775
1966.000000	14.783600
1967.000000	14.848225
1968.000000	14.913375
1969.000000	14.973925
1970.000000	15.046150
1971.000000	15.111400
1972.000000	15.181350
1973.000000	15.251375
1974.000000	15.324050
1975.000000	15.378625
1976.000000	15.462250
1977.000000	15.539800
1978.000000	15.610075
1979.000000	15.679825
1980.000000	15.750125
1981.000000	15.822900
1982.000000	15.909225
1983.000000	15.975850
1984.000000	16.042025
1985.000000	16.114150
1986.000000	16.193975
1987.000000	16.250550
1988.000000	16.326000
1989.000000	16.388425
1990.000000	16.451750
1991.000000	16.516700
1992.000000	16.572950
1993.000000	16.628650
1994.000000	16.677925
1995.000000	16.727425
1996.000000	16.784250
1997.000000	16.838275
1998.000000	16.874150
1999.000000	16.910675
2000.000000	16.950675
2001.000000	16.981100
2002.000000	17.008225
2003.000000	17.037175
2004.000000	17.057000
2005.000000	17.073425
2006.000000	17.090700
2007.000000	17.101525
2008.000000	17.104200
2009.000000	17.099300
2010.000000	17.104225
2011.000000	17.112925
2012.000000	17.086200
2013.000000	17.070425
2014.000000	17.055575
2015.000000	17.034300
2016.000000	17.002800
2017.000000	16.956925
2018.000000	16.918850
2019.000000	16.887100
2020.000000	16.841950
2021.000000	16.794525
2022.000000	16.735850
2023.000000	16.688550
2024.000000	16.643425
2025.000000	16.583550
2026.000000	16.523500
2027.000000	16.456925
2028.000000	16.390850
2029.000000	16.323425
2030.000000	16.256325
2031.000000	16.163725
2032.000000	16.082225
2033.000000	16.009975
2034.000000	15.913200
2035.000000	15.829400
2036.000000	15.727400
2037.000000	15.623650
2038.000000	15.519700
2039.000000	15.401700
2040.000000	15.293100
2041.000000	15.177125
2042.000000	15.052600
2043.000000	14.936275
2044.000000	14.814650
2045.000000	14.710375
2046.000000	14.605550
2047.000000	14.494950
2048.000000	14.391250
2049.000000	14.300350
2050.000000	14.203750
2051.000000	14.134500
2052.000000	14.063275
2053.000000	14.006075
2054.000000	13.959200
2055.000000	13.921325
2056.000000	13.896300
2057.000000	13.880175
2058.000000	13.865975
2059.000000	13.864475
2060.000000	13.873125
2061.000000	13.878925
2062.000000	13.891300
2063.000000	13.915800
2064.000000	13.934075
2065.000000	13.954800
2066.000000	13.976475
2067.000000	14.011550
2068.000000	14.048300
2069.000000	14.073775
2070.000000	14.100800
2071.000000	14.126875
2072.000000	14.160775
2073.000000	14.198525
2074.000000	14.225050
2075.000000	14.250925
2076.000000	14.272025
2077.000000	14.296350
2078.000000	14.329700
2079.000000	14.351300
2080.000000	14.366425
2081.000000	14.388300
2082.000000	14.406475
2083.000000	14.423575
2084.000000	14.443350
2085.000000	14.455500
2086.000000	14.466900
2087.000000	14.487250
2088.000000	14.497075
2089.000000	14.511975
2090.000000	14.529800
2091.000000	14.545375
2092.000000	14.550750
2093.000000	14.552875
2094.000000	14.567875
2095.000000	14.586550
2096.000000	14.602300
2097.000000	14.618450
2098.000000	14.639400
2099.000000	14.662125
2100.000000	14.679225
2101.000000	14.700275
2102.000000	14.725475
2103.000000	14.745400
2104.000000	14.767375
2105.000000	14.793625
2106.000000	14.816700
2107.000000	14.845150
2108.000000	14.866350
2109.000000	14.884600
2110.000000	14.911175
2111.000000	14.930600
2112.000000	14.952925
2113.000000	14.974150
2114.000000	14.992325
2115.000000	15.021175
2116.000000	15.043325
2117.000000	15.069125
2118.000000	15.089025
2119.000000	15.098325
2120.000000	15.108000
2121.000000	15.117400
2122.000000	15.126325
2123.000000	15.141350
2124.000000	15.145700
2125.000000	15.148425
2126.000000	15.151425
2127.000000	15.157000
2128.000000	15.157700
2129.000000	15.144200
2130.000000	15.135275
2131.000000	15.136525
2132.000000	15.117425
2133.000000	15.103625
2134.000000	15.090125
2135.000000	15.060350
2136.000000	15.036975
2137.000000	15.024175
2138.000000	15.005200
2139.000000	14.974225
2140.000000	14.940925
2141.000000	14.910700
2142.000000	14.875100
2143.000000	14.840650
2144.000000	14.821500
2145.000000	14.786775
2146.000000	14.755625
2147.000000	14.723000
2148.000000	14.685425
2149.000000	14.652500
2150.000000	14.613900
2151.000000	14.572400
2152.000000	14.542500
2153.000000	14.500175
2154.000000	14.450900
2155.000000	14.420700
2156.000000	14.385625
2157.000000	14.352150
2158.000000	14.309925
2159.000000	14.290700
2160.000000	14.261475
2161.000000	14.233800
2162.000000	14.204225
2163.000000	14.190900
2164.000000	14.171200
2165.000000	14.169375
2166.000000	14.146800
2167.000000	14.123075
2168.000000	14.114025
2169.000000	14.103250
2170.000000	14.084650
2171.000000	14.076450
2172.000000	14.074375
2173.000000	14.076925
2174.000000	14.075250
2175.000000	14.069225
2176.000000	14.075675
2177.000000	14.079625
2178.000000	14.087125
2179.000000	14.100225
2180.000000	14.117950
2181.000000	14.126675
2182.000000	14.138500
2183.000000	14.154725
2184.000000	14.169475
2185.000000	14.186850
2186.000000	14.204400
2187.000000	14.216800
2188.000000	14.231275
2189.000000	14.248500
2190.000000	14.256375
2191.000000	14.271225
2192.000000	14.280650
2193.000000	14.289950
2194.000000	14.304150
2195.000000	14.310525
2196.000000	14.321550
2197.000000	14.333275
2198.000000	14.338000
2199.000000	14.355175
2200.000000	14.361150
2201.000000	14.366300
2202.000000	14.389075
2203.000000	14.404250
2204.000000	14.424650
2205.000000	14.429700
2206.000000	14.445525
2207.000000	14.458775
2208.000000	14.475550
2209.000000	14.509500
2210.000000	14.524375
2211.000000	14.542000
2212.000000	14.552925
2213.000000	14.585975
2214.000000	14.604175
2215.000000	14.636875
2216.000000	14.655100
2217.000000	14.685225
2218.000000	14.717225
2219.000000	14.741550
2220.000000	14.744925
2221.000000	14.769925
2222.000000	14.789600
2223.000000	14.809625
2224.000000	14.807375
2225.000000	14.805000
2226.000000	14.795100
2227.000000	14.790225
2228.000000	14.788600
2229.000000	14.757725
2230.000000	14.734075
2231.000000	14.708525
2232.000000	14.659675
2233.000000	14.614700
2234.000000	14.561375
2235.000000	14.501950
2236.000000	14.435625
2237.000000	14.367800
2238.000000	14.277200
2239.000000	14.184825
2240.000000	14.103425
2241.000000	13.985675
2242.000000	13.888450
2243.000000	13.779925
2244.000000	13.643400
2245.000000	13.506675
2246.000000	13.377475
2247.000000	13.220550
2248.000000	13.052000
2249.000000	12.882250
2250.000000	12.703350
2251.000000	12.508250
2252.000000	12.304275
2253.000000	12.089950
2254.000000	11.871250
2255.000000	11.659425
2256.000000	11.425475
2257.000000	11.209250
2258.000000	10.985550
2259.000000	10.779375
2260.000000	10.575100
2261.000000	10.378275
2262.000000	10.201250
2263.000000	10.035550
2264.000000	9.902675
2265.000000	9.771050
2266.000000	9.655650
2267.000000	9.563900
2268.000000	9.483750
2269.000000	9.419950
2270.000000	9.381075
2271.000000	9.349900
2272.000000	9.331600
2273.000000	9.322575
2274.000000	9.329550
2275.000000	9.334750
2276.000000	9.359200
2277.000000	9.398100
2278.000000	9.426750
2279.000000	9.451550
2280.000000	9.484750
2281.000000	9.522850
2282.000000	9.554525
2283.000000	9.586900
2284.000000	9.617675
2285.000000	9.638125
2286.000000	9.655400
2287.000000	9.675625
2288.000000	9.675225
2289.000000	9.668425
2290.000000	9.657225
2291.000000	9.625275
2292.000000	9.594750
2293.000000	9.541425
2294.000000	9.491900
2295.000000	9.435700
2296.000000	9.359275
2297.000000	9.281825
2298.000000	9.210025
2299.000000	9.140425
2300.000000	9.063350
2301.000000	8.980550
2302.000000	8.919850
2303.000000	8.864175
2304.000000	8.813775
2305.000000	8.790450
2306.000000	8.766300
2307.000000	8.761675
2308.000000	8.772725
2309.000000	8.799050
2310.000000	8.836050
2311.000000	8.892900
2312.000000	8.947775
2313.000000	9.008475
2314.000000	9.083250
2315.000000	9.171050
2316.000000	9.242925
2317.000000	9.330175
2318.000000	9.417400
2319.000000	9.497275
2320.000000	9.588450
2321.000000	9.671900
2322.000000	9.739875
2323.000000	9.811350
2324.000000	9.875000
2325.000000	9.931750
2326.000000	9.986350
2327.000000	10.035675
2328.000000	10.083900
2329.000000	10.120275
2330.000000	10.155550
2331.000000	10.194325
2332.000000	10.218600
2333.000000	10.231100
2334.000000	10.245725
2335.000000	10.252050
2336.000000	10.258850
2337.000000	10.258925
2338.000000	10.246775
2339.000000	10.217325
2340.000000	10.200675
2341.000000	10.182300
2342.000000	10.146700
2343.000000	10.099150
2344.000000	10.054500
2345.000000	10.012125
2346.000000	9.976400
2347.000000	9.934525
2348.000000	9.888375
2349.000000	9.848750
2350.000000	9.820200
2351.000000	9.798000
2352.000000	9.783225
2353.000000	9.778225
2354.000000	9.774400
2355.000000	9.785650
2356.000000	9.815900
2357.000000	9.838725
2358.000000	9.859650
2359.000000	9.895800
2360.000000	9.939850
2361.000000	9.981800
2362.000000	10.018200
2363.000000	10.065400
2364.000000	10.114250
2365.000000	10.150350
2366.000000	10.189150
2367.000000	10.224475
2368.000000	10.255475
2369.000000	10.285175
2370.000000	10.315525
2371.000000	10.334275
2372.000000	10.351600
2373.000000	10.377700
2374.000000	10.397225
2375.000000	10.400800
2376.000000	10.409275
2377.000000	10.427350
2378.000000	10.426525
2379.000000	10.423425
2380.000000	10.436950
2381.000000	10.437325
2382.000000	10.434350
2383.000000	10.431700
2384.000000	10.423875
2385.000000	10.422225
2386.000000	10.414125
2387.000000	10.405000
2388.000000	10.388275
2389.000000	10.367375
2390.000000	10.347150
2391.000000	10.324825
2392.000000	10.297800
2393.000000	10.275450
2394.000000	10.240350
2395.000000	10.214750
2396.000000	10.185525
2397.000000	10.151575
2398.000000	10.124475
2399.000000	10.084675
2400.000000	10.043275
2401.000000	10.026100
2402.000000	9.991200
2403.000000	9.945700
2404.000000	9.914325
2405.000000	9.892850
2406.000000	9.872725
2407.000000	9.843525
2408.000000	9.794975
2409.000000	9.733075
2410.000000	9.670175
2411.000000	9.617975
2412.000000	9.582700
2413.000000	9.556650
2414.000000	9.534675
2415.000000	9.517025
2416.000000	9.493275
2417.000000	9.462050
2418.000000	9.440675
2419.000000	9.419700
2420.000000	9.397550
2421.000000	9.372500
2422.000000	9.348450
2423.000000	9.321875
2424.000000	9.288875
2425.000000	9.271225
2426.000000	9.243675
2427.000000	9.201800
2428.000000	9.170700
2429.000000	9.135750
2430.000000	9.104775
2431.000000	9.058100
2432.000000	9.014225
2433.000000	8.968175
2434.000000	8.930500
2435.000000	8.887025
2436.000000	8.834275
2437.000000	8.785500
2438.000000	8.734975
2439.000000	8.685550
2440.000000	8.629825
2441.000000	8.555125
2442.000000	8.510300
2443.000000	8.447800
2444.000000	8.396750
2445.000000	8.344400
2446.000000	8.303575
2447.000000	8.235850
2448.000000	8.165750
2449.000000	8.107925
2450.000000	8.051000
2451.000000	7.993750
2452.000000	7.942725
2453.000000	7.887200
2454.000000	7.831675
2455.000000	7.785425
2456.000000	7.738400
2457.000000	7.694175
2458.000000	7.637325
2459.000000	7.599550
2460.000000	7.578650
2461.000000	7.554725
2462.000000	7.509025
2463.000000	7.476350
2464.000000	7.455075
2465.000000	7.437075
2466.000000	7.438050
2467.000000	7.411075
2468.000000	7.410625
2469.000000	7.405550
2470.000000	7.374900
2471.000000	7.382575
2472.000000	7.383675
2473.000000	7.388675
2474.000000	7.375800
2475.000000	7.368875
2476.000000	7.373400
2477.000000	7.383200
2478.000000	7.402000
2479.000000	7.389000
2480.000000	7.385150
2481.000000	7.363500
2482.000000	7.389775
2483.000000	7.381225
2484.000000	7.369225
2485.000000	7.402900
2486.000000	7.393725
2487.000000	7.400200
2488.000000	7.377375
2489.000000	7.427850
2490.000000	7.450175
2491.000000	7.444100
2492.000000	7.432425
2493.000000	7.471900
2494.000000	7.525225
2495.000000	7.508350
2496.000000	7.514000
2497.000000	7.578500
2498.000000	7.566775
2499.000000	7.589850
2500.000000	7.633075
