PE UV       SUBTECH     SPECTRUM    ASCII       PEDS        4.00        
   -1
CICIMAUCR0008-5.Sample.ASC
24/04/25
10:02:58.00
24/04/25
10:02:58.00
Vinicio Soto Monge
C. kalinini
250,000000
1
Lambda 1050
1050L1511233
PerkinElmer UV WinLab 6.3.2.0749 / 2.02.05 Lambda 900 UV/VIS/NIR, Aug  7 2015 09:38:08

0
0
3350/servo 860,8/2
0
0
UV/VIS
1
1
1
DoubleDePol,CommonBeamDepol,RBeamAtt,SBeamAtt,60mm sphere, WB InGaAs Detector
0
0
0
0
Program
Program
3350/servo 860,8/2
3350/0,2 860,8/0,2
3350/0,2 860,8/0,2
0
15.00
 
 
 
0
 
860,8
319,2
860,8
Front
100
on
S:100 R:100
0
0
0
0
 
0
 
 
 
0
 
 
0
0
0
0
0
 
 
 
 
0
0


0
0
#HDR
-1
-1
#GR
nm
%R
1.0
0.0
2500,000000
-1,000000
2251
8
95,184700
4,916500
#DATA
250.000000	4.659611
251.000000	4.632090
252.000000	4.606085
253.000000	4.620543
254.000000	4.609442
255.000000	4.617183
256.000000	4.599767
257.000000	4.610340
258.000000	4.583222
259.000000	4.563500
260.000000	4.540372
261.000000	4.568284
262.000000	4.540940
263.000000	4.529096
264.000000	4.494096
265.000000	4.478468
266.000000	4.470525
267.000000	4.464713
268.000000	4.455513
269.000000	4.446720
270.000000	4.411586
271.000000	4.399187
272.000000	4.402772
273.000000	4.404635
274.000000	4.375228
275.000000	4.368274
276.000000	4.354463
277.000000	4.372412
278.000000	4.348221
279.000000	4.390452
280.000000	4.359932
281.000000	4.338244
282.000000	4.328522
283.000000	4.330836
284.000000	4.323781
285.000000	4.313734
286.000000	4.295781
287.000000	4.317838
288.000000	4.287553
289.000000	4.320060
290.000000	4.312557
291.000000	4.271741
292.000000	4.328925
293.000000	4.296923
294.000000	4.297065
295.000000	4.272112
296.000000	4.288667
297.000000	4.297297
298.000000	4.291759
299.000000	4.287856
300.000000	4.248562
301.000000	4.266220
302.000000	4.277941
303.000000	4.257592
304.000000	4.269814
305.000000	4.272894
306.000000	4.268321
307.000000	4.273644
308.000000	4.266667
309.000000	4.258162
310.000000	4.242956
311.000000	4.253509
312.000000	4.238714
313.000000	4.240895
314.000000	4.239463
315.000000	4.227825
316.000000	4.312016
317.000000	4.832156
318.000000	4.607527
319.000000	4.613705
320.000000	4.523246
321.000000	4.602565
322.000000	4.625843
323.000000	4.668905
324.000000	4.642418
325.000000	4.553277
326.000000	4.501787
327.000000	4.492366
328.000000	4.468084
329.000000	4.524315
330.000000	4.481644
331.000000	4.477923
332.000000	4.498625
333.000000	4.532398
334.000000	4.508215
335.000000	4.444200
336.000000	4.471547
337.000000	4.523344
338.000000	4.497021
339.000000	4.468324
340.000000	4.555521
341.000000	4.563750
342.000000	4.466551
343.000000	4.539894
344.000000	4.602408
345.000000	4.587361
346.000000	4.554510
347.000000	4.578164
348.000000	4.615822
349.000000	4.609284
350.000000	4.647524
351.000000	4.682161
352.000000	4.665828
353.000000	4.699974
354.000000	4.779991
355.000000	4.760791
356.000000	4.781280
357.000000	4.814830
358.000000	4.870117
359.000000	4.901857
360.000000	4.868290
361.000000	4.928079
362.000000	4.998615
363.000000	4.992621
364.000000	5.036050
365.000000	5.024168
366.000000	5.105538
367.000000	5.087643
368.000000	5.120907
369.000000	5.182616
370.000000	5.186584
371.000000	5.227000
372.000000	5.314358
373.000000	5.389683
374.000000	5.398415
375.000000	5.513906
376.000000	5.716879
377.000000	5.726263
378.000000	5.814872
379.000000	5.916780
380.000000	6.011325
381.000000	6.127329
382.000000	6.230841
383.000000	6.342317
384.000000	6.469802
385.000000	6.609887
386.000000	6.751353
387.000000	6.905580
388.000000	7.062219
389.000000	7.226110
390.000000	7.409132
391.000000	7.595836
392.000000	7.789633
393.000000	8.002604
394.000000	8.228526
395.000000	8.449737
396.000000	8.674203
397.000000	8.917848
398.000000	9.169370
399.000000	9.427215
400.000000	9.697395
401.000000	9.983564
402.000000	10.265209
403.000000	10.561060
404.000000	10.873992
405.000000	11.184419
406.000000	11.493631
407.000000	11.813179
408.000000	12.137984
409.000000	12.467230
410.000000	12.793373
411.000000	13.125823
412.000000	13.470447
413.000000	13.817757
414.000000	14.156905
415.000000	14.491320
416.000000	14.814399
417.000000	15.143917
418.000000	15.468044
419.000000	15.778806
420.000000	16.094630
421.000000	16.398534
422.000000	16.695656
423.000000	16.983752
424.000000	17.261293
425.000000	17.521790
426.000000	17.771542
427.000000	18.015664
428.000000	18.230458
429.000000	18.443802
430.000000	18.664800
431.000000	18.866662
432.000000	19.058685
433.000000	19.245417
434.000000	19.420691
435.000000	19.599128
436.000000	19.761896
437.000000	19.902074
438.000000	20.050896
439.000000	20.191455
440.000000	20.322359
441.000000	20.453106
442.000000	20.571081
443.000000	20.687687
444.000000	20.789313
445.000000	20.864670
446.000000	20.936779
447.000000	21.007307
448.000000	21.061761
449.000000	21.122023
450.000000	21.187865
451.000000	21.245684
452.000000	21.293945
453.000000	21.332685
454.000000	21.369797
455.000000	21.404243
456.000000	21.441355
457.000000	21.472673
458.000000	21.509580
459.000000	21.544167
460.000000	21.574134
461.000000	21.610363
462.000000	21.646242
463.000000	21.690256
464.000000	21.740815
465.000000	21.799288
466.000000	21.867414
467.000000	21.960422
468.000000	22.053885
469.000000	22.155121
470.000000	22.286979
471.000000	22.432970
472.000000	22.593161
473.000000	22.782710
474.000000	22.988121
475.000000	23.215102
476.000000	23.462258
477.000000	23.729778
478.000000	24.027759
479.000000	24.334367
480.000000	24.680791
481.000000	25.060456
482.000000	25.439542
483.000000	25.828677
484.000000	26.213838
485.000000	26.596625
486.000000	26.972537
487.000000	27.365500
488.000000	27.754555
489.000000	28.135985
490.000000	28.513275
491.000000	28.894557
492.000000	29.259448
493.000000	29.618979
494.000000	29.956498
495.000000	30.284322
496.000000	30.618341
497.000000	30.943783
498.000000	31.265522
499.000000	31.573430
500.000000	31.883749
501.000000	32.213856
502.000000	32.551932
503.000000	32.887854
504.000000	33.251425
505.000000	33.618130
506.000000	33.989113
507.000000	34.373207
508.000000	34.770283
509.000000	35.204074
510.000000	35.648353
511.000000	36.117550
512.000000	36.601189
513.000000	37.114579
514.000000	37.646467
515.000000	38.196136
516.000000	38.769000
517.000000	39.334013
518.000000	39.920205
519.000000	40.504517
520.000000	41.101581
521.000000	41.713346
522.000000	42.314225
523.000000	42.907455
524.000000	43.494054
525.000000	44.085707
526.000000	44.661843
527.000000	45.243814
528.000000	45.822369
529.000000	46.386792
530.000000	46.939368
531.000000	47.453957
532.000000	47.978447
533.000000	48.498719
534.000000	49.009048
535.000000	49.485662
536.000000	49.964241
537.000000	50.414712
538.000000	50.857686
539.000000	51.287985
540.000000	51.698310
541.000000	52.087774
542.000000	52.471890
543.000000	52.819402
544.000000	53.186863
545.000000	53.503459
546.000000	53.800855
547.000000	54.098293
548.000000	54.387296
549.000000	54.679812
550.000000	54.958991
551.000000	55.230499
552.000000	55.459740
553.000000	55.688861
554.000000	55.902867
555.000000	56.091094
556.000000	56.267734
557.000000	56.437743
558.000000	56.602430
559.000000	56.734032
560.000000	56.699425
561.000000	56.810122
562.000000	56.940252
563.000000	57.055105
564.000000	57.162383
565.000000	57.246202
566.000000	57.297630
567.000000	57.346014
568.000000	57.378070
569.000000	57.436473
570.000000	57.471766
571.000000	57.495763
572.000000	57.537107
573.000000	57.565073
574.000000	57.554614
575.000000	57.516275
576.000000	57.502919
577.000000	57.434572
578.000000	57.351838
579.000000	57.273576
580.000000	57.191376
581.000000	57.079145
582.000000	56.939365
583.000000	56.812931
584.000000	56.673751
585.000000	56.497608
586.000000	56.306145
587.000000	56.096842
588.000000	55.877897
589.000000	55.649531
590.000000	55.429356
591.000000	55.196442
592.000000	54.975684
593.000000	54.702544
594.000000	54.496466
595.000000	54.272510
596.000000	54.039904
597.000000	53.780195
598.000000	53.533988
599.000000	53.261418
600.000000	52.979090
601.000000	52.723149
602.000000	52.430585
603.000000	52.146737
604.000000	51.851682
605.000000	51.574482
606.000000	51.282343
607.000000	51.051146
608.000000	50.801104
609.000000	50.573530
610.000000	50.359190
611.000000	50.157894
612.000000	49.960385
613.000000	49.762155
614.000000	49.582774
615.000000	49.388868
616.000000	49.257153
617.000000	49.107409
618.000000	48.989021
619.000000	48.874684
620.000000	48.791564
621.000000	48.708334
622.000000	48.645583
623.000000	48.595310
624.000000	48.554094
625.000000	48.564960
626.000000	48.596569
627.000000	48.668880
628.000000	48.767693
629.000000	48.898210
630.000000	49.068537
631.000000	49.252297
632.000000	49.492881
633.000000	49.738282
634.000000	50.000233
635.000000	50.280613
636.000000	50.585760
637.000000	50.870427
638.000000	51.197373
639.000000	51.545603
640.000000	51.872885
641.000000	52.215264
642.000000	52.537544
643.000000	52.905134
644.000000	53.243608
645.000000	53.584566
646.000000	53.912924
647.000000	54.206132
648.000000	54.531277
649.000000	54.810995
650.000000	55.089281
651.000000	55.366647
652.000000	55.648815
653.000000	55.940389
654.000000	56.194010
655.000000	56.456260
656.000000	56.676535
657.000000	56.931892
658.000000	57.166820
659.000000	57.378121
660.000000	57.601186
661.000000	57.823855
662.000000	58.060856
663.000000	58.302009
664.000000	58.540931
665.000000	58.782576
666.000000	59.037436
667.000000	59.313553
668.000000	59.617545
669.000000	59.930523
670.000000	60.265914
671.000000	60.621797
672.000000	60.957965
673.000000	61.337382
674.000000	61.713136
675.000000	62.118773
676.000000	62.517676
677.000000	62.940136
678.000000	63.361535
679.000000	63.774136
680.000000	64.208972
681.000000	64.639774
682.000000	65.047306
683.000000	65.495073
684.000000	65.936101
685.000000	66.384964
686.000000	66.808328
687.000000	67.180725
688.000000	67.518937
689.000000	67.883844
690.000000	68.219340
691.000000	68.560898
692.000000	68.913756
693.000000	69.227289
694.000000	69.506465
695.000000	69.784327
696.000000	70.054843
697.000000	70.260006
698.000000	70.478086
699.000000	70.692209
700.000000	70.901684
701.000000	71.094439
702.000000	71.283510
703.000000	71.456465
704.000000	71.635715
705.000000	71.813372
706.000000	71.971590
707.000000	72.101217
708.000000	72.224600
709.000000	72.365207
710.000000	72.469109
711.000000	72.586160
712.000000	72.687925
713.000000	72.833941
714.000000	72.954724
715.000000	73.048645
716.000000	73.164610
717.000000	73.262035
718.000000	73.337514
719.000000	73.435083
720.000000	73.550684
721.000000	73.675427
722.000000	73.774192
723.000000	73.864014
724.000000	73.947535
725.000000	73.988198
726.000000	74.090912
727.000000	74.192400
728.000000	74.208549
729.000000	74.247076
730.000000	74.347212
731.000000	74.417415
732.000000	74.479810
733.000000	74.513625
734.000000	74.548841
735.000000	74.579667
736.000000	74.606357
737.000000	74.640411
738.000000	74.670766
739.000000	74.669757
740.000000	74.694176
741.000000	74.729151
742.000000	74.750457
743.000000	74.742468
744.000000	74.706624
745.000000	74.686281
746.000000	74.687171
747.000000	74.698206
748.000000	74.667859
749.000000	74.611162
750.000000	74.565833
751.000000	74.496907
752.000000	74.411976
753.000000	74.334417
754.000000	74.253841
755.000000	74.183984
756.000000	74.068081
757.000000	73.980638
758.000000	73.932319
759.000000	73.844910
760.000000	73.725189
761.000000	73.595091
762.000000	73.461009
763.000000	73.311919
764.000000	73.162334
765.000000	72.985492
766.000000	72.786504
767.000000	72.594990
768.000000	72.414325
769.000000	72.273073
770.000000	72.093276
771.000000	71.857507
772.000000	71.602489
773.000000	71.366385
774.000000	71.118207
775.000000	70.888501
776.000000	70.621099
777.000000	70.394851
778.000000	70.153406
779.000000	69.865814
780.000000	69.540390
781.000000	69.236832
782.000000	68.924995
783.000000	68.598983
784.000000	68.270506
785.000000	67.867794
786.000000	67.559574
787.000000	67.290018
788.000000	66.926110
789.000000	66.589534
790.000000	66.221671
791.000000	65.877542
792.000000	65.473698
793.000000	65.082077
794.000000	64.762287
795.000000	64.457264
796.000000	64.074970
797.000000	63.690036
798.000000	63.363080
799.000000	62.992537
800.000000	62.656699
801.000000	62.294889
802.000000	61.862116
803.000000	61.543327
804.000000	61.223458
805.000000	60.850766
806.000000	60.499332
807.000000	60.186658
808.000000	59.831668
809.000000	59.503245
810.000000	59.160806
811.000000	58.865406
812.000000	58.560365
813.000000	58.279522
814.000000	57.988888
815.000000	57.685091
816.000000	57.405968
817.000000	57.148284
818.000000	56.910770
819.000000	56.658157
820.000000	56.467749
821.000000	56.263028
822.000000	56.053474
823.000000	55.811677
824.000000	55.748518
825.000000	55.571182
826.000000	55.304652
827.000000	55.175900
828.000000	55.078062
829.000000	54.968254
830.000000	54.886391
831.000000	54.822545
832.000000	54.640552
833.000000	54.476581
834.000000	54.442779
835.000000	54.350591
836.000000	54.308434
837.000000	54.204918
838.000000	54.039999
839.000000	53.950570
840.000000	53.937845
841.000000	53.790479
842.000000	53.679431
843.000000	53.519841
844.000000	53.285165
845.000000	53.256000
846.000000	53.227581
847.000000	52.987606
848.000000	52.973053
849.000000	52.952510
850.000000	52.628994
851.000000	52.593054
852.000000	52.433131
853.000000	52.192593
854.000000	51.945555
855.000000	51.860979
856.000000	51.812066
857.000000	51.865720
858.000000	52.743267
859.000000	51.769633
860.000000	51.605233
861.000000	51.428700
862.000000	51.259300
863.000000	51.084800
864.000000	50.928133
865.000000	50.752867
866.000000	50.557300
867.000000	50.393067
868.000000	50.303167
869.000000	50.339267
870.000000	50.447267
871.000000	50.536133
872.000000	50.636867
873.000000	50.720000
874.000000	50.769567
875.000000	50.775100
876.000000	50.789667
877.000000	50.773167
878.000000	50.764233
879.000000	50.759533
880.000000	50.731200
881.000000	50.709567
882.000000	50.681600
883.000000	50.655767
884.000000	50.637067
885.000000	50.596800
886.000000	50.501733
887.000000	50.419633
888.000000	50.398733
889.000000	50.324300
890.000000	50.263900
891.000000	50.202267
892.000000	50.130633
893.000000	50.004900
894.000000	49.898367
895.000000	49.797867
896.000000	49.720067
897.000000	49.625233
898.000000	49.510300
899.000000	49.382000
900.000000	49.266700
901.000000	49.145900
902.000000	49.022900
903.000000	48.895933
904.000000	48.783767
905.000000	48.687800
906.000000	48.583767
907.000000	48.455333
908.000000	48.348800
909.000000	48.254000
910.000000	48.176167
911.000000	48.092733
912.000000	48.006467
913.000000	47.927000
914.000000	47.861233
915.000000	47.805433
916.000000	47.752333
917.000000	47.689600
918.000000	47.605433
919.000000	47.537633
920.000000	47.484233
921.000000	47.417267
922.000000	47.357333
923.000000	47.281167
924.000000	47.221133
925.000000	47.159300
926.000000	47.115633
927.000000	47.081000
928.000000	47.025500
929.000000	46.980900
930.000000	46.940733
931.000000	46.893933
932.000000	46.850733
933.000000	46.794533
934.000000	46.750600
935.000000	46.695333
936.000000	46.637267
937.000000	46.605067
938.000000	46.564967
939.000000	46.536733
940.000000	46.497233
941.000000	46.465633
942.000000	46.433533
943.000000	46.408300
944.000000	46.392233
945.000000	46.375467
946.000000	46.381367
947.000000	46.372533
948.000000	46.349400
949.000000	46.325667
950.000000	46.319667
951.000000	46.309433
952.000000	46.282833
953.000000	46.272067
954.000000	46.247800
955.000000	46.237067
956.000000	46.205900
957.000000	46.191400
958.000000	46.169000
959.000000	46.154633
960.000000	46.132500
961.000000	46.104067
962.000000	46.085100
963.000000	46.082133
964.000000	46.072367
965.000000	46.071100
966.000000	46.071767
967.000000	46.063700
968.000000	46.063967
969.000000	46.075900
970.000000	46.086100
971.000000	46.097467
972.000000	46.088800
973.000000	46.091733
974.000000	46.105833
975.000000	46.105167
976.000000	46.112200
977.000000	46.119767
978.000000	46.121600
979.000000	46.130567
980.000000	46.142867
981.000000	46.144900
982.000000	46.149867
983.000000	46.157833
984.000000	46.160433
985.000000	46.173367
986.000000	46.187133
987.000000	46.182267
988.000000	46.185833
989.000000	46.193667
990.000000	46.197033
991.000000	46.206933
992.000000	46.215200
993.000000	46.238167
994.000000	46.252000
995.000000	46.255467
996.000000	46.275800
997.000000	46.294567
998.000000	46.308300
999.000000	46.318800
1000.000000	46.342867
1001.000000	46.368000
1002.000000	46.387167
1003.000000	46.404233
1004.000000	46.411700
1005.000000	46.427767
1006.000000	46.444933
1007.000000	46.461100
1008.000000	46.470733
1009.000000	46.485333
1010.000000	46.502300
1011.000000	46.523867
1012.000000	46.550100
1013.000000	46.582700
1014.000000	46.619933
1015.000000	46.665267
1016.000000	46.718200
1017.000000	46.773833
1018.000000	46.836467
1019.000000	46.897033
1020.000000	46.978767
1021.000000	47.058633
1022.000000	47.129033
1023.000000	47.209533
1024.000000	47.276800
1025.000000	47.352633
1026.000000	47.437467
1027.000000	47.519233
1028.000000	47.601133
1029.000000	47.671700
1030.000000	47.741267
1031.000000	47.817167
1032.000000	47.891700
1033.000000	47.961200
1034.000000	48.038600
1035.000000	48.101233
1036.000000	48.156100
1037.000000	48.227500
1038.000000	48.298500
1039.000000	48.354600
1040.000000	48.415233
1041.000000	48.479333
1042.000000	48.530033
1043.000000	48.588333
1044.000000	48.653367
1045.000000	48.719467
1046.000000	48.781367
1047.000000	48.844533
1048.000000	48.915600
1049.000000	48.970000
1050.000000	49.036467
1051.000000	49.108933
1052.000000	49.168233
1053.000000	49.238700
1054.000000	49.313867
1055.000000	49.393167
1056.000000	49.473033
1057.000000	49.543233
1058.000000	49.617833
1059.000000	49.702900
1060.000000	49.781433
1061.000000	49.850433
1062.000000	49.921533
1063.000000	49.995900
1064.000000	50.066933
1065.000000	50.136800
1066.000000	50.205267
1067.000000	50.268867
1068.000000	50.329900
1069.000000	50.402700
1070.000000	50.466133
1071.000000	50.530400
1072.000000	50.599733
1073.000000	50.668800
1074.000000	50.725367
1075.000000	50.785867
1076.000000	50.857233
1077.000000	50.917033
1078.000000	50.977167
1079.000000	51.042100
1080.000000	51.103067
1081.000000	51.171467
1082.000000	51.236067
1083.000000	51.301933
1084.000000	51.368400
1085.000000	51.443200
1086.000000	51.515267
1087.000000	51.587700
1088.000000	51.661800
1089.000000	51.732900
1090.000000	51.805833
1091.000000	51.870767
1092.000000	51.938267
1093.000000	52.000400
1094.000000	52.069133
1095.000000	52.129667
1096.000000	52.188367
1097.000000	52.252033
1098.000000	52.308633
1099.000000	52.365767
1100.000000	52.425200
1101.000000	52.468967
1102.000000	52.506167
1103.000000	52.546967
1104.000000	52.589967
1105.000000	52.628867
1106.000000	52.662833
1107.000000	52.698500
1108.000000	52.731833
1109.000000	52.761500
1110.000000	52.788400
1111.000000	52.819067
1112.000000	52.840967
1113.000000	52.865733
1114.000000	52.893467
1115.000000	52.925367
1116.000000	52.959833
1117.000000	52.980900
1118.000000	52.986800
1119.000000	52.981600
1120.000000	52.966500
1121.000000	52.950000
1122.000000	52.927600
1123.000000	52.888600
1124.000000	52.837700
1125.000000	52.782200
1126.000000	52.724300
1127.000000	52.637133
1128.000000	52.533267
1129.000000	52.407767
1130.000000	52.242300
1131.000000	52.032333
1132.000000	51.793567
1133.000000	51.551300
1134.000000	51.287033
1135.000000	50.984300
1136.000000	50.632833
1137.000000	50.254133
1138.000000	49.881667
1139.000000	49.512833
1140.000000	49.159467
1141.000000	48.816933
1142.000000	48.471900
1143.000000	48.148500
1144.000000	47.842967
1145.000000	47.570067
1146.000000	47.345367
1147.000000	47.198667
1148.000000	47.126933
1149.000000	47.115300
1150.000000	47.151033
1151.000000	47.168300
1152.000000	47.214733
1153.000000	47.209300
1154.000000	47.160233
1155.000000	47.083633
1156.000000	46.919700
1157.000000	46.716233
1158.000000	46.428067
1159.000000	46.124800
1160.000000	45.770800
1161.000000	45.416900
1162.000000	45.034967
1163.000000	44.658200
1164.000000	44.248567
1165.000000	43.850900
1166.000000	43.433867
1167.000000	43.028100
1168.000000	42.655400
1169.000000	42.264333
1170.000000	41.879100
1171.000000	41.487633
1172.000000	41.111667
1173.000000	40.743100
1174.000000	40.396000
1175.000000	40.054433
1176.000000	39.724100
1177.000000	39.388100
1178.000000	38.997167
1179.000000	38.558800
1180.000000	38.041267
1181.000000	37.505367
1182.000000	36.953367
1183.000000	36.415267
1184.000000	35.977433
1185.000000	35.648333
1186.000000	35.465800
1187.000000	35.421633
1188.000000	35.494800
1189.000000	35.743900
1190.000000	36.099100
1191.000000	36.553567
1192.000000	37.053600
1193.000000	37.557933
1194.000000	38.017533
1195.000000	38.401167
1196.000000	38.719867
1197.000000	38.966833
1198.000000	39.176667
1199.000000	39.316900
1200.000000	39.417100
1201.000000	39.492433
1202.000000	39.533800
1203.000000	39.564933
1204.000000	39.605433
1205.000000	39.627167
1206.000000	39.660033
1207.000000	39.710933
1208.000000	39.780967
1209.000000	39.862033
1210.000000	39.959067
1211.000000	40.069100
1212.000000	40.198333
1213.000000	40.329900
1214.000000	40.463900
1215.000000	40.593800
1216.000000	40.739533
1217.000000	40.887933
1218.000000	41.042667
1219.000000	41.202133
1220.000000	41.396300
1221.000000	41.567200
1222.000000	41.757667
1223.000000	41.960767
1224.000000	42.156900
1225.000000	42.361900
1226.000000	42.555900
1227.000000	42.771167
1228.000000	42.985133
1229.000000	43.179367
1230.000000	43.382767
1231.000000	43.590500
1232.000000	43.795633
1233.000000	43.985533
1234.000000	44.182300
1235.000000	44.367633
1236.000000	44.555067
1237.000000	44.740200
1238.000000	44.909000
1239.000000	45.085833
1240.000000	45.256033
1241.000000	45.420400
1242.000000	45.583900
1243.000000	45.740500
1244.000000	45.891867
1245.000000	46.041167
1246.000000	46.182133
1247.000000	46.304733
1248.000000	46.419533
1249.000000	46.534600
1250.000000	46.643300
1251.000000	46.735633
1252.000000	46.824533
1253.000000	46.915433
1254.000000	46.994433
1255.000000	47.064933
1256.000000	47.142133
1257.000000	47.216667
1258.000000	47.279200
1259.000000	47.347967
1260.000000	47.395133
1261.000000	47.444200
1262.000000	47.502600
1263.000000	47.552600
1264.000000	47.603867
1265.000000	47.657167
1266.000000	47.721933
1267.000000	47.778900
1268.000000	47.825433
1269.000000	47.881667
1270.000000	47.939033
1271.000000	47.982967
1272.000000	48.028500
1273.000000	48.080600
1274.000000	48.127333
1275.000000	48.178967
1276.000000	48.244600
1277.000000	48.311133
1278.000000	48.382867
1279.000000	48.455033
1280.000000	48.524733
1281.000000	48.593267
1282.000000	48.667233
1283.000000	48.753833
1284.000000	48.832067
1285.000000	48.914033
1286.000000	48.994267
1287.000000	49.062833
1288.000000	49.131900
1289.000000	49.189100
1290.000000	49.228533
1291.000000	49.272167
1292.000000	49.308000
1293.000000	49.337933
1294.000000	49.366033
1295.000000	49.377000
1296.000000	49.377533
1297.000000	49.387600
1298.000000	49.398767
1299.000000	49.405067
1300.000000	49.416467
1301.000000	49.426533
1302.000000	49.430100
1303.000000	49.431600
1304.000000	49.434433
1305.000000	49.424467
1306.000000	49.406967
1307.000000	49.391867
1308.000000	49.366633
1309.000000	49.332667
1310.000000	49.293400
1311.000000	49.246833
1312.000000	49.186933
1313.000000	49.128700
1314.000000	49.074967
1315.000000	49.014567
1316.000000	48.942733
1317.000000	48.856833
1318.000000	48.780267
1319.000000	48.698900
1320.000000	48.609733
1321.000000	48.521167
1322.000000	48.419133
1323.000000	48.313600
1324.000000	48.205867
1325.000000	48.095633
1326.000000	47.981733
1327.000000	47.856133
1328.000000	47.725000
1329.000000	47.586033
1330.000000	47.432833
1331.000000	47.275700
1332.000000	47.107133
1333.000000	46.920300
1334.000000	46.719000
1335.000000	46.516600
1336.000000	46.309733
1337.000000	46.092533
1338.000000	45.866167
1339.000000	45.615300
1340.000000	45.349267
1341.000000	45.087967
1342.000000	44.788400
1343.000000	44.469867
1344.000000	44.154233
1345.000000	43.817267
1346.000000	43.437700
1347.000000	43.056133
1348.000000	42.659533
1349.000000	42.218800
1350.000000	41.738400
1351.000000	41.203967
1352.000000	40.606167
1353.000000	39.978133
1354.000000	39.371500
1355.000000	38.787633
1356.000000	38.246567
1357.000000	37.845233
1358.000000	37.586000
1359.000000	37.423267
1360.000000	37.321067
1361.000000	37.269900
1362.000000	37.191033
1363.000000	37.044033
1364.000000	36.872533
1365.000000	36.691500
1366.000000	36.470333
1367.000000	36.236100
1368.000000	36.004400
1369.000000	35.703367
1370.000000	35.368200
1371.000000	35.023833
1372.000000	34.650733
1373.000000	34.248867
1374.000000	33.879800
1375.000000	33.562867
1376.000000	33.325933
1377.000000	33.159900
1378.000000	33.053733
1379.000000	32.981767
1380.000000	32.927400
1381.000000	32.819233
1382.000000	32.698467
1383.000000	32.460700
1384.000000	32.140633
1385.000000	31.757367
1386.000000	31.382533
1387.000000	31.066400
1388.000000	30.794700
1389.000000	30.559733
1390.000000	30.294300
1391.000000	30.105167
1392.000000	29.968433
1393.000000	29.823333
1394.000000	29.687333
1395.000000	29.600700
1396.000000	29.507767
1397.000000	29.320800
1398.000000	29.115467
1399.000000	28.893267
1400.000000	28.731700
1401.000000	28.479767
1402.000000	28.164467
1403.000000	27.773867
1404.000000	27.435033
1405.000000	27.101100
1406.000000	26.772967
1407.000000	26.417167
1408.000000	26.094900
1409.000000	25.788233
1410.000000	25.487533
1411.000000	25.191567
1412.000000	24.941433
1413.000000	24.729700
1414.000000	24.576167
1415.000000	24.400333
1416.000000	24.177333
1417.000000	23.958633
1418.000000	23.754233
1419.000000	23.583533
1420.000000	23.396000
1421.000000	23.155933
1422.000000	22.934400
1423.000000	22.732067
1424.000000	22.548367
1425.000000	22.328867
1426.000000	22.130500
1427.000000	21.931667
1428.000000	21.759733
1429.000000	21.580067
1430.000000	21.415700
1431.000000	21.273733
1432.000000	21.145100
1433.000000	21.017167
1434.000000	20.901900
1435.000000	20.758433
1436.000000	20.638633
1437.000000	20.534767
1438.000000	20.413000
1439.000000	20.303033
1440.000000	20.184200
1441.000000	20.049033
1442.000000	19.933867
1443.000000	19.787000
1444.000000	19.672067
1445.000000	19.557967
1446.000000	19.455900
1447.000000	19.333733
1448.000000	19.209367
1449.000000	19.065533
1450.000000	18.983367
1451.000000	18.891300
1452.000000	18.795467
1453.000000	18.682633
1454.000000	18.576200
1455.000000	18.467533
1456.000000	18.371367
1457.000000	18.282100
1458.000000	18.198200
1459.000000	18.110433
1460.000000	18.017100
1461.000000	17.951233
1462.000000	17.867767
1463.000000	17.807833
1464.000000	17.743333
1465.000000	17.677767
1466.000000	17.631233
1467.000000	17.580733
1468.000000	17.532300
1469.000000	17.473300
1470.000000	17.432000
1471.000000	17.397400
1472.000000	17.366200
1473.000000	17.316333
1474.000000	17.273633
1475.000000	17.224800
1476.000000	17.176033
1477.000000	17.132500
1478.000000	17.099233
1479.000000	17.061500
1480.000000	17.034333
1481.000000	16.991000
1482.000000	16.953233
1483.000000	16.927133
1484.000000	16.901133
1485.000000	16.874567
1486.000000	16.852933
1487.000000	16.836967
1488.000000	16.824400
1489.000000	16.811100
1490.000000	16.790900
1491.000000	16.776200
1492.000000	16.767467
1493.000000	16.752367
1494.000000	16.739167
1495.000000	16.734067
1496.000000	16.736800
1497.000000	16.734200
1498.000000	16.725067
1499.000000	16.727900
1500.000000	16.735100
1501.000000	16.735133
1502.000000	16.745367
1503.000000	16.755500
1504.000000	16.764733
1505.000000	16.781800
1506.000000	16.801000
1507.000000	16.809433
1508.000000	16.822167
1509.000000	16.837900
1510.000000	16.859133
1511.000000	16.870833
1512.000000	16.886667
1513.000000	16.906033
1514.000000	16.917800
1515.000000	16.936633
1516.000000	16.952067
1517.000000	16.962933
1518.000000	16.976833
1519.000000	16.990800
1520.000000	17.010167
1521.000000	17.023833
1522.000000	17.027867
1523.000000	17.039700
1524.000000	17.053400
1525.000000	17.063967
1526.000000	17.068633
1527.000000	17.082667
1528.000000	17.079833
1529.000000	17.077567
1530.000000	17.093967
1531.000000	17.097567
1532.000000	17.097367
1533.000000	17.099833
1534.000000	17.097167
1535.000000	17.094967
1536.000000	17.083167
1537.000000	17.073900
1538.000000	17.071067
1539.000000	17.064767
1540.000000	17.053467
1541.000000	17.045133
1542.000000	17.035167
1543.000000	17.023733
1544.000000	17.010633
1545.000000	16.999900
1546.000000	16.985067
1547.000000	16.981133
1548.000000	16.980800
1549.000000	16.978933
1550.000000	16.979400
1551.000000	16.973900
1552.000000	16.965233
1553.000000	16.954833
1554.000000	16.943300
1555.000000	16.933533
1556.000000	16.924700
1557.000000	16.901000
1558.000000	16.877767
1559.000000	16.854600
1560.000000	16.831133
1561.000000	16.810167
1562.000000	16.782567
1563.000000	16.749967
1564.000000	16.717333
1565.000000	16.687733
1566.000000	16.657633
1567.000000	16.621600
1568.000000	16.591800
1569.000000	16.560533
1570.000000	16.531133
1571.000000	16.509667
1572.000000	16.484833
1573.000000	16.461500
1574.000000	16.441200
1575.000000	16.425167
1576.000000	16.409667
1577.000000	16.400500
1578.000000	16.391167
1579.000000	16.378467
1580.000000	16.373867
1581.000000	16.377400
1582.000000	16.391100
1583.000000	16.404367
1584.000000	16.416733
1585.000000	16.428600
1586.000000	16.443433
1587.000000	16.468733
1588.000000	16.488633
1589.000000	16.515833
1590.000000	16.549567
1591.000000	16.570600
1592.000000	16.599533
1593.000000	16.647500
1594.000000	16.697300
1595.000000	16.731600
1596.000000	16.766400
1597.000000	16.803433
1598.000000	16.852100
1599.000000	16.907033
1600.000000	16.960967
1601.000000	17.012067
1602.000000	17.067667
1603.000000	17.123133
1604.000000	17.177700
1605.000000	17.242867
1606.000000	17.291700
1607.000000	17.351833
1608.000000	17.422100
1609.000000	17.477133
1610.000000	17.540533
1611.000000	17.601700
1612.000000	17.661200
1613.000000	17.720200
1614.000000	17.772533
1615.000000	17.843367
1616.000000	17.908067
1617.000000	17.967500
1618.000000	18.040600
1619.000000	18.102567
1620.000000	18.177233
1621.000000	18.249267
1622.000000	18.322967
1623.000000	18.388700
1624.000000	18.462767
1625.000000	18.531067
1626.000000	18.601333
1627.000000	18.679333
1628.000000	18.750500
1629.000000	18.819200
1630.000000	18.890167
1631.000000	18.961767
1632.000000	19.027400
1633.000000	19.090333
1634.000000	19.155333
1635.000000	19.207133
1636.000000	19.272833
1637.000000	19.341667
1638.000000	19.387800
1639.000000	19.452700
1640.000000	19.507933
1641.000000	19.555267
1642.000000	19.609067
1643.000000	19.657200
1644.000000	19.706100
1645.000000	19.747267
1646.000000	19.793933
1647.000000	19.837033
1648.000000	19.873267
1649.000000	19.905467
1650.000000	19.939167
1651.000000	19.964867
1652.000000	19.986367
1653.000000	20.004533
1654.000000	20.015633
1655.000000	20.021233
1656.000000	20.016100
1657.000000	20.006667
1658.000000	19.985200
1659.000000	19.959233
1660.000000	19.915200
1661.000000	19.896567
1662.000000	19.852767
1663.000000	19.789967
1664.000000	19.729933
1665.000000	19.656467
1666.000000	19.573500
1667.000000	19.485433
1668.000000	19.366367
1669.000000	19.232133
1670.000000	19.095233
1671.000000	18.932200
1672.000000	18.731167
1673.000000	18.504867
1674.000000	18.252500
1675.000000	17.973300
1676.000000	17.639767
1677.000000	17.264167
1678.000000	16.830567
1679.000000	16.367167
1680.000000	15.896400
1681.000000	15.425033
1682.000000	15.002767
1683.000000	14.689100
1684.000000	14.476867
1685.000000	14.351600
1686.000000	14.299767
1687.000000	14.302433
1688.000000	14.289400
1689.000000	14.263200
1690.000000	14.193100
1691.000000	14.074633
1692.000000	13.951033
1693.000000	13.819900
1694.000000	13.709033
1695.000000	13.632067
1696.000000	13.600433
1697.000000	13.639167
1698.000000	13.693067
1699.000000	13.803033
1700.000000	13.917200
1701.000000	14.043667
1702.000000	14.159967
1703.000000	14.258000
1704.000000	14.326433
1705.000000	14.375200
1706.000000	14.432433
1707.000000	14.458533
1708.000000	14.480400
1709.000000	14.507567
1710.000000	14.524333
1711.000000	14.522833
1712.000000	14.512000
1713.000000	14.500500
1714.000000	14.455333
1715.000000	14.420333
1716.000000	14.387833
1717.000000	14.346800
1718.000000	14.319367
1719.000000	14.308167
1720.000000	14.300000
1721.000000	14.303700
1722.000000	14.310900
1723.000000	14.300867
1724.000000	14.286667
1725.000000	14.268300
1726.000000	14.216767
1727.000000	14.164267
1728.000000	14.084567
1729.000000	13.994933
1730.000000	13.905067
1731.000000	13.817967
1732.000000	13.754733
1733.000000	13.711500
1734.000000	13.673600
1735.000000	13.697000
1736.000000	13.740167
1737.000000	13.823167
1738.000000	13.946833
1739.000000	14.116167
1740.000000	14.293667
1741.000000	14.479600
1742.000000	14.675967
1743.000000	14.855600
1744.000000	15.025433
1745.000000	15.183100
1746.000000	15.308133
1747.000000	15.409433
1748.000000	15.515267
1749.000000	15.596767
1750.000000	15.653867
1751.000000	15.699367
1752.000000	15.740267
1753.000000	15.758900
1754.000000	15.760933
1755.000000	15.764533
1756.000000	15.764867
1757.000000	15.739700
1758.000000	15.696900
1759.000000	15.640133
1760.000000	15.586200
1761.000000	15.543233
1762.000000	15.487833
1763.000000	15.458167
1764.000000	15.459933
1765.000000	15.479633
1766.000000	15.525433
1767.000000	15.583933
1768.000000	15.669900
1769.000000	15.764467
1770.000000	15.862300
1771.000000	15.977567
1772.000000	16.091800
1773.000000	16.194133
1774.000000	16.315300
1775.000000	16.416033
1776.000000	16.521733
1777.000000	16.628500
1778.000000	16.722700
1779.000000	16.805300
1780.000000	16.885633
1781.000000	16.958133
1782.000000	17.029000
1783.000000	17.094800
1784.000000	17.159700
1785.000000	17.235100
1786.000000	17.298900
1787.000000	17.352533
1788.000000	17.413467
1789.000000	17.477933
1790.000000	17.526100
1791.000000	17.581033
1792.000000	17.624867
1793.000000	17.669200
1794.000000	17.709367
1795.000000	17.757033
1796.000000	17.803867
1797.000000	17.837233
1798.000000	17.861400
1799.000000	17.888900
1800.000000	17.923833
1801.000000	17.975100
1802.000000	18.030867
1803.000000	18.061367
1804.000000	18.091767
1805.000000	18.123200
1806.000000	18.155733
1807.000000	18.194233
1808.000000	18.226933
1809.000000	18.244567
1810.000000	18.274500
1811.000000	18.316467
1812.000000	18.349533
1813.000000	18.366633
1814.000000	18.372500
1815.000000	18.378233
1816.000000	18.385967
1817.000000	18.389933
1818.000000	18.384933
1819.000000	18.383667
1820.000000	18.416000
1821.000000	18.469467
1822.000000	18.514867
1823.000000	18.526533
1824.000000	18.517567
1825.000000	18.539800
1826.000000	18.593633
1827.000000	18.668267
1828.000000	18.744700
1829.000000	18.829167
1830.000000	18.914900
1831.000000	18.998267
1832.000000	19.075867
1833.000000	19.132100
1834.000000	19.191333
1835.000000	19.267700
1836.000000	19.357300
1837.000000	19.442867
1838.000000	19.511567
1839.000000	19.559900
1840.000000	19.603800
1841.000000	19.661267
1842.000000	19.731033
1843.000000	19.771967
1844.000000	19.774267
1845.000000	19.780533
1846.000000	19.829367
1847.000000	19.928167
1848.000000	20.049633
1849.000000	20.157633
1850.000000	20.215033
1851.000000	20.248967
1852.000000	20.294267
1853.000000	20.355500
1854.000000	20.433300
1855.000000	20.514533
1856.000000	20.571033
1857.000000	20.615667
1858.000000	20.652433
1859.000000	20.680033
1860.000000	20.710367
1861.000000	20.724800
1862.000000	20.720200
1863.000000	20.689467
1864.000000	20.647133
1865.000000	20.614767
1866.000000	20.579200
1867.000000	20.528667
1868.000000	20.482100
1869.000000	20.405600
1870.000000	20.299133
1871.000000	20.179800
1872.000000	20.037733
1873.000000	19.856567
1874.000000	19.656567
1875.000000	19.429200
1876.000000	19.171500
1877.000000	18.894033
1878.000000	18.608333
1879.000000	18.286367
1880.000000	17.947567
1881.000000	17.606000
1882.000000	17.262133
1883.000000	16.916800
1884.000000	16.586100
1885.000000	16.262267
1886.000000	15.958300
1887.000000	15.701300
1888.000000	15.453767
1889.000000	15.237800
1890.000000	15.031767
1891.000000	14.862100
1892.000000	14.674667
1893.000000	14.484100
1894.000000	14.288667
1895.000000	14.091800
1896.000000	13.900800
1897.000000	13.730067
1898.000000	13.557033
1899.000000	13.379867
1900.000000	13.213200
1901.000000	13.028467
1902.000000	12.841733
1903.000000	12.664400
1904.000000	12.511900
1905.000000	12.351967
1906.000000	12.170300
1907.000000	12.001733
1908.000000	11.836200
1909.000000	11.675733
1910.000000	11.524067
1911.000000	11.375067
1912.000000	11.255467
1913.000000	11.128167
1914.000000	10.993933
1915.000000	10.847000
1916.000000	10.715300
1917.000000	10.592400
1918.000000	10.479200
1919.000000	10.366533
1920.000000	10.280733
1921.000000	10.191900
1922.000000	10.092167
1923.000000	9.986633
1924.000000	9.889100
1925.000000	9.810767
1926.000000	9.736367
1927.000000	9.674500
1928.000000	9.615200
1929.000000	9.548567
1930.000000	9.482100
1931.000000	9.426500
1932.000000	9.377367
1933.000000	9.333033
1934.000000	9.288200
1935.000000	9.268367
1936.000000	9.235133
1937.000000	9.209300
1938.000000	9.202367
1939.000000	9.194533
1940.000000	9.184300
1941.000000	9.172433
1942.000000	9.169667
1943.000000	9.155833
1944.000000	9.176667
1945.000000	9.175100
1946.000000	9.188633
1947.000000	9.201633
1948.000000	9.215567
1949.000000	9.243433
1950.000000	9.256267
1951.000000	9.270867
1952.000000	9.294467
1953.000000	9.323133
1954.000000	9.355000
1955.000000	9.386067
1956.000000	9.423067
1957.000000	9.450067
1958.000000	9.473367
1959.000000	9.499300
1960.000000	9.529067
1961.000000	9.570700
1962.000000	9.612900
1963.000000	9.638733
1964.000000	9.659733
1965.000000	9.697100
1966.000000	9.725167
1967.000000	9.765767
1968.000000	9.799833
1969.000000	9.822733
1970.000000	9.871267
1971.000000	9.900033
1972.000000	9.940200
1973.000000	9.979200
1974.000000	10.017000
1975.000000	10.050567
1976.000000	10.086200
1977.000000	10.129733
1978.000000	10.177500
1979.000000	10.209500
1980.000000	10.262067
1981.000000	10.300667
1982.000000	10.335467
1983.000000	10.382600
1984.000000	10.432600
1985.000000	10.464233
1986.000000	10.501767
1987.000000	10.540633
1988.000000	10.579333
1989.000000	10.626867
1990.000000	10.656167
1991.000000	10.694433
1992.000000	10.733433
1993.000000	10.761633
1994.000000	10.794133
1995.000000	10.812767
1996.000000	10.849200
1997.000000	10.867533
1998.000000	10.890433
1999.000000	10.905867
2000.000000	10.910567
2001.000000	10.931300
2002.000000	10.942267
2003.000000	10.954233
2004.000000	10.969100
2005.000000	10.974533
2006.000000	10.987767
2007.000000	10.977600
2008.000000	10.977733
2009.000000	10.973200
2010.000000	10.966233
2011.000000	10.949400
2012.000000	10.932767
2013.000000	10.920433
2014.000000	10.903867
2015.000000	10.880533
2016.000000	10.847400
2017.000000	10.826133
2018.000000	10.804767
2019.000000	10.779800
2020.000000	10.748000
2021.000000	10.711100
2022.000000	10.676467
2023.000000	10.635767
2024.000000	10.588467
2025.000000	10.552933
2026.000000	10.519000
2027.000000	10.466433
2028.000000	10.430000
2029.000000	10.380467
2030.000000	10.339633
2031.000000	10.291200
2032.000000	10.238300
2033.000000	10.174767
2034.000000	10.118167
2035.000000	10.064133
2036.000000	10.003033
2037.000000	9.943833
2038.000000	9.868933
2039.000000	9.795967
2040.000000	9.735100
2041.000000	9.658200
2042.000000	9.581633
2043.000000	9.516533
2044.000000	9.439867
2045.000000	9.371767
2046.000000	9.305033
2047.000000	9.234333
2048.000000	9.167533
2049.000000	9.121167
2050.000000	9.062700
2051.000000	9.005367
2052.000000	8.964267
2053.000000	8.921867
2054.000000	8.886767
2055.000000	8.861333
2056.000000	8.841267
2057.000000	8.817433
2058.000000	8.806533
2059.000000	8.799467
2060.000000	8.787567
2061.000000	8.779867
2062.000000	8.778133
2063.000000	8.778367
2064.000000	8.784300
2065.000000	8.780567
2066.000000	8.785867
2067.000000	8.785933
2068.000000	8.786367
2069.000000	8.796500
2070.000000	8.804200
2071.000000	8.809200
2072.000000	8.820567
2073.000000	8.826400
2074.000000	8.833000
2075.000000	8.835167
2076.000000	8.838500
2077.000000	8.845533
2078.000000	8.856833
2079.000000	8.866300
2080.000000	8.869000
2081.000000	8.868933
2082.000000	8.871067
2083.000000	8.880200
2084.000000	8.879433
2085.000000	8.884833
2086.000000	8.887900
2087.000000	8.888300
2088.000000	8.896300
2089.000000	8.896100
2090.000000	8.894567
2091.000000	8.900267
2092.000000	8.906900
2093.000000	8.907767
2094.000000	8.912233
2095.000000	8.910833
2096.000000	8.914800
2097.000000	8.934367
2098.000000	8.939700
2099.000000	8.953533
2100.000000	8.957167
2101.000000	8.957400
2102.000000	8.965367
2103.000000	8.972767
2104.000000	8.984633
2105.000000	9.003100
2106.000000	9.017867
2107.000000	9.021067
2108.000000	9.027233
2109.000000	9.049233
2110.000000	9.062367
2111.000000	9.078267
2112.000000	9.089967
2113.000000	9.093233
2114.000000	9.102367
2115.000000	9.122933
2116.000000	9.134567
2117.000000	9.144733
2118.000000	9.162900
2119.000000	9.173733
2120.000000	9.188133
2121.000000	9.198700
2122.000000	9.199767
2123.000000	9.211400
2124.000000	9.227033
2125.000000	9.235433
2126.000000	9.232367
2127.000000	9.234400
2128.000000	9.239100
2129.000000	9.245533
2130.000000	9.250400
2131.000000	9.243667
2132.000000	9.242233
2133.000000	9.236967
2134.000000	9.228967
2135.000000	9.234833
2136.000000	9.233533
2137.000000	9.219833
2138.000000	9.199500
2139.000000	9.189033
2140.000000	9.179100
2141.000000	9.173067
2142.000000	9.163433
2143.000000	9.147300
2144.000000	9.133433
2145.000000	9.125033
2146.000000	9.109967
2147.000000	9.100433
2148.000000	9.084667
2149.000000	9.063900
2150.000000	9.052833
2151.000000	9.031400
2152.000000	9.018367
2153.000000	9.007833
2154.000000	8.998600
2155.000000	8.977300
2156.000000	8.964733
2157.000000	8.943600
2158.000000	8.925267
2159.000000	8.916233
2160.000000	8.897667
2161.000000	8.886900
2162.000000	8.878633
2163.000000	8.870233
2164.000000	8.860900
2165.000000	8.856533
2166.000000	8.831967
2167.000000	8.827500
2168.000000	8.820467
2169.000000	8.815467
2170.000000	8.812733
2171.000000	8.805033
2172.000000	8.796367
2173.000000	8.799700
2174.000000	8.788900
2175.000000	8.790333
2176.000000	8.794467
2177.000000	8.791433
2178.000000	8.803767
2179.000000	8.814067
2180.000000	8.815600
2181.000000	8.809933
2182.000000	8.824267
2183.000000	8.824433
2184.000000	8.833667
2185.000000	8.846067
2186.000000	8.859700
2187.000000	8.862767
2188.000000	8.874267
2189.000000	8.883200
2190.000000	8.886533
2191.000000	8.881367
2192.000000	8.894967
2193.000000	8.902233
2194.000000	8.906200
2195.000000	8.911367
2196.000000	8.912567
2197.000000	8.929067
2198.000000	8.924033
2199.000000	8.931367
2200.000000	8.937567
2201.000000	8.946300
2202.000000	8.951733
2203.000000	8.968633
2204.000000	8.971533
2205.000000	8.974467
2206.000000	8.993500
2207.000000	8.994167
2208.000000	9.016933
2209.000000	9.017533
2210.000000	9.027200
2211.000000	9.039733
2212.000000	9.057633
2213.000000	9.063733
2214.000000	9.060200
2215.000000	9.083933
2216.000000	9.089933
2217.000000	9.102267
2218.000000	9.100533
2219.000000	9.134600
2220.000000	9.125567
2221.000000	9.137433
2222.000000	9.140867
2223.000000	9.145267
2224.000000	9.136333
2225.000000	9.149733
2226.000000	9.138533
2227.000000	9.131733
2228.000000	9.112600
2229.000000	9.090600
2230.000000	9.084100
2231.000000	9.066400
2232.000000	9.039533
2233.000000	9.007067
2234.000000	8.964400
2235.000000	8.930267
2236.000000	8.896700
2237.000000	8.854900
2238.000000	8.810500
2239.000000	8.759867
2240.000000	8.702700
2241.000000	8.659433
2242.000000	8.593100
2243.000000	8.527600
2244.000000	8.455133
2245.000000	8.368567
2246.000000	8.291633
2247.000000	8.224833
2248.000000	8.136367
2249.000000	8.035100
2250.000000	7.956667
2251.000000	7.859300
2252.000000	7.743833
2253.000000	7.650333
2254.000000	7.536733
2255.000000	7.418867
2256.000000	7.300400
2257.000000	7.198000
2258.000000	7.091967
2259.000000	6.979800
2260.000000	6.866400
2261.000000	6.767200
2262.000000	6.684033
2263.000000	6.600233
2264.000000	6.522400
2265.000000	6.456467
2266.000000	6.411700
2267.000000	6.365533
2268.000000	6.323900
2269.000000	6.305433
2270.000000	6.280567
2271.000000	6.263433
2272.000000	6.259833
2273.000000	6.248600
2274.000000	6.268833
2275.000000	6.286100
2276.000000	6.283967
2277.000000	6.287467
2278.000000	6.317200
2279.000000	6.324700
2280.000000	6.340500
2281.000000	6.362300
2282.000000	6.387800
2283.000000	6.407067
2284.000000	6.414433
2285.000000	6.430867
2286.000000	6.449200
2287.000000	6.452633
2288.000000	6.450300
2289.000000	6.453300
2290.000000	6.468700
2291.000000	6.454800
2292.000000	6.440900
2293.000000	6.428067
2294.000000	6.402767
2295.000000	6.383967
2296.000000	6.364600
2297.000000	6.316900
2298.000000	6.280533
2299.000000	6.241967
2300.000000	6.218500
2301.000000	6.185200
2302.000000	6.154500
2303.000000	6.126600
2304.000000	6.100167
2305.000000	6.076367
2306.000000	6.064933
2307.000000	6.065033
2308.000000	6.059067
2309.000000	6.068233
2310.000000	6.078867
2311.000000	6.107067
2312.000000	6.131667
2313.000000	6.156567
2314.000000	6.195300
2315.000000	6.222167
2316.000000	6.256933
2317.000000	6.290433
2318.000000	6.333067
2319.000000	6.383133
2320.000000	6.422833
2321.000000	6.459667
2322.000000	6.485200
2323.000000	6.506100
2324.000000	6.552100
2325.000000	6.588833
2326.000000	6.626100
2327.000000	6.647600
2328.000000	6.676900
2329.000000	6.703133
2330.000000	6.722033
2331.000000	6.731133
2332.000000	6.762500
2333.000000	6.794733
2334.000000	6.807500
2335.000000	6.810433
2336.000000	6.821433
2337.000000	6.827600
2338.000000	6.836900
2339.000000	6.842833
2340.000000	6.836200
2341.000000	6.825067
2342.000000	6.820033
2343.000000	6.808100
2344.000000	6.791600
2345.000000	6.778600
2346.000000	6.770233
2347.000000	6.755467
2348.000000	6.741500
2349.000000	6.727367
2350.000000	6.717267
2351.000000	6.699833
2352.000000	6.702567
2353.000000	6.698167
2354.000000	6.705800
2355.000000	6.729433
2356.000000	6.744900
2357.000000	6.757900
2358.000000	6.768667
2359.000000	6.790533
2360.000000	6.826600
2361.000000	6.848233
2362.000000	6.871700
2363.000000	6.905433
2364.000000	6.935667
2365.000000	6.962133
2366.000000	6.990067
2367.000000	7.025267
2368.000000	7.053833
2369.000000	7.065267
2370.000000	7.096400
2371.000000	7.121233
2372.000000	7.131633
2373.000000	7.143067
2374.000000	7.164900
2375.000000	7.182167
2376.000000	7.192467
2377.000000	7.213500
2378.000000	7.224067
2379.000000	7.224033
2380.000000	7.236900
2381.000000	7.245700
2382.000000	7.252467
2383.000000	7.269633
2384.000000	7.272167
2385.000000	7.271600
2386.000000	7.282500
2387.000000	7.285200
2388.000000	7.279767
2389.000000	7.286733
2390.000000	7.291033
2391.000000	7.281033
2392.000000	7.275833
2393.000000	7.283367
2394.000000	7.276500
2395.000000	7.272133
2396.000000	7.266300
2397.000000	7.253500
2398.000000	7.252967
2399.000000	7.245933
2400.000000	7.242733
2401.000000	7.232000
2402.000000	7.232833
2403.000000	7.221000
2404.000000	7.216700
2405.000000	7.211867
2406.000000	7.198533
2407.000000	7.203600
2408.000000	7.194367
2409.000000	7.178400
2410.000000	7.166533
2411.000000	7.158333
2412.000000	7.153400
2413.000000	7.149100
2414.000000	7.170600
2415.000000	7.165033
2416.000000	7.171500
2417.000000	7.157533
2418.000000	7.138633
2419.000000	7.136500
2420.000000	7.136167
2421.000000	7.111367
2422.000000	7.094167
2423.000000	7.078900
2424.000000	7.071967
2425.000000	7.053233
2426.000000	7.050100
2427.000000	7.036167
2428.000000	7.020100
2429.000000	7.009433
2430.000000	6.987200
2431.000000	6.957067
2432.000000	6.922267
2433.000000	6.897033
2434.000000	6.871633
2435.000000	6.841600
2436.000000	6.817867
2437.000000	6.787500
2438.000000	6.761367
2439.000000	6.725033
2440.000000	6.690567
2441.000000	6.662067
2442.000000	6.618867
2443.000000	6.587367
2444.000000	6.558700
2445.000000	6.519033
2446.000000	6.480000
2447.000000	6.451100
2448.000000	6.410500
2449.000000	6.394500
2450.000000	6.353133
2451.000000	6.310433
2452.000000	6.277467
2453.000000	6.251433
2454.000000	6.231033
2455.000000	6.204033
2456.000000	6.162867
2457.000000	6.141267
2458.000000	6.096700
2459.000000	6.073533
2460.000000	6.035967
2461.000000	6.016933
2462.000000	5.983567
2463.000000	5.971133
2464.000000	5.955767
2465.000000	5.947067
2466.000000	5.943833
2467.000000	5.910267
2468.000000	5.913300
2469.000000	5.906733
2470.000000	5.910933
2471.000000	5.872033
2472.000000	5.875033
2473.000000	5.879333
2474.000000	5.883133
2475.000000	5.876767
2476.000000	5.870367
2477.000000	5.855200
2478.000000	5.883167
2479.000000	5.841500
2480.000000	5.858300
2481.000000	5.861033
2482.000000	5.872467
2483.000000	5.873333
2484.000000	5.900067
2485.000000	5.885400
2486.000000	5.866933
2487.000000	5.901633
2488.000000	5.941400
2489.000000	5.969467
2490.000000	5.901933
2491.000000	5.954033
2492.000000	5.938667
2493.000000	5.976667
2494.000000	5.977400
2495.000000	5.979367
2496.000000	5.949833
2497.000000	6.017100
2498.000000	6.075600
2499.000000	6.033867
2500.000000	6.090167
