PE UV       SUBTECH     SPECTRUM    ASCII       PEDS        4.00        
   -1
CICIMAUCR0108-3.Sample.ASC
24/04/22
10:06:33.00
24/04/22
10:06:33.00
Vinicio Soto Monge
C. resplendens
250,000000
1
Lambda 1050
1050L1511233
PerkinElmer UV WinLab 6.3.2.0749 / 2.02.05 Lambda 900 UV/VIS/NIR, Aug  7 2015 09:38:08

0
0
3350/servo 860,8/2
0
0
UV/VIS
1
1
1
DoubleDePol,CommonBeamDepol,RBeamAtt,SBeamAtt,60mm sphere, WB InGaAs Detector
0
0
0
0
Program
Program
3350/servo 860,8/2
3350/0,2 860,8/0,2
3350/0,2 860,8/0,2
0
15.00
 
 
 
0
 
860,8
319,2
860,8
Front
100
on
S:100 R:100
0
0
0
0
 
0
 
 
 
0
 
 
0
0
0
0
0
 
 
 
 
0
0


0
0
#HDR
-1
-1
#GR
nm
%R
1.0
0.0
2500,000000
-1,000000
2251
8
82,967800
5,292400
#DATA
250.000000	5.869533
251.000000	5.887500
252.000000	5.873467
253.000000	5.862267
254.000000	5.839167
255.000000	5.841033
256.000000	5.808967
257.000000	5.823600
258.000000	5.788367
259.000000	5.775667
260.000000	5.771333
261.000000	5.754167
262.000000	5.746633
263.000000	5.689600
264.000000	5.700133
265.000000	5.668467
266.000000	5.647033
267.000000	5.626933
268.000000	5.600600
269.000000	5.574900
270.000000	5.572500
271.000000	5.551833
272.000000	5.537667
273.000000	5.535400
274.000000	5.519067
275.000000	5.496533
276.000000	5.467667
277.000000	5.468567
278.000000	5.482300
279.000000	5.449500
280.000000	5.442700
281.000000	5.476533
282.000000	5.438800
283.000000	5.456000
284.000000	5.428267
285.000000	5.390167
286.000000	5.419800
287.000000	5.391367
288.000000	5.390700
289.000000	5.427700
290.000000	5.396033
291.000000	5.373500
292.000000	5.335967
293.000000	5.381000
294.000000	5.364600
295.000000	5.401800
296.000000	5.362400
297.000000	5.395100
298.000000	5.328367
299.000000	5.351767
300.000000	5.382300
301.000000	5.366933
302.000000	5.340967
303.000000	5.364633
304.000000	5.372967
305.000000	5.370567
306.000000	5.331100
307.000000	5.342500
308.000000	5.315633
309.000000	5.343033
310.000000	5.318833
311.000000	5.349700
312.000000	5.338833
313.000000	5.358700
314.000000	5.338033
315.000000	5.325233
316.000000	5.364667
317.000000	5.749867
318.000000	5.672500
319.000000	5.448833
320.000000	5.491200
321.000000	5.643100
322.000000	5.463467
323.000000	5.525633
324.000000	5.456100
325.000000	5.467000
326.000000	5.524133
327.000000	5.414567
328.000000	5.478233
329.000000	5.459433
330.000000	5.342667
331.000000	5.444000
332.000000	5.447067
333.000000	5.480467
334.000000	5.486367
335.000000	5.538233
336.000000	5.417200
337.000000	5.483967
338.000000	5.434533
339.000000	5.428367
340.000000	5.404767
341.000000	5.384600
342.000000	5.418700
343.000000	5.453500
344.000000	5.466267
345.000000	5.462833
346.000000	5.525500
347.000000	5.488700
348.000000	5.485267
349.000000	5.434967
350.000000	5.473833
351.000000	5.502167
352.000000	5.548233
353.000000	5.570300
354.000000	5.591633
355.000000	5.607567
356.000000	5.603167
357.000000	5.656067
358.000000	5.669833
359.000000	5.732667
360.000000	5.751433
361.000000	5.754567
362.000000	5.777600
363.000000	5.820933
364.000000	5.862967
365.000000	5.883933
366.000000	5.865700
367.000000	5.923167
368.000000	5.958633
369.000000	5.974500
370.000000	5.985367
371.000000	6.025867
372.000000	6.032333
373.000000	6.056833
374.000000	6.054133
375.000000	6.077767
376.000000	6.201633
377.000000	6.232167
378.000000	6.269433
379.000000	6.313700
380.000000	6.357167
381.000000	6.401100
382.000000	6.450467
383.000000	6.497667
384.000000	6.557300
385.000000	6.616300
386.000000	6.680867
387.000000	6.740900
388.000000	6.799400
389.000000	6.873367
390.000000	6.939433
391.000000	7.023433
392.000000	7.114600
393.000000	7.210633
394.000000	7.306367
395.000000	7.421200
396.000000	7.524367
397.000000	7.640033
398.000000	7.772533
399.000000	7.901100
400.000000	8.048867
401.000000	8.211967
402.000000	8.381000
403.000000	8.572367
404.000000	8.768333
405.000000	8.973600
406.000000	9.193367
407.000000	9.431467
408.000000	9.683767
409.000000	9.956533
410.000000	10.237800
411.000000	10.536833
412.000000	10.853567
413.000000	11.188067
414.000000	11.546200
415.000000	11.913633
416.000000	12.295733
417.000000	12.687800
418.000000	13.094133
419.000000	13.514833
420.000000	13.953233
421.000000	14.402600
422.000000	14.868800
423.000000	15.341800
424.000000	15.814267
425.000000	16.295067
426.000000	16.780800
427.000000	17.259733
428.000000	17.748200
429.000000	18.236633
430.000000	18.723067
431.000000	19.205500
432.000000	19.692167
433.000000	20.176000
434.000000	20.644333
435.000000	21.096367
436.000000	21.549367
437.000000	21.983000
438.000000	22.395133
439.000000	22.805333
440.000000	23.196600
441.000000	23.575567
442.000000	23.954633
443.000000	24.323967
444.000000	24.651467
445.000000	24.984033
446.000000	25.303667
447.000000	25.596767
448.000000	25.875800
449.000000	26.135967
450.000000	26.381833
451.000000	26.610733
452.000000	26.826067
453.000000	27.038867
454.000000	27.231633
455.000000	27.396700
456.000000	27.552000
457.000000	27.714867
458.000000	27.855133
459.000000	27.972867
460.000000	28.089400
461.000000	28.196200
462.000000	28.290967
463.000000	28.379867
464.000000	28.448367
465.000000	28.506300
466.000000	28.559667
467.000000	28.610833
468.000000	28.658333
469.000000	28.677600
470.000000	28.692700
471.000000	28.709200
472.000000	28.716400
473.000000	28.723600
474.000000	28.733067
475.000000	28.744633
476.000000	28.755600
477.000000	28.780567
478.000000	28.820300
479.000000	28.861700
480.000000	28.898567
481.000000	28.951500
482.000000	29.021533
483.000000	29.104267
484.000000	29.193300
485.000000	29.295900
486.000000	29.409867
487.000000	29.551467
488.000000	29.700100
489.000000	29.875567
490.000000	30.073400
491.000000	30.294933
492.000000	30.559100
493.000000	30.836200
494.000000	31.118467
495.000000	31.415333
496.000000	31.747333
497.000000	32.102633
498.000000	32.468367
499.000000	32.853433
500.000000	33.279833
501.000000	33.722933
502.000000	34.179667
503.000000	34.675833
504.000000	35.196667
505.000000	35.722767
506.000000	36.273367
507.000000	36.836200
508.000000	37.430100
509.000000	38.033267
510.000000	38.644567
511.000000	39.276267
512.000000	39.931567
513.000000	40.640467
514.000000	41.363300
515.000000	42.105767
516.000000	42.881967
517.000000	43.699367
518.000000	44.567000
519.000000	45.466333
520.000000	46.421867
521.000000	47.420167
522.000000	48.449800
523.000000	49.522100
524.000000	50.650233
525.000000	51.785100
526.000000	52.966667
527.000000	54.143933
528.000000	55.371933
529.000000	56.625100
530.000000	57.899733
531.000000	59.206733
532.000000	60.532267
533.000000	61.851867
534.000000	63.192067
535.000000	64.515767
536.000000	65.795067
537.000000	67.044433
538.000000	68.289933
539.000000	69.477533
540.000000	70.636467
541.000000	71.765400
542.000000	72.839433
543.000000	73.850667
544.000000	74.825800
545.000000	75.710833
546.000000	76.544367
547.000000	77.347300
548.000000	78.109767
549.000000	78.776500
550.000000	79.456733
551.000000	80.096633
552.000000	80.656367
553.000000	81.215533
554.000000	81.727567
555.000000	82.214100
556.000000	82.663833
557.000000	83.077400
558.000000	83.438333
559.000000	83.840200
560.000000	84.218000
561.000000	84.534900
562.000000	84.863900
563.000000	85.147633
564.000000	85.402733
565.000000	85.656233
566.000000	85.896067
567.000000	86.138067
568.000000	86.307400
569.000000	86.515233
570.000000	86.703733
571.000000	86.886267
572.000000	87.017067
573.000000	87.139567
574.000000	87.263733
575.000000	87.379433
576.000000	87.472433
577.000000	87.561633
578.000000	87.634867
579.000000	87.689567
580.000000	87.711267
581.000000	87.720767
582.000000	87.768600
583.000000	87.754833
584.000000	87.758533
585.000000	87.725767
586.000000	87.677667
587.000000	87.632267
588.000000	87.581233
589.000000	87.514800
590.000000	87.428133
591.000000	87.358433
592.000000	87.214767
593.000000	87.088067
594.000000	86.911167
595.000000	86.726967
596.000000	86.521333
597.000000	86.300900
598.000000	86.084367
599.000000	85.822800
600.000000	85.513700
601.000000	85.181400
602.000000	84.817733
603.000000	84.449267
604.000000	84.039800
605.000000	83.642267
606.000000	83.209867
607.000000	82.762600
608.000000	82.287333
609.000000	81.765200
610.000000	81.222100
611.000000	80.673400
612.000000	80.063000
613.000000	79.419900
614.000000	78.751667
615.000000	78.093600
616.000000	77.340167
617.000000	76.562433
618.000000	75.772500
619.000000	74.929967
620.000000	74.023033
621.000000	73.139533
622.000000	72.188667
623.000000	71.225933
624.000000	70.230600
625.000000	69.218400
626.000000	68.208633
627.000000	67.178833
628.000000	66.158067
629.000000	65.133367
630.000000	64.086633
631.000000	63.039133
632.000000	61.993967
633.000000	60.992133
634.000000	60.026400
635.000000	59.058933
636.000000	58.132400
637.000000	57.244033
638.000000	56.405467
639.000000	55.603833
640.000000	54.854100
641.000000	54.163667
642.000000	53.562133
643.000000	53.037200
644.000000	52.589267
645.000000	52.233500
646.000000	51.984100
647.000000	51.834000
648.000000	51.779800
649.000000	51.800200
650.000000	51.938200
651.000000	52.145267
652.000000	52.441733
653.000000	52.794400
654.000000	53.216067
655.000000	53.692967
656.000000	54.249600
657.000000	54.824833
658.000000	55.432600
659.000000	56.079300
660.000000	56.730967
661.000000	57.425467
662.000000	58.113167
663.000000	58.831867
664.000000	59.516967
665.000000	60.207867
666.000000	60.841767
667.000000	61.511267
668.000000	62.113300
669.000000	62.678867
670.000000	63.236300
671.000000	63.762000
672.000000	64.238867
673.000000	64.691533
674.000000	65.089867
675.000000	65.471800
676.000000	65.806467
677.000000	66.102000
678.000000	66.387533
679.000000	66.645767
680.000000	66.820633
681.000000	67.026233
682.000000	67.181000
683.000000	67.316633
684.000000	67.421267
685.000000	67.476400
686.000000	67.550533
687.000000	67.624367
688.000000	67.619533
689.000000	67.635967
690.000000	67.636300
691.000000	67.611667
692.000000	67.591067
693.000000	67.564833
694.000000	67.510800
695.000000	67.452733
696.000000	67.391433
697.000000	67.334867
698.000000	67.270233
699.000000	67.175067
700.000000	67.119667
701.000000	67.073967
702.000000	67.007533
703.000000	66.928767
704.000000	66.837600
705.000000	66.792367
706.000000	66.776767
707.000000	66.740967
708.000000	66.732300
709.000000	66.728067
710.000000	66.729533
711.000000	66.737800
712.000000	66.819800
713.000000	66.881200
714.000000	66.945033
715.000000	67.053400
716.000000	67.205000
717.000000	67.388467
718.000000	67.563133
719.000000	67.795500
720.000000	68.024100
721.000000	68.280333
722.000000	68.566600
723.000000	68.844600
724.000000	69.203700
725.000000	69.559967
726.000000	69.860867
727.000000	70.199700
728.000000	70.580800
729.000000	70.921833
730.000000	71.280700
731.000000	71.679400
732.000000	72.062467
733.000000	72.437267
734.000000	72.800933
735.000000	73.140300
736.000000	73.494767
737.000000	73.842600
738.000000	74.172733
739.000000	74.546067
740.000000	74.851733
741.000000	75.134767
742.000000	75.430367
743.000000	75.716467
744.000000	76.000833
745.000000	76.243133
746.000000	76.454800
747.000000	76.644633
748.000000	76.863967
749.000000	77.120167
750.000000	77.315233
751.000000	77.449567
752.000000	77.628367
753.000000	77.824433
754.000000	77.959767
755.000000	78.105567
756.000000	78.273367
757.000000	78.369767
758.000000	78.490333
759.000000	78.632067
760.000000	78.716300
761.000000	78.843067
762.000000	78.935300
763.000000	78.952233
764.000000	79.058133
765.000000	79.176933
766.000000	79.241267
767.000000	79.268533
768.000000	79.293367
769.000000	79.369967
770.000000	79.443033
771.000000	79.485567
772.000000	79.507400
773.000000	79.555767
774.000000	79.544467
775.000000	79.548833
776.000000	79.593100
777.000000	79.617333
778.000000	79.590133
779.000000	79.580167
780.000000	79.584333
781.000000	79.572800
782.000000	79.540800
783.000000	79.548033
784.000000	79.563400
785.000000	79.611033
786.000000	79.605733
787.000000	79.618267
788.000000	79.566333
789.000000	79.614800
790.000000	79.659367
791.000000	79.660800
792.000000	79.767167
793.000000	79.801467
794.000000	79.847633
795.000000	79.834667
796.000000	79.935767
797.000000	80.018267
798.000000	80.120733
799.000000	80.247100
800.000000	80.301400
801.000000	80.317867
802.000000	80.414967
803.000000	80.533333
804.000000	80.712667
805.000000	80.762167
806.000000	80.957967
807.000000	81.125300
808.000000	81.231667
809.000000	81.320233
810.000000	81.543400
811.000000	81.691367
812.000000	81.837633
813.000000	81.954967
814.000000	82.060400
815.000000	82.053300
816.000000	82.148700
817.000000	82.372100
818.000000	82.391400
819.000000	82.387133
820.000000	82.497833
821.000000	82.481000
822.000000	82.437533
823.000000	82.443267
824.000000	82.422233
825.000000	82.319167
826.000000	82.301967
827.000000	82.352067
828.000000	82.276100
829.000000	82.081367
830.000000	82.098533
831.000000	81.996800
832.000000	81.982867
833.000000	81.779533
834.000000	81.697400
835.000000	81.620967
836.000000	81.490400
837.000000	81.406500
838.000000	81.288533
839.000000	81.034433
840.000000	80.909467
841.000000	80.627400
842.000000	80.611600
843.000000	80.511600
844.000000	80.418033
845.000000	80.020200
846.000000	80.077500
847.000000	79.933967
848.000000	79.688067
849.000000	79.554033
850.000000	79.376367
851.000000	79.173900
852.000000	78.937800
853.000000	78.928933
854.000000	78.671300
855.000000	78.778500
856.000000	78.375967
857.000000	77.959200
858.000000	78.371222
859.000000	78.049341
860.000000	78.100861
861.000000	78.176991
862.000000	78.187741
863.000000	78.198106
864.000000	78.135178
865.000000	78.094427
866.000000	78.017839
867.000000	77.920662
868.000000	77.814791
869.000000	77.710534
870.000000	77.596672
871.000000	77.480263
872.000000	77.337584
873.000000	77.196597
874.000000	77.080671
875.000000	76.938275
876.000000	76.802494
877.000000	76.648844
878.000000	76.486204
879.000000	76.321303
880.000000	76.181035
881.000000	76.021448
882.000000	75.849941
883.000000	75.713749
884.000000	75.550446
885.000000	75.376906
886.000000	75.186108
887.000000	75.009036
888.000000	74.845481
889.000000	74.680937
890.000000	74.505148
891.000000	74.313853
892.000000	74.142269
893.000000	73.949549
894.000000	73.753311
895.000000	73.542523
896.000000	73.342118
897.000000	73.149344
898.000000	72.937320
899.000000	72.731110
900.000000	72.512292
901.000000	72.284152
902.000000	72.051496
903.000000	71.819176
904.000000	71.598661
905.000000	71.372915
906.000000	71.148240
907.000000	70.922582
908.000000	70.689881
909.000000	70.473967
910.000000	70.285983
911.000000	70.081332
912.000000	69.877889
913.000000	69.653409
914.000000	69.448124
915.000000	69.253233
916.000000	69.069721
917.000000	68.872059
918.000000	68.676486
919.000000	68.474420
920.000000	68.273166
921.000000	68.087644
922.000000	67.868230
923.000000	67.678982
924.000000	67.486957
925.000000	67.310404
926.000000	67.136561
927.000000	66.965787
928.000000	66.781585
929.000000	66.627923
930.000000	66.470087
931.000000	66.323199
932.000000	66.187294
933.000000	66.058461
934.000000	65.894092
935.000000	65.753854
936.000000	65.627016
937.000000	65.495463
938.000000	65.371504
939.000000	65.226330
940.000000	65.099466
941.000000	64.989035
942.000000	64.854355
943.000000	64.737129
944.000000	64.627686
945.000000	64.521986
946.000000	64.404355
947.000000	64.299033
948.000000	64.177874
949.000000	64.075134
950.000000	63.967810
951.000000	63.849951
952.000000	63.736019
953.000000	63.628076
954.000000	63.522154
955.000000	63.393899
956.000000	63.273519
957.000000	63.156811
958.000000	63.030423
959.000000	62.898105
960.000000	62.757334
961.000000	62.627838
962.000000	62.485181
963.000000	62.352051
964.000000	62.218007
965.000000	62.087587
966.000000	61.959139
967.000000	61.827066
968.000000	61.697720
969.000000	61.568385
970.000000	61.440012
971.000000	61.321079
972.000000	61.196777
973.000000	61.072086
974.000000	60.952126
975.000000	60.840520
976.000000	60.712480
977.000000	60.606213
978.000000	60.494157
979.000000	60.376270
980.000000	60.261741
981.000000	60.157220
982.000000	60.047849
983.000000	59.935132
984.000000	59.835702
985.000000	59.725197
986.000000	59.628041
987.000000	59.532289
988.000000	59.453727
989.000000	59.374554
990.000000	59.298002
991.000000	59.230358
992.000000	59.174878
993.000000	59.110617
994.000000	59.063616
995.000000	59.025961
996.000000	58.990897
997.000000	58.952095
998.000000	58.915909
999.000000	58.887079
1000.000000	58.861946
1001.000000	58.846855
1002.000000	58.835612
1003.000000	58.817737
1004.000000	58.805172
1005.000000	58.793754
1006.000000	58.784210
1007.000000	58.773471
1008.000000	58.768946
1009.000000	58.768142
1010.000000	58.764287
1011.000000	58.756218
1012.000000	58.760412
1013.000000	58.765804
1014.000000	58.787146
1015.000000	58.816970
1016.000000	58.841351
1017.000000	58.864693
1018.000000	58.890385
1019.000000	58.923978
1020.000000	58.966267
1021.000000	59.010378
1022.000000	59.040051
1023.000000	59.062005
1024.000000	59.086793
1025.000000	59.129973
1026.000000	59.169680
1027.000000	59.202013
1028.000000	59.231350
1029.000000	59.252017
1030.000000	59.276056
1031.000000	59.296187
1032.000000	59.307694
1033.000000	59.326494
1034.000000	59.342973
1035.000000	59.355922
1036.000000	59.369494
1037.000000	59.380270
1038.000000	59.388192
1039.000000	59.400593
1040.000000	59.409304
1041.000000	59.419906
1042.000000	59.438900
1043.000000	59.454213
1044.000000	59.469055
1045.000000	59.480720
1046.000000	59.495862
1047.000000	59.517810
1048.000000	59.534195
1049.000000	59.560831
1050.000000	59.594893
1051.000000	59.622970
1052.000000	59.655875
1053.000000	59.696778
1054.000000	59.742742
1055.000000	59.783222
1056.000000	59.832098
1057.000000	59.897307
1058.000000	59.949943
1059.000000	60.005825
1060.000000	60.068393
1061.000000	60.127852
1062.000000	60.184744
1063.000000	60.245625
1064.000000	60.305699
1065.000000	60.362114
1066.000000	60.423502
1067.000000	60.480782
1068.000000	60.544486
1069.000000	60.608778
1070.000000	60.663705
1071.000000	60.727340
1072.000000	60.784654
1073.000000	60.844928
1074.000000	60.914227
1075.000000	60.977140
1076.000000	61.030472
1077.000000	61.094487
1078.000000	61.162418
1079.000000	61.225082
1080.000000	61.275265
1081.000000	61.334081
1082.000000	61.396302
1083.000000	61.453064
1084.000000	61.518624
1085.000000	61.577478
1086.000000	61.638108
1087.000000	61.695684
1088.000000	61.758819
1089.000000	61.807221
1090.000000	61.853723
1091.000000	61.911584
1092.000000	61.965702
1093.000000	62.016906
1094.000000	62.056860
1095.000000	62.099516
1096.000000	62.145192
1097.000000	62.186381
1098.000000	62.221986
1099.000000	62.248577
1100.000000	62.291813
1101.000000	62.314330
1102.000000	62.349840
1103.000000	62.378677
1104.000000	62.392132
1105.000000	62.426322
1106.000000	62.450348
1107.000000	62.459853
1108.000000	62.495242
1109.000000	62.508250
1110.000000	62.529579
1111.000000	62.546272
1112.000000	62.569098
1113.000000	62.583861
1114.000000	62.603107
1115.000000	62.627865
1116.000000	62.636524
1117.000000	62.645284
1118.000000	62.663907
1119.000000	62.677160
1120.000000	62.656318
1121.000000	62.643752
1122.000000	62.629413
1123.000000	62.603428
1124.000000	62.576504
1125.000000	62.515589
1126.000000	62.472289
1127.000000	62.394632
1128.000000	62.317130
1129.000000	62.218828
1130.000000	62.097659
1131.000000	61.917787
1132.000000	61.734316
1133.000000	61.520012
1134.000000	61.345787
1135.000000	61.130983
1136.000000	60.852098
1137.000000	60.559385
1138.000000	60.274339
1139.000000	60.003978
1140.000000	59.737894
1141.000000	59.494649
1142.000000	59.241599
1143.000000	59.005284
1144.000000	58.782781
1145.000000	58.607753
1146.000000	58.480307
1147.000000	58.386177
1148.000000	58.352688
1149.000000	58.362711
1150.000000	58.380757
1151.000000	58.400094
1152.000000	58.419187
1153.000000	58.409160
1154.000000	58.369072
1155.000000	58.293015
1156.000000	58.164389
1157.000000	57.992087
1158.000000	57.779060
1159.000000	57.530786
1160.000000	57.285639
1161.000000	57.025326
1162.000000	56.760636
1163.000000	56.488622
1164.000000	56.189175
1165.000000	55.893070
1166.000000	55.615793
1167.000000	55.348299
1168.000000	55.072676
1169.000000	54.798308
1170.000000	54.547496
1171.000000	54.276678
1172.000000	54.015242
1173.000000	53.776446
1174.000000	53.531511
1175.000000	53.317845
1176.000000	53.100755
1177.000000	52.873908
1178.000000	52.625435
1179.000000	52.328663
1180.000000	51.974731
1181.000000	51.608234
1182.000000	51.248340
1183.000000	50.915673
1184.000000	50.657948
1185.000000	50.471475
1186.000000	50.380652
1187.000000	50.394862
1188.000000	50.485045
1189.000000	50.676963
1190.000000	50.949780
1191.000000	51.278543
1192.000000	51.634905
1193.000000	51.985287
1194.000000	52.289184
1195.000000	52.548707
1196.000000	52.762488
1197.000000	52.921652
1198.000000	53.055657
1199.000000	53.157347
1200.000000	53.233073
1201.000000	53.288337
1202.000000	53.331978
1203.000000	53.374586
1204.000000	53.395924
1205.000000	53.419627
1206.000000	53.458988
1207.000000	53.512131
1208.000000	53.560525
1209.000000	53.620501
1210.000000	53.695509
1211.000000	53.783644
1212.000000	53.869395
1213.000000	53.958306
1214.000000	54.050188
1215.000000	54.146478
1216.000000	54.251550
1217.000000	54.343779
1218.000000	54.451797
1219.000000	54.557434
1220.000000	54.674135
1221.000000	54.806016
1222.000000	54.926708
1223.000000	55.066154
1224.000000	55.207035
1225.000000	55.345694
1226.000000	55.481955
1227.000000	55.634525
1228.000000	55.781821
1229.000000	55.922652
1230.000000	56.071821
1231.000000	56.215986
1232.000000	56.367714
1233.000000	56.518835
1234.000000	56.658178
1235.000000	56.798214
1236.000000	56.941070
1237.000000	57.081784
1238.000000	57.227861
1239.000000	57.361856
1240.000000	57.487155
1241.000000	57.623329
1242.000000	57.749104
1243.000000	57.875709
1244.000000	58.003398
1245.000000	58.116431
1246.000000	58.233064
1247.000000	58.342866
1248.000000	58.440844
1249.000000	58.535714
1250.000000	58.615030
1251.000000	58.696266
1252.000000	58.778364
1253.000000	58.845612
1254.000000	58.910507
1255.000000	58.976968
1256.000000	59.032638
1257.000000	59.084949
1258.000000	59.137354
1259.000000	59.188278
1260.000000	59.242608
1261.000000	59.287872
1262.000000	59.331007
1263.000000	59.377715
1264.000000	59.418613
1265.000000	59.458608
1266.000000	59.506697
1267.000000	59.549306
1268.000000	59.588648
1269.000000	59.637679
1270.000000	59.682083
1271.000000	59.724653
1272.000000	59.765910
1273.000000	59.811641
1274.000000	59.857586
1275.000000	59.900217
1276.000000	59.953604
1277.000000	60.008235
1278.000000	60.063191
1279.000000	60.121811
1280.000000	60.182770
1281.000000	60.248159
1282.000000	60.312184
1283.000000	60.375241
1284.000000	60.442862
1285.000000	60.503596
1286.000000	60.568106
1287.000000	60.632345
1288.000000	60.687256
1289.000000	60.732301
1290.000000	60.768704
1291.000000	60.801859
1292.000000	60.836214
1293.000000	60.867486
1294.000000	60.891676
1295.000000	60.901091
1296.000000	60.912036
1297.000000	60.935274
1298.000000	60.949632
1299.000000	60.958979
1300.000000	60.958993
1301.000000	60.962456
1302.000000	60.973791
1303.000000	60.963632
1304.000000	60.953375
1305.000000	60.952859
1306.000000	60.940203
1307.000000	60.918370
1308.000000	60.890086
1309.000000	60.860983
1310.000000	60.820987
1311.000000	60.776473
1312.000000	60.742367
1313.000000	60.694384
1314.000000	60.639747
1315.000000	60.586674
1316.000000	60.525651
1317.000000	60.463277
1318.000000	60.397356
1319.000000	60.322363
1320.000000	60.243292
1321.000000	60.161890
1322.000000	60.081155
1323.000000	60.004840
1324.000000	59.921832
1325.000000	59.826949
1326.000000	59.726348
1327.000000	59.615916
1328.000000	59.509655
1329.000000	59.399121
1330.000000	59.281005
1331.000000	59.145097
1332.000000	59.003608
1333.000000	58.853013
1334.000000	58.694540
1335.000000	58.524513
1336.000000	58.358911
1337.000000	58.175588
1338.000000	57.978993
1339.000000	57.777693
1340.000000	57.573334
1341.000000	57.354365
1342.000000	57.112940
1343.000000	56.871629
1344.000000	56.619115
1345.000000	56.329922
1346.000000	56.027679
1347.000000	55.756526
1348.000000	55.453393
1349.000000	55.104073
1350.000000	54.726630
1351.000000	54.328710
1352.000000	53.876579
1353.000000	53.387665
1354.000000	53.000548
1355.000000	52.610807
1356.000000	52.262855
1357.000000	52.004653
1358.000000	51.857347
1359.000000	51.761254
1360.000000	51.696582
1361.000000	51.705704
1362.000000	51.653934
1363.000000	51.524396
1364.000000	51.373919
1365.000000	51.234165
1366.000000	51.074759
1367.000000	50.897603
1368.000000	50.728493
1369.000000	50.511087
1370.000000	50.246387
1371.000000	50.004344
1372.000000	49.736415
1373.000000	49.451547
1374.000000	49.161948
1375.000000	48.925962
1376.000000	48.766725
1377.000000	48.660693
1378.000000	48.572634
1379.000000	48.510440
1380.000000	48.439829
1381.000000	48.377397
1382.000000	48.231856
1383.000000	48.019578
1384.000000	47.725144
1385.000000	47.414406
1386.000000	47.061163
1387.000000	46.775904
1388.000000	46.551120
1389.000000	46.301385
1390.000000	46.036232
1391.000000	45.849603
1392.000000	45.684904
1393.000000	45.504148
1394.000000	45.355213
1395.000000	45.232325
1396.000000	45.101646
1397.000000	44.826220
1398.000000	44.539392
1399.000000	44.322468
1400.000000	44.139691
1401.000000	43.879115
1402.000000	43.469045
1403.000000	43.082144
1404.000000	42.729665
1405.000000	42.391167
1406.000000	42.042179
1407.000000	41.686612
1408.000000	41.369157
1409.000000	41.038161
1410.000000	40.741493
1411.000000	40.412698
1412.000000	40.098630
1413.000000	39.896494
1414.000000	39.701694
1415.000000	39.488942
1416.000000	39.213883
1417.000000	38.931638
1418.000000	38.739977
1419.000000	38.566080
1420.000000	38.364590
1421.000000	38.109160
1422.000000	37.854731
1423.000000	37.657692
1424.000000	37.466800
1425.000000	37.250129
1426.000000	37.050892
1427.000000	36.833131
1428.000000	36.662384
1429.000000	36.502263
1430.000000	36.331151
1431.000000	36.178152
1432.000000	36.048883
1433.000000	35.932433
1434.000000	35.788741
1435.000000	35.663299
1436.000000	35.525074
1437.000000	35.416195
1438.000000	35.319686
1439.000000	35.185634
1440.000000	35.068300
1441.000000	34.948595
1442.000000	34.831563
1443.000000	34.717063
1444.000000	34.582780
1445.000000	34.494907
1446.000000	34.414771
1447.000000	34.277617
1448.000000	34.156048
1449.000000	34.015814
1450.000000	33.953815
1451.000000	33.859261
1452.000000	33.760307
1453.000000	33.636401
1454.000000	33.521435
1455.000000	33.432555
1456.000000	33.344492
1457.000000	33.241170
1458.000000	33.151987
1459.000000	33.058140
1460.000000	32.979450
1461.000000	32.907637
1462.000000	32.819190
1463.000000	32.739050
1464.000000	32.667229
1465.000000	32.597633
1466.000000	32.544741
1467.000000	32.492351
1468.000000	32.423973
1469.000000	32.355427
1470.000000	32.318461
1471.000000	32.280734
1472.000000	32.226609
1473.000000	32.175641
1474.000000	32.109070
1475.000000	32.054671
1476.000000	31.987120
1477.000000	31.947570
1478.000000	31.916333
1479.000000	31.875243
1480.000000	31.833593
1481.000000	31.808661
1482.000000	31.766861
1483.000000	31.729654
1484.000000	31.698165
1485.000000	31.680609
1486.000000	31.649535
1487.000000	31.628136
1488.000000	31.608734
1489.000000	31.595843
1490.000000	31.568375
1491.000000	31.543305
1492.000000	31.537132
1493.000000	31.513499
1494.000000	31.507855
1495.000000	31.503593
1496.000000	31.497331
1497.000000	31.499129
1498.000000	31.505200
1499.000000	31.514276
1500.000000	31.535614
1501.000000	31.554128
1502.000000	31.573036
1503.000000	31.607963
1504.000000	31.640501
1505.000000	31.674193
1506.000000	31.706482
1507.000000	31.743809
1508.000000	31.793684
1509.000000	31.833052
1510.000000	31.862796
1511.000000	31.908665
1512.000000	31.946712
1513.000000	31.987066
1514.000000	32.023053
1515.000000	32.063102
1516.000000	32.102923
1517.000000	32.146412
1518.000000	32.181844
1519.000000	32.216978
1520.000000	32.256497
1521.000000	32.288701
1522.000000	32.313010
1523.000000	32.351653
1524.000000	32.394874
1525.000000	32.427081
1526.000000	32.461768
1527.000000	32.495857
1528.000000	32.526389
1529.000000	32.550378
1530.000000	32.581803
1531.000000	32.612459
1532.000000	32.635902
1533.000000	32.663289
1534.000000	32.689632
1535.000000	32.709692
1536.000000	32.730632
1537.000000	32.748231
1538.000000	32.756647
1539.000000	32.766740
1540.000000	32.779265
1541.000000	32.796399
1542.000000	32.811061
1543.000000	32.827735
1544.000000	32.846254
1545.000000	32.874303
1546.000000	32.896016
1547.000000	32.921954
1548.000000	32.956232
1549.000000	32.990998
1550.000000	33.027085
1551.000000	33.055137
1552.000000	33.078836
1553.000000	33.116036
1554.000000	33.149930
1555.000000	33.168228
1556.000000	33.185750
1557.000000	33.203483
1558.000000	33.212696
1559.000000	33.211579
1560.000000	33.206533
1561.000000	33.205981
1562.000000	33.195316
1563.000000	33.170533
1564.000000	33.152609
1565.000000	33.132710
1566.000000	33.113807
1567.000000	33.096756
1568.000000	33.074184
1569.000000	33.041447
1570.000000	33.017533
1571.000000	33.004985
1572.000000	32.986349
1573.000000	32.970983
1574.000000	32.964622
1575.000000	32.952337
1576.000000	32.949432
1577.000000	32.949954
1578.000000	32.950179
1579.000000	32.960585
1580.000000	32.968509
1581.000000	32.980948
1582.000000	33.004910
1583.000000	33.028484
1584.000000	33.054748
1585.000000	33.079880
1586.000000	33.105099
1587.000000	33.141486
1588.000000	33.175904
1589.000000	33.220441
1590.000000	33.259517
1591.000000	33.290671
1592.000000	33.326327
1593.000000	33.369257
1594.000000	33.417695
1595.000000	33.469696
1596.000000	33.514323
1597.000000	33.562356
1598.000000	33.616071
1599.000000	33.681059
1600.000000	33.743171
1601.000000	33.801979
1602.000000	33.858603
1603.000000	33.919091
1604.000000	33.985900
1605.000000	34.054452
1606.000000	34.126429
1607.000000	34.191341
1608.000000	34.252084
1609.000000	34.313136
1610.000000	34.370093
1611.000000	34.432159
1612.000000	34.489985
1613.000000	34.544981
1614.000000	34.605952
1615.000000	34.664615
1616.000000	34.712446
1617.000000	34.777461
1618.000000	34.843540
1619.000000	34.899786
1620.000000	34.959443
1621.000000	35.018235
1622.000000	35.077387
1623.000000	35.140512
1624.000000	35.204632
1625.000000	35.258799
1626.000000	35.326755
1627.000000	35.402478
1628.000000	35.471090
1629.000000	35.540606
1630.000000	35.593172
1631.000000	35.659926
1632.000000	35.729201
1633.000000	35.798997
1634.000000	35.858509
1635.000000	35.906762
1636.000000	35.968080
1637.000000	36.022430
1638.000000	36.063365
1639.000000	36.105455
1640.000000	36.162079
1641.000000	36.205351
1642.000000	36.249942
1643.000000	36.289084
1644.000000	36.330595
1645.000000	36.366149
1646.000000	36.401151
1647.000000	36.440687
1648.000000	36.475235
1649.000000	36.502904
1650.000000	36.518355
1651.000000	36.538185
1652.000000	36.555925
1653.000000	36.558641
1654.000000	36.545659
1655.000000	36.539199
1656.000000	36.537085
1657.000000	36.514932
1658.000000	36.482759
1659.000000	36.441118
1660.000000	36.388141
1661.000000	36.325301
1662.000000	36.255969
1663.000000	36.188485
1664.000000	36.099716
1665.000000	36.002607
1666.000000	35.894749
1667.000000	35.778637
1668.000000	35.661291
1669.000000	35.514512
1670.000000	35.354416
1671.000000	35.167891
1672.000000	34.974796
1673.000000	34.755002
1674.000000	34.512257
1675.000000	34.260851
1676.000000	33.952118
1677.000000	33.585960
1678.000000	33.215157
1679.000000	32.805125
1680.000000	32.369469
1681.000000	31.951814
1682.000000	31.577713
1683.000000	31.263165
1684.000000	31.033954
1685.000000	30.898211
1686.000000	30.825757
1687.000000	30.770175
1688.000000	30.739590
1689.000000	30.698358
1690.000000	30.637410
1691.000000	30.544549
1692.000000	30.473116
1693.000000	30.394671
1694.000000	30.333469
1695.000000	30.318404
1696.000000	30.327436
1697.000000	30.376524
1698.000000	30.457998
1699.000000	30.561590
1700.000000	30.666481
1701.000000	30.773337
1702.000000	30.870312
1703.000000	30.926066
1704.000000	30.984667
1705.000000	31.019691
1706.000000	31.026086
1707.000000	31.027188
1708.000000	31.038304
1709.000000	30.998017
1710.000000	30.976220
1711.000000	30.929328
1712.000000	30.866542
1713.000000	30.777306
1714.000000	30.685008
1715.000000	30.578128
1716.000000	30.461923
1717.000000	30.351785
1718.000000	30.241533
1719.000000	30.154803
1720.000000	30.070296
1721.000000	29.988608
1722.000000	29.931882
1723.000000	29.883476
1724.000000	29.844691
1725.000000	29.796404
1726.000000	29.766888
1727.000000	29.705784
1728.000000	29.651023
1729.000000	29.581016
1730.000000	29.512787
1731.000000	29.465329
1732.000000	29.419095
1733.000000	29.384260
1734.000000	29.394803
1735.000000	29.430897
1736.000000	29.501140
1737.000000	29.610337
1738.000000	29.752282
1739.000000	29.914003
1740.000000	30.092894
1741.000000	30.280345
1742.000000	30.473580
1743.000000	30.649413
1744.000000	30.808311
1745.000000	30.946920
1746.000000	31.071764
1747.000000	31.183293
1748.000000	31.266207
1749.000000	31.331801
1750.000000	31.399769
1751.000000	31.448477
1752.000000	31.486188
1753.000000	31.508107
1754.000000	31.508031
1755.000000	31.501584
1756.000000	31.493917
1757.000000	31.464094
1758.000000	31.428899
1759.000000	31.389879
1760.000000	31.342839
1761.000000	31.295181
1762.000000	31.277730
1763.000000	31.271882
1764.000000	31.290185
1765.000000	31.318276
1766.000000	31.368065
1767.000000	31.443928
1768.000000	31.521778
1769.000000	31.621550
1770.000000	31.727241
1771.000000	31.831941
1772.000000	31.935250
1773.000000	32.054555
1774.000000	32.156264
1775.000000	32.252066
1776.000000	32.358386
1777.000000	32.448545
1778.000000	32.530076
1779.000000	32.612514
1780.000000	32.684020
1781.000000	32.756138
1782.000000	32.805380
1783.000000	32.858576
1784.000000	32.923248
1785.000000	32.991089
1786.000000	33.052982
1787.000000	33.096731
1788.000000	33.138003
1789.000000	33.175148
1790.000000	33.217423
1791.000000	33.262372
1792.000000	33.308400
1793.000000	33.354244
1794.000000	33.391240
1795.000000	33.433211
1796.000000	33.472683
1797.000000	33.509288
1798.000000	33.545336
1799.000000	33.579109
1800.000000	33.617097
1801.000000	33.675500
1802.000000	33.727288
1803.000000	33.760307
1804.000000	33.779010
1805.000000	33.812839
1806.000000	33.867422
1807.000000	33.923379
1808.000000	33.952962
1809.000000	33.976822
1810.000000	34.000765
1811.000000	34.049531
1812.000000	34.088900
1813.000000	34.105850
1814.000000	34.119442
1815.000000	34.125709
1816.000000	34.141920
1817.000000	34.141938
1818.000000	34.139427
1819.000000	34.159957
1820.000000	34.201757
1821.000000	34.249694
1822.000000	34.283294
1823.000000	34.263016
1824.000000	34.236066
1825.000000	34.249855
1826.000000	34.295007
1827.000000	34.353955
1828.000000	34.419196
1829.000000	34.500749
1830.000000	34.569074
1831.000000	34.635419
1832.000000	34.689354
1833.000000	34.732103
1834.000000	34.785851
1835.000000	34.856431
1836.000000	34.942036
1837.000000	35.016133
1838.000000	35.066190
1839.000000	35.108644
1840.000000	35.155624
1841.000000	35.204394
1842.000000	35.260061
1843.000000	35.265481
1844.000000	35.234959
1845.000000	35.251128
1846.000000	35.293277
1847.000000	35.378106
1848.000000	35.480376
1849.000000	35.545268
1850.000000	35.562533
1851.000000	35.555074
1852.000000	35.555918
1853.000000	35.586049
1854.000000	35.648003
1855.000000	35.691245
1856.000000	35.703472
1857.000000	35.710999
1858.000000	35.707404
1859.000000	35.700550
1860.000000	35.692123
1861.000000	35.659358
1862.000000	35.610299
1863.000000	35.548168
1864.000000	35.483741
1865.000000	35.418702
1866.000000	35.348189
1867.000000	35.286549
1868.000000	35.216686
1869.000000	35.111759
1870.000000	34.966354
1871.000000	34.825555
1872.000000	34.644360
1873.000000	34.414970
1874.000000	34.165024
1875.000000	33.886925
1876.000000	33.585696
1877.000000	33.271320
1878.000000	32.936490
1879.000000	32.571858
1880.000000	32.184180
1881.000000	31.814391
1882.000000	31.397472
1883.000000	30.986239
1884.000000	30.586217
1885.000000	30.153302
1886.000000	29.759161
1887.000000	29.375477
1888.000000	29.002055
1889.000000	28.635776
1890.000000	28.289201
1891.000000	27.939818
1892.000000	27.566116
1893.000000	27.173689
1894.000000	26.803649
1895.000000	26.440955
1896.000000	26.084715
1897.000000	25.747602
1898.000000	25.389680
1899.000000	25.015232
1900.000000	24.656751
1901.000000	24.298449
1902.000000	23.942842
1903.000000	23.607889
1904.000000	23.273845
1905.000000	22.951223
1906.000000	22.622180
1907.000000	22.291903
1908.000000	21.979209
1909.000000	21.696634
1910.000000	21.427092
1911.000000	21.174290
1912.000000	20.926564
1913.000000	20.686074
1914.000000	20.437257
1915.000000	20.189121
1916.000000	19.971823
1917.000000	19.760648
1918.000000	19.547964
1919.000000	19.350295
1920.000000	19.204499
1921.000000	19.032341
1922.000000	18.871626
1923.000000	18.715393
1924.000000	18.569895
1925.000000	18.428272
1926.000000	18.304051
1927.000000	18.202476
1928.000000	18.101291
1929.000000	18.020765
1930.000000	17.924043
1931.000000	17.865399
1932.000000	17.800263
1933.000000	17.728669
1934.000000	17.673285
1935.000000	17.631925
1936.000000	17.610362
1937.000000	17.596305
1938.000000	17.593175
1939.000000	17.603267
1940.000000	17.623571
1941.000000	17.623433
1942.000000	17.644725
1943.000000	17.663797
1944.000000	17.679718
1945.000000	17.725586
1946.000000	17.771662
1947.000000	17.818516
1948.000000	17.888900
1949.000000	17.936201
1950.000000	18.009145
1951.000000	18.073659
1952.000000	18.137540
1953.000000	18.204716
1954.000000	18.285017
1955.000000	18.366214
1956.000000	18.440884
1957.000000	18.519824
1958.000000	18.590500
1959.000000	18.668090
1960.000000	18.736082
1961.000000	18.811353
1962.000000	18.898970
1963.000000	18.968911
1964.000000	19.057876
1965.000000	19.119595
1966.000000	19.211084
1967.000000	19.263825
1968.000000	19.336737
1969.000000	19.417110
1970.000000	19.495462
1971.000000	19.563157
1972.000000	19.630404
1973.000000	19.724862
1974.000000	19.800100
1975.000000	19.886127
1976.000000	19.955650
1977.000000	20.034796
1978.000000	20.122326
1979.000000	20.211187
1980.000000	20.287544
1981.000000	20.366436
1982.000000	20.458075
1983.000000	20.526237
1984.000000	20.612555
1985.000000	20.691935
1986.000000	20.781240
1987.000000	20.847315
1988.000000	20.925767
1989.000000	21.006062
1990.000000	21.068705
1991.000000	21.147789
1992.000000	21.215072
1993.000000	21.274548
1994.000000	21.329433
1995.000000	21.380497
1996.000000	21.433174
1997.000000	21.484960
1998.000000	21.528167
1999.000000	21.580069
2000.000000	21.613070
2001.000000	21.644182
2002.000000	21.672576
2003.000000	21.691785
2004.000000	21.711976
2005.000000	21.727641
2006.000000	21.736053
2007.000000	21.734142
2008.000000	21.737438
2009.000000	21.735912
2010.000000	21.716891
2011.000000	21.704489
2012.000000	21.670291
2013.000000	21.656073
2014.000000	21.621402
2015.000000	21.588030
2016.000000	21.545786
2017.000000	21.490701
2018.000000	21.451635
2019.000000	21.391956
2020.000000	21.336948
2021.000000	21.271625
2022.000000	21.208014
2023.000000	21.134619
2024.000000	21.066600
2025.000000	20.988769
2026.000000	20.905342
2027.000000	20.817426
2028.000000	20.733808
2029.000000	20.647104
2030.000000	20.552690
2031.000000	20.454296
2032.000000	20.352186
2033.000000	20.242779
2034.000000	20.130928
2035.000000	20.004588
2036.000000	19.873744
2037.000000	19.750821
2038.000000	19.620463
2039.000000	19.482342
2040.000000	19.345729
2041.000000	19.202573
2042.000000	19.040005
2043.000000	18.901295
2044.000000	18.760579
2045.000000	18.611847
2046.000000	18.473810
2047.000000	18.344726
2048.000000	18.221149
2049.000000	18.104311
2050.000000	18.015973
2051.000000	17.918699
2052.000000	17.844235
2053.000000	17.786329
2054.000000	17.740514
2055.000000	17.714600
2056.000000	17.696421
2057.000000	17.697682
2058.000000	17.704641
2059.000000	17.718857
2060.000000	17.754472
2061.000000	17.789285
2062.000000	17.831750
2063.000000	17.879798
2064.000000	17.933510
2065.000000	17.989766
2066.000000	18.047934
2067.000000	18.111037
2068.000000	18.174249
2069.000000	18.223426
2070.000000	18.282957
2071.000000	18.349619
2072.000000	18.408905
2073.000000	18.466093
2074.000000	18.518726
2075.000000	18.560986
2076.000000	18.611739
2077.000000	18.659990
2078.000000	18.700889
2079.000000	18.740384
2080.000000	18.777260
2081.000000	18.803076
2082.000000	18.831601
2083.000000	18.862011
2084.000000	18.881893
2085.000000	18.903897
2086.000000	18.913879
2087.000000	18.927953
2088.000000	18.942808
2089.000000	18.953729
2090.000000	18.968155
2091.000000	18.967833
2092.000000	18.976504
2093.000000	18.984672
2094.000000	18.983675
2095.000000	18.998516
2096.000000	19.015121
2097.000000	19.030221
2098.000000	19.047269
2099.000000	19.060970
2100.000000	19.078834
2101.000000	19.109151
2102.000000	19.127577
2103.000000	19.139857
2104.000000	19.164372
2105.000000	19.189038
2106.000000	19.213185
2107.000000	19.235251
2108.000000	19.255659
2109.000000	19.274924
2110.000000	19.295505
2111.000000	19.315892
2112.000000	19.338685
2113.000000	19.351532
2114.000000	19.362732
2115.000000	19.379040
2116.000000	19.392463
2117.000000	19.405888
2118.000000	19.419498
2119.000000	19.435507
2120.000000	19.449062
2121.000000	19.441973
2122.000000	19.441215
2123.000000	19.443426
2124.000000	19.444959
2125.000000	19.432301
2126.000000	19.412740
2127.000000	19.399944
2128.000000	19.390452
2129.000000	19.368642
2130.000000	19.341419
2131.000000	19.316432
2132.000000	19.285772
2133.000000	19.259783
2134.000000	19.222411
2135.000000	19.186701
2136.000000	19.146070
2137.000000	19.096438
2138.000000	19.052021
2139.000000	19.010108
2140.000000	18.961476
2141.000000	18.909038
2142.000000	18.855448
2143.000000	18.791669
2144.000000	18.727244
2145.000000	18.676647
2146.000000	18.619611
2147.000000	18.562461
2148.000000	18.495572
2149.000000	18.433042
2150.000000	18.361295
2151.000000	18.291560
2152.000000	18.229771
2153.000000	18.161990
2154.000000	18.101821
2155.000000	18.043888
2156.000000	17.990416
2157.000000	17.933374
2158.000000	17.869117
2159.000000	17.822405
2160.000000	17.778909
2161.000000	17.735889
2162.000000	17.700937
2163.000000	17.651922
2164.000000	17.615634
2165.000000	17.592316
2166.000000	17.562974
2167.000000	17.548910
2168.000000	17.512546
2169.000000	17.500128
2170.000000	17.471870
2171.000000	17.453186
2172.000000	17.448844
2173.000000	17.436748
2174.000000	17.428253
2175.000000	17.430688
2176.000000	17.433219
2177.000000	17.429973
2178.000000	17.444199
2179.000000	17.442877
2180.000000	17.452968
2181.000000	17.469607
2182.000000	17.485674
2183.000000	17.494834
2184.000000	17.520018
2185.000000	17.528035
2186.000000	17.557394
2187.000000	17.568409
2188.000000	17.577012
2189.000000	17.596532
2190.000000	17.625060
2191.000000	17.643051
2192.000000	17.651008
2193.000000	17.653413
2194.000000	17.676856
2195.000000	17.678641
2196.000000	17.692376
2197.000000	17.707473
2198.000000	17.725485
2199.000000	17.756646
2200.000000	17.778924
2201.000000	17.803591
2202.000000	17.816551
2203.000000	17.847229
2204.000000	17.866661
2205.000000	17.898418
2206.000000	17.937005
2207.000000	17.966079
2208.000000	17.991061
2209.000000	18.023518
2210.000000	18.065355
2211.000000	18.090059
2212.000000	18.129691
2213.000000	18.174825
2214.000000	18.216037
2215.000000	18.257578
2216.000000	18.307458
2217.000000	18.336278
2218.000000	18.387249
2219.000000	18.431483
2220.000000	18.462852
2221.000000	18.517333
2222.000000	18.552807
2223.000000	18.582022
2224.000000	18.611943
2225.000000	18.645408
2226.000000	18.637461
2227.000000	18.670529
2228.000000	18.675830
2229.000000	18.672420
2230.000000	18.660520
2231.000000	18.647312
2232.000000	18.623469
2233.000000	18.602400
2234.000000	18.571466
2235.000000	18.530470
2236.000000	18.472589
2237.000000	18.413749
2238.000000	18.348132
2239.000000	18.271102
2240.000000	18.178814
2241.000000	18.097340
2242.000000	17.991729
2243.000000	17.883420
2244.000000	17.758161
2245.000000	17.618498
2246.000000	17.477897
2247.000000	17.325734
2248.000000	17.153165
2249.000000	16.975575
2250.000000	16.793983
2251.000000	16.599321
2252.000000	16.379923
2253.000000	16.171459
2254.000000	15.941060
2255.000000	15.706012
2256.000000	15.463779
2257.000000	15.242544
2258.000000	15.015102
2259.000000	14.788207
2260.000000	14.572536
2261.000000	14.380059
2262.000000	14.205415
2263.000000	14.021861
2264.000000	13.883079
2265.000000	13.764591
2266.000000	13.647977
2267.000000	13.549435
2268.000000	13.470622
2269.000000	13.412864
2270.000000	13.373297
2271.000000	13.336249
2272.000000	13.321060
2273.000000	13.316366
2274.000000	13.311555
2275.000000	13.328711
2276.000000	13.343777
2277.000000	13.349307
2278.000000	13.384472
2279.000000	13.404100
2280.000000	13.423181
2281.000000	13.452192
2282.000000	13.485356
2283.000000	13.502041
2284.000000	13.513127
2285.000000	13.518858
2286.000000	13.541047
2287.000000	13.544922
2288.000000	13.544310
2289.000000	13.533186
2290.000000	13.517431
2291.000000	13.486154
2292.000000	13.441897
2293.000000	13.408957
2294.000000	13.369752
2295.000000	13.303912
2296.000000	13.247274
2297.000000	13.177543
2298.000000	13.112045
2299.000000	13.054023
2300.000000	12.998000
2301.000000	12.938326
2302.000000	12.896226
2303.000000	12.859213
2304.000000	12.826653
2305.000000	12.809983
2306.000000	12.820618
2307.000000	12.845478
2308.000000	12.870878
2309.000000	12.925910
2310.000000	12.986990
2311.000000	13.044623
2312.000000	13.122348
2313.000000	13.203247
2314.000000	13.299201
2315.000000	13.387244
2316.000000	13.479103
2317.000000	13.584316
2318.000000	13.680775
2319.000000	13.779805
2320.000000	13.867491
2321.000000	13.939476
2322.000000	14.024527
2323.000000	14.098734
2324.000000	14.168724
2325.000000	14.236542
2326.000000	14.295706
2327.000000	14.347658
2328.000000	14.392836
2329.000000	14.444061
2330.000000	14.485130
2331.000000	14.516648
2332.000000	14.548400
2333.000000	14.586814
2334.000000	14.603024
2335.000000	14.622662
2336.000000	14.651186
2337.000000	14.659057
2338.000000	14.658121
2339.000000	14.656239
2340.000000	14.654547
2341.000000	14.646142
2342.000000	14.626658
2343.000000	14.591531
2344.000000	14.573993
2345.000000	14.555824
2346.000000	14.531224
2347.000000	14.505948
2348.000000	14.475998
2349.000000	14.459769
2350.000000	14.447991
2351.000000	14.443307
2352.000000	14.446808
2353.000000	14.463614
2354.000000	14.486540
2355.000000	14.516627
2356.000000	14.546030
2357.000000	14.592286
2358.000000	14.639147
2359.000000	14.686704
2360.000000	14.747058
2361.000000	14.811490
2362.000000	14.864915
2363.000000	14.914336
2364.000000	14.976029
2365.000000	15.036261
2366.000000	15.084779
2367.000000	15.130575
2368.000000	15.186010
2369.000000	15.221800
2370.000000	15.253112
2371.000000	15.296957
2372.000000	15.328825
2373.000000	15.365303
2374.000000	15.401030
2375.000000	15.420397
2376.000000	15.442274
2377.000000	15.473376
2378.000000	15.493793
2379.000000	15.517214
2380.000000	15.539085
2381.000000	15.558430
2382.000000	15.570664
2383.000000	15.582186
2384.000000	15.598034
2385.000000	15.603819
2386.000000	15.602356
2387.000000	15.607544
2388.000000	15.603844
2389.000000	15.597259
2390.000000	15.588353
2391.000000	15.576950
2392.000000	15.566417
2393.000000	15.554809
2394.000000	15.538059
2395.000000	15.525739
2396.000000	15.510305
2397.000000	15.489511
2398.000000	15.481668
2399.000000	15.463110
2400.000000	15.440448
2401.000000	15.413563
2402.000000	15.396088
2403.000000	15.382605
2404.000000	15.363483
2405.000000	15.340289
2406.000000	15.322525
2407.000000	15.300114
2408.000000	15.279142
2409.000000	15.257400
2410.000000	15.234526
2411.000000	15.219206
2412.000000	15.184601
2413.000000	15.155486
2414.000000	15.132567
2415.000000	15.109351
2416.000000	15.067215
2417.000000	15.031563
2418.000000	14.997347
2419.000000	14.960973
2420.000000	14.928569
2421.000000	14.894341
2422.000000	14.858919
2423.000000	14.825111
2424.000000	14.782103
2425.000000	14.736309
2426.000000	14.689275
2427.000000	14.632719
2428.000000	14.577253
2429.000000	14.510754
2430.000000	14.439822
2431.000000	14.391007
2432.000000	14.318934
2433.000000	14.251522
2434.000000	14.183139
2435.000000	14.109479
2436.000000	14.027777
2437.000000	13.938171
2438.000000	13.860627
2439.000000	13.772434
2440.000000	13.695290
2441.000000	13.605508
2442.000000	13.523776
2443.000000	13.443202
2444.000000	13.355473
2445.000000	13.266823
2446.000000	13.173329
2447.000000	13.088933
2448.000000	13.000718
2449.000000	12.900834
2450.000000	12.814916
2451.000000	12.731436
2452.000000	12.640157
2453.000000	12.564277
2454.000000	12.487348
2455.000000	12.428701
2456.000000	12.348092
2457.000000	12.266426
2458.000000	12.211353
2459.000000	12.155406
2460.000000	12.077680
2461.000000	12.025499
2462.000000	11.994609
2463.000000	11.953375
2464.000000	11.916227
2465.000000	11.886436
2466.000000	11.823402
2467.000000	11.803943
2468.000000	11.789465
2469.000000	11.762744
2470.000000	11.732866
2471.000000	11.740692
2472.000000	11.718783
2473.000000	11.724238
2474.000000	11.690205
2475.000000	11.719256
2476.000000	11.695663
2477.000000	11.637508
2478.000000	11.651252
2479.000000	11.620407
2480.000000	11.635008
2481.000000	11.638363
2482.000000	11.653500
2483.000000	11.642258
2484.000000	11.647736
2485.000000	11.648162
2486.000000	11.672223
2487.000000	11.623336
2488.000000	11.702377
2489.000000	11.629572
2490.000000	11.673411
2491.000000	11.702058
2492.000000	11.702903
2493.000000	11.766471
2494.000000	11.704058
2495.000000	11.790071
2496.000000	11.788968
2497.000000	11.848481
2498.000000	11.925897
2499.000000	11.901998
2500.000000	11.983187
