PE UV       SUBTECH     SPECTRUM    ASCII       PEDS        4.00        
   -1
CICIMAUCR0071-3.Sample.ASC
24/04/18
16:44:28.00
24/04/18
16:44:28.00
Vinicio Soto Monge
C. resplendens
250,000000
1
Lambda 1050
1050L1511233
PerkinElmer UV WinLab 6.3.2.0749 / 2.02.05 Lambda 900 UV/VIS/NIR, Aug  7 2015 09:38:08

0
0
3350/servo 860,8/2
0
0
UV/VIS
1
1
1
DoubleDePol,CommonBeamDepol,RBeamAtt,SBeamAtt,60mm sphere, WB InGaAs Detector
0
0
0
0
Program
Program
3350/servo 860,8/2
3350/0,2 860,8/0,2
3350/0,2 860,8/0,2
0
15.00
 
 
 
0
 
860,8
319,2
860,8
Front
100
on
S:100 R:100
0
0
0
0
 
0
 
 
 
0
 
 
0
0
0
0
0
 
 
 
 
0
0


0
0
#HDR
-1
-1
#GR
nm
%R
1.0
0.0
2500,000000
-1,000000
2251
8
72,832800
4,915400
#DATA
250.000000	6.309000
251.000000	6.280800
252.000000	6.282467
253.000000	6.245867
254.000000	6.233067
255.000000	6.189000
256.000000	6.201733
257.000000	6.199633
258.000000	6.174767
259.000000	6.139467
260.000000	6.132300
261.000000	6.113367
262.000000	6.036833
263.000000	6.050300
264.000000	6.011067
265.000000	5.965567
266.000000	5.934567
267.000000	5.930367
268.000000	5.906500
269.000000	5.875033
270.000000	5.881700
271.000000	5.862567
272.000000	5.800133
273.000000	5.826567
274.000000	5.790333
275.000000	5.800400
276.000000	5.781033
277.000000	5.744733
278.000000	5.717667
279.000000	5.736633
280.000000	5.734933
281.000000	5.699600
282.000000	5.719867
283.000000	5.684000
284.000000	5.684533
285.000000	5.677600
286.000000	5.652967
287.000000	5.663633
288.000000	5.661333
289.000000	5.654967
290.000000	5.661967
291.000000	5.707633
292.000000	5.674567
293.000000	5.683633
294.000000	5.693267
295.000000	5.708800
296.000000	5.681033
297.000000	5.676600
298.000000	5.681167
299.000000	5.650900
300.000000	5.682400
301.000000	5.673067
302.000000	5.698600
303.000000	5.685833
304.000000	5.665000
305.000000	5.672533
306.000000	5.660233
307.000000	5.660767
308.000000	5.655500
309.000000	5.653267
310.000000	5.669733
311.000000	5.651700
312.000000	5.631000
313.000000	5.666867
314.000000	5.640200
315.000000	5.611700
316.000000	5.670767
317.000000	6.063300
318.000000	6.077733
319.000000	6.018433
320.000000	5.893233
321.000000	6.070567
322.000000	5.866500
323.000000	5.938800
324.000000	5.807800
325.000000	5.811300
326.000000	5.893367
327.000000	5.824433
328.000000	5.764033
329.000000	5.813700
330.000000	5.871267
331.000000	5.771333
332.000000	5.716533
333.000000	5.823000
334.000000	5.918667
335.000000	5.905667
336.000000	5.856333
337.000000	5.846167
338.000000	5.809400
339.000000	5.815767
340.000000	5.815033
341.000000	5.860267
342.000000	5.864667
343.000000	5.822600
344.000000	5.822467
345.000000	5.836267
346.000000	5.846067
347.000000	5.856433
348.000000	5.890900
349.000000	5.903367
350.000000	5.864500
351.000000	5.979800
352.000000	5.960067
353.000000	6.037033
354.000000	6.032533
355.000000	6.074133
356.000000	6.092867
357.000000	6.152300
358.000000	6.192000
359.000000	6.228100
360.000000	6.279267
361.000000	6.324133
362.000000	6.367033
363.000000	6.383867
364.000000	6.433533
365.000000	6.440433
366.000000	6.464900
367.000000	6.505233
368.000000	6.577267
369.000000	6.636667
370.000000	6.647733
371.000000	6.697800
372.000000	6.789533
373.000000	6.838100
374.000000	6.815867
375.000000	6.902233
376.000000	7.180667
377.000000	7.241333
378.000000	7.335867
379.000000	7.442967
380.000000	7.556467
381.000000	7.684133
382.000000	7.820767
383.000000	7.954900
384.000000	8.099067
385.000000	8.259167
386.000000	8.414733
387.000000	8.602133
388.000000	8.785233
389.000000	8.976033
390.000000	9.185500
391.000000	9.402600
392.000000	9.630067
393.000000	9.875733
394.000000	10.133000
395.000000	10.398100
396.000000	10.670167
397.000000	10.945833
398.000000	11.234033
399.000000	11.539600
400.000000	11.853000
401.000000	12.172700
402.000000	12.507800
403.000000	12.848367
404.000000	13.187233
405.000000	13.540800
406.000000	13.906600
407.000000	14.270867
408.000000	14.638600
409.000000	15.007300
410.000000	15.387533
411.000000	15.768667
412.000000	16.148867
413.000000	16.531400
414.000000	16.919933
415.000000	17.288833
416.000000	17.657433
417.000000	18.020633
418.000000	18.376100
419.000000	18.718600
420.000000	19.061133
421.000000	19.404733
422.000000	19.747700
423.000000	20.072967
424.000000	20.374300
425.000000	20.671200
426.000000	20.971333
427.000000	21.254667
428.000000	21.518667
429.000000	21.779600
430.000000	22.033167
431.000000	22.281567
432.000000	22.526333
433.000000	22.749600
434.000000	22.972200
435.000000	23.191233
436.000000	23.391933
437.000000	23.596500
438.000000	23.793033
439.000000	23.981267
440.000000	24.173367
441.000000	24.352167
442.000000	24.523933
443.000000	24.686567
444.000000	24.827333
445.000000	24.953200
446.000000	25.073867
447.000000	25.196600
448.000000	25.293233
449.000000	25.385567
450.000000	25.489767
451.000000	25.577200
452.000000	25.656600
453.000000	25.736800
454.000000	25.806000
455.000000	25.873767
456.000000	25.933100
457.000000	25.978933
458.000000	26.032833
459.000000	26.088100
460.000000	26.152067
461.000000	26.211233
462.000000	26.280833
463.000000	26.362100
464.000000	26.439400
465.000000	26.533833
466.000000	26.627267
467.000000	26.742533
468.000000	26.877733
469.000000	27.014633
470.000000	27.174233
471.000000	27.358333
472.000000	27.554033
473.000000	27.770333
474.000000	28.004233
475.000000	28.264500
476.000000	28.528167
477.000000	28.804367
478.000000	29.115533
479.000000	29.446233
480.000000	29.794133
481.000000	30.156533
482.000000	30.541767
483.000000	30.951433
484.000000	31.375733
485.000000	31.820867
486.000000	32.262733
487.000000	32.713467
488.000000	33.185033
489.000000	33.671933
490.000000	34.181800
491.000000	34.694300
492.000000	35.206367
493.000000	35.731433
494.000000	36.274167
495.000000	36.827400
496.000000	37.387100
497.000000	37.968100
498.000000	38.567100
499.000000	39.174133
500.000000	39.794633
501.000000	40.439867
502.000000	41.117633
503.000000	41.805367
504.000000	42.522367
505.000000	43.232267
506.000000	43.981633
507.000000	44.755500
508.000000	45.533400
509.000000	46.324867
510.000000	47.166800
511.000000	48.012700
512.000000	48.891467
513.000000	49.776300
514.000000	50.681200
515.000000	51.566167
516.000000	52.466267
517.000000	53.370733
518.000000	54.287400
519.000000	55.219100
520.000000	56.165067
521.000000	57.109400
522.000000	58.039067
523.000000	58.955233
524.000000	59.865033
525.000000	60.755000
526.000000	61.617000
527.000000	62.446000
528.000000	63.232900
529.000000	63.995633
530.000000	64.737533
531.000000	65.453333
532.000000	66.162433
533.000000	66.853033
534.000000	67.497767
535.000000	68.130600
536.000000	68.743533
537.000000	69.342067
538.000000	69.906933
539.000000	70.451633
540.000000	70.979967
541.000000	71.496800
542.000000	71.967467
543.000000	72.444000
544.000000	72.912533
545.000000	73.323133
546.000000	73.727167
547.000000	74.106800
548.000000	74.476500
549.000000	74.824900
550.000000	75.157267
551.000000	75.490333
552.000000	75.800067
553.000000	76.122000
554.000000	76.426233
555.000000	76.705033
556.000000	76.964900
557.000000	77.220067
558.000000	77.456400
559.000000	77.666267
560.000000	77.759967
561.000000	77.954933
562.000000	78.137567
563.000000	78.299967
564.000000	78.450800
565.000000	78.571867
566.000000	78.692167
567.000000	78.808167
568.000000	78.893033
569.000000	78.946867
570.000000	79.019900
571.000000	79.042567
572.000000	79.070767
573.000000	79.049133
574.000000	79.060333
575.000000	79.026367
576.000000	78.985733
577.000000	78.942767
578.000000	78.925233
579.000000	78.848800
580.000000	78.766867
581.000000	78.660967
582.000000	78.557500
583.000000	78.463800
584.000000	78.339967
585.000000	78.216333
586.000000	78.070700
587.000000	77.926433
588.000000	77.762967
589.000000	77.567267
590.000000	77.331567
591.000000	77.124133
592.000000	76.860067
593.000000	76.600600
594.000000	76.293533
595.000000	76.024467
596.000000	75.693567
597.000000	75.363367
598.000000	74.969533
599.000000	74.615100
600.000000	74.246533
601.000000	73.814767
602.000000	73.391967
603.000000	72.981167
604.000000	72.528000
605.000000	72.074067
606.000000	71.640067
607.000000	71.187400
608.000000	70.715567
609.000000	70.214467
610.000000	69.748533
611.000000	69.236300
612.000000	68.791333
613.000000	68.249467
614.000000	67.750033
615.000000	67.247767
616.000000	66.722900
617.000000	66.227733
618.000000	65.739033
619.000000	65.245233
620.000000	64.765467
621.000000	64.288667
622.000000	63.830633
623.000000	63.389633
624.000000	62.930067
625.000000	62.523967
626.000000	62.133600
627.000000	61.763400
628.000000	61.424967
629.000000	61.092633
630.000000	60.806800
631.000000	60.539900
632.000000	60.354300
633.000000	60.146767
634.000000	60.005300
635.000000	59.878367
636.000000	59.815733
637.000000	59.813700
638.000000	59.834067
639.000000	59.921400
640.000000	60.036800
641.000000	60.216667
642.000000	60.422833
643.000000	60.692800
644.000000	61.010500
645.000000	61.385900
646.000000	61.791767
647.000000	62.235300
648.000000	62.733600
649.000000	63.268333
650.000000	63.833600
651.000000	64.433500
652.000000	65.065267
653.000000	65.688167
654.000000	66.367000
655.000000	67.006067
656.000000	67.649967
657.000000	68.321767
658.000000	68.959033
659.000000	69.581300
660.000000	70.212400
661.000000	70.806767
662.000000	71.381700
663.000000	71.956400
664.000000	72.458367
665.000000	72.994433
666.000000	73.484367
667.000000	73.917533
668.000000	74.355233
669.000000	74.781300
670.000000	75.178500
671.000000	75.544967
672.000000	75.916433
673.000000	76.257333
674.000000	76.578333
675.000000	76.906933
676.000000	77.187800
677.000000	77.451267
678.000000	77.711033
679.000000	77.985500
680.000000	78.238333
681.000000	78.471400
682.000000	78.664100
683.000000	78.891233
684.000000	79.072567
685.000000	79.243433
686.000000	79.440300
687.000000	79.610633
688.000000	79.761233
689.000000	79.969867
690.000000	80.129467
691.000000	80.311067
692.000000	80.495967
693.000000	80.686800
694.000000	80.847500
695.000000	81.047967
696.000000	81.216700
697.000000	81.426167
698.000000	81.576933
699.000000	81.763433
700.000000	81.969533
701.000000	82.157767
702.000000	82.322800
703.000000	82.489800
704.000000	82.642700
705.000000	82.813833
706.000000	83.003033
707.000000	83.152633
708.000000	83.319467
709.000000	83.454567
710.000000	83.573367
711.000000	83.678967
712.000000	83.833433
713.000000	83.975567
714.000000	84.047533
715.000000	84.125867
716.000000	84.265233
717.000000	84.368200
718.000000	84.441400
719.000000	84.563333
720.000000	84.668867
721.000000	84.729400
722.000000	84.811633
723.000000	84.913000
724.000000	84.988000
725.000000	85.085800
726.000000	85.206633
727.000000	85.347400
728.000000	85.445667
729.000000	85.534533
730.000000	85.617767
731.000000	85.730600
732.000000	85.821267
733.000000	85.888867
734.000000	85.951533
735.000000	86.046233
736.000000	86.127667
737.000000	86.159700
738.000000	86.165400
739.000000	86.177600
740.000000	86.209567
741.000000	86.209733
742.000000	86.137667
743.000000	86.066367
744.000000	86.031633
745.000000	85.969033
746.000000	85.886233
747.000000	85.778633
748.000000	85.702333
749.000000	85.624067
750.000000	85.468800
751.000000	85.322200
752.000000	85.172533
753.000000	85.011867
754.000000	84.873033
755.000000	84.753300
756.000000	84.632733
757.000000	84.488700
758.000000	84.389767
759.000000	84.281200
760.000000	84.148667
761.000000	84.023167
762.000000	83.904233
763.000000	83.809900
764.000000	83.683567
765.000000	83.568400
766.000000	83.465467
767.000000	83.323500
768.000000	83.196533
769.000000	83.154600
770.000000	83.068567
771.000000	82.937333
772.000000	82.789567
773.000000	82.632800
774.000000	82.518367
775.000000	82.388533
776.000000	82.273400
777.000000	82.097267
778.000000	81.941433
779.000000	81.841133
780.000000	81.699367
781.000000	81.484667
782.000000	81.293467
783.000000	81.081467
784.000000	80.888000
785.000000	80.739300
786.000000	80.529267
787.000000	80.266600
788.000000	80.077000
789.000000	79.870333
790.000000	79.659000
791.000000	79.402433
792.000000	79.234067
793.000000	79.064933
794.000000	78.832500
795.000000	78.685033
796.000000	78.548867
797.000000	78.403833
798.000000	78.215467
799.000000	78.042533
800.000000	77.868767
801.000000	77.729533
802.000000	77.641567
803.000000	77.488667
804.000000	77.368433
805.000000	77.158767
806.000000	77.037967
807.000000	76.883033
808.000000	76.793167
809.000000	76.705500
810.000000	76.431833
811.000000	76.249800
812.000000	76.124100
813.000000	75.944100
814.000000	75.768400
815.000000	75.590567
816.000000	75.318167
817.000000	75.123033
818.000000	74.962133
819.000000	74.709900
820.000000	74.575600
821.000000	74.250967
822.000000	74.139967
823.000000	74.028433
824.000000	73.775267
825.000000	73.629500
826.000000	73.468400
827.000000	73.366500
828.000000	73.243533
829.000000	73.062733
830.000000	72.832700
831.000000	72.895800
832.000000	72.770867
833.000000	72.641467
834.000000	72.515000
835.000000	72.490900
836.000000	72.415167
837.000000	72.506667
838.000000	72.350067
839.000000	72.267700
840.000000	72.203367
841.000000	72.180467
842.000000	72.145100
843.000000	72.134933
844.000000	72.000900
845.000000	72.075433
846.000000	71.951400
847.000000	71.908267
848.000000	71.734133
849.000000	71.743067
850.000000	71.886633
851.000000	71.754433
852.000000	71.780667
853.000000	71.637767
854.000000	71.539400
855.000000	71.467867
856.000000	71.354400
857.000000	71.466100
858.000000	71.429456
859.000000	70.923556
860.000000	71.129491
861.000000	71.326677
862.000000	71.490950
863.000000	71.595949
864.000000	71.708200
865.000000	71.780967
866.000000	71.838510
867.000000	71.889462
868.000000	71.937231
869.000000	71.980517
870.000000	71.991555
871.000000	71.991388
872.000000	72.030663
873.000000	72.051509
874.000000	72.086478
875.000000	72.079130
876.000000	72.085372
877.000000	72.089092
878.000000	72.104093
879.000000	72.097704
880.000000	72.107588
881.000000	72.116044
882.000000	72.110181
883.000000	72.100778
884.000000	72.100899
885.000000	72.095841
886.000000	72.095238
887.000000	72.104836
888.000000	72.087608
889.000000	72.100825
890.000000	72.074610
891.000000	72.070160
892.000000	72.071633
893.000000	72.056975
894.000000	72.043449
895.000000	72.022777
896.000000	72.004105
897.000000	71.992150
898.000000	71.966627
899.000000	71.950726
900.000000	71.929939
901.000000	71.895541
902.000000	71.872582
903.000000	71.834406
904.000000	71.807068
905.000000	71.761743
906.000000	71.730750
907.000000	71.701072
908.000000	71.670694
909.000000	71.648410
910.000000	71.593724
911.000000	71.538341
912.000000	71.496426
913.000000	71.464516
914.000000	71.414652
915.000000	71.371861
916.000000	71.339117
917.000000	71.274194
918.000000	71.228187
919.000000	71.182386
920.000000	71.161143
921.000000	71.078492
922.000000	71.039707
923.000000	71.006853
924.000000	70.939308
925.000000	70.905214
926.000000	70.872226
927.000000	70.817454
928.000000	70.766820
929.000000	70.723733
930.000000	70.684161
931.000000	70.635738
932.000000	70.605703
933.000000	70.544289
934.000000	70.493830
935.000000	70.451273
936.000000	70.394718
937.000000	70.351890
938.000000	70.287565
939.000000	70.252312
940.000000	70.218207
941.000000	70.193097
942.000000	70.138823
943.000000	70.100283
944.000000	70.076801
945.000000	70.025962
946.000000	69.966029
947.000000	69.945191
948.000000	69.891107
949.000000	69.856177
950.000000	69.825853
951.000000	69.788578
952.000000	69.751983
953.000000	69.707400
954.000000	69.668499
955.000000	69.640229
956.000000	69.603992
957.000000	69.553812
958.000000	69.532728
959.000000	69.486318
960.000000	69.446467
961.000000	69.425374
962.000000	69.405201
963.000000	69.366634
964.000000	69.335985
965.000000	69.312728
966.000000	69.292794
967.000000	69.259119
968.000000	69.246658
969.000000	69.220839
970.000000	69.205997
971.000000	69.187916
972.000000	69.166807
973.000000	69.150194
974.000000	69.141371
975.000000	69.135145
976.000000	69.107002
977.000000	69.097918
978.000000	69.097172
979.000000	69.093688
980.000000	69.071627
981.000000	69.065598
982.000000	69.054677
983.000000	69.050686
984.000000	69.044581
985.000000	69.046625
986.000000	69.048540
987.000000	69.053166
988.000000	69.064400
989.000000	69.071386
990.000000	69.079715
991.000000	69.092190
992.000000	69.098013
993.000000	69.108333
994.000000	69.127532
995.000000	69.148929
996.000000	69.167073
997.000000	69.181292
998.000000	69.204359
999.000000	69.213016
1000.000000	69.240212
1001.000000	69.269736
1002.000000	69.303789
1003.000000	69.321707
1004.000000	69.334425
1005.000000	69.361752
1006.000000	69.395440
1007.000000	69.434619
1008.000000	69.466872
1009.000000	69.499315
1010.000000	69.538402
1011.000000	69.568303
1012.000000	69.597999
1013.000000	69.643103
1014.000000	69.684624
1015.000000	69.718142
1016.000000	69.762698
1017.000000	69.801990
1018.000000	69.844656
1019.000000	69.900221
1020.000000	69.949183
1021.000000	70.000970
1022.000000	70.059864
1023.000000	70.103961
1024.000000	70.146537
1025.000000	70.202117
1026.000000	70.255837
1027.000000	70.306191
1028.000000	70.359117
1029.000000	70.399752
1030.000000	70.449880
1031.000000	70.510350
1032.000000	70.560978
1033.000000	70.613358
1034.000000	70.668319
1035.000000	70.714128
1036.000000	70.762698
1037.000000	70.811624
1038.000000	70.859173
1039.000000	70.915239
1040.000000	70.966555
1041.000000	71.011467
1042.000000	71.057373
1043.000000	71.106791
1044.000000	71.156690
1045.000000	71.210916
1046.000000	71.265297
1047.000000	71.316137
1048.000000	71.360431
1049.000000	71.419270
1050.000000	71.476590
1051.000000	71.528696
1052.000000	71.584454
1053.000000	71.636232
1054.000000	71.699794
1055.000000	71.763075
1056.000000	71.821641
1057.000000	71.882407
1058.000000	71.943932
1059.000000	72.004876
1060.000000	72.070149
1061.000000	72.138540
1062.000000	72.205885
1063.000000	72.268856
1064.000000	72.327369
1065.000000	72.389768
1066.000000	72.461424
1067.000000	72.523609
1068.000000	72.576406
1069.000000	72.633646
1070.000000	72.696074
1071.000000	72.760940
1072.000000	72.814319
1073.000000	72.888088
1074.000000	72.948468
1075.000000	73.002495
1076.000000	73.055260
1077.000000	73.117996
1078.000000	73.173210
1079.000000	73.223925
1080.000000	73.278911
1081.000000	73.327609
1082.000000	73.386261
1083.000000	73.445755
1084.000000	73.495463
1085.000000	73.538392
1086.000000	73.587962
1087.000000	73.632817
1088.000000	73.674828
1089.000000	73.733510
1090.000000	73.775483
1091.000000	73.828390
1092.000000	73.859645
1093.000000	73.904993
1094.000000	73.943767
1095.000000	73.982806
1096.000000	74.012423
1097.000000	74.038666
1098.000000	74.087288
1099.000000	74.118360
1100.000000	74.148625
1101.000000	74.181083
1102.000000	74.216016
1103.000000	74.249407
1104.000000	74.279119
1105.000000	74.310903
1106.000000	74.333628
1107.000000	74.374186
1108.000000	74.395823
1109.000000	74.433364
1110.000000	74.462050
1111.000000	74.481845
1112.000000	74.508895
1113.000000	74.524319
1114.000000	74.546125
1115.000000	74.578954
1116.000000	74.605766
1117.000000	74.628398
1118.000000	74.638467
1119.000000	74.653428
1120.000000	74.671196
1121.000000	74.673536
1122.000000	74.691768
1123.000000	74.674128
1124.000000	74.645236
1125.000000	74.619288
1126.000000	74.583762
1127.000000	74.536763
1128.000000	74.496521
1129.000000	74.438533
1130.000000	74.354049
1131.000000	74.271930
1132.000000	74.160720
1133.000000	74.096616
1134.000000	74.055002
1135.000000	73.935887
1136.000000	73.815471
1137.000000	73.671175
1138.000000	73.549750
1139.000000	73.439422
1140.000000	73.346456
1141.000000	73.257674
1142.000000	73.159465
1143.000000	73.090615
1144.000000	73.020833
1145.000000	72.959760
1146.000000	72.874695
1147.000000	72.802823
1148.000000	72.710047
1149.000000	72.629044
1150.000000	72.547055
1151.000000	72.482230
1152.000000	72.396249
1153.000000	72.301918
1154.000000	72.205797
1155.000000	72.069594
1156.000000	71.946969
1157.000000	71.813941
1158.000000	71.667682
1159.000000	71.527255
1160.000000	71.371441
1161.000000	71.208819
1162.000000	71.040480
1163.000000	70.887010
1164.000000	70.722606
1165.000000	70.583525
1166.000000	70.425968
1167.000000	70.275755
1168.000000	70.148830
1169.000000	70.040068
1170.000000	69.924791
1171.000000	69.825866
1172.000000	69.727652
1173.000000	69.661057
1174.000000	69.590564
1175.000000	69.523091
1176.000000	69.457876
1177.000000	69.395790
1178.000000	69.316449
1179.000000	69.254397
1180.000000	69.187634
1181.000000	69.125701
1182.000000	69.075438
1183.000000	69.016654
1184.000000	68.975530
1185.000000	68.945077
1186.000000	68.939575
1187.000000	68.943728
1188.000000	68.959312
1189.000000	69.001670
1190.000000	69.061087
1191.000000	69.112502
1192.000000	69.188882
1193.000000	69.273829
1194.000000	69.353447
1195.000000	69.427058
1196.000000	69.513403
1197.000000	69.592217
1198.000000	69.658353
1199.000000	69.725898
1200.000000	69.787185
1201.000000	69.839006
1202.000000	69.902140
1203.000000	69.955513
1204.000000	70.032384
1205.000000	70.079749
1206.000000	70.132124
1207.000000	70.179923
1208.000000	70.236124
1209.000000	70.303475
1210.000000	70.376309
1211.000000	70.439241
1212.000000	70.489375
1213.000000	70.553784
1214.000000	70.618848
1215.000000	70.684995
1216.000000	70.739292
1217.000000	70.802641
1218.000000	70.871356
1219.000000	70.953673
1220.000000	71.026345
1221.000000	71.102659
1222.000000	71.181994
1223.000000	71.252571
1224.000000	71.321809
1225.000000	71.399987
1226.000000	71.467068
1227.000000	71.539289
1228.000000	71.610075
1229.000000	71.665106
1230.000000	71.726285
1231.000000	71.790845
1232.000000	71.852031
1233.000000	71.905753
1234.000000	71.966066
1235.000000	72.022371
1236.000000	72.075296
1237.000000	72.129908
1238.000000	72.187298
1239.000000	72.241955
1240.000000	72.310195
1241.000000	72.369434
1242.000000	72.426251
1243.000000	72.488154
1244.000000	72.564220
1245.000000	72.625591
1246.000000	72.688563
1247.000000	72.745539
1248.000000	72.804325
1249.000000	72.854101
1250.000000	72.905145
1251.000000	72.954164
1252.000000	72.994810
1253.000000	73.021348
1254.000000	73.028029
1255.000000	73.043416
1256.000000	73.069072
1257.000000	73.077015
1258.000000	73.076516
1259.000000	73.080768
1260.000000	73.090529
1261.000000	73.092557
1262.000000	73.094676
1263.000000	73.095369
1264.000000	73.104027
1265.000000	73.100600
1266.000000	73.093563
1267.000000	73.088875
1268.000000	73.080225
1269.000000	73.083058
1270.000000	73.081992
1271.000000	73.071311
1272.000000	73.060143
1273.000000	73.054831
1274.000000	73.056181
1275.000000	73.059273
1276.000000	73.064882
1277.000000	73.067613
1278.000000	73.081214
1279.000000	73.103107
1280.000000	73.124447
1281.000000	73.144012
1282.000000	73.175867
1283.000000	73.208291
1284.000000	73.240770
1285.000000	73.267366
1286.000000	73.296450
1287.000000	73.324814
1288.000000	73.352126
1289.000000	73.377592
1290.000000	73.403342
1291.000000	73.422408
1292.000000	73.438126
1293.000000	73.456274
1294.000000	73.465447
1295.000000	73.468507
1296.000000	73.469007
1297.000000	73.469650
1298.000000	73.473507
1299.000000	73.470431
1300.000000	73.464063
1301.000000	73.461805
1302.000000	73.448072
1303.000000	73.422205
1304.000000	73.398280
1305.000000	73.381139
1306.000000	73.363177
1307.000000	73.331983
1308.000000	73.295286
1309.000000	73.266204
1310.000000	73.227728
1311.000000	73.181460
1312.000000	73.139338
1313.000000	73.100985
1314.000000	73.052955
1315.000000	72.995673
1316.000000	72.945655
1317.000000	72.882749
1318.000000	72.822962
1319.000000	72.770167
1320.000000	72.705382
1321.000000	72.639078
1322.000000	72.575667
1323.000000	72.502744
1324.000000	72.424017
1325.000000	72.345943
1326.000000	72.264078
1327.000000	72.180758
1328.000000	72.095185
1329.000000	72.000170
1330.000000	71.897056
1331.000000	71.786934
1332.000000	71.673925
1333.000000	71.540289
1334.000000	71.412393
1335.000000	71.278509
1336.000000	71.137638
1337.000000	70.979850
1338.000000	70.823479
1339.000000	70.666600
1340.000000	70.502165
1341.000000	70.334440
1342.000000	70.145239
1343.000000	69.965008
1344.000000	69.769364
1345.000000	69.534741
1346.000000	69.337037
1347.000000	69.150379
1348.000000	68.926284
1349.000000	68.672780
1350.000000	68.451153
1351.000000	68.242889
1352.000000	68.037131
1353.000000	67.866110
1354.000000	67.740825
1355.000000	67.590657
1356.000000	67.417954
1357.000000	67.287894
1358.000000	67.182812
1359.000000	67.090438
1360.000000	67.061078
1361.000000	67.028717
1362.000000	66.931018
1363.000000	66.763071
1364.000000	66.669639
1365.000000	66.555113
1366.000000	66.390260
1367.000000	66.264669
1368.000000	66.158230
1369.000000	65.961151
1370.000000	65.814281
1371.000000	65.687215
1372.000000	65.513280
1373.000000	65.332691
1374.000000	65.156408
1375.000000	65.048298
1376.000000	64.898693
1377.000000	64.756033
1378.000000	64.622396
1379.000000	64.478957
1380.000000	64.289807
1381.000000	64.189409
1382.000000	64.012043
1383.000000	63.720134
1384.000000	63.458487
1385.000000	63.076196
1386.000000	62.760167
1387.000000	62.454845
1388.000000	62.132596
1389.000000	61.684906
1390.000000	61.315805
1391.000000	61.012302
1392.000000	60.653876
1393.000000	60.279331
1394.000000	59.981986
1395.000000	59.699229
1396.000000	59.251354
1397.000000	58.741424
1398.000000	58.303212
1399.000000	58.055353
1400.000000	57.708591
1401.000000	57.166249
1402.000000	56.613403
1403.000000	56.161101
1404.000000	55.704488
1405.000000	55.298321
1406.000000	54.800401
1407.000000	54.352689
1408.000000	53.893658
1409.000000	53.439321
1410.000000	52.920486
1411.000000	52.443769
1412.000000	52.027277
1413.000000	51.666770
1414.000000	51.311514
1415.000000	50.861826
1416.000000	50.467991
1417.000000	50.105946
1418.000000	49.848304
1419.000000	49.547939
1420.000000	49.194140
1421.000000	48.845374
1422.000000	48.556020
1423.000000	48.312110
1424.000000	48.054750
1425.000000	47.792667
1426.000000	47.513595
1427.000000	47.302528
1428.000000	47.098723
1429.000000	46.872519
1430.000000	46.667946
1431.000000	46.505896
1432.000000	46.350021
1433.000000	46.165205
1434.000000	46.000092
1435.000000	45.819393
1436.000000	45.680402
1437.000000	45.550564
1438.000000	45.429510
1439.000000	45.282082
1440.000000	45.157897
1441.000000	45.044899
1442.000000	44.921788
1443.000000	44.786771
1444.000000	44.695246
1445.000000	44.618231
1446.000000	44.508416
1447.000000	44.382657
1448.000000	44.249403
1449.000000	44.168986
1450.000000	44.107518
1451.000000	44.008239
1452.000000	43.902982
1453.000000	43.772441
1454.000000	43.667909
1455.000000	43.577438
1456.000000	43.472279
1457.000000	43.375780
1458.000000	43.268481
1459.000000	43.177366
1460.000000	43.083467
1461.000000	42.981028
1462.000000	42.894203
1463.000000	42.804720
1464.000000	42.713060
1465.000000	42.625093
1466.000000	42.558646
1467.000000	42.460492
1468.000000	42.367067
1469.000000	42.299246
1470.000000	42.246215
1471.000000	42.187910
1472.000000	42.113303
1473.000000	42.035106
1474.000000	41.962595
1475.000000	41.903992
1476.000000	41.873115
1477.000000	41.825303
1478.000000	41.793814
1479.000000	41.767759
1480.000000	41.742449
1481.000000	41.724842
1482.000000	41.697982
1483.000000	41.675109
1484.000000	41.655423
1485.000000	41.643635
1486.000000	41.629299
1487.000000	41.615845
1488.000000	41.604065
1489.000000	41.594430
1490.000000	41.581177
1491.000000	41.579492
1492.000000	41.567353
1493.000000	41.563687
1494.000000	41.572899
1495.000000	41.588614
1496.000000	41.607069
1497.000000	41.621279
1498.000000	41.655881
1499.000000	41.699460
1500.000000	41.743013
1501.000000	41.788247
1502.000000	41.846604
1503.000000	41.911488
1504.000000	41.986437
1505.000000	42.051504
1506.000000	42.115778
1507.000000	42.194612
1508.000000	42.272545
1509.000000	42.336195
1510.000000	42.418076
1511.000000	42.504443
1512.000000	42.587764
1513.000000	42.665040
1514.000000	42.738599
1515.000000	42.809406
1516.000000	42.887182
1517.000000	42.967646
1518.000000	43.036639
1519.000000	43.113156
1520.000000	43.190102
1521.000000	43.250284
1522.000000	43.313375
1523.000000	43.385101
1524.000000	43.451919
1525.000000	43.518826
1526.000000	43.585302
1527.000000	43.652692
1528.000000	43.707724
1529.000000	43.773962
1530.000000	43.835733
1531.000000	43.898375
1532.000000	43.947607
1533.000000	43.998329
1534.000000	44.059692
1535.000000	44.115512
1536.000000	44.161500
1537.000000	44.205630
1538.000000	44.250440
1539.000000	44.293343
1540.000000	44.332977
1541.000000	44.377594
1542.000000	44.420904
1543.000000	44.477814
1544.000000	44.537230
1545.000000	44.596813
1546.000000	44.662665
1547.000000	44.734298
1548.000000	44.816537
1549.000000	44.900026
1550.000000	44.987333
1551.000000	45.079357
1552.000000	45.155946
1553.000000	45.220117
1554.000000	45.289919
1555.000000	45.359603
1556.000000	45.412391
1557.000000	45.450727
1558.000000	45.493151
1559.000000	45.519667
1560.000000	45.534240
1561.000000	45.552027
1562.000000	45.559684
1563.000000	45.556221
1564.000000	45.557501
1565.000000	45.547850
1566.000000	45.523257
1567.000000	45.509767
1568.000000	45.499385
1569.000000	45.487887
1570.000000	45.474228
1571.000000	45.464319
1572.000000	45.463113
1573.000000	45.463817
1574.000000	45.473763
1575.000000	45.486552
1576.000000	45.495906
1577.000000	45.515976
1578.000000	45.535629
1579.000000	45.566760
1580.000000	45.604678
1581.000000	45.641139
1582.000000	45.688726
1583.000000	45.738083
1584.000000	45.778258
1585.000000	45.823111
1586.000000	45.882316
1587.000000	45.926648
1588.000000	45.973157
1589.000000	46.025628
1590.000000	46.073212
1591.000000	46.122822
1592.000000	46.182041
1593.000000	46.236719
1594.000000	46.294940
1595.000000	46.357977
1596.000000	46.422001
1597.000000	46.484366
1598.000000	46.549773
1599.000000	46.623986
1600.000000	46.699686
1601.000000	46.771189
1602.000000	46.846698
1603.000000	46.929584
1604.000000	47.009210
1605.000000	47.084178
1606.000000	47.157520
1607.000000	47.223188
1608.000000	47.286036
1609.000000	47.352800
1610.000000	47.409017
1611.000000	47.459608
1612.000000	47.502518
1613.000000	47.551080
1614.000000	47.587120
1615.000000	47.623848
1616.000000	47.667081
1617.000000	47.702693
1618.000000	47.749445
1619.000000	47.780483
1620.000000	47.813643
1621.000000	47.849973
1622.000000	47.895652
1623.000000	47.935892
1624.000000	47.974887
1625.000000	48.010982
1626.000000	48.046354
1627.000000	48.090080
1628.000000	48.128218
1629.000000	48.172615
1630.000000	48.216117
1631.000000	48.240808
1632.000000	48.271859
1633.000000	48.300888
1634.000000	48.327228
1635.000000	48.354920
1636.000000	48.376518
1637.000000	48.385418
1638.000000	48.403441
1639.000000	48.411065
1640.000000	48.421413
1641.000000	48.432284
1642.000000	48.420733
1643.000000	48.419247
1644.000000	48.423268
1645.000000	48.424623
1646.000000	48.425396
1647.000000	48.430878
1648.000000	48.424853
1649.000000	48.419384
1650.000000	48.405710
1651.000000	48.381209
1652.000000	48.345707
1653.000000	48.299404
1654.000000	48.260235
1655.000000	48.207325
1656.000000	48.128616
1657.000000	48.041389
1658.000000	47.958419
1659.000000	47.835079
1660.000000	47.718837
1661.000000	47.588454
1662.000000	47.445416
1663.000000	47.297056
1664.000000	47.138690
1665.000000	46.977710
1666.000000	46.815744
1667.000000	46.658579
1668.000000	46.482195
1669.000000	46.294113
1670.000000	46.102151
1671.000000	45.925981
1672.000000	45.757520
1673.000000	45.588618
1674.000000	45.406499
1675.000000	45.250811
1676.000000	45.076071
1677.000000	44.906213
1678.000000	44.706296
1679.000000	44.508381
1680.000000	44.293322
1681.000000	44.052763
1682.000000	43.828534
1683.000000	43.589389
1684.000000	43.384982
1685.000000	43.204349
1686.000000	43.062058
1687.000000	42.956768
1688.000000	42.915132
1689.000000	42.915951
1690.000000	42.961482
1691.000000	43.030651
1692.000000	43.124025
1693.000000	43.211884
1694.000000	43.277324
1695.000000	43.337325
1696.000000	43.391482
1697.000000	43.405009
1698.000000	43.403893
1699.000000	43.380095
1700.000000	43.346842
1701.000000	43.317593
1702.000000	43.278238
1703.000000	43.223536
1704.000000	43.167561
1705.000000	43.101138
1706.000000	43.015394
1707.000000	42.918793
1708.000000	42.811302
1709.000000	42.682236
1710.000000	42.543142
1711.000000	42.397239
1712.000000	42.233083
1713.000000	42.044511
1714.000000	41.836071
1715.000000	41.605287
1716.000000	41.376720
1717.000000	41.141344
1718.000000	40.893584
1719.000000	40.673252
1720.000000	40.483538
1721.000000	40.315462
1722.000000	40.199194
1723.000000	40.122490
1724.000000	40.091434
1725.000000	40.104214
1726.000000	40.128155
1727.000000	40.161090
1728.000000	40.223852
1729.000000	40.280999
1730.000000	40.348950
1731.000000	40.417136
1732.000000	40.498887
1733.000000	40.584907
1734.000000	40.667781
1735.000000	40.765668
1736.000000	40.855849
1737.000000	40.944749
1738.000000	41.040683
1739.000000	41.138708
1740.000000	41.244852
1741.000000	41.340474
1742.000000	41.438389
1743.000000	41.532275
1744.000000	41.602889
1745.000000	41.683173
1746.000000	41.753627
1747.000000	41.802609
1748.000000	41.850924
1749.000000	41.881472
1750.000000	41.900991
1751.000000	41.912042
1752.000000	41.920012
1753.000000	41.914689
1754.000000	41.907868
1755.000000	41.903226
1756.000000	41.883906
1757.000000	41.875879
1758.000000	41.858328
1759.000000	41.855314
1760.000000	41.847577
1761.000000	41.841647
1762.000000	41.832593
1763.000000	41.855477
1764.000000	41.874721
1765.000000	41.900849
1766.000000	41.938485
1767.000000	41.998022
1768.000000	42.045779
1769.000000	42.106274
1770.000000	42.154496
1771.000000	42.201032
1772.000000	42.253040
1773.000000	42.301486
1774.000000	42.356091
1775.000000	42.403180
1776.000000	42.450563
1777.000000	42.491498
1778.000000	42.523858
1779.000000	42.555097
1780.000000	42.591171
1781.000000	42.615989
1782.000000	42.632206
1783.000000	42.629274
1784.000000	42.638153
1785.000000	42.648222
1786.000000	42.647613
1787.000000	42.636020
1788.000000	42.628593
1789.000000	42.634597
1790.000000	42.633363
1791.000000	42.640931
1792.000000	42.660749
1793.000000	42.681633
1794.000000	42.693857
1795.000000	42.719766
1796.000000	42.741664
1797.000000	42.757608
1798.000000	42.776755
1799.000000	42.802246
1800.000000	42.847033
1801.000000	42.884701
1802.000000	42.909566
1803.000000	42.908766
1804.000000	42.917952
1805.000000	42.951514
1806.000000	42.993259
1807.000000	43.012290
1808.000000	43.033204
1809.000000	43.058361
1810.000000	43.089769
1811.000000	43.140992
1812.000000	43.172946
1813.000000	43.190815
1814.000000	43.200685
1815.000000	43.223340
1816.000000	43.233601
1817.000000	43.233784
1818.000000	43.249393
1819.000000	43.289561
1820.000000	43.325561
1821.000000	43.332248
1822.000000	43.289011
1823.000000	43.234003
1824.000000	43.236119
1825.000000	43.270206
1826.000000	43.297649
1827.000000	43.315162
1828.000000	43.362705
1829.000000	43.410022
1830.000000	43.440574
1831.000000	43.460145
1832.000000	43.475584
1833.000000	43.516025
1834.000000	43.585342
1835.000000	43.658825
1836.000000	43.709109
1837.000000	43.740092
1838.000000	43.770029
1839.000000	43.817265
1840.000000	43.862522
1841.000000	43.895528
1842.000000	43.874145
1843.000000	43.835246
1844.000000	43.843676
1845.000000	43.875417
1846.000000	43.948596
1847.000000	44.004283
1848.000000	43.988890
1849.000000	43.957923
1850.000000	43.913089
1851.000000	43.871816
1852.000000	43.840630
1853.000000	43.831434
1854.000000	43.817182
1855.000000	43.765896
1856.000000	43.719998
1857.000000	43.673401
1858.000000	43.610484
1859.000000	43.535446
1860.000000	43.442534
1861.000000	43.318391
1862.000000	43.197372
1863.000000	43.093446
1864.000000	43.012523
1865.000000	42.922506
1866.000000	42.844396
1867.000000	42.775931
1868.000000	42.653150
1869.000000	42.481214
1870.000000	42.300940
1871.000000	42.090526
1872.000000	41.844960
1873.000000	41.570080
1874.000000	41.273699
1875.000000	40.989326
1876.000000	40.680432
1877.000000	40.352293
1878.000000	40.007106
1879.000000	39.650658
1880.000000	39.304444
1881.000000	38.931470
1882.000000	38.529145
1883.000000	38.113677
1884.000000	37.622875
1885.000000	37.092471
1886.000000	36.582023
1887.000000	36.077412
1888.000000	35.571256
1889.000000	34.997856
1890.000000	34.444286
1891.000000	33.840546
1892.000000	33.165812
1893.000000	32.512448
1894.000000	31.911400
1895.000000	31.348370
1896.000000	30.842035
1897.000000	30.305111
1898.000000	29.694596
1899.000000	29.108067
1900.000000	28.464998
1901.000000	27.879145
1902.000000	27.368500
1903.000000	26.871890
1904.000000	26.423784
1905.000000	25.901194
1906.000000	25.350857
1907.000000	24.882130
1908.000000	24.482986
1909.000000	24.137877
1910.000000	23.853978
1911.000000	23.541622
1912.000000	23.232435
1913.000000	22.896497
1914.000000	22.559561
1915.000000	22.258629
1916.000000	22.034216
1917.000000	21.817606
1918.000000	21.631176
1919.000000	21.441820
1920.000000	21.243648
1921.000000	21.024746
1922.000000	20.844485
1923.000000	20.655848
1924.000000	20.535147
1925.000000	20.421992
1926.000000	20.308635
1927.000000	20.193873
1928.000000	20.103462
1929.000000	20.002871
1930.000000	19.933142
1931.000000	19.865412
1932.000000	19.805448
1933.000000	19.774893
1934.000000	19.731179
1935.000000	19.720125
1936.000000	19.707380
1937.000000	19.709369
1938.000000	19.717692
1939.000000	19.732410
1940.000000	19.745840
1941.000000	19.765066
1942.000000	19.794052
1943.000000	19.846161
1944.000000	19.879899
1945.000000	19.948989
1946.000000	19.999366
1947.000000	20.062445
1948.000000	20.139585
1949.000000	20.199778
1950.000000	20.287831
1951.000000	20.365498
1952.000000	20.441519
1953.000000	20.536277
1954.000000	20.625003
1955.000000	20.712839
1956.000000	20.811441
1957.000000	20.895831
1958.000000	20.988529
1959.000000	21.077941
1960.000000	21.171295
1961.000000	21.287565
1962.000000	21.366726
1963.000000	21.462928
1964.000000	21.555553
1965.000000	21.636945
1966.000000	21.735434
1967.000000	21.834210
1968.000000	21.926935
1969.000000	22.023664
1970.000000	22.115747
1971.000000	22.208757
1972.000000	22.325920
1973.000000	22.407013
1974.000000	22.500527
1975.000000	22.615498
1976.000000	22.713089
1977.000000	22.807794
1978.000000	22.914861
1979.000000	23.025976
1980.000000	23.129445
1981.000000	23.228437
1982.000000	23.327753
1983.000000	23.455884
1984.000000	23.568483
1985.000000	23.663587
1986.000000	23.774427
1987.000000	23.884924
1988.000000	23.985717
1989.000000	24.092414
1990.000000	24.188453
1991.000000	24.291912
1992.000000	24.374941
1993.000000	24.481576
1994.000000	24.579854
1995.000000	24.660942
1996.000000	24.748159
1997.000000	24.835212
1998.000000	24.909918
1999.000000	24.977783
2000.000000	25.049805
2001.000000	25.125542
2002.000000	25.185933
2003.000000	25.245184
2004.000000	25.308143
2005.000000	25.346854
2006.000000	25.395125
2007.000000	25.433638
2008.000000	25.452905
2009.000000	25.485182
2010.000000	25.499695
2011.000000	25.504009
2012.000000	25.514556
2013.000000	25.513570
2014.000000	25.525494
2015.000000	25.512084
2016.000000	25.489729
2017.000000	25.471547
2018.000000	25.449253
2019.000000	25.425526
2020.000000	25.383973
2021.000000	25.339609
2022.000000	25.304290
2023.000000	25.253666
2024.000000	25.187861
2025.000000	25.128022
2026.000000	25.055909
2027.000000	24.979656
2028.000000	24.915390
2029.000000	24.841832
2030.000000	24.753740
2031.000000	24.655774
2032.000000	24.564631
2033.000000	24.467589
2034.000000	24.359405
2035.000000	24.241301
2036.000000	24.128541
2037.000000	24.001987
2038.000000	23.876350
2039.000000	23.740700
2040.000000	23.594800
2041.000000	23.456859
2042.000000	23.327786
2043.000000	23.181221
2044.000000	23.039330
2045.000000	22.907645
2046.000000	22.776163
2047.000000	22.664911
2048.000000	22.552128
2049.000000	22.458385
2050.000000	22.378985
2051.000000	22.323449
2052.000000	22.286868
2053.000000	22.267203
2054.000000	22.263370
2055.000000	22.276373
2056.000000	22.310846
2057.000000	22.369570
2058.000000	22.439427
2059.000000	22.515100
2060.000000	22.587024
2061.000000	22.688820
2062.000000	22.797160
2063.000000	22.904615
2064.000000	23.017424
2065.000000	23.128312
2066.000000	23.243808
2067.000000	23.360086
2068.000000	23.465108
2069.000000	23.562682
2070.000000	23.668483
2071.000000	23.772631
2072.000000	23.865037
2073.000000	23.951783
2074.000000	24.038382
2075.000000	24.114139
2076.000000	24.180784
2077.000000	24.238840
2078.000000	24.282570
2079.000000	24.337798
2080.000000	24.378395
2081.000000	24.409843
2082.000000	24.425954
2083.000000	24.445152
2084.000000	24.460374
2085.000000	24.473674
2086.000000	24.475198
2087.000000	24.461838
2088.000000	24.455894
2089.000000	24.433965
2090.000000	24.412903
2091.000000	24.401415
2092.000000	24.375679
2093.000000	24.354701
2094.000000	24.338097
2095.000000	24.326108
2096.000000	24.319983
2097.000000	24.314325
2098.000000	24.303691
2099.000000	24.295829
2100.000000	24.298664
2101.000000	24.295281
2102.000000	24.291538
2103.000000	24.291982
2104.000000	24.288704
2105.000000	24.289446
2106.000000	24.291554
2107.000000	24.287133
2108.000000	24.290234
2109.000000	24.288007
2110.000000	24.276234
2111.000000	24.268483
2112.000000	24.263935
2113.000000	24.251669
2114.000000	24.228325
2115.000000	24.211488
2116.000000	24.200895
2117.000000	24.176705
2118.000000	24.150469
2119.000000	24.125414
2120.000000	24.093169
2121.000000	24.065323
2122.000000	24.019077
2123.000000	23.974275
2124.000000	23.936603
2125.000000	23.873397
2126.000000	23.820902
2127.000000	23.769387
2128.000000	23.698612
2129.000000	23.639963
2130.000000	23.578142
2131.000000	23.496958
2132.000000	23.418820
2133.000000	23.346812
2134.000000	23.270662
2135.000000	23.178537
2136.000000	23.089643
2137.000000	23.005289
2138.000000	22.914226
2139.000000	22.816599
2140.000000	22.713005
2141.000000	22.612277
2142.000000	22.517444
2143.000000	22.410661
2144.000000	22.307326
2145.000000	22.202393
2146.000000	22.094580
2147.000000	21.992690
2148.000000	21.895916
2149.000000	21.779829
2150.000000	21.675276
2151.000000	21.573345
2152.000000	21.468999
2153.000000	21.359369
2154.000000	21.264572
2155.000000	21.177985
2156.000000	21.087050
2157.000000	21.008711
2158.000000	20.925667
2159.000000	20.853968
2160.000000	20.785493
2161.000000	20.719374
2162.000000	20.677503
2163.000000	20.633477
2164.000000	20.579883
2165.000000	20.543373
2166.000000	20.508434
2167.000000	20.474822
2168.000000	20.456089
2169.000000	20.432390
2170.000000	20.409961
2171.000000	20.398018
2172.000000	20.384750
2173.000000	20.384492
2174.000000	20.383230
2175.000000	20.393062
2176.000000	20.402460
2177.000000	20.412196
2178.000000	20.415035
2179.000000	20.437517
2180.000000	20.462603
2181.000000	20.497744
2182.000000	20.513519
2183.000000	20.532997
2184.000000	20.561769
2185.000000	20.587204
2186.000000	20.606453
2187.000000	20.632275
2188.000000	20.660418
2189.000000	20.675162
2190.000000	20.714077
2191.000000	20.732778
2192.000000	20.760213
2193.000000	20.782622
2194.000000	20.812992
2195.000000	20.836502
2196.000000	20.876589
2197.000000	20.918324
2198.000000	20.953950
2199.000000	20.998191
2200.000000	21.044705
2201.000000	21.092875
2202.000000	21.133150
2203.000000	21.175026
2204.000000	21.213994
2205.000000	21.270383
2206.000000	21.321049
2207.000000	21.372268
2208.000000	21.441076
2209.000000	21.496378
2210.000000	21.559273
2211.000000	21.627945
2212.000000	21.710317
2213.000000	21.759824
2214.000000	21.839912
2215.000000	21.925822
2216.000000	21.993706
2217.000000	22.083909
2218.000000	22.152018
2219.000000	22.234377
2220.000000	22.301802
2221.000000	22.371815
2222.000000	22.447144
2223.000000	22.512232
2224.000000	22.586006
2225.000000	22.631943
2226.000000	22.680263
2227.000000	22.716496
2228.000000	22.759066
2229.000000	22.783395
2230.000000	22.804382
2231.000000	22.835505
2232.000000	22.841439
2233.000000	22.843761
2234.000000	22.840231
2235.000000	22.810769
2236.000000	22.780145
2237.000000	22.754376
2238.000000	22.720898
2239.000000	22.675327
2240.000000	22.594523
2241.000000	22.517126
2242.000000	22.448495
2243.000000	22.366379
2244.000000	22.262503
2245.000000	22.148813
2246.000000	22.019070
2247.000000	21.891574
2248.000000	21.766551
2249.000000	21.643892
2250.000000	21.475658
2251.000000	21.319219
2252.000000	21.171248
2253.000000	21.021007
2254.000000	20.884634
2255.000000	20.716015
2256.000000	20.571685
2257.000000	20.423291
2258.000000	20.293430
2259.000000	20.168198
2260.000000	20.035116
2261.000000	19.932315
2262.000000	19.827313
2263.000000	19.752568
2264.000000	19.662657
2265.000000	19.590742
2266.000000	19.535232
2267.000000	19.483181
2268.000000	19.425737
2269.000000	19.385863
2270.000000	19.355653
2271.000000	19.333533
2272.000000	19.287179
2273.000000	19.265449
2274.000000	19.230920
2275.000000	19.213100
2276.000000	19.187924
2277.000000	19.164512
2278.000000	19.133051
2279.000000	19.100765
2280.000000	19.073711
2281.000000	19.025671
2282.000000	18.997962
2283.000000	18.954393
2284.000000	18.915843
2285.000000	18.886394
2286.000000	18.844019
2287.000000	18.807218
2288.000000	18.776280
2289.000000	18.742560
2290.000000	18.723290
2291.000000	18.691262
2292.000000	18.652149
2293.000000	18.630111
2294.000000	18.609630
2295.000000	18.585924
2296.000000	18.572305
2297.000000	18.557873
2298.000000	18.544025
2299.000000	18.536883
2300.000000	18.535737
2301.000000	18.532877
2302.000000	18.532868
2303.000000	18.533966
2304.000000	18.544547
2305.000000	18.557629
2306.000000	18.578299
2307.000000	18.594633
2308.000000	18.618423
2309.000000	18.656609
2310.000000	18.683828
2311.000000	18.723650
2312.000000	18.760313
2313.000000	18.804702
2314.000000	18.845807
2315.000000	18.883854
2316.000000	18.913227
2317.000000	18.949334
2318.000000	18.977010
2319.000000	19.002631
2320.000000	19.015959
2321.000000	19.022786
2322.000000	19.020033
2323.000000	19.027772
2324.000000	19.019075
2325.000000	19.002322
2326.000000	18.991469
2327.000000	18.967911
2328.000000	18.952491
2329.000000	18.938988
2330.000000	18.930228
2331.000000	18.915099
2332.000000	18.902301
2333.000000	18.893225
2334.000000	18.888552
2335.000000	18.893054
2336.000000	18.886684
2337.000000	18.881710
2338.000000	18.893046
2339.000000	18.895874
2340.000000	18.889929
2341.000000	18.894260
2342.000000	18.897603
2343.000000	18.915810
2344.000000	18.927336
2345.000000	18.939019
2346.000000	18.956212
2347.000000	18.966960
2348.000000	18.979860
2349.000000	18.998080
2350.000000	19.018712
2351.000000	19.049950
2352.000000	19.075145
2353.000000	19.097668
2354.000000	19.119762
2355.000000	19.138665
2356.000000	19.162213
2357.000000	19.177438
2358.000000	19.201357
2359.000000	19.216872
2360.000000	19.224005
2361.000000	19.235839
2362.000000	19.242715
2363.000000	19.257080
2364.000000	19.259427
2365.000000	19.257495
2366.000000	19.272127
2367.000000	19.283509
2368.000000	19.287198
2369.000000	19.289956
2370.000000	19.292896
2371.000000	19.293896
2372.000000	19.310149
2373.000000	19.329494
2374.000000	19.331102
2375.000000	19.339079
2376.000000	19.359733
2377.000000	19.377576
2378.000000	19.388062
2379.000000	19.395042
2380.000000	19.398375
2381.000000	19.412604
2382.000000	19.419974
2383.000000	19.431122
2384.000000	19.431385
2385.000000	19.424929
2386.000000	19.429178
2387.000000	19.422204
2388.000000	19.417562
2389.000000	19.408127
2390.000000	19.401607
2391.000000	19.397860
2392.000000	19.380780
2393.000000	19.375418
2394.000000	19.369578
2395.000000	19.344449
2396.000000	19.337282
2397.000000	19.338159
2398.000000	19.315815
2399.000000	19.296490
2400.000000	19.274374
2401.000000	19.253180
2402.000000	19.247076
2403.000000	19.227733
2404.000000	19.198024
2405.000000	19.170009
2406.000000	19.151543
2407.000000	19.129871
2408.000000	19.099343
2409.000000	19.060741
2410.000000	19.024416
2411.000000	18.998774
2412.000000	18.955998
2413.000000	18.913474
2414.000000	18.870515
2415.000000	18.829669
2416.000000	18.774858
2417.000000	18.717589
2418.000000	18.664254
2419.000000	18.594761
2420.000000	18.527816
2421.000000	18.476709
2422.000000	18.419007
2423.000000	18.363716
2424.000000	18.295122
2425.000000	18.216987
2426.000000	18.131762
2427.000000	18.055706
2428.000000	17.966854
2429.000000	17.883473
2430.000000	17.798158
2431.000000	17.711132
2432.000000	17.621801
2433.000000	17.519595
2434.000000	17.427322
2435.000000	17.335455
2436.000000	17.246519
2437.000000	17.145349
2438.000000	17.041513
2439.000000	16.940773
2440.000000	16.843578
2441.000000	16.744465
2442.000000	16.655506
2443.000000	16.541690
2444.000000	16.452043
2445.000000	16.355550
2446.000000	16.255578
2447.000000	16.160416
2448.000000	16.070029
2449.000000	15.971356
2450.000000	15.869196
2451.000000	15.790452
2452.000000	15.706526
2453.000000	15.616937
2454.000000	15.523897
2455.000000	15.451102
2456.000000	15.399521
2457.000000	15.325905
2458.000000	15.247839
2459.000000	15.178568
2460.000000	15.108444
2461.000000	15.050354
2462.000000	15.019938
2463.000000	14.979471
2464.000000	14.928978
2465.000000	14.860935
2466.000000	14.831561
2467.000000	14.796449
2468.000000	14.762108
2469.000000	14.727355
2470.000000	14.701200
2471.000000	14.667438
2472.000000	14.615267
2473.000000	14.604026
2474.000000	14.585463
2475.000000	14.571067
2476.000000	14.522674
2477.000000	14.511136
2478.000000	14.479906
2479.000000	14.477069
2480.000000	14.439581
2481.000000	14.437343
2482.000000	14.455739
2483.000000	14.441639
2484.000000	14.436735
2485.000000	14.444930
2486.000000	14.392177
2487.000000	14.408382
2488.000000	14.422766
2489.000000	14.489396
2490.000000	14.400666
2491.000000	14.446102
2492.000000	14.480699
2493.000000	14.475507
2494.000000	14.479214
2495.000000	14.511464
2496.000000	14.559433
2497.000000	14.570087
2498.000000	14.596708
2499.000000	14.667845
2500.000000	14.705996
