PE UV       SUBTECH     SPECTRUM    ASCII       PEDS        4.00        
   -1
CICIMAUCR0014-5.Sample.ASC
24/04/23
11:16:56.00
24/04/23
11:16:56.00
Vinicio Soto Monge
C. cupreomarginata
250,000000
1
Lambda 1050
1050L1511233
PerkinElmer UV WinLab 6.3.2.0749 / 2.02.05 Lambda 900 UV/VIS/NIR, Aug  7 2015 09:38:08

0
0
3350/servo 860,8/2
0
0
UV/VIS
1
1
1
DoubleDePol,CommonBeamDepol,RBeamAtt,SBeamAtt,60mm sphere, WB InGaAs Detector
0
0
0
0
Program
Program
3350/servo 860,8/2
3350/0,2 860,8/0,2
3350/0,2 860,8/0,2
0
15.00
 
 
 
0
 
860,8
319,2
860,8
Front
100
on
S:100 R:100
0
0
0
0
 
0
 
 
 
0
 
 
0
0
0
0
0
 
 
 
 
0
0


0
0
#HDR
-1
-1
#GR
nm
%R
1.0
0.0
2500,000000
-1,000000
2251
8
75,082300
5,658100
#DATA
250.000000	4.938560
251.000000	4.910342
252.000000	4.914111
253.000000	4.906734
254.000000	4.886069
255.000000	4.882054
256.000000	4.872259
257.000000	4.863911
258.000000	4.837157
259.000000	4.807774
260.000000	4.789664
261.000000	4.779975
262.000000	4.767817
263.000000	4.734460
264.000000	4.717056
265.000000	4.715224
266.000000	4.677649
267.000000	4.658296
268.000000	4.650623
269.000000	4.607935
270.000000	4.608569
271.000000	4.586935
272.000000	4.606173
273.000000	4.571857
274.000000	4.575339
275.000000	4.548898
276.000000	4.543134
277.000000	4.532638
278.000000	4.514501
279.000000	4.505847
280.000000	4.508179
281.000000	4.519591
282.000000	4.500085
283.000000	4.481929
284.000000	4.491852
285.000000	4.467179
286.000000	4.471090
287.000000	4.476987
288.000000	4.472951
289.000000	4.474837
290.000000	4.446490
291.000000	4.460791
292.000000	4.453618
293.000000	4.461594
294.000000	4.452461
295.000000	4.451759
296.000000	4.438428
297.000000	4.458858
298.000000	4.444978
299.000000	4.437175
300.000000	4.415564
301.000000	4.411301
302.000000	4.419822
303.000000	4.433192
304.000000	4.408332
305.000000	4.417807
306.000000	4.401172
307.000000	4.413162
308.000000	4.415943
309.000000	4.398537
310.000000	4.422556
311.000000	4.407031
312.000000	4.404075
313.000000	4.411875
314.000000	4.393327
315.000000	4.388334
316.000000	4.404328
317.000000	4.516513
318.000000	4.496420
319.000000	4.520287
320.000000	4.455114
321.000000	4.335836
322.000000	4.401879
323.000000	4.463180
324.000000	4.451396
325.000000	4.467569
326.000000	4.472179
327.000000	4.470684
328.000000	4.427488
329.000000	4.409640
330.000000	4.412860
331.000000	4.423048
332.000000	4.445553
333.000000	4.468273
334.000000	4.424074
335.000000	4.471496
336.000000	4.426743
337.000000	4.443176
338.000000	4.483377
339.000000	4.466251
340.000000	4.475171
341.000000	4.475513
342.000000	4.513068
343.000000	4.516591
344.000000	4.502184
345.000000	4.513192
346.000000	4.493943
347.000000	4.490224
348.000000	4.518970
349.000000	4.486533
350.000000	4.525489
351.000000	4.539094
352.000000	4.533605
353.000000	4.554378
354.000000	4.554822
355.000000	4.562583
356.000000	4.570259
357.000000	4.592755
358.000000	4.592089
359.000000	4.593478
360.000000	4.619727
361.000000	4.639654
362.000000	4.634573
363.000000	4.619237
364.000000	4.645850
365.000000	4.656094
366.000000	4.681640
367.000000	4.676679
368.000000	4.701459
369.000000	4.720991
370.000000	4.724234
371.000000	4.734593
372.000000	4.752004
373.000000	4.774490
374.000000	4.781817
375.000000	4.809556
376.000000	4.868249
377.000000	4.856260
378.000000	4.880344
379.000000	4.907566
380.000000	4.940507
381.000000	4.971326
382.000000	5.008008
383.000000	5.040999
384.000000	5.080605
385.000000	5.123731
386.000000	5.167197
387.000000	5.220086
388.000000	5.265341
389.000000	5.320431
390.000000	5.376245
391.000000	5.435830
392.000000	5.500119
393.000000	5.566274
394.000000	5.639914
395.000000	5.718029
396.000000	5.798847
397.000000	5.879696
398.000000	5.962864
399.000000	6.051155
400.000000	6.153235
401.000000	6.258127
402.000000	6.363463
403.000000	6.475601
404.000000	6.590335
405.000000	6.710192
406.000000	6.835869
407.000000	6.958219
408.000000	7.093051
409.000000	7.235922
410.000000	7.379030
411.000000	7.526493
412.000000	7.676892
413.000000	7.834916
414.000000	7.992480
415.000000	8.157133
416.000000	8.324774
417.000000	8.486586
418.000000	8.655100
419.000000	8.828928
420.000000	9.009249
421.000000	9.187467
422.000000	9.365493
423.000000	9.546761
424.000000	9.727670
425.000000	9.908239
426.000000	10.093052
427.000000	10.274238
428.000000	10.456374
429.000000	10.639717
430.000000	10.820912
431.000000	11.005011
432.000000	11.188895
433.000000	11.368495
434.000000	11.551901
435.000000	11.734027
436.000000	11.910578
437.000000	12.086395
438.000000	12.263791
439.000000	12.437961
440.000000	12.604454
441.000000	12.770203
442.000000	12.938411
443.000000	13.108385
444.000000	13.266410
445.000000	13.408388
446.000000	13.540249
447.000000	13.671313
448.000000	13.801550
449.000000	13.927553
450.000000	14.055468
451.000000	14.173227
452.000000	14.279543
453.000000	14.380729
454.000000	14.474430
455.000000	14.561667
456.000000	14.645982
457.000000	14.725622
458.000000	14.795322
459.000000	14.853896
460.000000	14.921266
461.000000	14.988289
462.000000	15.041697
463.000000	15.090387
464.000000	15.135043
465.000000	15.180167
466.000000	15.226609
467.000000	15.264614
468.000000	15.305009
469.000000	15.339994
470.000000	15.378006
471.000000	15.420441
472.000000	15.455107
473.000000	15.490634
474.000000	15.532620
475.000000	15.573767
476.000000	15.613672
477.000000	15.659856
478.000000	15.712775
479.000000	15.768271
480.000000	15.846111
481.000000	15.944135
482.000000	16.063548
483.000000	16.184603
484.000000	16.304056
485.000000	16.440402
486.000000	16.587082
487.000000	16.753979
488.000000	16.944266
489.000000	17.146850
490.000000	17.379046
491.000000	17.631141
492.000000	17.895921
493.000000	18.177439
494.000000	18.484401
495.000000	18.806207
496.000000	19.129994
497.000000	19.478294
498.000000	19.836683
499.000000	20.196509
500.000000	20.564097
501.000000	20.943544
502.000000	21.333389
503.000000	21.728125
504.000000	22.127647
505.000000	22.528770
506.000000	22.927263
507.000000	23.330093
508.000000	23.725875
509.000000	24.129993
510.000000	24.539992
511.000000	24.967374
512.000000	25.388090
513.000000	25.810855
514.000000	26.220239
515.000000	26.642544
516.000000	27.062790
517.000000	27.491579
518.000000	27.924375
519.000000	28.363907
520.000000	28.814998
521.000000	29.266185
522.000000	29.728154
523.000000	30.193494
524.000000	30.671705
525.000000	31.154278
526.000000	31.637055
527.000000	32.126960
528.000000	32.635959
529.000000	33.157607
530.000000	33.688195
531.000000	34.225467
532.000000	34.766213
533.000000	35.320298
534.000000	35.888947
535.000000	36.453253
536.000000	37.025275
537.000000	37.598441
538.000000	38.158604
539.000000	38.720434
540.000000	39.276950
541.000000	39.837164
542.000000	40.380887
543.000000	40.920760
544.000000	41.443082
545.000000	41.943131
546.000000	42.435265
547.000000	42.892376
548.000000	43.330191
549.000000	43.759298
550.000000	44.133893
551.000000	44.498065
552.000000	44.850464
553.000000	45.147731
554.000000	45.430493
555.000000	45.701843
556.000000	45.933249
557.000000	46.163554
558.000000	46.360819
559.000000	46.535352
560.000000	46.555335
561.000000	46.705419
562.000000	46.859638
563.000000	47.014867
564.000000	47.126069
565.000000	47.270207
566.000000	47.357680
567.000000	47.445982
568.000000	47.515784
569.000000	47.578139
570.000000	47.620737
571.000000	47.676450
572.000000	47.700613
573.000000	47.682998
574.000000	47.679449
575.000000	47.672652
576.000000	47.649875
577.000000	47.631507
578.000000	47.598121
579.000000	47.553777
580.000000	47.503185
581.000000	47.458225
582.000000	47.407447
583.000000	47.338727
584.000000	47.290906
585.000000	47.207133
586.000000	47.137657
587.000000	47.050502
588.000000	46.973413
589.000000	46.864440
590.000000	46.753392
591.000000	46.618542
592.000000	46.498812
593.000000	46.357609
594.000000	46.223262
595.000000	46.044309
596.000000	45.887216
597.000000	45.741576
598.000000	45.542060
599.000000	45.378757
600.000000	45.208079
601.000000	45.047743
602.000000	44.860403
603.000000	44.697840
604.000000	44.507749
605.000000	44.341355
606.000000	44.164182
607.000000	43.985197
608.000000	43.790961
609.000000	43.595790
610.000000	43.384370
611.000000	43.161829
612.000000	42.940071
613.000000	42.694324
614.000000	42.451744
615.000000	42.189589
616.000000	41.916112
617.000000	41.639809
618.000000	41.359815
619.000000	41.079368
620.000000	40.757442
621.000000	40.450006
622.000000	40.153144
623.000000	39.827361
624.000000	39.496821
625.000000	39.185315
626.000000	38.876541
627.000000	38.551265
628.000000	38.234304
629.000000	37.908685
630.000000	37.600582
631.000000	37.283398
632.000000	36.962871
633.000000	36.647899
634.000000	36.315106
635.000000	36.017930
636.000000	35.690001
637.000000	35.412151
638.000000	35.125484
639.000000	34.853104
640.000000	34.608286
641.000000	34.381133
642.000000	34.138353
643.000000	33.950172
644.000000	33.792802
645.000000	33.653784
646.000000	33.546949
647.000000	33.465043
648.000000	33.411596
649.000000	33.402142
650.000000	33.417970
651.000000	33.470914
652.000000	33.542920
653.000000	33.644169
654.000000	33.754016
655.000000	33.894861
656.000000	34.037173
657.000000	34.191599
658.000000	34.347424
659.000000	34.510564
660.000000	34.695870
661.000000	34.855960
662.000000	35.021851
663.000000	35.185283
664.000000	35.342632
665.000000	35.491604
666.000000	35.640052
667.000000	35.782260
668.000000	35.949968
669.000000	36.116181
670.000000	36.274532
671.000000	36.414796
672.000000	36.564116
673.000000	36.707639
674.000000	36.860525
675.000000	37.025886
676.000000	37.164489
677.000000	37.291739
678.000000	37.426156
679.000000	37.576553
680.000000	37.694718
681.000000	37.831541
682.000000	37.971995
683.000000	38.084381
684.000000	38.173157
685.000000	38.261381
686.000000	38.358146
687.000000	38.435964
688.000000	38.489926
689.000000	38.578443
690.000000	38.657734
691.000000	38.715000
692.000000	38.776734
693.000000	38.869284
694.000000	38.948522
695.000000	39.031191
696.000000	39.119039
697.000000	39.222771
698.000000	39.330985
699.000000	39.430674
700.000000	39.533507
701.000000	39.650306
702.000000	39.779404
703.000000	39.915879
704.000000	40.036226
705.000000	40.168717
706.000000	40.325517
707.000000	40.464208
708.000000	40.592528
709.000000	40.743146
710.000000	40.882016
711.000000	41.037242
712.000000	41.192508
713.000000	41.348979
714.000000	41.510279
715.000000	41.661660
716.000000	41.803267
717.000000	41.964302
718.000000	42.125531
719.000000	42.281527
720.000000	42.450354
721.000000	42.621742
722.000000	42.796408
723.000000	42.973386
724.000000	43.164247
725.000000	43.329195
726.000000	43.508070
727.000000	43.691732
728.000000	43.871626
729.000000	44.059937
730.000000	44.220128
731.000000	44.403977
732.000000	44.590759
733.000000	44.782949
734.000000	44.969084
735.000000	45.144820
736.000000	45.310148
737.000000	45.442104
738.000000	45.602502
739.000000	45.791164
740.000000	45.932156
741.000000	46.066408
742.000000	46.221771
743.000000	46.363980
744.000000	46.508935
745.000000	46.644534
746.000000	46.775321
747.000000	46.912405
748.000000	47.047365
749.000000	47.174327
750.000000	47.321587
751.000000	47.461723
752.000000	47.604540
753.000000	47.736166
754.000000	47.848464
755.000000	47.985707
756.000000	48.112121
757.000000	48.239543
758.000000	48.363871
759.000000	48.509463
760.000000	48.637359
761.000000	48.735307
762.000000	48.847731
763.000000	48.942559
764.000000	49.060821
765.000000	49.199445
766.000000	49.311581
767.000000	49.405853
768.000000	49.506228
769.000000	49.601312
770.000000	49.670207
771.000000	49.764856
772.000000	49.861374
773.000000	49.969909
774.000000	50.046816
775.000000	50.128664
776.000000	50.248577
777.000000	50.331257
778.000000	50.429714
779.000000	50.544119
780.000000	50.636472
781.000000	50.739766
782.000000	50.839948
783.000000	50.911608
784.000000	50.998317
785.000000	51.126599
786.000000	51.232407
787.000000	51.288266
788.000000	51.377575
789.000000	51.485629
790.000000	51.566282
791.000000	51.667495
792.000000	51.754522
793.000000	51.867889
794.000000	51.967886
795.000000	52.076213
796.000000	52.135648
797.000000	52.207678
798.000000	52.292515
799.000000	52.408095
800.000000	52.530564
801.000000	52.621004
802.000000	52.672332
803.000000	52.785812
804.000000	52.893262
805.000000	52.946471
806.000000	53.054511
807.000000	53.176887
808.000000	53.330730
809.000000	53.438866
810.000000	53.558747
811.000000	53.627652
812.000000	53.700459
813.000000	53.851787
814.000000	53.964903
815.000000	54.115194
816.000000	54.204939
817.000000	54.257687
818.000000	54.332947
819.000000	54.462439
820.000000	54.616456
821.000000	54.776258
822.000000	54.901480
823.000000	54.965051
824.000000	55.069617
825.000000	55.190367
826.000000	55.298090
827.000000	55.392239
828.000000	55.499904
829.000000	55.646875
830.000000	55.805627
831.000000	55.928932
832.000000	55.940606
833.000000	56.050509
834.000000	56.213187
835.000000	56.354524
836.000000	56.420176
837.000000	56.478059
838.000000	56.535283
839.000000	56.729998
840.000000	56.741795
841.000000	56.825286
842.000000	56.928832
843.000000	56.991315
844.000000	57.016863
845.000000	57.082065
846.000000	57.182224
847.000000	57.316328
848.000000	57.427961
849.000000	57.415134
850.000000	57.408325
851.000000	57.573689
852.000000	57.654766
853.000000	57.562726
854.000000	57.805161
855.000000	57.696200
856.000000	57.910739
857.000000	57.759412
858.000000	58.092340
859.000000	57.588940
860.000000	57.705260
861.000000	57.830320
862.000000	57.988480
863.000000	58.164020
864.000000	58.317420
865.000000	58.500420
866.000000	58.661420
867.000000	58.835280
868.000000	59.008100
869.000000	59.133580
870.000000	59.281020
871.000000	59.399820
872.000000	59.529320
873.000000	59.619800
874.000000	59.746920
875.000000	59.845900
876.000000	59.991160
877.000000	60.073280
878.000000	60.150080
879.000000	60.259960
880.000000	60.338480
881.000000	60.409140
882.000000	60.457020
883.000000	60.556620
884.000000	60.623960
885.000000	60.638120
886.000000	60.667240
887.000000	60.728560
888.000000	60.763840
889.000000	60.776680
890.000000	60.796080
891.000000	60.836240
892.000000	60.832340
893.000000	60.838520
894.000000	60.834940
895.000000	60.851720
896.000000	60.849160
897.000000	60.842580
898.000000	60.835420
899.000000	60.814500
900.000000	60.812100
901.000000	60.783640
902.000000	60.777180
903.000000	60.774020
904.000000	60.757280
905.000000	60.723640
906.000000	60.710320
907.000000	60.692880
908.000000	60.675060
909.000000	60.676680
910.000000	60.673920
911.000000	60.658600
912.000000	60.660980
913.000000	60.650680
914.000000	60.650340
915.000000	60.664320
916.000000	60.675100
917.000000	60.686420
918.000000	60.673480
919.000000	60.670340
920.000000	60.657640
921.000000	60.636940
922.000000	60.627240
923.000000	60.621580
924.000000	60.612680
925.000000	60.608380
926.000000	60.576020
927.000000	60.556660
928.000000	60.553460
929.000000	60.559220
930.000000	60.539040
931.000000	60.513760
932.000000	60.502780
933.000000	60.466440
934.000000	60.423980
935.000000	60.388720
936.000000	60.347440
937.000000	60.314900
938.000000	60.255980
939.000000	60.231560
940.000000	60.220060
941.000000	60.198440
942.000000	60.154140
943.000000	60.124160
944.000000	60.098620
945.000000	60.061960
946.000000	60.018460
947.000000	59.990560
948.000000	59.928120
949.000000	59.902660
950.000000	59.864580
951.000000	59.816060
952.000000	59.767620
953.000000	59.720420
954.000000	59.667600
955.000000	59.622760
956.000000	59.580260
957.000000	59.511000
958.000000	59.458360
959.000000	59.401380
960.000000	59.352900
961.000000	59.291520
962.000000	59.219480
963.000000	59.162840
964.000000	59.119080
965.000000	59.067120
966.000000	59.003160
967.000000	58.949120
968.000000	58.893640
969.000000	58.853060
970.000000	58.804800
971.000000	58.768100
972.000000	58.706520
973.000000	58.656220
974.000000	58.613680
975.000000	58.563860
976.000000	58.512700
977.000000	58.466400
978.000000	58.429800
979.000000	58.388220
980.000000	58.340840
981.000000	58.295440
982.000000	58.247680
983.000000	58.207020
984.000000	58.167660
985.000000	58.130480
986.000000	58.095580
987.000000	58.060040
988.000000	58.007540
989.000000	57.970780
990.000000	57.930120
991.000000	57.900020
992.000000	57.871600
993.000000	57.836480
994.000000	57.788560
995.000000	57.757660
996.000000	57.743320
997.000000	57.713140
998.000000	57.677700
999.000000	57.649860
1000.000000	57.613200
1001.000000	57.584760
1002.000000	57.565660
1003.000000	57.533900
1004.000000	57.504760
1005.000000	57.472320
1006.000000	57.431840
1007.000000	57.397020
1008.000000	57.360040
1009.000000	57.327760
1010.000000	57.292420
1011.000000	57.256860
1012.000000	57.228180
1013.000000	57.208780
1014.000000	57.190660
1015.000000	57.183580
1016.000000	57.175840
1017.000000	57.166760
1018.000000	57.168540
1019.000000	57.166740
1020.000000	57.170320
1021.000000	57.181220
1022.000000	57.192380
1023.000000	57.207120
1024.000000	57.227020
1025.000000	57.244500
1026.000000	57.259060
1027.000000	57.273460
1028.000000	57.292240
1029.000000	57.310120
1030.000000	57.323520
1031.000000	57.343100
1032.000000	57.362540
1033.000000	57.376260
1034.000000	57.393380
1035.000000	57.401480
1036.000000	57.409260
1037.000000	57.428620
1038.000000	57.445140
1039.000000	57.452540
1040.000000	57.459240
1041.000000	57.473740
1042.000000	57.486140
1043.000000	57.500300
1044.000000	57.519080
1045.000000	57.536920
1046.000000	57.549780
1047.000000	57.560380
1048.000000	57.575420
1049.000000	57.600760
1050.000000	57.629040
1051.000000	57.654680
1052.000000	57.681320
1053.000000	57.715560
1054.000000	57.753060
1055.000000	57.786440
1056.000000	57.825060
1057.000000	57.865940
1058.000000	57.903980
1059.000000	57.944880
1060.000000	57.992120
1061.000000	58.037880
1062.000000	58.085380
1063.000000	58.116660
1064.000000	58.158340
1065.000000	58.202580
1066.000000	58.242700
1067.000000	58.280580
1068.000000	58.313640
1069.000000	58.356920
1070.000000	58.398640
1071.000000	58.441280
1072.000000	58.477380
1073.000000	58.518660
1074.000000	58.556420
1075.000000	58.595400
1076.000000	58.631140
1077.000000	58.665080
1078.000000	58.702760
1079.000000	58.746260
1080.000000	58.782760
1081.000000	58.822820
1082.000000	58.856200
1083.000000	58.896760
1084.000000	58.941040
1085.000000	58.972740
1086.000000	59.016360
1087.000000	59.064320
1088.000000	59.099900
1089.000000	59.133140
1090.000000	59.169100
1091.000000	59.207160
1092.000000	59.232280
1093.000000	59.258360
1094.000000	59.290620
1095.000000	59.314060
1096.000000	59.334940
1097.000000	59.363820
1098.000000	59.387600
1099.000000	59.414600
1100.000000	59.438500
1101.000000	59.451020
1102.000000	59.467000
1103.000000	59.484120
1104.000000	59.495300
1105.000000	59.504940
1106.000000	59.517180
1107.000000	59.520520
1108.000000	59.534120
1109.000000	59.548340
1110.000000	59.556860
1111.000000	59.570900
1112.000000	59.571160
1113.000000	59.588980
1114.000000	59.596220
1115.000000	59.611860
1116.000000	59.622420
1117.000000	59.618720
1118.000000	59.618200
1119.000000	59.614440
1120.000000	59.601920
1121.000000	59.575680
1122.000000	59.552740
1123.000000	59.498880
1124.000000	59.451800
1125.000000	59.392380
1126.000000	59.335340
1127.000000	59.247340
1128.000000	59.164720
1129.000000	59.041100
1130.000000	58.887460
1131.000000	58.711280
1132.000000	58.539980
1133.000000	58.354560
1134.000000	58.168420
1135.000000	57.898440
1136.000000	57.593040
1137.000000	57.314420
1138.000000	57.031760
1139.000000	56.759180
1140.000000	56.498920
1141.000000	56.251480
1142.000000	56.008860
1143.000000	55.778160
1144.000000	55.558540
1145.000000	55.370460
1146.000000	55.210100
1147.000000	55.108660
1148.000000	55.048260
1149.000000	55.032120
1150.000000	55.018880
1151.000000	55.012920
1152.000000	54.987060
1153.000000	54.955640
1154.000000	54.892000
1155.000000	54.787540
1156.000000	54.650400
1157.000000	54.448840
1158.000000	54.235460
1159.000000	53.978940
1160.000000	53.711540
1161.000000	53.456280
1162.000000	53.168040
1163.000000	52.882860
1164.000000	52.588160
1165.000000	52.298520
1166.000000	52.009220
1167.000000	51.717440
1168.000000	51.429200
1169.000000	51.145320
1170.000000	50.870540
1171.000000	50.601660
1172.000000	50.321680
1173.000000	50.074400
1174.000000	49.827920
1175.000000	49.573680
1176.000000	49.343900
1177.000000	49.091480
1178.000000	48.804300
1179.000000	48.478520
1180.000000	48.113300
1181.000000	47.726860
1182.000000	47.342120
1183.000000	46.980240
1184.000000	46.699120
1185.000000	46.513200
1186.000000	46.418320
1187.000000	46.437320
1188.000000	46.554020
1189.000000	46.768920
1190.000000	47.050900
1191.000000	47.379360
1192.000000	47.739900
1193.000000	48.085400
1194.000000	48.392740
1195.000000	48.648340
1196.000000	48.855560
1197.000000	49.018860
1198.000000	49.145960
1199.000000	49.236260
1200.000000	49.308180
1201.000000	49.362960
1202.000000	49.403580
1203.000000	49.441480
1204.000000	49.463280
1205.000000	49.496000
1206.000000	49.544240
1207.000000	49.583760
1208.000000	49.646420
1209.000000	49.726180
1210.000000	49.807980
1211.000000	49.896340
1212.000000	49.993540
1213.000000	50.089700
1214.000000	50.180620
1215.000000	50.284780
1216.000000	50.395680
1217.000000	50.501340
1218.000000	50.619400
1219.000000	50.739160
1220.000000	50.858800
1221.000000	50.980980
1222.000000	51.114660
1223.000000	51.248360
1224.000000	51.381100
1225.000000	51.518540
1226.000000	51.662040
1227.000000	51.805160
1228.000000	51.938740
1229.000000	52.077820
1230.000000	52.213080
1231.000000	52.342440
1232.000000	52.473140
1233.000000	52.604980
1234.000000	52.740360
1235.000000	52.863880
1236.000000	52.984920
1237.000000	53.110700
1238.000000	53.225460
1239.000000	53.335020
1240.000000	53.448400
1241.000000	53.554300
1242.000000	53.659660
1243.000000	53.771180
1244.000000	53.869880
1245.000000	53.968680
1246.000000	54.059760
1247.000000	54.145260
1248.000000	54.229140
1249.000000	54.303420
1250.000000	54.379380
1251.000000	54.445300
1252.000000	54.501300
1253.000000	54.556760
1254.000000	54.619400
1255.000000	54.673000
1256.000000	54.718800
1257.000000	54.766300
1258.000000	54.806720
1259.000000	54.835920
1260.000000	54.866920
1261.000000	54.906240
1262.000000	54.941840
1263.000000	54.974200
1264.000000	55.005460
1265.000000	55.037840
1266.000000	55.064360
1267.000000	55.095600
1268.000000	55.124560
1269.000000	55.150620
1270.000000	55.176720
1271.000000	55.203420
1272.000000	55.228660
1273.000000	55.254340
1274.000000	55.281740
1275.000000	55.310560
1276.000000	55.348000
1277.000000	55.378840
1278.000000	55.416560
1279.000000	55.463860
1280.000000	55.511300
1281.000000	55.562980
1282.000000	55.612940
1283.000000	55.663600
1284.000000	55.714160
1285.000000	55.767080
1286.000000	55.821020
1287.000000	55.866000
1288.000000	55.900660
1289.000000	55.933140
1290.000000	55.968100
1291.000000	55.999640
1292.000000	56.027280
1293.000000	56.047760
1294.000000	56.059000
1295.000000	56.065020
1296.000000	56.075240
1297.000000	56.086500
1298.000000	56.099220
1299.000000	56.105460
1300.000000	56.111860
1301.000000	56.114420
1302.000000	56.109380
1303.000000	56.103780
1304.000000	56.097220
1305.000000	56.085600
1306.000000	56.066580
1307.000000	56.043560
1308.000000	56.019060
1309.000000	55.987540
1310.000000	55.943840
1311.000000	55.898940
1312.000000	55.853760
1313.000000	55.814260
1314.000000	55.766580
1315.000000	55.700100
1316.000000	55.635720
1317.000000	55.569680
1318.000000	55.503060
1319.000000	55.443220
1320.000000	55.369400
1321.000000	55.284840
1322.000000	55.206600
1323.000000	55.123340
1324.000000	55.033140
1325.000000	54.939680
1326.000000	54.835220
1327.000000	54.733260
1328.000000	54.619220
1329.000000	54.501380
1330.000000	54.375160
1331.000000	54.243660
1332.000000	54.103980
1333.000000	53.952500
1334.000000	53.794260
1335.000000	53.620800
1336.000000	53.448900
1337.000000	53.274120
1338.000000	53.087300
1339.000000	52.885480
1340.000000	52.675480
1341.000000	52.460060
1342.000000	52.227960
1343.000000	52.002260
1344.000000	51.759420
1345.000000	51.481380
1346.000000	51.202600
1347.000000	50.943820
1348.000000	50.625060
1349.000000	50.280660
1350.000000	49.932440
1351.000000	49.557300
1352.000000	49.128580
1353.000000	48.690420
1354.000000	48.316080
1355.000000	47.894940
1356.000000	47.529820
1357.000000	47.285560
1358.000000	47.148700
1359.000000	47.070280
1360.000000	47.021260
1361.000000	46.991900
1362.000000	46.827740
1363.000000	46.656360
1364.000000	46.542940
1365.000000	46.371920
1366.000000	46.176740
1367.000000	46.037300
1368.000000	45.820220
1369.000000	45.546220
1370.000000	45.317100
1371.000000	45.047440
1372.000000	44.711420
1373.000000	44.419380
1374.000000	44.144520
1375.000000	43.913680
1376.000000	43.738620
1377.000000	43.630400
1378.000000	43.541240
1379.000000	43.505860
1380.000000	43.407520
1381.000000	43.310720
1382.000000	43.051520
1383.000000	42.716120
1384.000000	42.354680
1385.000000	42.000840
1386.000000	41.636780
1387.000000	41.340060
1388.000000	41.037380
1389.000000	40.672660
1390.000000	40.420040
1391.000000	40.249480
1392.000000	40.041900
1393.000000	39.794320
1394.000000	39.652800
1395.000000	39.513660
1396.000000	39.228280
1397.000000	38.881000
1398.000000	38.665260
1399.000000	38.527580
1400.000000	38.254340
1401.000000	37.846280
1402.000000	37.396800
1403.000000	37.087300
1404.000000	36.758160
1405.000000	36.386600
1406.000000	36.004980
1407.000000	35.651200
1408.000000	35.300120
1409.000000	34.950160
1410.000000	34.564640
1411.000000	34.241540
1412.000000	33.969400
1413.000000	33.780140
1414.000000	33.533620
1415.000000	33.223780
1416.000000	32.963460
1417.000000	32.714640
1418.000000	32.538800
1419.000000	32.295980
1420.000000	32.028320
1421.000000	31.768260
1422.000000	31.531960
1423.000000	31.316160
1424.000000	31.091020
1425.000000	30.855460
1426.000000	30.631520
1427.000000	30.419400
1428.000000	30.239080
1429.000000	30.046900
1430.000000	29.850780
1431.000000	29.713020
1432.000000	29.564240
1433.000000	29.411480
1434.000000	29.267080
1435.000000	29.124080
1436.000000	28.992000
1437.000000	28.872620
1438.000000	28.745040
1439.000000	28.600620
1440.000000	28.473440
1441.000000	28.364800
1442.000000	28.226260
1443.000000	28.100280
1444.000000	27.987620
1445.000000	27.888280
1446.000000	27.762820
1447.000000	27.625040
1448.000000	27.512140
1449.000000	27.399620
1450.000000	27.330180
1451.000000	27.218900
1452.000000	27.111380
1453.000000	26.992100
1454.000000	26.894380
1455.000000	26.810740
1456.000000	26.722120
1457.000000	26.639560
1458.000000	26.555600
1459.000000	26.467680
1460.000000	26.403400
1461.000000	26.337360
1462.000000	26.287260
1463.000000	26.229740
1464.000000	26.166880
1465.000000	26.121000
1466.000000	26.082660
1467.000000	26.037500
1468.000000	25.998760
1469.000000	25.967680
1470.000000	25.945380
1471.000000	25.918780
1472.000000	25.878360
1473.000000	25.842940
1474.000000	25.805820
1475.000000	25.768300
1476.000000	25.743100
1477.000000	25.718960
1478.000000	25.693460
1479.000000	25.670440
1480.000000	25.652740
1481.000000	25.633220
1482.000000	25.608180
1483.000000	25.589720
1484.000000	25.586060
1485.000000	25.578600
1486.000000	25.581820
1487.000000	25.574000
1488.000000	25.575360
1489.000000	25.567280
1490.000000	25.560680
1491.000000	25.553900
1492.000000	25.559260
1493.000000	25.568820
1494.000000	25.566340
1495.000000	25.577860
1496.000000	25.590040
1497.000000	25.613300
1498.000000	25.632060
1499.000000	25.651200
1500.000000	25.675000
1501.000000	25.708960
1502.000000	25.739260
1503.000000	25.780220
1504.000000	25.804040
1505.000000	25.841440
1506.000000	25.885520
1507.000000	25.927240
1508.000000	25.966900
1509.000000	26.004780
1510.000000	26.042100
1511.000000	26.082800
1512.000000	26.130220
1513.000000	26.174440
1514.000000	26.215900
1515.000000	26.256220
1516.000000	26.299860
1517.000000	26.341240
1518.000000	26.369820
1519.000000	26.402180
1520.000000	26.440680
1521.000000	26.478560
1522.000000	26.513460
1523.000000	26.547740
1524.000000	26.587380
1525.000000	26.618560
1526.000000	26.651540
1527.000000	26.687120
1528.000000	26.714100
1529.000000	26.741140
1530.000000	26.768880
1531.000000	26.798320
1532.000000	26.821760
1533.000000	26.843000
1534.000000	26.868780
1535.000000	26.885020
1536.000000	26.904060
1537.000000	26.918240
1538.000000	26.931720
1539.000000	26.947520
1540.000000	26.963260
1541.000000	26.974720
1542.000000	26.987880
1543.000000	27.003620
1544.000000	27.019480
1545.000000	27.043000
1546.000000	27.060180
1547.000000	27.088380
1548.000000	27.121420
1549.000000	27.146940
1550.000000	27.167540
1551.000000	27.189880
1552.000000	27.215700
1553.000000	27.244200
1554.000000	27.264200
1555.000000	27.276860
1556.000000	27.283460
1557.000000	27.289660
1558.000000	27.297040
1559.000000	27.300180
1560.000000	27.304380
1561.000000	27.298680
1562.000000	27.289100
1563.000000	27.278400
1564.000000	27.262360
1565.000000	27.245760
1566.000000	27.229980
1567.000000	27.217520
1568.000000	27.199460
1569.000000	27.184500
1570.000000	27.171060
1571.000000	27.159300
1572.000000	27.156060
1573.000000	27.153160
1574.000000	27.152820
1575.000000	27.153980
1576.000000	27.161720
1577.000000	27.176220
1578.000000	27.188340
1579.000000	27.203700
1580.000000	27.219060
1581.000000	27.237020
1582.000000	27.263920
1583.000000	27.299300
1584.000000	27.336280
1585.000000	27.371940
1586.000000	27.414760
1587.000000	27.459440
1588.000000	27.502700
1589.000000	27.546740
1590.000000	27.592500
1591.000000	27.635300
1592.000000	27.689480
1593.000000	27.745220
1594.000000	27.795920
1595.000000	27.853980
1596.000000	27.915440
1597.000000	27.980020
1598.000000	28.047700
1599.000000	28.116360
1600.000000	28.183640
1601.000000	28.253500
1602.000000	28.324460
1603.000000	28.387980
1604.000000	28.460500
1605.000000	28.535400
1606.000000	28.616880
1607.000000	28.690040
1608.000000	28.759900
1609.000000	28.831020
1610.000000	28.904220
1611.000000	28.975120
1612.000000	29.040460
1613.000000	29.113800
1614.000000	29.192920
1615.000000	29.261840
1616.000000	29.332240
1617.000000	29.412340
1618.000000	29.483720
1619.000000	29.554740
1620.000000	29.621380
1621.000000	29.701260
1622.000000	29.781160
1623.000000	29.855080
1624.000000	29.930880
1625.000000	30.012000
1626.000000	30.094580
1627.000000	30.169960
1628.000000	30.246640
1629.000000	30.331060
1630.000000	30.418940
1631.000000	30.497580
1632.000000	30.566240
1633.000000	30.633740
1634.000000	30.707280
1635.000000	30.781120
1636.000000	30.845580
1637.000000	30.908360
1638.000000	30.964400
1639.000000	31.028600
1640.000000	31.095700
1641.000000	31.156240
1642.000000	31.208940
1643.000000	31.262240
1644.000000	31.301660
1645.000000	31.358560
1646.000000	31.409680
1647.000000	31.455940
1648.000000	31.498060
1649.000000	31.536660
1650.000000	31.570800
1651.000000	31.602180
1652.000000	31.617760
1653.000000	31.638640
1654.000000	31.648520
1655.000000	31.646240
1656.000000	31.644500
1657.000000	31.631700
1658.000000	31.604480
1659.000000	31.578440
1660.000000	31.531960
1661.000000	31.480620
1662.000000	31.415300
1663.000000	31.351780
1664.000000	31.264700
1665.000000	31.173820
1666.000000	31.069880
1667.000000	30.971320
1668.000000	30.812260
1669.000000	30.653780
1670.000000	30.484900
1671.000000	30.306440
1672.000000	30.091500
1673.000000	29.847200
1674.000000	29.573980
1675.000000	29.255040
1676.000000	28.903700
1677.000000	28.512020
1678.000000	28.049760
1679.000000	27.567480
1680.000000	27.060900
1681.000000	26.579540
1682.000000	26.177540
1683.000000	25.854400
1684.000000	25.648220
1685.000000	25.523780
1686.000000	25.470000
1687.000000	25.444080
1688.000000	25.416400
1689.000000	25.351520
1690.000000	25.244460
1691.000000	25.128880
1692.000000	24.983780
1693.000000	24.848760
1694.000000	24.766080
1695.000000	24.717920
1696.000000	24.719460
1697.000000	24.774240
1698.000000	24.871500
1699.000000	25.006560
1700.000000	25.139460
1701.000000	25.285900
1702.000000	25.408620
1703.000000	25.506100
1704.000000	25.583640
1705.000000	25.643920
1706.000000	25.685060
1707.000000	25.703760
1708.000000	25.723560
1709.000000	25.734420
1710.000000	25.730340
1711.000000	25.711720
1712.000000	25.672080
1713.000000	25.606200
1714.000000	25.545380
1715.000000	25.470420
1716.000000	25.398360
1717.000000	25.330080
1718.000000	25.271780
1719.000000	25.211820
1720.000000	25.169700
1721.000000	25.145960
1722.000000	25.126240
1723.000000	25.095880
1724.000000	25.060420
1725.000000	25.011580
1726.000000	24.935240
1727.000000	24.868800
1728.000000	24.781920
1729.000000	24.694980
1730.000000	24.604520
1731.000000	24.516640
1732.000000	24.446100
1733.000000	24.409800
1734.000000	24.411660
1735.000000	24.456360
1736.000000	24.536580
1737.000000	24.648700
1738.000000	24.811180
1739.000000	24.999260
1740.000000	25.190300
1741.000000	25.404740
1742.000000	25.605920
1743.000000	25.795840
1744.000000	25.962320
1745.000000	26.107660
1746.000000	26.234980
1747.000000	26.341300
1748.000000	26.428420
1749.000000	26.497340
1750.000000	26.561900
1751.000000	26.600060
1752.000000	26.640020
1753.000000	26.660860
1754.000000	26.663640
1755.000000	26.663800
1756.000000	26.637600
1757.000000	26.603640
1758.000000	26.554300
1759.000000	26.502740
1760.000000	26.455480
1761.000000	26.407620
1762.000000	26.378440
1763.000000	26.365120
1764.000000	26.383840
1765.000000	26.423520
1766.000000	26.483620
1767.000000	26.570160
1768.000000	26.668460
1769.000000	26.769120
1770.000000	26.883660
1771.000000	27.002320
1772.000000	27.115100
1773.000000	27.235200
1774.000000	27.360220
1775.000000	27.477700
1776.000000	27.581320
1777.000000	27.667920
1778.000000	27.757900
1779.000000	27.842620
1780.000000	27.912880
1781.000000	27.987860
1782.000000	28.054480
1783.000000	28.128520
1784.000000	28.193400
1785.000000	28.260620
1786.000000	28.327100
1787.000000	28.382100
1788.000000	28.439980
1789.000000	28.498140
1790.000000	28.547660
1791.000000	28.599120
1792.000000	28.644960
1793.000000	28.696920
1794.000000	28.744780
1795.000000	28.793780
1796.000000	28.838920
1797.000000	28.877180
1798.000000	28.920580
1799.000000	28.977240
1800.000000	29.040500
1801.000000	29.089660
1802.000000	29.120080
1803.000000	29.151760
1804.000000	29.200580
1805.000000	29.258340
1806.000000	29.310160
1807.000000	29.349000
1808.000000	29.383140
1809.000000	29.429880
1810.000000	29.480780
1811.000000	29.526140
1812.000000	29.550040
1813.000000	29.564000
1814.000000	29.587960
1815.000000	29.607020
1816.000000	29.620560
1817.000000	29.637740
1818.000000	29.684180
1819.000000	29.750060
1820.000000	29.784460
1821.000000	29.759120
1822.000000	29.718880
1823.000000	29.733460
1824.000000	29.811140
1825.000000	29.897040
1826.000000	29.970820
1827.000000	30.024760
1828.000000	30.089820
1829.000000	30.179060
1830.000000	30.243260
1831.000000	30.283500
1832.000000	30.344140
1833.000000	30.445520
1834.000000	30.585640
1835.000000	30.708280
1836.000000	30.770160
1837.000000	30.798200
1838.000000	30.836280
1839.000000	30.894120
1840.000000	30.940720
1841.000000	30.949960
1842.000000	30.900060
1843.000000	30.882860
1844.000000	30.956460
1845.000000	31.108280
1846.000000	31.253800
1847.000000	31.301560
1848.000000	31.256900
1849.000000	31.217620
1850.000000	31.230240
1851.000000	31.306560
1852.000000	31.377380
1853.000000	31.412360
1854.000000	31.445200
1855.000000	31.443780
1856.000000	31.444080
1857.000000	31.489060
1858.000000	31.505440
1859.000000	31.446500
1860.000000	31.357760
1861.000000	31.267940
1862.000000	31.185080
1863.000000	31.131340
1864.000000	31.100380
1865.000000	31.077620
1866.000000	31.046240
1867.000000	31.000300
1868.000000	30.923160
1869.000000	30.781380
1870.000000	30.557920
1871.000000	30.305700
1872.000000	30.036140
1873.000000	29.702140
1874.000000	29.357700
1875.000000	29.016800
1876.000000	28.641540
1877.000000	28.266140
1878.000000	27.869000
1879.000000	27.463560
1880.000000	27.066140
1881.000000	26.666780
1882.000000	26.215440
1883.000000	25.756480
1884.000000	25.275060
1885.000000	24.783740
1886.000000	24.338760
1887.000000	23.950100
1888.000000	23.611920
1889.000000	23.257660
1890.000000	22.918720
1891.000000	22.554420
1892.000000	22.150300
1893.000000	21.750220
1894.000000	21.416540
1895.000000	21.117380
1896.000000	20.869320
1897.000000	20.619600
1898.000000	20.309120
1899.000000	19.971840
1900.000000	19.626720
1901.000000	19.308900
1902.000000	19.037680
1903.000000	18.779960
1904.000000	18.538820
1905.000000	18.240560
1906.000000	17.896560
1907.000000	17.595700
1908.000000	17.327400
1909.000000	17.125180
1910.000000	16.971340
1911.000000	16.795560
1912.000000	16.585320
1913.000000	16.342880
1914.000000	16.102020
1915.000000	15.872900
1916.000000	15.694880
1917.000000	15.555340
1918.000000	15.423000
1919.000000	15.264560
1920.000000	15.122200
1921.000000	14.963240
1922.000000	14.793880
1923.000000	14.642660
1924.000000	14.532640
1925.000000	14.447080
1926.000000	14.337540
1927.000000	14.243000
1928.000000	14.155980
1929.000000	14.071260
1930.000000	13.995140
1931.000000	13.928660
1932.000000	13.873220
1933.000000	13.829420
1934.000000	13.781420
1935.000000	13.769600
1936.000000	13.753840
1937.000000	13.750100
1938.000000	13.742000
1939.000000	13.733080
1940.000000	13.743940
1941.000000	13.744320
1942.000000	13.756120
1943.000000	13.784720
1944.000000	13.804420
1945.000000	13.848020
1946.000000	13.879000
1947.000000	13.920980
1948.000000	13.972920
1949.000000	14.032240
1950.000000	14.077740
1951.000000	14.135140
1952.000000	14.186460
1953.000000	14.248100
1954.000000	14.306920
1955.000000	14.381140
1956.000000	14.451820
1957.000000	14.505580
1958.000000	14.574220
1959.000000	14.651440
1960.000000	14.704660
1961.000000	14.775220
1962.000000	14.849120
1963.000000	14.925240
1964.000000	14.986900
1965.000000	15.040840
1966.000000	15.111680
1967.000000	15.176400
1968.000000	15.239980
1969.000000	15.327000
1970.000000	15.390740
1971.000000	15.461200
1972.000000	15.537780
1973.000000	15.602060
1974.000000	15.676600
1975.000000	15.745320
1976.000000	15.826260
1977.000000	15.901560
1978.000000	15.983580
1979.000000	16.060240
1980.000000	16.136800
1981.000000	16.213820
1982.000000	16.293720
1983.000000	16.365460
1984.000000	16.440400
1985.000000	16.520840
1986.000000	16.588880
1987.000000	16.664920
1988.000000	16.740740
1989.000000	16.814620
1990.000000	16.884800
1991.000000	16.947200
1992.000000	16.998500
1993.000000	17.059080
1994.000000	17.130060
1995.000000	17.184760
1996.000000	17.247360
1997.000000	17.294880
1998.000000	17.347600
1999.000000	17.391800
2000.000000	17.432560
2001.000000	17.476020
2002.000000	17.505540
2003.000000	17.530860
2004.000000	17.562940
2005.000000	17.600460
2006.000000	17.616860
2007.000000	17.627900
2008.000000	17.642140
2009.000000	17.652480
2010.000000	17.648380
2011.000000	17.657020
2012.000000	17.667300
2013.000000	17.655740
2014.000000	17.645360
2015.000000	17.632100
2016.000000	17.607120
2017.000000	17.575680
2018.000000	17.561140
2019.000000	17.534080
2020.000000	17.485620
2021.000000	17.449040
2022.000000	17.411760
2023.000000	17.374880
2024.000000	17.325640
2025.000000	17.275220
2026.000000	17.223600
2027.000000	17.173980
2028.000000	17.111340
2029.000000	17.054520
2030.000000	16.987760
2031.000000	16.921380
2032.000000	16.857480
2033.000000	16.783860
2034.000000	16.701240
2035.000000	16.615700
2036.000000	16.527460
2037.000000	16.441040
2038.000000	16.342120
2039.000000	16.239100
2040.000000	16.134040
2041.000000	16.039840
2042.000000	15.939740
2043.000000	15.834880
2044.000000	15.721360
2045.000000	15.623100
2046.000000	15.520040
2047.000000	15.424960
2048.000000	15.332080
2049.000000	15.243220
2050.000000	15.164880
2051.000000	15.099000
2052.000000	15.033280
2053.000000	14.988300
2054.000000	14.951800
2055.000000	14.920940
2056.000000	14.900520
2057.000000	14.887620
2058.000000	14.879800
2059.000000	14.874620
2060.000000	14.880440
2061.000000	14.889820
2062.000000	14.910720
2063.000000	14.941620
2064.000000	14.961620
2065.000000	14.990720
2066.000000	15.015340
2067.000000	15.048580
2068.000000	15.090340
2069.000000	15.123220
2070.000000	15.154280
2071.000000	15.185380
2072.000000	15.212500
2073.000000	15.252280
2074.000000	15.285840
2075.000000	15.316240
2076.000000	15.350480
2077.000000	15.381760
2078.000000	15.402560
2079.000000	15.429860
2080.000000	15.460480
2081.000000	15.483660
2082.000000	15.507120
2083.000000	15.527040
2084.000000	15.551640
2085.000000	15.576840
2086.000000	15.595340
2087.000000	15.611860
2088.000000	15.628920
2089.000000	15.641400
2090.000000	15.658300
2091.000000	15.676440
2092.000000	15.684600
2093.000000	15.695320
2094.000000	15.709460
2095.000000	15.730480
2096.000000	15.755540
2097.000000	15.775620
2098.000000	15.790320
2099.000000	15.807700
2100.000000	15.841140
2101.000000	15.869540
2102.000000	15.888400
2103.000000	15.915100
2104.000000	15.946360
2105.000000	15.972000
2106.000000	15.996140
2107.000000	16.025980
2108.000000	16.060700
2109.000000	16.090880
2110.000000	16.110000
2111.000000	16.128660
2112.000000	16.160760
2113.000000	16.198980
2114.000000	16.220620
2115.000000	16.242940
2116.000000	16.274400
2117.000000	16.299660
2118.000000	16.325680
2119.000000	16.351180
2120.000000	16.368640
2121.000000	16.388320
2122.000000	16.404760
2123.000000	16.425800
2124.000000	16.444020
2125.000000	16.456620
2126.000000	16.464140
2127.000000	16.472680
2128.000000	16.481620
2129.000000	16.488940
2130.000000	16.493220
2131.000000	16.484380
2132.000000	16.473260
2133.000000	16.466660
2134.000000	16.461120
2135.000000	16.451220
2136.000000	16.433900
2137.000000	16.410600
2138.000000	16.389760
2139.000000	16.364840
2140.000000	16.342760
2141.000000	16.326960
2142.000000	16.292600
2143.000000	16.267420
2144.000000	16.235300
2145.000000	16.198640
2146.000000	16.167520
2147.000000	16.141100
2148.000000	16.108180
2149.000000	16.067860
2150.000000	16.030700
2151.000000	15.982160
2152.000000	15.949000
2153.000000	15.911860
2154.000000	15.879540
2155.000000	15.840540
2156.000000	15.803740
2157.000000	15.769680
2158.000000	15.736720
2159.000000	15.705760
2160.000000	15.678620
2161.000000	15.644900
2162.000000	15.616480
2163.000000	15.590080
2164.000000	15.571700
2165.000000	15.551840
2166.000000	15.535220
2167.000000	15.513640
2168.000000	15.500020
2169.000000	15.486660
2170.000000	15.472220
2171.000000	15.467140
2172.000000	15.455960
2173.000000	15.450760
2174.000000	15.450900
2175.000000	15.456220
2176.000000	15.456460
2177.000000	15.462060
2178.000000	15.466900
2179.000000	15.464920
2180.000000	15.482720
2181.000000	15.497680
2182.000000	15.516500
2183.000000	15.524280
2184.000000	15.539420
2185.000000	15.559220
2186.000000	15.576660
2187.000000	15.593760
2188.000000	15.604760
2189.000000	15.619580
2190.000000	15.630360
2191.000000	15.647700
2192.000000	15.660260
2193.000000	15.670320
2194.000000	15.684700
2195.000000	15.707320
2196.000000	15.712040
2197.000000	15.724080
2198.000000	15.751440
2199.000000	15.768940
2200.000000	15.780280
2201.000000	15.792840
2202.000000	15.803480
2203.000000	15.831980
2204.000000	15.845700
2205.000000	15.860760
2206.000000	15.890120
2207.000000	15.908560
2208.000000	15.930040
2209.000000	15.944120
2210.000000	15.976000
2211.000000	16.000920
2212.000000	16.026280
2213.000000	16.049620
2214.000000	16.081800
2215.000000	16.103720
2216.000000	16.134540
2217.000000	16.170060
2218.000000	16.187000
2219.000000	16.211420
2220.000000	16.238860
2221.000000	16.262760
2222.000000	16.279540
2223.000000	16.304400
2224.000000	16.311980
2225.000000	16.324880
2226.000000	16.321760
2227.000000	16.325540
2228.000000	16.309400
2229.000000	16.297680
2230.000000	16.262120
2231.000000	16.249400
2232.000000	16.214760
2233.000000	16.164780
2234.000000	16.125240
2235.000000	16.068040
2236.000000	16.005100
2237.000000	15.939420
2238.000000	15.869360
2239.000000	15.781960
2240.000000	15.677260
2241.000000	15.596200
2242.000000	15.498180
2243.000000	15.382400
2244.000000	15.251740
2245.000000	15.132420
2246.000000	14.992900
2247.000000	14.841500
2248.000000	14.679220
2249.000000	14.507120
2250.000000	14.335580
2251.000000	14.142440
2252.000000	13.935740
2253.000000	13.724980
2254.000000	13.502520
2255.000000	13.286700
2256.000000	13.050020
2257.000000	12.823560
2258.000000	12.585060
2259.000000	12.364160
2260.000000	12.140320
2261.000000	11.939880
2262.000000	11.737080
2263.000000	11.566860
2264.000000	11.398680
2265.000000	11.260960
2266.000000	11.143720
2267.000000	11.035780
2268.000000	10.954700
2269.000000	10.891220
2270.000000	10.845680
2271.000000	10.820860
2272.000000	10.791660
2273.000000	10.794660
2274.000000	10.809780
2275.000000	10.828080
2276.000000	10.858200
2277.000000	10.901320
2278.000000	10.937780
2279.000000	10.986000
2280.000000	11.024060
2281.000000	11.077740
2282.000000	11.121500
2283.000000	11.164540
2284.000000	11.204660
2285.000000	11.239160
2286.000000	11.282220
2287.000000	11.293940
2288.000000	11.313520
2289.000000	11.313800
2290.000000	11.308800
2291.000000	11.300200
2292.000000	11.269820
2293.000000	11.223960
2294.000000	11.164300
2295.000000	11.106520
2296.000000	11.043300
2297.000000	10.964980
2298.000000	10.877220
2299.000000	10.798500
2300.000000	10.723200
2301.000000	10.639740
2302.000000	10.574900
2303.000000	10.518580
2304.000000	10.460480
2305.000000	10.421380
2306.000000	10.395720
2307.000000	10.397660
2308.000000	10.416020
2309.000000	10.447280
2310.000000	10.485420
2311.000000	10.532960
2312.000000	10.599800
2313.000000	10.680340
2314.000000	10.764100
2315.000000	10.853460
2316.000000	10.943080
2317.000000	11.041880
2318.000000	11.130740
2319.000000	11.221040
2320.000000	11.312540
2321.000000	11.406540
2322.000000	11.491720
2323.000000	11.573000
2324.000000	11.646180
2325.000000	11.708600
2326.000000	11.763800
2327.000000	11.825320
2328.000000	11.892320
2329.000000	11.944720
2330.000000	11.982100
2331.000000	12.013640
2332.000000	12.053620
2333.000000	12.097700
2334.000000	12.127980
2335.000000	12.144480
2336.000000	12.167060
2337.000000	12.173240
2338.000000	12.174240
2339.000000	12.178500
2340.000000	12.169840
2341.000000	12.149340
2342.000000	12.130720
2343.000000	12.101860
2344.000000	12.068440
2345.000000	12.033240
2346.000000	11.994120
2347.000000	11.960320
2348.000000	11.933540
2349.000000	11.899900
2350.000000	11.874600
2351.000000	11.855520
2352.000000	11.848660
2353.000000	11.857780
2354.000000	11.867900
2355.000000	11.881020
2356.000000	11.914160
2357.000000	11.955460
2358.000000	11.994180
2359.000000	12.038240
2360.000000	12.095960
2361.000000	12.154140
2362.000000	12.206400
2363.000000	12.260560
2364.000000	12.321440
2365.000000	12.375040
2366.000000	12.417600
2367.000000	12.467460
2368.000000	12.527340
2369.000000	12.570260
2370.000000	12.601860
2371.000000	12.638600
2372.000000	12.672080
2373.000000	12.692300
2374.000000	12.712220
2375.000000	12.746580
2376.000000	12.771920
2377.000000	12.783120
2378.000000	12.807460
2379.000000	12.830720
2380.000000	12.837980
2381.000000	12.846480
2382.000000	12.862160
2383.000000	12.877840
2384.000000	12.885280
2385.000000	12.888520
2386.000000	12.893620
2387.000000	12.894180
2388.000000	12.888400
2389.000000	12.884940
2390.000000	12.879180
2391.000000	12.859520
2392.000000	12.842260
2393.000000	12.837440
2394.000000	12.826440
2395.000000	12.809400
2396.000000	12.789320
2397.000000	12.767020
2398.000000	12.740920
2399.000000	12.718620
2400.000000	12.699320
2401.000000	12.689040
2402.000000	12.676220
2403.000000	12.647820
2404.000000	12.616020
2405.000000	12.613460
2406.000000	12.601460
2407.000000	12.581080
2408.000000	12.565460
2409.000000	12.536580
2410.000000	12.522440
2411.000000	12.499140
2412.000000	12.479620
2413.000000	12.455040
2414.000000	12.436140
2415.000000	12.424700
2416.000000	12.412120
2417.000000	12.387940
2418.000000	12.358200
2419.000000	12.342520
2420.000000	12.330820
2421.000000	12.302340
2422.000000	12.269720
2423.000000	12.232640
2424.000000	12.201720
2425.000000	12.189340
2426.000000	12.186780
2427.000000	12.189840
2428.000000	12.206740
2429.000000	12.215660
2430.000000	12.177380
2431.000000	12.114960
2432.000000	12.061980
2433.000000	11.999820
2434.000000	11.931760
2435.000000	11.868480
2436.000000	11.799380
2437.000000	11.732460
2438.000000	11.665280
2439.000000	11.588580
2440.000000	11.524640
2441.000000	11.455540
2442.000000	11.378040
2443.000000	11.304340
2444.000000	11.220880
2445.000000	11.151340
2446.000000	11.075080
2447.000000	10.982660
2448.000000	10.912180
2449.000000	10.831960
2450.000000	10.758220
2451.000000	10.678320
2452.000000	10.591840
2453.000000	10.525700
2454.000000	10.455800
2455.000000	10.368160
2456.000000	10.288320
2457.000000	10.228460
2458.000000	10.165400
2459.000000	10.093400
2460.000000	10.041220
2461.000000	9.989900
2462.000000	9.936460
2463.000000	9.903640
2464.000000	9.844220
2465.000000	9.812260
2466.000000	9.781900
2467.000000	9.755780
2468.000000	9.713060
2469.000000	9.706200
2470.000000	9.692500
2471.000000	9.651820
2472.000000	9.636960
2473.000000	9.634520
2474.000000	9.608280
2475.000000	9.612220
2476.000000	9.599340
2477.000000	9.600860
2478.000000	9.586120
2479.000000	9.588260
2480.000000	9.550460
2481.000000	9.579460
2482.000000	9.582800
2483.000000	9.550440
2484.000000	9.561840
2485.000000	9.561400
2486.000000	9.558460
2487.000000	9.567840
2488.000000	9.520740
2489.000000	9.594600
2490.000000	9.586620
2491.000000	9.632160
2492.000000	9.646720
2493.000000	9.674020
2494.000000	9.621780
2495.000000	9.696740
2496.000000	9.720520
2497.000000	9.699120
2498.000000	9.765540
2499.000000	9.803920
2500.000000	9.801860
