PE UV       SUBTECH     SPECTRUM    ASCII       PEDS        4.00        
   -1
CICIMAUCR0158-5.Sample.ASC
24/04/25
13:52:02.00
24/04/25
13:52:02.00
Vinicio Soto Monge
C. cupreomarginata
250,000000
1
Lambda 1050
1050L1511233
PerkinElmer UV WinLab 6.3.2.0749 / 2.02.05 Lambda 900 UV/VIS/NIR, Aug  7 2015 09:38:08

0
0
3350/servo 860,8/2
0
0
UV/VIS
1
1
1
DoubleDePol,CommonBeamDepol,RBeamAtt,SBeamAtt,60mm sphere, WB InGaAs Detector
0
0
0
0
Program
Program
3350/servo 860,8/2
3350/0,2 860,8/0,2
3350/0,2 860,8/0,2
0
15.00
 
 
 
0
 
860,8
319,2
860,8
Front
100
on
S:100 R:100
0
0
0
0
 
0
 
 
 
0
 
 
0
0
0
0
0
 
 
 
 
0
0


0
0
#HDR
-1
-1
#GR
nm
%R
1.0
0.0
2500,000000
-1,000000
2251
8
68,614000
5,280700
#DATA
250.000000	4.838739
251.000000	4.815612
252.000000	4.797858
253.000000	4.803464
254.000000	4.776124
255.000000	4.770770
256.000000	4.784469
257.000000	4.777670
258.000000	4.746673
259.000000	4.733817
260.000000	4.715547
261.000000	4.690889
262.000000	4.677960
263.000000	4.651579
264.000000	4.640211
265.000000	4.612285
266.000000	4.601127
267.000000	4.575063
268.000000	4.568734
269.000000	4.550822
270.000000	4.537660
271.000000	4.539984
272.000000	4.521256
273.000000	4.496968
274.000000	4.498104
275.000000	4.477027
276.000000	4.451828
277.000000	4.454806
278.000000	4.433267
279.000000	4.436221
280.000000	4.433436
281.000000	4.402935
282.000000	4.405042
283.000000	4.397068
284.000000	4.392351
285.000000	4.386151
286.000000	4.393473
287.000000	4.402253
288.000000	4.375804
289.000000	4.359896
290.000000	4.375354
291.000000	4.386057
292.000000	4.385807
293.000000	4.360706
294.000000	4.403164
295.000000	4.364106
296.000000	4.381794
297.000000	4.369868
298.000000	4.374664
299.000000	4.382211
300.000000	4.373486
301.000000	4.366464
302.000000	4.364541
303.000000	4.375990
304.000000	4.386345
305.000000	4.407981
306.000000	4.388530
307.000000	4.378637
308.000000	4.401208
309.000000	4.415949
310.000000	4.418829
311.000000	4.390551
312.000000	4.411313
313.000000	4.404919
314.000000	4.399807
315.000000	4.432642
316.000000	4.533726
317.000000	5.004350
318.000000	4.839455
319.000000	4.735915
320.000000	4.796577
321.000000	4.747037
322.000000	4.777398
323.000000	4.705618
324.000000	4.686224
325.000000	4.650132
326.000000	4.691914
327.000000	4.593238
328.000000	4.532054
329.000000	4.634210
330.000000	4.586194
331.000000	4.488123
332.000000	4.505144
333.000000	4.544111
334.000000	4.550399
335.000000	4.476893
336.000000	4.487048
337.000000	4.519863
338.000000	4.474396
339.000000	4.491979
340.000000	4.514240
341.000000	4.507674
342.000000	4.562954
343.000000	4.554289
344.000000	4.520554
345.000000	4.538327
346.000000	4.500368
347.000000	4.521277
348.000000	4.526535
349.000000	4.534554
350.000000	4.535865
351.000000	4.592297
352.000000	4.634839
353.000000	4.627168
354.000000	4.639227
355.000000	4.676953
356.000000	4.727892
357.000000	4.712235
358.000000	4.737130
359.000000	4.794233
360.000000	4.905239
361.000000	4.869278
362.000000	4.906148
363.000000	4.939562
364.000000	5.003083
365.000000	5.029262
366.000000	5.061680
367.000000	5.135332
368.000000	5.219675
369.000000	5.286007
370.000000	5.306884
371.000000	5.344381
372.000000	5.384211
373.000000	5.490344
374.000000	5.509973
375.000000	5.711670
376.000000	6.027151
377.000000	6.117655
378.000000	6.245575
379.000000	6.384490
380.000000	6.528835
381.000000	6.688189
382.000000	6.842899
383.000000	6.996343
384.000000	7.166027
385.000000	7.350568
386.000000	7.514293
387.000000	7.688860
388.000000	7.871709
389.000000	8.046554
390.000000	8.222640
391.000000	8.402651
392.000000	8.572499
393.000000	8.739826
394.000000	8.897488
395.000000	9.065048
396.000000	9.220569
397.000000	9.377219
398.000000	9.522767
399.000000	9.664588
400.000000	9.792868
401.000000	9.914322
402.000000	10.035692
403.000000	10.146902
404.000000	10.255717
405.000000	10.354600
406.000000	10.447475
407.000000	10.539376
408.000000	10.622196
409.000000	10.694066
410.000000	10.756334
411.000000	10.816759
412.000000	10.874876
413.000000	10.928492
414.000000	10.977046
415.000000	11.018786
416.000000	11.049205
417.000000	11.068213
418.000000	11.086332
419.000000	11.101175
420.000000	11.114081
421.000000	11.118855
422.000000	11.117755
423.000000	11.115947
424.000000	11.106014
425.000000	11.093997
426.000000	11.086544
427.000000	11.082728
428.000000	11.071060
429.000000	11.065919
430.000000	11.070573
431.000000	11.083106
432.000000	11.102317
433.000000	11.121264
434.000000	11.154727
435.000000	11.205091
436.000000	11.273188
437.000000	11.342484
438.000000	11.426665
439.000000	11.541404
440.000000	11.656902
441.000000	11.792118
442.000000	11.945323
443.000000	12.119496
444.000000	12.312160
445.000000	12.500644
446.000000	12.697031
447.000000	12.905998
448.000000	13.119666
449.000000	13.351971
450.000000	13.576464
451.000000	13.800830
452.000000	14.022574
453.000000	14.250548
454.000000	14.464869
455.000000	14.669471
456.000000	14.869460
457.000000	15.053617
458.000000	15.242173
459.000000	15.408230
460.000000	15.571757
461.000000	15.742690
462.000000	15.902741
463.000000	16.049855
464.000000	16.203531
465.000000	16.349265
466.000000	16.493893
467.000000	16.642173
468.000000	16.799297
469.000000	16.956839
470.000000	17.115354
471.000000	17.286917
472.000000	17.473756
473.000000	17.652190
474.000000	17.845812
475.000000	18.043851
476.000000	18.252482
477.000000	18.470506
478.000000	18.696634
479.000000	18.930281
480.000000	19.174806
481.000000	19.438038
482.000000	19.718424
483.000000	19.998270
484.000000	20.278591
485.000000	20.547490
486.000000	20.823306
487.000000	21.110103
488.000000	21.400080
489.000000	21.701234
490.000000	22.001258
491.000000	22.316373
492.000000	22.606592
493.000000	22.904415
494.000000	23.197480
495.000000	23.507833
496.000000	23.829602
497.000000	24.130876
498.000000	24.419972
499.000000	24.729650
500.000000	25.046808
501.000000	25.365785
502.000000	25.677522
503.000000	26.013991
504.000000	26.351345
505.000000	26.691771
506.000000	27.049351
507.000000	27.406386
508.000000	27.776282
509.000000	28.169078
510.000000	28.581851
511.000000	29.000985
512.000000	29.434786
513.000000	29.888319
514.000000	30.345821
515.000000	30.808519
516.000000	31.280698
517.000000	31.765666
518.000000	32.248458
519.000000	32.746310
520.000000	33.262065
521.000000	33.786037
522.000000	34.322674
523.000000	34.853659
524.000000	35.400864
525.000000	35.953343
526.000000	36.510181
527.000000	37.062000
528.000000	37.618103
529.000000	38.180842
530.000000	38.760874
531.000000	39.331505
532.000000	39.912907
533.000000	40.511339
534.000000	41.101526
535.000000	41.679150
536.000000	42.251759
537.000000	42.802730
538.000000	43.345261
539.000000	43.866286
540.000000	44.372969
541.000000	44.861163
542.000000	45.327620
543.000000	45.754608
544.000000	46.158798
545.000000	46.525206
546.000000	46.869861
547.000000	47.184691
548.000000	47.459487
549.000000	47.692196
550.000000	47.910210
551.000000	48.114371
552.000000	48.269702
553.000000	48.402335
554.000000	48.513060
555.000000	48.620938
556.000000	48.717679
557.000000	48.804012
558.000000	48.842100
559.000000	48.877474
560.000000	48.894927
561.000000	48.937022
562.000000	48.961830
563.000000	48.997076
564.000000	49.030232
565.000000	49.038203
566.000000	49.052642
567.000000	49.038610
568.000000	49.012804
569.000000	48.965292
570.000000	48.908837
571.000000	48.841408
572.000000	48.767919
573.000000	48.683999
574.000000	48.605603
575.000000	48.513410
576.000000	48.415995
577.000000	48.315921
578.000000	48.228644
579.000000	48.119995
580.000000	48.016315
581.000000	47.893828
582.000000	47.796884
583.000000	47.697823
584.000000	47.591901
585.000000	47.475380
586.000000	47.367883
587.000000	47.285687
588.000000	47.186900
589.000000	47.076533
590.000000	46.969001
591.000000	46.858279
592.000000	46.744649
593.000000	46.609271
594.000000	46.495258
595.000000	46.357540
596.000000	46.215742
597.000000	46.073335
598.000000	45.898733
599.000000	45.733563
600.000000	45.539246
601.000000	45.334981
602.000000	45.107868
603.000000	44.861267
604.000000	44.623060
605.000000	44.362846
606.000000	44.111717
607.000000	43.860257
608.000000	43.600085
609.000000	43.348890
610.000000	43.078578
611.000000	42.824351
612.000000	42.549433
613.000000	42.274243
614.000000	42.035830
615.000000	41.782314
616.000000	41.552100
617.000000	41.293489
618.000000	41.053260
619.000000	40.817985
620.000000	40.568843
621.000000	40.329586
622.000000	40.083664
623.000000	39.839570
624.000000	39.598000
625.000000	39.369551
626.000000	39.156144
627.000000	38.963133
628.000000	38.780871
629.000000	38.622148
630.000000	38.470492
631.000000	38.359226
632.000000	38.273152
633.000000	38.213525
634.000000	38.195590
635.000000	38.214650
636.000000	38.255730
637.000000	38.339454
638.000000	38.462885
639.000000	38.587193
640.000000	38.744215
641.000000	38.916288
642.000000	39.122757
643.000000	39.338300
644.000000	39.563731
645.000000	39.785164
646.000000	40.033529
647.000000	40.290883
648.000000	40.508856
649.000000	40.751266
650.000000	40.981725
651.000000	41.220763
652.000000	41.466002
653.000000	41.682660
654.000000	41.894442
655.000000	42.110739
656.000000	42.311452
657.000000	42.498166
658.000000	42.689826
659.000000	42.853365
660.000000	43.029215
661.000000	43.167866
662.000000	43.300206
663.000000	43.430429
664.000000	43.545487
665.000000	43.650110
666.000000	43.745934
667.000000	43.827780
668.000000	43.906961
669.000000	43.966486
670.000000	44.025462
671.000000	44.087977
672.000000	44.124807
673.000000	44.170327
674.000000	44.216196
675.000000	44.260611
676.000000	44.316060
677.000000	44.348254
678.000000	44.397249
679.000000	44.427654
680.000000	44.460647
681.000000	44.503342
682.000000	44.554311
683.000000	44.588035
684.000000	44.636464
685.000000	44.703885
686.000000	44.745277
687.000000	44.782720
688.000000	44.835739
689.000000	44.924223
690.000000	44.991372
691.000000	45.058001
692.000000	45.130564
693.000000	45.221487
694.000000	45.312243
695.000000	45.419886
696.000000	45.532854
697.000000	45.641111
698.000000	45.732182
699.000000	45.842185
700.000000	45.971837
701.000000	46.101851
702.000000	46.229586
703.000000	46.362965
704.000000	46.485982
705.000000	46.616018
706.000000	46.743792
707.000000	46.865473
708.000000	46.977608
709.000000	47.110847
710.000000	47.253962
711.000000	47.354980
712.000000	47.480845
713.000000	47.584787
714.000000	47.682293
715.000000	47.819045
716.000000	47.932054
717.000000	48.020761
718.000000	48.114354
719.000000	48.221292
720.000000	48.287003
721.000000	48.368345
722.000000	48.471265
723.000000	48.549329
724.000000	48.601547
725.000000	48.674735
726.000000	48.745501
727.000000	48.804508
728.000000	48.874685
729.000000	48.944289
730.000000	48.995602
731.000000	49.052465
732.000000	49.120623
733.000000	49.201555
734.000000	49.239805
735.000000	49.309002
736.000000	49.372616
737.000000	49.424067
738.000000	49.491135
739.000000	49.536618
740.000000	49.599152
741.000000	49.668854
742.000000	49.727835
743.000000	49.778594
744.000000	49.836784
745.000000	49.925144
746.000000	49.973379
747.000000	50.056030
748.000000	50.149505
749.000000	50.219598
750.000000	50.304919
751.000000	50.396393
752.000000	50.463996
753.000000	50.537813
754.000000	50.634482
755.000000	50.710584
756.000000	50.803511
757.000000	50.904448
758.000000	50.984690
759.000000	51.097913
760.000000	51.194768
761.000000	51.326726
762.000000	51.396630
763.000000	51.489262
764.000000	51.596928
765.000000	51.700338
766.000000	51.800768
767.000000	51.920953
768.000000	52.006388
769.000000	52.117792
770.000000	52.251319
771.000000	52.360362
772.000000	52.467913
773.000000	52.607240
774.000000	52.711141
775.000000	52.783564
776.000000	52.861272
777.000000	52.955471
778.000000	53.084824
779.000000	53.167514
780.000000	53.233405
781.000000	53.310575
782.000000	53.392643
783.000000	53.459258
784.000000	53.547403
785.000000	53.625367
786.000000	53.759199
787.000000	53.828567
788.000000	53.856609
789.000000	53.939007
790.000000	54.005625
791.000000	54.068006
792.000000	54.157442
793.000000	54.219275
794.000000	54.242417
795.000000	54.302133
796.000000	54.342858
797.000000	54.405942
798.000000	54.440861
799.000000	54.511678
800.000000	54.576242
801.000000	54.604689
802.000000	54.675513
803.000000	54.728520
804.000000	54.807051
805.000000	54.850183
806.000000	54.869127
807.000000	54.930969
808.000000	54.957957
809.000000	55.047163
810.000000	55.137718
811.000000	55.159111
812.000000	55.216901
813.000000	55.241416
814.000000	55.237612
815.000000	55.361989
816.000000	55.451474
817.000000	55.410972
818.000000	55.477378
819.000000	55.468006
820.000000	55.541855
821.000000	55.596281
822.000000	55.624321
823.000000	55.659567
824.000000	55.626061
825.000000	55.737850
826.000000	55.735312
827.000000	55.761050
828.000000	55.758843
829.000000	55.780036
830.000000	55.767668
831.000000	55.740554
832.000000	55.720961
833.000000	55.800829
834.000000	55.706125
835.000000	55.676445
836.000000	55.690751
837.000000	55.634983
838.000000	55.618441
839.000000	55.566676
840.000000	55.660997
841.000000	55.551403
842.000000	55.505195
843.000000	55.598113
844.000000	55.456553
845.000000	55.268953
846.000000	55.364302
847.000000	55.108598
848.000000	55.090194
849.000000	55.008889
850.000000	54.920858
851.000000	54.901781
852.000000	54.921425
853.000000	54.901899
854.000000	54.721564
855.000000	54.765555
856.000000	54.554099
857.000000	54.790016
858.000000	55.404040
859.000000	54.369960
860.000000	54.725360
861.000000	54.713200
862.000000	54.448920
863.000000	54.553360
864.000000	54.727760
865.000000	54.401140
866.000000	54.429220
867.000000	54.734720
868.000000	54.932720
869.000000	55.137260
870.000000	55.177880
871.000000	55.362020
872.000000	55.393940
873.000000	55.808280
874.000000	55.849960
875.000000	55.872460
876.000000	56.117140
877.000000	56.215100
878.000000	56.255180
879.000000	56.367220
880.000000	56.366200
881.000000	56.464780
882.000000	56.527880
883.000000	56.633200
884.000000	56.804280
885.000000	56.850520
886.000000	56.686020
887.000000	56.784840
888.000000	56.794080
889.000000	56.805280
890.000000	56.891700
891.000000	56.784640
892.000000	56.823560
893.000000	56.852220
894.000000	56.900620
895.000000	56.862960
896.000000	56.865460
897.000000	56.828400
898.000000	56.813240
899.000000	56.769940
900.000000	56.711240
901.000000	56.823680
902.000000	56.750920
903.000000	56.713480
904.000000	56.684900
905.000000	56.637480
906.000000	56.622540
907.000000	56.609080
908.000000	56.594900
909.000000	56.580120
910.000000	56.539500
911.000000	56.531060
912.000000	56.493860
913.000000	56.457120
914.000000	56.434940
915.000000	56.460500
916.000000	56.527240
917.000000	56.508900
918.000000	56.504000
919.000000	56.525680
920.000000	56.538220
921.000000	56.526740
922.000000	56.497400
923.000000	56.516860
924.000000	56.520300
925.000000	56.510260
926.000000	56.520300
927.000000	56.562600
928.000000	56.596960
929.000000	56.611400
930.000000	56.612380
931.000000	56.593020
932.000000	56.600020
933.000000	56.660180
934.000000	56.668980
935.000000	56.664900
936.000000	56.675720
937.000000	56.660820
938.000000	56.683680
939.000000	56.700660
940.000000	56.719380
941.000000	56.733460
942.000000	56.737860
943.000000	56.762600
944.000000	56.770180
945.000000	56.744520
946.000000	56.773520
947.000000	56.791840
948.000000	56.808120
949.000000	56.813920
950.000000	56.834140
951.000000	56.849400
952.000000	56.821480
953.000000	56.801680
954.000000	56.807260
955.000000	56.821600
956.000000	56.847080
957.000000	56.830160
958.000000	56.824680
959.000000	56.820640
960.000000	56.815680
961.000000	56.826860
962.000000	56.843500
963.000000	56.854320
964.000000	56.899700
965.000000	56.891640
966.000000	56.902680
967.000000	56.909140
968.000000	56.924040
969.000000	56.936340
970.000000	56.967060
971.000000	56.999980
972.000000	57.012260
973.000000	57.061400
974.000000	57.065500
975.000000	57.081800
976.000000	57.122800
977.000000	57.136900
978.000000	57.147840
979.000000	57.209200
980.000000	57.219760
981.000000	57.252320
982.000000	57.294840
983.000000	57.349400
984.000000	57.380180
985.000000	57.409880
986.000000	57.434760
987.000000	57.450340
988.000000	57.494660
989.000000	57.531520
990.000000	57.582840
991.000000	57.630820
992.000000	57.657060
993.000000	57.694440
994.000000	57.732820
995.000000	57.775300
996.000000	57.811940
997.000000	57.842280
998.000000	57.885920
999.000000	57.923600
1000.000000	57.958660
1001.000000	57.984400
1002.000000	58.022320
1003.000000	58.060640
1004.000000	58.101240
1005.000000	58.155780
1006.000000	58.186220
1007.000000	58.216300
1008.000000	58.254520
1009.000000	58.279240
1010.000000	58.309080
1011.000000	58.333720
1012.000000	58.374400
1013.000000	58.394240
1014.000000	58.439280
1015.000000	58.477540
1016.000000	58.489340
1017.000000	58.550660
1018.000000	58.587760
1019.000000	58.602780
1020.000000	58.644700
1021.000000	58.681420
1022.000000	58.706120
1023.000000	58.745960
1024.000000	58.769300
1025.000000	58.797620
1026.000000	58.839300
1027.000000	58.881520
1028.000000	58.924260
1029.000000	58.962100
1030.000000	59.000900
1031.000000	59.025700
1032.000000	59.049880
1033.000000	59.079220
1034.000000	59.125380
1035.000000	59.156940
1036.000000	59.211240
1037.000000	59.236560
1038.000000	59.251580
1039.000000	59.274380
1040.000000	59.303920
1041.000000	59.339120
1042.000000	59.382220
1043.000000	59.403340
1044.000000	59.435860
1045.000000	59.460740
1046.000000	59.503340
1047.000000	59.529220
1048.000000	59.553420
1049.000000	59.606680
1050.000000	59.630880
1051.000000	59.662100
1052.000000	59.707980
1053.000000	59.735360
1054.000000	59.774740
1055.000000	59.812080
1056.000000	59.829100
1057.000000	59.865960
1058.000000	59.909520
1059.000000	59.958640
1060.000000	59.995840
1061.000000	60.018300
1062.000000	60.067300
1063.000000	60.086320
1064.000000	60.137960
1065.000000	60.165820
1066.000000	60.215340
1067.000000	60.239020
1068.000000	60.282120
1069.000000	60.327700
1070.000000	60.358200
1071.000000	60.400280
1072.000000	60.425540
1073.000000	60.465680
1074.000000	60.508100
1075.000000	60.544560
1076.000000	60.589360
1077.000000	60.609760
1078.000000	60.647380
1079.000000	60.686260
1080.000000	60.717200
1081.000000	60.751780
1082.000000	60.781580
1083.000000	60.805060
1084.000000	60.844360
1085.000000	60.879600
1086.000000	60.914440
1087.000000	60.940340
1088.000000	60.985320
1089.000000	60.998860
1090.000000	61.029020
1091.000000	61.049420
1092.000000	61.076580
1093.000000	61.113640
1094.000000	61.122420
1095.000000	61.147400
1096.000000	61.170080
1097.000000	61.175680
1098.000000	61.202680
1099.000000	61.228100
1100.000000	61.247440
1101.000000	61.265760
1102.000000	61.280380
1103.000000	61.288160
1104.000000	61.301680
1105.000000	61.316660
1106.000000	61.345620
1107.000000	61.357560
1108.000000	61.368980
1109.000000	61.373220
1110.000000	61.384580
1111.000000	61.404780
1112.000000	61.413120
1113.000000	61.417660
1114.000000	61.432720
1115.000000	61.443020
1116.000000	61.455840
1117.000000	61.460640
1118.000000	61.475840
1119.000000	61.484380
1120.000000	61.475080
1121.000000	61.468340
1122.000000	61.485380
1123.000000	61.491000
1124.000000	61.480320
1125.000000	61.449740
1126.000000	61.431480
1127.000000	61.388660
1128.000000	61.362360
1129.000000	61.333600
1130.000000	61.285340
1131.000000	61.224580
1132.000000	61.170800
1133.000000	61.116340
1134.000000	61.104500
1135.000000	61.067580
1136.000000	60.966640
1137.000000	60.880420
1138.000000	60.799520
1139.000000	60.728260
1140.000000	60.664740
1141.000000	60.607000
1142.000000	60.550780
1143.000000	60.492700
1144.000000	60.458460
1145.000000	60.416780
1146.000000	60.376700
1147.000000	60.335240
1148.000000	60.274820
1149.000000	60.233340
1150.000000	60.192160
1151.000000	60.142940
1152.000000	60.102220
1153.000000	60.067800
1154.000000	59.988760
1155.000000	59.934580
1156.000000	59.869380
1157.000000	59.813800
1158.000000	59.737360
1159.000000	59.653800
1160.000000	59.561500
1161.000000	59.473620
1162.000000	59.400000
1163.000000	59.313540
1164.000000	59.221200
1165.000000	59.137140
1166.000000	59.052300
1167.000000	58.966160
1168.000000	58.891440
1169.000000	58.810720
1170.000000	58.738640
1171.000000	58.679440
1172.000000	58.622740
1173.000000	58.573920
1174.000000	58.538720
1175.000000	58.482800
1176.000000	58.438140
1177.000000	58.401400
1178.000000	58.358240
1179.000000	58.319480
1180.000000	58.277420
1181.000000	58.229660
1182.000000	58.202040
1183.000000	58.167120
1184.000000	58.144740
1185.000000	58.131340
1186.000000	58.128700
1187.000000	58.127580
1188.000000	58.130840
1189.000000	58.152420
1190.000000	58.186100
1191.000000	58.230460
1192.000000	58.277800
1193.000000	58.328700
1194.000000	58.375460
1195.000000	58.428420
1196.000000	58.481660
1197.000000	58.526000
1198.000000	58.568140
1199.000000	58.614000
1200.000000	58.655520
1201.000000	58.698260
1202.000000	58.735360
1203.000000	58.785720
1204.000000	58.821780
1205.000000	58.857020
1206.000000	58.896620
1207.000000	58.941180
1208.000000	58.981660
1209.000000	59.022240
1210.000000	59.064060
1211.000000	59.101240
1212.000000	59.131240
1213.000000	59.161400
1214.000000	59.189500
1215.000000	59.217060
1216.000000	59.244340
1217.000000	59.279420
1218.000000	59.304580
1219.000000	59.327460
1220.000000	59.350980
1221.000000	59.382060
1222.000000	59.402480
1223.000000	59.430480
1224.000000	59.447060
1225.000000	59.459860
1226.000000	59.477780
1227.000000	59.498460
1228.000000	59.523320
1229.000000	59.536300
1230.000000	59.545600
1231.000000	59.564680
1232.000000	59.573180
1233.000000	59.594120
1234.000000	59.608660
1235.000000	59.625180
1236.000000	59.636740
1237.000000	59.647660
1238.000000	59.665020
1239.000000	59.682320
1240.000000	59.701060
1241.000000	59.718320
1242.000000	59.737660
1243.000000	59.760040
1244.000000	59.784720
1245.000000	59.813460
1246.000000	59.827360
1247.000000	59.853660
1248.000000	59.879660
1249.000000	59.899480
1250.000000	59.919700
1251.000000	59.930500
1252.000000	59.946400
1253.000000	59.954600
1254.000000	59.965640
1255.000000	59.974340
1256.000000	59.982740
1257.000000	59.979860
1258.000000	59.978220
1259.000000	59.974760
1260.000000	59.968400
1261.000000	59.966120
1262.000000	59.957740
1263.000000	59.951680
1264.000000	59.947440
1265.000000	59.944360
1266.000000	59.940180
1267.000000	59.931780
1268.000000	59.923260
1269.000000	59.916560
1270.000000	59.899300
1271.000000	59.895800
1272.000000	59.893440
1273.000000	59.890660
1274.000000	59.885340
1275.000000	59.877860
1276.000000	59.874680
1277.000000	59.878000
1278.000000	59.888680
1279.000000	59.897840
1280.000000	59.901520
1281.000000	59.915060
1282.000000	59.932280
1283.000000	59.944480
1284.000000	59.957100
1285.000000	59.967460
1286.000000	59.986380
1287.000000	59.993720
1288.000000	60.008980
1289.000000	60.023560
1290.000000	60.030940
1291.000000	60.033120
1292.000000	60.044080
1293.000000	60.054700
1294.000000	60.054240
1295.000000	60.059220
1296.000000	60.065540
1297.000000	60.066840
1298.000000	60.064580
1299.000000	60.062200
1300.000000	60.063660
1301.000000	60.060380
1302.000000	60.052900
1303.000000	60.054280
1304.000000	60.050940
1305.000000	60.040100
1306.000000	60.018560
1307.000000	60.004780
1308.000000	59.988980
1309.000000	59.968700
1310.000000	59.949140
1311.000000	59.931400
1312.000000	59.907440
1313.000000	59.881700
1314.000000	59.858060
1315.000000	59.828280
1316.000000	59.792060
1317.000000	59.759180
1318.000000	59.731100
1319.000000	59.694380
1320.000000	59.668400
1321.000000	59.628620
1322.000000	59.594380
1323.000000	59.552600
1324.000000	59.503960
1325.000000	59.456760
1326.000000	59.412040
1327.000000	59.362060
1328.000000	59.315500
1329.000000	59.260800
1330.000000	59.195920
1331.000000	59.139740
1332.000000	59.077380
1333.000000	59.006260
1334.000000	58.926540
1335.000000	58.859680
1336.000000	58.781640
1337.000000	58.701520
1338.000000	58.614980
1339.000000	58.513140
1340.000000	58.432340
1341.000000	58.338540
1342.000000	58.231840
1343.000000	58.129620
1344.000000	58.026740
1345.000000	57.906340
1346.000000	57.778840
1347.000000	57.679480
1348.000000	57.594360
1349.000000	57.457240
1350.000000	57.332180
1351.000000	57.204840
1352.000000	57.090260
1353.000000	56.956280
1354.000000	56.900460
1355.000000	56.864520
1356.000000	56.764520
1357.000000	56.651980
1358.000000	56.580780
1359.000000	56.514140
1360.000000	56.472400
1361.000000	56.504180
1362.000000	56.500260
1363.000000	56.342360
1364.000000	56.241100
1365.000000	56.229320
1366.000000	56.094080
1367.000000	56.007380
1368.000000	55.969900
1369.000000	55.842540
1370.000000	55.726760
1371.000000	55.675700
1372.000000	55.574940
1373.000000	55.445040
1374.000000	55.318820
1375.000000	55.222080
1376.000000	55.136060
1377.000000	55.036860
1378.000000	54.927920
1379.000000	54.854240
1380.000000	54.768300
1381.000000	54.705640
1382.000000	54.592600
1383.000000	54.460940
1384.000000	54.208000
1385.000000	54.009960
1386.000000	53.743220
1387.000000	53.518420
1388.000000	53.342640
1389.000000	53.061880
1390.000000	52.754340
1391.000000	52.527740
1392.000000	52.325020
1393.000000	52.057020
1394.000000	51.796800
1395.000000	51.643600
1396.000000	51.409040
1397.000000	51.015560
1398.000000	50.641680
1399.000000	50.417080
1400.000000	50.263360
1401.000000	49.981720
1402.000000	49.561580
1403.000000	49.183020
1404.000000	48.916600
1405.000000	48.619220
1406.000000	48.294120
1407.000000	47.982640
1408.000000	47.663500
1409.000000	47.362020
1410.000000	47.049760
1411.000000	46.671680
1412.000000	46.338900
1413.000000	46.098440
1414.000000	45.875540
1415.000000	45.603160
1416.000000	45.261940
1417.000000	44.993120
1418.000000	44.801500
1419.000000	44.615500
1420.000000	44.393780
1421.000000	44.132480
1422.000000	43.912220
1423.000000	43.746740
1424.000000	43.574600
1425.000000	43.377680
1426.000000	43.190600
1427.000000	43.021300
1428.000000	42.889500
1429.000000	42.739000
1430.000000	42.578080
1431.000000	42.453520
1432.000000	42.359380
1433.000000	42.233640
1434.000000	42.104540
1435.000000	41.991200
1436.000000	41.884160
1437.000000	41.796620
1438.000000	41.710920
1439.000000	41.612660
1440.000000	41.519300
1441.000000	41.421760
1442.000000	41.354660
1443.000000	41.275440
1444.000000	41.179240
1445.000000	41.134300
1446.000000	41.082600
1447.000000	40.985840
1448.000000	40.890240
1449.000000	40.810300
1450.000000	40.767380
1451.000000	40.713780
1452.000000	40.626000
1453.000000	40.548920
1454.000000	40.466900
1455.000000	40.399340
1456.000000	40.338420
1457.000000	40.262600
1458.000000	40.188660
1459.000000	40.112760
1460.000000	40.052680
1461.000000	39.989840
1462.000000	39.924640
1463.000000	39.856620
1464.000000	39.800900
1465.000000	39.733960
1466.000000	39.693020
1467.000000	39.637080
1468.000000	39.566300
1469.000000	39.514080
1470.000000	39.486700
1471.000000	39.450560
1472.000000	39.406400
1473.000000	39.360400
1474.000000	39.308480
1475.000000	39.263240
1476.000000	39.227180
1477.000000	39.210000
1478.000000	39.185720
1479.000000	39.162600
1480.000000	39.145480
1481.000000	39.125680
1482.000000	39.105980
1483.000000	39.077360
1484.000000	39.052400
1485.000000	39.036740
1486.000000	39.022620
1487.000000	39.006940
1488.000000	38.986760
1489.000000	38.977800
1490.000000	38.962360
1491.000000	38.950040
1492.000000	38.937820
1493.000000	38.930800
1494.000000	38.933980
1495.000000	38.941860
1496.000000	38.952760
1497.000000	38.966740
1498.000000	38.982680
1499.000000	39.015880
1500.000000	39.046660
1501.000000	39.076600
1502.000000	39.115900
1503.000000	39.163620
1504.000000	39.215160
1505.000000	39.264620
1506.000000	39.315580
1507.000000	39.363160
1508.000000	39.420120
1509.000000	39.478720
1510.000000	39.530180
1511.000000	39.584980
1512.000000	39.648140
1513.000000	39.709500
1514.000000	39.765020
1515.000000	39.817040
1516.000000	39.875120
1517.000000	39.919140
1518.000000	39.980840
1519.000000	40.045000
1520.000000	40.093560
1521.000000	40.141420
1522.000000	40.194160
1523.000000	40.237100
1524.000000	40.293520
1525.000000	40.347120
1526.000000	40.396200
1527.000000	40.447320
1528.000000	40.487320
1529.000000	40.536800
1530.000000	40.588200
1531.000000	40.627040
1532.000000	40.672900
1533.000000	40.712620
1534.000000	40.750100
1535.000000	40.788320
1536.000000	40.826740
1537.000000	40.851820
1538.000000	40.894940
1539.000000	40.923700
1540.000000	40.951000
1541.000000	40.992280
1542.000000	41.035680
1543.000000	41.067800
1544.000000	41.105980
1545.000000	41.146040
1546.000000	41.208960
1547.000000	41.260700
1548.000000	41.319480
1549.000000	41.383160
1550.000000	41.447540
1551.000000	41.509260
1552.000000	41.574320
1553.000000	41.639360
1554.000000	41.693020
1555.000000	41.735360
1556.000000	41.781480
1557.000000	41.827740
1558.000000	41.851400
1559.000000	41.883880
1560.000000	41.907160
1561.000000	41.930060
1562.000000	41.938820
1563.000000	41.942240
1564.000000	41.932580
1565.000000	41.940600
1566.000000	41.942780
1567.000000	41.932660
1568.000000	41.912300
1569.000000	41.911320
1570.000000	41.899620
1571.000000	41.902960
1572.000000	41.899980
1573.000000	41.899380
1574.000000	41.904140
1575.000000	41.920580
1576.000000	41.933380
1577.000000	41.946940
1578.000000	41.955820
1579.000000	41.980700
1580.000000	42.012840
1581.000000	42.044040
1582.000000	42.067600
1583.000000	42.106200
1584.000000	42.135320
1585.000000	42.180620
1586.000000	42.215080
1587.000000	42.258160
1588.000000	42.296620
1589.000000	42.336260
1590.000000	42.382040
1591.000000	42.420200
1592.000000	42.455340
1593.000000	42.511020
1594.000000	42.567320
1595.000000	42.616140
1596.000000	42.662480
1597.000000	42.711640
1598.000000	42.770320
1599.000000	42.827540
1600.000000	42.887580
1601.000000	42.961200
1602.000000	43.016440
1603.000000	43.073880
1604.000000	43.135500
1605.000000	43.190820
1606.000000	43.249460
1607.000000	43.308440
1608.000000	43.365220
1609.000000	43.421000
1610.000000	43.471260
1611.000000	43.514660
1612.000000	43.558720
1613.000000	43.597080
1614.000000	43.633680
1615.000000	43.677760
1616.000000	43.705500
1617.000000	43.744700
1618.000000	43.772440
1619.000000	43.796620
1620.000000	43.831460
1621.000000	43.859920
1622.000000	43.885420
1623.000000	43.914820
1624.000000	43.962320
1625.000000	43.997560
1626.000000	44.029800
1627.000000	44.071560
1628.000000	44.108500
1629.000000	44.141540
1630.000000	44.186100
1631.000000	44.222020
1632.000000	44.244800
1633.000000	44.274840
1634.000000	44.318100
1635.000000	44.356640
1636.000000	44.378600
1637.000000	44.387980
1638.000000	44.410560
1639.000000	44.419900
1640.000000	44.434000
1641.000000	44.439100
1642.000000	44.454820
1643.000000	44.463640
1644.000000	44.476300
1645.000000	44.494020
1646.000000	44.506880
1647.000000	44.515360
1648.000000	44.534340
1649.000000	44.525480
1650.000000	44.535900
1651.000000	44.535840
1652.000000	44.524140
1653.000000	44.505580
1654.000000	44.493180
1655.000000	44.468880
1656.000000	44.441440
1657.000000	44.411700
1658.000000	44.351420
1659.000000	44.291660
1660.000000	44.236360
1661.000000	44.171840
1662.000000	44.089760
1663.000000	43.992680
1664.000000	43.894160
1665.000000	43.802660
1666.000000	43.702380
1667.000000	43.602880
1668.000000	43.458120
1669.000000	43.333480
1670.000000	43.206860
1671.000000	43.073420
1672.000000	42.951520
1673.000000	42.818520
1674.000000	42.699060
1675.000000	42.571720
1676.000000	42.444200
1677.000000	42.310780
1678.000000	42.174860
1679.000000	42.025940
1680.000000	41.874180
1681.000000	41.717220
1682.000000	41.544340
1683.000000	41.378640
1684.000000	41.234040
1685.000000	41.073120
1686.000000	40.951440
1687.000000	40.849260
1688.000000	40.773940
1689.000000	40.748820
1690.000000	40.749300
1691.000000	40.769860
1692.000000	40.802380
1693.000000	40.838700
1694.000000	40.875640
1695.000000	40.910480
1696.000000	40.935060
1697.000000	40.945160
1698.000000	40.954200
1699.000000	40.945420
1700.000000	40.941920
1701.000000	40.926640
1702.000000	40.921560
1703.000000	40.896140
1704.000000	40.876680
1705.000000	40.842280
1706.000000	40.819120
1707.000000	40.783340
1708.000000	40.718440
1709.000000	40.646880
1710.000000	40.553160
1711.000000	40.474920
1712.000000	40.370140
1713.000000	40.256180
1714.000000	40.139180
1715.000000	39.999240
1716.000000	39.833020
1717.000000	39.688340
1718.000000	39.531980
1719.000000	39.377360
1720.000000	39.231820
1721.000000	39.105180
1722.000000	39.002800
1723.000000	38.932520
1724.000000	38.900160
1725.000000	38.877260
1726.000000	38.881800
1727.000000	38.881720
1728.000000	38.899600
1729.000000	38.916680
1730.000000	38.929420
1731.000000	38.953320
1732.000000	38.979960
1733.000000	39.007880
1734.000000	39.031560
1735.000000	39.054480
1736.000000	39.083160
1737.000000	39.120880
1738.000000	39.153980
1739.000000	39.196740
1740.000000	39.241580
1741.000000	39.281640
1742.000000	39.329700
1743.000000	39.377080
1744.000000	39.423320
1745.000000	39.467440
1746.000000	39.503280
1747.000000	39.545220
1748.000000	39.583540
1749.000000	39.609240
1750.000000	39.629180
1751.000000	39.651620
1752.000000	39.669400
1753.000000	39.666280
1754.000000	39.668780
1755.000000	39.682620
1756.000000	39.677880
1757.000000	39.680640
1758.000000	39.679460
1759.000000	39.677200
1760.000000	39.682520
1761.000000	39.682800
1762.000000	39.679000
1763.000000	39.694420
1764.000000	39.725460
1765.000000	39.744380
1766.000000	39.770640
1767.000000	39.787120
1768.000000	39.816160
1769.000000	39.843380
1770.000000	39.872240
1771.000000	39.895560
1772.000000	39.917620
1773.000000	39.948260
1774.000000	39.981440
1775.000000	40.017760
1776.000000	40.051300
1777.000000	40.069400
1778.000000	40.094220
1779.000000	40.115740
1780.000000	40.119720
1781.000000	40.137740
1782.000000	40.147040
1783.000000	40.146220
1784.000000	40.149260
1785.000000	40.162580
1786.000000	40.162560
1787.000000	40.148760
1788.000000	40.143420
1789.000000	40.137120
1790.000000	40.152440
1791.000000	40.157740
1792.000000	40.170920
1793.000000	40.187220
1794.000000	40.191300
1795.000000	40.207220
1796.000000	40.224660
1797.000000	40.247180
1798.000000	40.236700
1799.000000	40.249340
1800.000000	40.291820
1801.000000	40.330000
1802.000000	40.352280
1803.000000	40.352800
1804.000000	40.342640
1805.000000	40.366460
1806.000000	40.421140
1807.000000	40.445260
1808.000000	40.432800
1809.000000	40.425360
1810.000000	40.463900
1811.000000	40.510780
1812.000000	40.540160
1813.000000	40.538260
1814.000000	40.525940
1815.000000	40.553340
1816.000000	40.580640
1817.000000	40.575980
1818.000000	40.572880
1819.000000	40.594960
1820.000000	40.682680
1821.000000	40.710600
1822.000000	40.690360
1823.000000	40.625160
1824.000000	40.558400
1825.000000	40.566660
1826.000000	40.664300
1827.000000	40.671360
1828.000000	40.673340
1829.000000	40.723480
1830.000000	40.764680
1831.000000	40.810900
1832.000000	40.785840
1833.000000	40.797580
1834.000000	40.810700
1835.000000	40.913020
1836.000000	41.007340
1837.000000	41.019180
1838.000000	41.018320
1839.000000	41.016740
1840.000000	41.074920
1841.000000	41.123560
1842.000000	41.201980
1843.000000	41.092660
1844.000000	41.017280
1845.000000	41.004220
1846.000000	41.054260
1847.000000	41.261280
1848.000000	41.330220
1849.000000	41.182680
1850.000000	41.077080
1851.000000	41.030800
1852.000000	40.975720
1853.000000	41.049720
1854.000000	41.109280
1855.000000	40.934780
1856.000000	40.898640
1857.000000	40.937580
1858.000000	40.817020
1859.000000	40.756580
1860.000000	40.809920
1861.000000	40.672280
1862.000000	40.467780
1863.000000	40.371920
1864.000000	40.396960
1865.000000	40.285040
1866.000000	40.105300
1867.000000	40.120800
1868.000000	40.154660
1869.000000	39.943600
1870.000000	39.779100
1871.000000	39.719920
1872.000000	39.431620
1873.000000	39.250820
1874.000000	39.038900
1875.000000	38.700620
1876.000000	38.452260
1877.000000	38.263700
1878.000000	37.950600
1879.000000	37.618120
1880.000000	37.322980
1881.000000	37.068500
1882.000000	36.683700
1883.000000	36.320640
1884.000000	36.019020
1885.000000	35.565700
1886.000000	35.129820
1887.000000	34.717940
1888.000000	34.237400
1889.000000	33.816920
1890.000000	33.373200
1891.000000	32.874140
1892.000000	32.341580
1893.000000	31.803120
1894.000000	31.300740
1895.000000	30.788840
1896.000000	30.306020
1897.000000	29.865160
1898.000000	29.423820
1899.000000	28.951920
1900.000000	28.534580
1901.000000	27.907420
1902.000000	27.479360
1903.000000	27.081920
1904.000000	26.625120
1905.000000	26.271860
1906.000000	25.870300
1907.000000	25.467200
1908.000000	25.044840
1909.000000	24.707920
1910.000000	24.424360
1911.000000	24.189900
1912.000000	23.915580
1913.000000	23.655860
1914.000000	23.405200
1915.000000	23.117620
1916.000000	22.892360
1917.000000	22.675600
1918.000000	22.446780
1919.000000	22.250500
1920.000000	22.223040
1921.000000	22.080340
1922.000000	21.810420
1923.000000	21.642820
1924.000000	21.570540
1925.000000	21.435820
1926.000000	21.296300
1927.000000	21.250420
1928.000000	21.202360
1929.000000	21.111860
1930.000000	21.017680
1931.000000	20.978680
1932.000000	20.920980
1933.000000	20.885920
1934.000000	20.853020
1935.000000	20.816820
1936.000000	20.817360
1937.000000	20.852500
1938.000000	20.850200
1939.000000	20.897400
1940.000000	20.924520
1941.000000	20.938780
1942.000000	20.955640
1943.000000	20.978160
1944.000000	21.038180
1945.000000	21.100500
1946.000000	21.158000
1947.000000	21.216040
1948.000000	21.278480
1949.000000	21.357100
1950.000000	21.417440
1951.000000	21.485920
1952.000000	21.576500
1953.000000	21.671840
1954.000000	21.751440
1955.000000	21.837060
1956.000000	21.941640
1957.000000	22.009020
1958.000000	22.093980
1959.000000	22.191160
1960.000000	22.277500
1961.000000	22.350660
1962.000000	22.459720
1963.000000	22.540180
1964.000000	22.597920
1965.000000	22.685480
1966.000000	22.775860
1967.000000	22.864960
1968.000000	22.944980
1969.000000	23.032520
1970.000000	23.124980
1971.000000	23.212880
1972.000000	23.310060
1973.000000	23.378200
1974.000000	23.467020
1975.000000	23.565360
1976.000000	23.648960
1977.000000	23.739840
1978.000000	23.834340
1979.000000	23.932340
1980.000000	24.022320
1981.000000	24.108040
1982.000000	24.214880
1983.000000	24.326020
1984.000000	24.429020
1985.000000	24.535260
1986.000000	24.615940
1987.000000	24.696000
1988.000000	24.804940
1989.000000	24.894720
1990.000000	24.980660
1991.000000	25.069100
1992.000000	25.151720
1993.000000	25.231860
1994.000000	25.310040
1995.000000	25.403020
1996.000000	25.488860
1997.000000	25.562540
1998.000000	25.622540
1999.000000	25.695720
2000.000000	25.795540
2001.000000	25.859020
2002.000000	25.917160
2003.000000	25.967340
2004.000000	26.028720
2005.000000	26.064880
2006.000000	26.073120
2007.000000	26.130980
2008.000000	26.165220
2009.000000	26.167300
2010.000000	26.204800
2011.000000	26.226660
2012.000000	26.215280
2013.000000	26.228300
2014.000000	26.255380
2015.000000	26.251880
2016.000000	26.276740
2017.000000	26.263300
2018.000000	26.238680
2019.000000	26.176660
2020.000000	26.142080
2021.000000	26.156640
2022.000000	26.124040
2023.000000	26.069940
2024.000000	26.024180
2025.000000	25.982860
2026.000000	25.962720
2027.000000	25.876380
2028.000000	25.835140
2029.000000	25.767380
2030.000000	25.683360
2031.000000	25.646600
2032.000000	25.570600
2033.000000	25.468460
2034.000000	25.404880
2035.000000	25.296220
2036.000000	25.174800
2037.000000	25.079780
2038.000000	24.987500
2039.000000	24.915140
2040.000000	24.802680
2041.000000	24.676700
2042.000000	24.570780
2043.000000	24.467640
2044.000000	24.340820
2045.000000	24.225740
2046.000000	24.106060
2047.000000	23.977060
2048.000000	23.858000
2049.000000	23.805600
2050.000000	23.731780
2051.000000	23.632400
2052.000000	23.582860
2053.000000	23.592920
2054.000000	23.551000
2055.000000	23.529500
2056.000000	23.587820
2057.000000	23.580180
2058.000000	23.627540
2059.000000	23.707620
2060.000000	23.763960
2061.000000	23.870000
2062.000000	23.906900
2063.000000	23.972740
2064.000000	24.060400
2065.000000	24.154660
2066.000000	24.226220
2067.000000	24.297120
2068.000000	24.441180
2069.000000	24.459180
2070.000000	24.561260
2071.000000	24.714280
2072.000000	24.794700
2073.000000	24.902980
2074.000000	24.950620
2075.000000	24.946440
2076.000000	25.014720
2077.000000	25.098380
2078.000000	25.148960
2079.000000	25.238140
2080.000000	25.221220
2081.000000	25.307780
2082.000000	25.321860
2083.000000	25.350580
2084.000000	25.337120
2085.000000	25.323960
2086.000000	25.407120
2087.000000	25.368780
2088.000000	25.485100
2089.000000	25.459460
2090.000000	25.346800
2091.000000	25.298100
2092.000000	25.359200
2093.000000	25.374740
2094.000000	25.385920
2095.000000	25.370520
2096.000000	25.358860
2097.000000	25.383800
2098.000000	25.320360
2099.000000	25.380600
2100.000000	25.366120
2101.000000	25.328460
2102.000000	25.426260
2103.000000	25.305400
2104.000000	25.340400
2105.000000	25.374280
2106.000000	25.363220
2107.000000	25.425420
2108.000000	25.385000
2109.000000	25.413400
2110.000000	25.415280
2111.000000	25.336680
2112.000000	25.379980
2113.000000	25.328940
2114.000000	25.438640
2115.000000	25.345760
2116.000000	25.320100
2117.000000	25.317460
2118.000000	25.278980
2119.000000	25.329340
2120.000000	25.195800
2121.000000	25.238560
2122.000000	25.292080
2123.000000	25.181900
2124.000000	25.184840
2125.000000	25.109440
2126.000000	25.066380
2127.000000	25.074320
2128.000000	25.149580
2129.000000	24.962100
2130.000000	24.905700
2131.000000	24.951260
2132.000000	24.905820
2133.000000	24.648120
2134.000000	24.775820
2135.000000	24.766460
2136.000000	24.637000
2137.000000	24.585740
2138.000000	24.376500
2139.000000	24.310560
2140.000000	24.210100
2141.000000	24.137200
2142.000000	24.194100
2143.000000	23.996340
2144.000000	23.946920
2145.000000	23.804320
2146.000000	23.881260
2147.000000	23.753560
2148.000000	23.526260
2149.000000	23.633440
2150.000000	23.403760
2151.000000	23.226200
2152.000000	23.279160
2153.000000	23.180620
2154.000000	23.090480
2155.000000	23.050080
2156.000000	22.989000
2157.000000	22.869880
2158.000000	22.811660
2159.000000	22.780840
2160.000000	22.790720
2161.000000	22.654820
2162.000000	22.590160
2163.000000	22.639860
2164.000000	22.577400
2165.000000	22.317620
2166.000000	22.402260
2167.000000	22.369520
2168.000000	22.421820
2169.000000	22.393940
2170.000000	22.420820
2171.000000	22.336760
2172.000000	22.273220
2173.000000	22.336740
2174.000000	22.285120
2175.000000	22.347440
2176.000000	22.310860
2177.000000	22.300800
2178.000000	22.383760
2179.000000	22.453580
2180.000000	22.360320
2181.000000	22.332360
2182.000000	22.326460
2183.000000	22.351820
2184.000000	22.446740
2185.000000	22.445680
2186.000000	22.584360
2187.000000	22.563060
2188.000000	22.562920
2189.000000	22.629080
2190.000000	22.683320
2191.000000	22.655700
2192.000000	22.620380
2193.000000	22.616320
2194.000000	22.636180
2195.000000	22.633120
2196.000000	22.608200
2197.000000	22.708700
2198.000000	22.743180
2199.000000	22.767480
2200.000000	22.857360
2201.000000	22.900020
2202.000000	22.893760
2203.000000	22.917980
2204.000000	23.012180
2205.000000	23.020760
2206.000000	23.041200
2207.000000	23.112500
2208.000000	23.103600
2209.000000	23.135080
2210.000000	23.203740
2211.000000	23.244200
2212.000000	23.410500
2213.000000	23.443680
2214.000000	23.463580
2215.000000	23.485360
2216.000000	23.627480
2217.000000	23.763620
2218.000000	23.750720
2219.000000	23.771360
2220.000000	23.893000
2221.000000	23.908180
2222.000000	23.984260
2223.000000	24.038440
2224.000000	24.068180
2225.000000	24.160320
2226.000000	24.232100
2227.000000	24.265580
2228.000000	24.284840
2229.000000	24.336000
2230.000000	24.328820
2231.000000	24.319920
2232.000000	24.317840
2233.000000	24.411880
2234.000000	24.360000
2235.000000	24.297940
2236.000000	24.377560
2237.000000	24.355440
2238.000000	24.207580
2239.000000	24.138800
2240.000000	24.197080
2241.000000	24.113320
2242.000000	23.935540
2243.000000	23.883260
2244.000000	23.851740
2245.000000	23.710140
2246.000000	23.580260
2247.000000	23.448480
2248.000000	23.418420
2249.000000	23.310760
2250.000000	23.196580
2251.000000	22.997100
2252.000000	22.829640
2253.000000	22.790920
2254.000000	22.670040
2255.000000	22.540800
2256.000000	22.281020
2257.000000	22.078620
2258.000000	22.058140
2259.000000	21.942600
2260.000000	21.757920
2261.000000	21.663900
2262.000000	21.630500
2263.000000	21.516220
2264.000000	21.375020
2265.000000	21.342380
2266.000000	21.304800
2267.000000	21.180000
2268.000000	21.124080
2269.000000	21.159460
2270.000000	21.130520
2271.000000	21.022620
2272.000000	20.996760
2273.000000	21.070880
2274.000000	21.058320
2275.000000	21.019460
2276.000000	20.916520
2277.000000	20.890340
2278.000000	20.841840
2279.000000	20.762480
2280.000000	20.816880
2281.000000	20.831300
2282.000000	20.713200
2283.000000	20.682640
2284.000000	20.760240
2285.000000	20.707720
2286.000000	20.637180
2287.000000	20.661820
2288.000000	20.731120
2289.000000	20.656600
2290.000000	20.593900
2291.000000	20.578820
2292.000000	20.559980
2293.000000	20.587740
2294.000000	20.568560
2295.000000	20.589580
2296.000000	20.459520
2297.000000	20.409180
2298.000000	20.456580
2299.000000	20.512800
2300.000000	20.514220
2301.000000	20.482500
2302.000000	20.471920
2303.000000	20.569260
2304.000000	20.598520
2305.000000	20.466880
2306.000000	20.430660
2307.000000	20.536000
2308.000000	20.617640
2309.000000	20.621120
2310.000000	20.643900
2311.000000	20.615760
2312.000000	20.650940
2313.000000	20.726500
2314.000000	20.818080
2315.000000	20.855580
2316.000000	20.678380
2317.000000	20.765980
2318.000000	20.946840
2319.000000	20.937100
2320.000000	20.762300
2321.000000	20.824480
2322.000000	20.780940
2323.000000	20.758660
2324.000000	20.821280
2325.000000	20.792960
2326.000000	20.679620
2327.000000	20.771160
2328.000000	20.801720
2329.000000	20.574220
2330.000000	20.621500
2331.000000	20.716340
2332.000000	20.706220
2333.000000	20.649820
2334.000000	20.589480
2335.000000	20.572620
2336.000000	20.709360
2337.000000	20.560240
2338.000000	20.400920
2339.000000	20.632860
2340.000000	20.646540
2341.000000	20.696920
2342.000000	20.663860
2343.000000	20.487380
2344.000000	20.524440
2345.000000	20.441560
2346.000000	20.598780
2347.000000	20.504100
2348.000000	20.560960
2349.000000	20.624440
2350.000000	20.797500
2351.000000	20.679120
2352.000000	20.609640
2353.000000	20.682260
2354.000000	20.718680
2355.000000	20.747540
2356.000000	20.932340
2357.000000	20.781020
2358.000000	20.780620
2359.000000	20.889820
2360.000000	20.917540
2361.000000	20.737960
2362.000000	20.661520
2363.000000	20.937160
2364.000000	20.971580
2365.000000	20.733400
2366.000000	20.720760
2367.000000	20.713440
2368.000000	20.759100
2369.000000	20.788660
2370.000000	20.910500
2371.000000	20.995600
2372.000000	20.845940
2373.000000	20.815780
2374.000000	20.943140
2375.000000	20.921340
2376.000000	20.811980
2377.000000	20.926620
2378.000000	20.827400
2379.000000	21.095700
2380.000000	21.021520
2381.000000	20.946220
2382.000000	20.907780
2383.000000	20.872660
2384.000000	21.134340
2385.000000	21.022200
2386.000000	20.980080
2387.000000	20.945080
2388.000000	20.889700
2389.000000	20.885900
2390.000000	21.060780
2391.000000	21.060840
2392.000000	20.803840
2393.000000	20.941740
2394.000000	20.725800
2395.000000	20.971020
2396.000000	20.627860
2397.000000	20.833600
2398.000000	20.946660
2399.000000	20.808960
2400.000000	20.521280
2401.000000	19.564367
2402.000000	19.524500
2403.000000	19.493867
2404.000000	19.468100
2405.000000	19.433567
2406.000000	19.401400
2407.000000	19.366767
2408.000000	19.315700
2409.000000	19.258300
2410.000000	19.191367
2411.000000	19.126400
2412.000000	19.075100
2413.000000	19.032167
2414.000000	18.985667
2415.000000	18.927600
2416.000000	18.878933
2417.000000	18.827100
2418.000000	18.765233
2419.000000	18.712067
2420.000000	18.657233
2421.000000	18.601233
2422.000000	18.542533
2423.000000	18.475567
2424.000000	18.408067
2425.000000	18.341567
2426.000000	18.276767
2427.000000	18.218667
2428.000000	18.147833
2429.000000	18.071567
2430.000000	17.992267
2431.000000	17.913533
2432.000000	17.833967
2433.000000	17.745800
2434.000000	17.669467
2435.000000	17.590467
2436.000000	17.508067
2437.000000	17.421433
2438.000000	17.330800
2439.000000	17.240167
2440.000000	17.150433
2441.000000	17.070467
2442.000000	16.974567
2443.000000	16.878233
2444.000000	16.794000
2445.000000	16.703600
2446.000000	16.613300
2447.000000	16.517800
2448.000000	16.426767
2449.000000	16.342800
2450.000000	16.258000
2451.000000	16.174900
2452.000000	16.099900
2453.000000	16.010200
2454.000000	15.938700
2455.000000	15.858300
2456.000000	15.785467
2457.000000	15.725367
2458.000000	15.673933
2459.000000	15.609500
2460.000000	15.543833
2461.000000	15.494000
2462.000000	15.454733
2463.000000	15.415467
2464.000000	15.377100
2465.000000	15.323800
2466.000000	15.270967
2467.000000	15.228267
2468.000000	15.204133
2469.000000	15.173600
2470.000000	15.116167
2471.000000	15.099067
2472.000000	15.046100
2473.000000	15.030867
2474.000000	14.986333
2475.000000	14.984100
2476.000000	14.950667
2477.000000	14.945433
2478.000000	14.932867
2479.000000	14.895033
2480.000000	14.907533
2481.000000	14.872000
2482.000000	14.892900
2483.000000	14.833300
2484.000000	14.809633
2485.000000	14.852367
2486.000000	14.814900
2487.000000	14.825700
2488.000000	14.830200
2489.000000	14.814167
2490.000000	14.846333
2491.000000	14.860033
2492.000000	14.848500
2493.000000	14.851133
2494.000000	14.907300
2495.000000	14.916233
2496.000000	14.900300
2497.000000	14.914400
2498.000000	14.912467
2499.000000	14.901500
2500.000000	15.003333
