PE UV       SUBTECH     SPECTRUM    ASCII       PEDS        4.00        
   -1
CICIMAUCR0112-3.Sample.ASC
24/04/22
10:19:40.00
24/04/22
10:19:40.00
Vinicio Soto Monge
C. resplendens
250,000000
1
Lambda 1050
1050L1511233
PerkinElmer UV WinLab 6.3.2.0749 / 2.02.05 Lambda 900 UV/VIS/NIR, Aug  7 2015 09:38:08

0
0
3350/servo 860,8/2
0
0
UV/VIS
1
1
1
DoubleDePol,CommonBeamDepol,RBeamAtt,SBeamAtt,60mm sphere, WB InGaAs Detector
0
0
0
0
Program
Program
3350/servo 860,8/2
3350/0,2 860,8/0,2
3350/0,2 860,8/0,2
0
15.00
 
 
 
0
 
860,8
319,2
860,8
Front
100
on
S:100 R:100
0
0
0
0
 
0
 
 
 
0
 
 
0
0
0
0
0
 
 
 
 
0
0


0
0
#HDR
-1
-1
#GR
nm
%R
1.0
0.0
2500,000000
-1,000000
2251
8
88,787000
5,681000
#DATA
250.000000	6.253300
251.000000	6.257767
252.000000	6.237900
253.000000	6.215467
254.000000	6.205000
255.000000	6.176967
256.000000	6.201933
257.000000	6.181067
258.000000	6.160900
259.000000	6.136767
260.000000	6.090600
261.000000	6.061167
262.000000	6.035467
263.000000	6.024200
264.000000	6.026800
265.000000	6.014300
266.000000	5.963833
267.000000	5.964367
268.000000	5.916467
269.000000	5.897833
270.000000	5.874400
271.000000	5.848867
272.000000	5.818800
273.000000	5.819067
274.000000	5.814300
275.000000	5.789033
276.000000	5.774567
277.000000	5.779400
278.000000	5.737567
279.000000	5.738133
280.000000	5.724533
281.000000	5.680800
282.000000	5.719100
283.000000	5.675600
284.000000	5.687100
285.000000	5.673833
286.000000	5.657200
287.000000	5.632333
288.000000	5.632233
289.000000	5.641133
290.000000	5.640567
291.000000	5.627567
292.000000	5.650967
293.000000	5.648767
294.000000	5.626933
295.000000	5.628300
296.000000	5.609267
297.000000	5.627600
298.000000	5.602567
299.000000	5.600800
300.000000	5.593467
301.000000	5.613533
302.000000	5.581333
303.000000	5.616033
304.000000	5.595233
305.000000	5.594367
306.000000	5.591100
307.000000	5.590900
308.000000	5.612367
309.000000	5.620733
310.000000	5.581700
311.000000	5.604467
312.000000	5.602333
313.000000	5.578600
314.000000	5.564767
315.000000	5.562633
316.000000	5.550500
317.000000	5.537767
318.000000	5.506100
319.000000	5.664667
320.000000	5.583100
321.000000	5.486033
322.000000	5.705033
323.000000	5.588133
324.000000	5.575833
325.000000	5.645967
326.000000	5.589167
327.000000	5.583467
328.000000	5.592267
329.000000	5.590100
330.000000	5.541633
331.000000	5.549600
332.000000	5.604400
333.000000	5.517367
334.000000	5.570233
335.000000	5.630267
336.000000	5.592767
337.000000	5.584533
338.000000	5.510433
339.000000	5.580100
340.000000	5.556900
341.000000	5.585967
342.000000	5.599567
343.000000	5.601200
344.000000	5.544433
345.000000	5.571533
346.000000	5.588100
347.000000	5.592733
348.000000	5.585700
349.000000	5.583533
350.000000	5.589667
351.000000	5.658267
352.000000	5.658700
353.000000	5.661233
354.000000	5.693900
355.000000	5.692667
356.000000	5.698467
357.000000	5.738000
358.000000	5.769500
359.000000	5.795033
360.000000	5.793633
361.000000	5.803033
362.000000	5.805367
363.000000	5.799967
364.000000	5.845000
365.000000	5.882033
366.000000	5.901400
367.000000	5.910367
368.000000	5.941667
369.000000	5.920333
370.000000	5.953633
371.000000	5.982333
372.000000	5.957100
373.000000	5.961700
374.000000	5.973600
375.000000	6.009133
376.000000	6.052367
377.000000	6.110667
378.000000	6.136767
379.000000	6.161467
380.000000	6.179467
381.000000	6.208333
382.000000	6.232033
383.000000	6.261000
384.000000	6.296133
385.000000	6.324600
386.000000	6.348033
387.000000	6.375300
388.000000	6.414667
389.000000	6.445233
390.000000	6.467967
391.000000	6.505500
392.000000	6.546900
393.000000	6.590533
394.000000	6.628167
395.000000	6.673833
396.000000	6.723167
397.000000	6.769567
398.000000	6.823833
399.000000	6.882033
400.000000	6.951667
401.000000	7.026600
402.000000	7.107133
403.000000	7.195467
404.000000	7.298167
405.000000	7.408467
406.000000	7.520300
407.000000	7.645933
408.000000	7.787067
409.000000	7.946367
410.000000	8.124367
411.000000	8.311167
412.000000	8.517067
413.000000	8.741000
414.000000	8.980967
415.000000	9.235767
416.000000	9.517133
417.000000	9.821400
418.000000	10.138200
419.000000	10.477867
420.000000	10.833133
421.000000	11.207233
422.000000	11.608733
423.000000	12.023200
424.000000	12.455033
425.000000	12.907967
426.000000	13.373533
427.000000	13.847767
428.000000	14.331333
429.000000	14.833533
430.000000	15.349233
431.000000	15.863267
432.000000	16.375500
433.000000	16.898767
434.000000	17.429333
435.000000	17.943600
436.000000	18.454567
437.000000	18.960867
438.000000	19.457800
439.000000	19.953300
440.000000	20.435733
441.000000	20.908600
442.000000	21.369500
443.000000	21.808067
444.000000	22.242467
445.000000	22.663267
446.000000	23.062600
447.000000	23.440400
448.000000	23.787300
449.000000	24.136767
450.000000	24.471267
451.000000	24.786433
452.000000	25.092900
453.000000	25.377433
454.000000	25.651900
455.000000	25.921767
456.000000	26.170233
457.000000	26.401967
458.000000	26.640133
459.000000	26.869600
460.000000	27.074433
461.000000	27.289433
462.000000	27.490367
463.000000	27.673900
464.000000	27.868800
465.000000	28.055433
466.000000	28.228033
467.000000	28.389167
468.000000	28.547400
469.000000	28.705800
470.000000	28.871667
471.000000	29.023400
472.000000	29.170133
473.000000	29.317133
474.000000	29.453300
475.000000	29.578233
476.000000	29.698400
477.000000	29.814367
478.000000	29.910767
479.000000	29.991900
480.000000	30.079100
481.000000	30.156967
482.000000	30.220633
483.000000	30.271100
484.000000	30.296700
485.000000	30.313167
486.000000	30.324367
487.000000	30.335500
488.000000	30.349600
489.000000	30.370233
490.000000	30.396733
491.000000	30.437367
492.000000	30.497800
493.000000	30.582567
494.000000	30.684133
495.000000	30.810133
496.000000	30.976333
497.000000	31.186033
498.000000	31.418233
499.000000	31.707900
500.000000	32.050067
501.000000	32.462733
502.000000	32.942333
503.000000	33.493633
504.000000	34.126167
505.000000	34.849300
506.000000	35.648033
507.000000	36.532600
508.000000	37.492333
509.000000	38.535433
510.000000	39.643700
511.000000	40.841467
512.000000	42.070600
513.000000	43.333867
514.000000	44.634667
515.000000	45.920633
516.000000	47.224167
517.000000	48.540900
518.000000	49.818800
519.000000	51.099467
520.000000	52.365567
521.000000	53.655967
522.000000	54.915267
523.000000	56.179067
524.000000	57.433367
525.000000	58.663700
526.000000	59.870967
527.000000	61.040967
528.000000	62.217933
529.000000	63.372067
530.000000	64.501133
531.000000	65.627433
532.000000	66.723500
533.000000	67.781767
534.000000	68.832600
535.000000	69.852367
536.000000	70.811700
537.000000	71.731400
538.000000	72.599867
539.000000	73.471500
540.000000	74.299033
541.000000	75.116967
542.000000	75.899533
543.000000	76.658033
544.000000	77.363567
545.000000	78.074833
546.000000	78.758333
547.000000	79.396667
548.000000	80.015800
549.000000	80.620400
550.000000	81.189367
551.000000	81.761467
552.000000	82.305567
553.000000	82.785100
554.000000	83.277567
555.000000	83.724100
556.000000	84.150200
557.000000	84.504967
558.000000	84.884467
559.000000	85.205667
560.000000	85.566200
561.000000	85.847200
562.000000	86.124833
563.000000	86.370333
564.000000	86.583333
565.000000	86.806767
566.000000	86.985400
567.000000	87.174867
568.000000	87.335900
569.000000	87.482800
570.000000	87.623067
571.000000	87.741567
572.000000	87.830900
573.000000	87.951200
574.000000	88.049433
575.000000	88.141033
576.000000	88.204867
577.000000	88.250300
578.000000	88.268867
579.000000	88.298667
580.000000	88.276533
581.000000	88.260067
582.000000	88.256800
583.000000	88.184300
584.000000	88.081300
585.000000	87.969433
586.000000	87.833833
587.000000	87.696067
588.000000	87.490000
589.000000	87.323300
590.000000	87.073500
591.000000	86.800067
592.000000	86.491167
593.000000	86.199567
594.000000	85.848000
595.000000	85.477567
596.000000	85.074467
597.000000	84.622667
598.000000	84.189767
599.000000	83.676833
600.000000	83.184300
601.000000	82.612833
602.000000	82.052867
603.000000	81.435700
604.000000	80.823133
605.000000	80.191533
606.000000	79.560400
607.000000	78.879067
608.000000	78.182733
609.000000	77.490633
610.000000	76.719533
611.000000	75.959100
612.000000	75.117633
613.000000	74.224233
614.000000	73.304467
615.000000	72.297067
616.000000	71.305867
617.000000	70.235967
618.000000	69.162867
619.000000	68.098333
620.000000	67.019533
621.000000	65.938133
622.000000	64.912200
623.000000	63.936533
624.000000	63.005933
625.000000	62.153367
626.000000	61.333833
627.000000	60.560633
628.000000	59.827300
629.000000	59.103533
630.000000	58.359433
631.000000	57.596000
632.000000	56.867100
633.000000	56.091567
634.000000	55.341000
635.000000	54.601100
636.000000	53.897500
637.000000	53.270567
638.000000	52.675367
639.000000	52.182767
640.000000	51.809067
641.000000	51.552200
642.000000	51.401100
643.000000	51.416067
644.000000	51.549067
645.000000	51.789533
646.000000	52.131233
647.000000	52.542433
648.000000	53.005133
649.000000	53.498467
650.000000	54.005733
651.000000	54.558900
652.000000	55.058033
653.000000	55.553100
654.000000	56.048600
655.000000	56.550400
656.000000	57.019100
657.000000	57.501167
658.000000	58.026133
659.000000	58.573900
660.000000	59.158233
661.000000	59.758767
662.000000	60.417400
663.000000	61.096433
664.000000	61.767733
665.000000	62.456500
666.000000	63.123167
667.000000	63.739100
668.000000	64.336400
669.000000	64.877700
670.000000	65.346900
671.000000	65.768067
672.000000	66.102867
673.000000	66.438367
674.000000	66.681233
675.000000	66.885033
676.000000	67.050700
677.000000	67.206133
678.000000	67.396967
679.000000	67.598333
680.000000	67.765833
681.000000	67.971067
682.000000	68.195667
683.000000	68.382900
684.000000	68.634067
685.000000	68.873167
686.000000	69.096367
687.000000	69.292867
688.000000	69.451967
689.000000	69.581233
690.000000	69.695367
691.000000	69.756800
692.000000	69.759800
693.000000	69.749200
694.000000	69.723367
695.000000	69.676600
696.000000	69.604567
697.000000	69.566167
698.000000	69.491267
699.000000	69.443700
700.000000	69.431833
701.000000	69.427133
702.000000	69.435467
703.000000	69.455833
704.000000	69.528133
705.000000	69.567467
706.000000	69.637167
707.000000	69.691400
708.000000	69.753367
709.000000	69.855800
710.000000	69.942900
711.000000	70.020367
712.000000	70.088633
713.000000	70.184933
714.000000	70.272400
715.000000	70.367300
716.000000	70.486567
717.000000	70.603267
718.000000	70.752533
719.000000	70.933867
720.000000	71.169400
721.000000	71.450167
722.000000	71.720433
723.000000	72.017567
724.000000	72.344800
725.000000	72.707733
726.000000	73.090267
727.000000	73.479567
728.000000	73.884333
729.000000	74.318267
730.000000	74.765667
731.000000	75.231667
732.000000	75.667333
733.000000	76.122900
734.000000	76.591000
735.000000	77.022633
736.000000	77.450533
737.000000	77.869100
738.000000	78.274767
739.000000	78.679000
740.000000	79.090800
741.000000	79.509600
742.000000	79.942933
743.000000	80.390033
744.000000	80.798300
745.000000	81.186500
746.000000	81.612100
747.000000	82.001333
748.000000	82.398700
749.000000	82.803200
750.000000	83.156167
751.000000	83.511700
752.000000	83.870367
753.000000	84.212700
754.000000	84.470033
755.000000	84.723267
756.000000	84.981767
757.000000	85.181200
758.000000	85.404067
759.000000	85.583667
760.000000	85.780600
761.000000	85.998067
762.000000	86.163633
763.000000	86.330067
764.000000	86.439633
765.000000	86.497667
766.000000	86.571800
767.000000	86.683900
768.000000	86.798100
769.000000	86.876367
770.000000	86.948800
771.000000	86.974467
772.000000	87.064633
773.000000	87.168200
774.000000	87.163600
775.000000	87.196067
776.000000	87.267000
777.000000	87.264833
778.000000	87.300367
779.000000	87.410833
780.000000	87.448633
781.000000	87.466867
782.000000	87.494767
783.000000	87.559233
784.000000	87.634933
785.000000	87.692033
786.000000	87.756233
787.000000	87.764700
788.000000	87.864367
789.000000	87.962167
790.000000	87.981700
791.000000	88.101300
792.000000	88.162633
793.000000	88.113700
794.000000	88.166267
795.000000	88.234600
796.000000	88.274067
797.000000	88.296300
798.000000	88.335567
799.000000	88.393100
800.000000	88.430967
801.000000	88.374533
802.000000	88.354600
803.000000	88.358567
804.000000	88.327867
805.000000	88.368267
806.000000	88.389033
807.000000	88.371900
808.000000	88.277633
809.000000	88.282400
810.000000	88.353600
811.000000	88.282533
812.000000	88.205567
813.000000	88.224433
814.000000	88.172100
815.000000	88.177267
816.000000	88.303067
817.000000	88.248167
818.000000	88.235600
819.000000	88.201133
820.000000	88.222400
821.000000	88.238367
822.000000	88.193867
823.000000	88.243033
824.000000	88.363400
825.000000	88.414600
826.000000	88.374033
827.000000	88.397867
828.000000	88.318433
829.000000	88.289267
830.000000	88.235167
831.000000	88.252467
832.000000	88.218667
833.000000	88.090900
834.000000	88.166767
835.000000	88.072333
836.000000	87.771133
837.000000	87.676600
838.000000	87.503633
839.000000	87.409400
840.000000	87.306133
841.000000	86.987533
842.000000	86.764233
843.000000	86.745133
844.000000	86.418133
845.000000	86.158133
846.000000	85.948500
847.000000	85.781700
848.000000	85.511367
849.000000	85.124200
850.000000	84.894967
851.000000	84.807433
852.000000	84.535133
853.000000	84.101667
854.000000	84.050067
855.000000	83.803567
856.000000	83.562700
857.000000	83.214467
858.000000	83.526911
859.000000	83.244321
860.000000	83.242938
861.000000	83.213659
862.000000	83.118250
863.000000	83.037977
864.000000	82.950227
865.000000	82.848300
866.000000	82.754867
867.000000	82.643675
868.000000	82.558433
869.000000	82.472034
870.000000	82.382241
871.000000	82.297758
872.000000	82.254904
873.000000	82.202911
874.000000	82.171060
875.000000	82.135776
876.000000	82.098755
877.000000	82.047659
878.000000	82.014179
879.000000	82.004400
880.000000	81.980912
881.000000	81.962700
882.000000	81.952233
883.000000	81.907306
884.000000	81.873669
885.000000	81.843083
886.000000	81.826140
887.000000	81.784611
888.000000	81.726703
889.000000	81.678679
890.000000	81.605126
891.000000	81.536992
892.000000	81.448618
893.000000	81.370654
894.000000	81.297025
895.000000	81.218387
896.000000	81.135467
897.000000	81.023976
898.000000	80.925389
899.000000	80.822327
900.000000	80.707580
901.000000	80.600595
902.000000	80.491582
903.000000	80.387090
904.000000	80.275556
905.000000	80.207742
906.000000	80.098775
907.000000	80.028445
908.000000	79.936862
909.000000	79.876876
910.000000	79.814965
911.000000	79.761628
912.000000	79.713559
913.000000	79.654875
914.000000	79.639475
915.000000	79.540471
916.000000	79.504500
917.000000	79.494667
918.000000	79.462524
919.000000	79.434179
920.000000	79.345043
921.000000	79.302189
922.000000	79.254288
923.000000	79.212111
924.000000	79.171419
925.000000	79.153477
926.000000	79.074137
927.000000	79.033583
928.000000	78.996904
929.000000	78.978637
930.000000	78.905981
931.000000	78.862974
932.000000	78.846949
933.000000	78.777536
934.000000	78.731382
935.000000	78.686377
936.000000	78.653134
937.000000	78.593622
938.000000	78.521373
939.000000	78.501047
940.000000	78.475015
941.000000	78.393197
942.000000	78.352585
943.000000	78.324247
944.000000	78.284540
945.000000	78.245815
946.000000	78.204148
947.000000	78.155050
948.000000	78.097151
949.000000	78.055723
950.000000	78.000220
951.000000	77.933783
952.000000	77.892410
953.000000	77.807979
954.000000	77.756906
955.000000	77.701006
956.000000	77.619052
957.000000	77.530879
958.000000	77.451873
959.000000	77.364169
960.000000	77.263534
961.000000	77.175669
962.000000	77.084644
963.000000	76.981687
964.000000	76.901230
965.000000	76.807749
966.000000	76.721844
967.000000	76.643115
968.000000	76.563320
969.000000	76.471294
970.000000	76.394033
971.000000	76.314257
972.000000	76.230889
973.000000	76.139428
974.000000	76.055079
975.000000	75.968710
976.000000	75.880451
977.000000	75.786399
978.000000	75.706823
979.000000	75.616835
980.000000	75.519413
981.000000	75.432748
982.000000	75.348268
983.000000	75.271965
984.000000	75.187534
985.000000	75.091510
986.000000	75.003200
987.000000	74.923383
988.000000	74.840118
989.000000	74.756664
990.000000	74.685902
991.000000	74.606801
992.000000	74.528960
993.000000	74.462510
994.000000	74.388061
995.000000	74.320684
996.000000	74.248208
997.000000	74.174476
998.000000	74.113530
999.000000	74.049008
1000.000000	73.992561
1001.000000	73.942455
1002.000000	73.886111
1003.000000	73.821302
1004.000000	73.762560
1005.000000	73.711505
1006.000000	73.652765
1007.000000	73.592136
1008.000000	73.531849
1009.000000	73.468690
1010.000000	73.416368
1011.000000	73.362850
1012.000000	73.321451
1013.000000	73.285377
1014.000000	73.250623
1015.000000	73.231619
1016.000000	73.217417
1017.000000	73.207398
1018.000000	73.206324
1019.000000	73.200976
1020.000000	73.194263
1021.000000	73.208076
1022.000000	73.227936
1023.000000	73.241585
1024.000000	73.258453
1025.000000	73.272571
1026.000000	73.290225
1027.000000	73.321356
1028.000000	73.342194
1029.000000	73.350797
1030.000000	73.367587
1031.000000	73.397009
1032.000000	73.415346
1033.000000	73.417378
1034.000000	73.434995
1035.000000	73.457108
1036.000000	73.461005
1037.000000	73.475371
1038.000000	73.493543
1039.000000	73.496177
1040.000000	73.499348
1041.000000	73.511829
1042.000000	73.524524
1043.000000	73.528588
1044.000000	73.537739
1045.000000	73.558486
1046.000000	73.583089
1047.000000	73.596839
1048.000000	73.608051
1049.000000	73.637122
1050.000000	73.673798
1051.000000	73.698817
1052.000000	73.727826
1053.000000	73.770955
1054.000000	73.824727
1055.000000	73.873008
1056.000000	73.912404
1057.000000	73.960619
1058.000000	74.023954
1059.000000	74.081962
1060.000000	74.129771
1061.000000	74.181650
1062.000000	74.236219
1063.000000	74.285665
1064.000000	74.335013
1065.000000	74.390299
1066.000000	74.442795
1067.000000	74.488975
1068.000000	74.545462
1069.000000	74.599455
1070.000000	74.653258
1071.000000	74.712390
1072.000000	74.761716
1073.000000	74.807458
1074.000000	74.850065
1075.000000	74.905226
1076.000000	74.966235
1077.000000	75.022690
1078.000000	75.080788
1079.000000	75.126708
1080.000000	75.178631
1081.000000	75.242211
1082.000000	75.303077
1083.000000	75.354944
1084.000000	75.407112
1085.000000	75.463833
1086.000000	75.528549
1087.000000	75.585650
1088.000000	75.637165
1089.000000	75.683416
1090.000000	75.746351
1091.000000	75.798171
1092.000000	75.853531
1093.000000	75.903719
1094.000000	75.952858
1095.000000	75.997882
1096.000000	76.041301
1097.000000	76.088759
1098.000000	76.114234
1099.000000	76.145639
1100.000000	76.187124
1101.000000	76.227564
1102.000000	76.250316
1103.000000	76.275457
1104.000000	76.310219
1105.000000	76.336747
1106.000000	76.357145
1107.000000	76.373054
1108.000000	76.384137
1109.000000	76.405885
1110.000000	76.439396
1111.000000	76.459515
1112.000000	76.473810
1113.000000	76.505639
1114.000000	76.511870
1115.000000	76.537706
1116.000000	76.554260
1117.000000	76.570885
1118.000000	76.579340
1119.000000	76.593451
1120.000000	76.572406
1121.000000	76.543958
1122.000000	76.520209
1123.000000	76.473506
1124.000000	76.413230
1125.000000	76.343711
1126.000000	76.274773
1127.000000	76.174912
1128.000000	76.057955
1129.000000	75.912672
1130.000000	75.730365
1131.000000	75.495674
1132.000000	75.225705
1133.000000	74.939887
1134.000000	74.703799
1135.000000	74.376299
1136.000000	73.989967
1137.000000	73.575010
1138.000000	73.157322
1139.000000	72.771750
1140.000000	72.407897
1141.000000	72.054158
1142.000000	71.687465
1143.000000	71.344641
1144.000000	71.048269
1145.000000	70.773125
1146.000000	70.561622
1147.000000	70.424909
1148.000000	70.372377
1149.000000	70.347420
1150.000000	70.361160
1151.000000	70.377934
1152.000000	70.390775
1153.000000	70.376572
1154.000000	70.293970
1155.000000	70.159402
1156.000000	69.964318
1157.000000	69.716946
1158.000000	69.420439
1159.000000	69.070912
1160.000000	68.699246
1161.000000	68.339441
1162.000000	67.938936
1163.000000	67.544925
1164.000000	67.129058
1165.000000	66.720330
1166.000000	66.312612
1167.000000	65.907968
1168.000000	65.527825
1169.000000	65.135424
1170.000000	64.755388
1171.000000	64.385551
1172.000000	64.015817
1173.000000	63.660628
1174.000000	63.350493
1175.000000	63.026798
1176.000000	62.720698
1177.000000	62.401375
1178.000000	62.037750
1179.000000	61.613362
1180.000000	61.155803
1181.000000	60.632504
1182.000000	60.119684
1183.000000	59.638939
1184.000000	59.241838
1185.000000	58.971150
1186.000000	58.841817
1187.000000	58.830290
1188.000000	58.951662
1189.000000	59.219347
1190.000000	59.583864
1191.000000	60.039372
1192.000000	60.524291
1193.000000	60.998529
1194.000000	61.420276
1195.000000	61.781625
1196.000000	62.090502
1197.000000	62.311884
1198.000000	62.491930
1199.000000	62.633216
1200.000000	62.731357
1201.000000	62.805080
1202.000000	62.856769
1203.000000	62.895475
1204.000000	62.927135
1205.000000	62.952916
1206.000000	63.002023
1207.000000	63.046017
1208.000000	63.127430
1209.000000	63.197496
1210.000000	63.300239
1211.000000	63.405883
1212.000000	63.521373
1213.000000	63.633351
1214.000000	63.749428
1215.000000	63.877462
1216.000000	64.000780
1217.000000	64.137656
1218.000000	64.274607
1219.000000	64.412429
1220.000000	64.570316
1221.000000	64.748085
1222.000000	64.916413
1223.000000	65.089023
1224.000000	65.266416
1225.000000	65.474335
1226.000000	65.671872
1227.000000	65.858054
1228.000000	66.051196
1229.000000	66.247508
1230.000000	66.446428
1231.000000	66.647197
1232.000000	66.848707
1233.000000	67.048430
1234.000000	67.247603
1235.000000	67.446544
1236.000000	67.630933
1237.000000	67.825086
1238.000000	68.021184
1239.000000	68.209154
1240.000000	68.374382
1241.000000	68.563717
1242.000000	68.745749
1243.000000	68.903582
1244.000000	69.069140
1245.000000	69.231737
1246.000000	69.384296
1247.000000	69.524279
1248.000000	69.656229
1249.000000	69.771823
1250.000000	69.878793
1251.000000	69.983659
1252.000000	70.080052
1253.000000	70.161627
1254.000000	70.249704
1255.000000	70.314835
1256.000000	70.389770
1257.000000	70.455198
1258.000000	70.519682
1259.000000	70.584153
1260.000000	70.636374
1261.000000	70.687664
1262.000000	70.740208
1263.000000	70.793554
1264.000000	70.854174
1265.000000	70.914155
1266.000000	70.976740
1267.000000	71.033257
1268.000000	71.081943
1269.000000	71.148710
1270.000000	71.201771
1271.000000	71.254009
1272.000000	71.315321
1273.000000	71.372201
1274.000000	71.426150
1275.000000	71.486064
1276.000000	71.558907
1277.000000	71.630627
1278.000000	71.711698
1279.000000	71.794556
1280.000000	71.880712
1281.000000	71.970868
1282.000000	72.062260
1283.000000	72.155052
1284.000000	72.251630
1285.000000	72.339439
1286.000000	72.425839
1287.000000	72.513687
1288.000000	72.588033
1289.000000	72.655777
1290.000000	72.722005
1291.000000	72.776799
1292.000000	72.825222
1293.000000	72.873077
1294.000000	72.908752
1295.000000	72.941113
1296.000000	72.976014
1297.000000	73.007211
1298.000000	73.023255
1299.000000	73.033245
1300.000000	73.053846
1301.000000	73.071327
1302.000000	73.079635
1303.000000	73.087361
1304.000000	73.089797
1305.000000	73.087332
1306.000000	73.076509
1307.000000	73.057243
1308.000000	73.032917
1309.000000	73.003204
1310.000000	72.964464
1311.000000	72.921706
1312.000000	72.870424
1313.000000	72.817916
1314.000000	72.759892
1315.000000	72.692524
1316.000000	72.619487
1317.000000	72.543705
1318.000000	72.466444
1319.000000	72.383160
1320.000000	72.299395
1321.000000	72.209008
1322.000000	72.109974
1323.000000	72.012786
1324.000000	71.913742
1325.000000	71.801180
1326.000000	71.672810
1327.000000	71.538096
1328.000000	71.402978
1329.000000	71.254853
1330.000000	71.107422
1331.000000	70.947458
1332.000000	70.764344
1333.000000	70.574861
1334.000000	70.369556
1335.000000	70.152359
1336.000000	69.934729
1337.000000	69.700559
1338.000000	69.444182
1339.000000	69.177337
1340.000000	68.906589
1341.000000	68.603180
1342.000000	68.288247
1343.000000	67.963966
1344.000000	67.618518
1345.000000	67.239057
1346.000000	66.830934
1347.000000	66.453974
1348.000000	66.033528
1349.000000	65.556839
1350.000000	65.046064
1351.000000	64.482961
1352.000000	63.867148
1353.000000	63.215886
1354.000000	62.659644
1355.000000	62.104968
1356.000000	61.622865
1357.000000	61.262948
1358.000000	61.044390
1359.000000	60.906397
1360.000000	60.818961
1361.000000	60.824625
1362.000000	60.753294
1363.000000	60.584206
1364.000000	60.378852
1365.000000	60.218172
1366.000000	59.993018
1367.000000	59.756523
1368.000000	59.535403
1369.000000	59.233367
1370.000000	58.882906
1371.000000	58.544944
1372.000000	58.180976
1373.000000	57.790470
1374.000000	57.408634
1375.000000	57.113390
1376.000000	56.911984
1377.000000	56.762796
1378.000000	56.661365
1379.000000	56.618104
1380.000000	56.552477
1381.000000	56.495401
1382.000000	56.337102
1383.000000	56.067991
1384.000000	55.695490
1385.000000	55.309750
1386.000000	54.865097
1387.000000	54.502997
1388.000000	54.215664
1389.000000	53.890725
1390.000000	53.580702
1391.000000	53.368534
1392.000000	53.212792
1393.000000	53.013669
1394.000000	52.825326
1395.000000	52.715817
1396.000000	52.570508
1397.000000	52.242435
1398.000000	51.918468
1399.000000	51.684738
1400.000000	51.460485
1401.000000	51.118561
1402.000000	50.590172
1403.000000	50.105828
1404.000000	49.689138
1405.000000	49.262959
1406.000000	48.807233
1407.000000	48.363709
1408.000000	47.936400
1409.000000	47.505460
1410.000000	47.118138
1411.000000	46.707927
1412.000000	46.327275
1413.000000	46.065810
1414.000000	45.835553
1415.000000	45.555155
1416.000000	45.193385
1417.000000	44.849061
1418.000000	44.616411
1419.000000	44.360984
1420.000000	44.072970
1421.000000	43.723979
1422.000000	43.389609
1423.000000	43.108958
1424.000000	42.839097
1425.000000	42.534074
1426.000000	42.238530
1427.000000	41.955195
1428.000000	41.711882
1429.000000	41.468856
1430.000000	41.224034
1431.000000	41.002579
1432.000000	40.833229
1433.000000	40.662547
1434.000000	40.451094
1435.000000	40.271531
1436.000000	40.083974
1437.000000	39.911228
1438.000000	39.778476
1439.000000	39.597219
1440.000000	39.427625
1441.000000	39.251094
1442.000000	39.091652
1443.000000	38.915950
1444.000000	38.737331
1445.000000	38.607024
1446.000000	38.461057
1447.000000	38.263792
1448.000000	38.076739
1449.000000	37.894835
1450.000000	37.788589
1451.000000	37.658879
1452.000000	37.496384
1453.000000	37.335803
1454.000000	37.172245
1455.000000	37.035195
1456.000000	36.906185
1457.000000	36.758225
1458.000000	36.621646
1459.000000	36.490396
1460.000000	36.366601
1461.000000	36.258356
1462.000000	36.136705
1463.000000	36.019528
1464.000000	35.915501
1465.000000	35.815458
1466.000000	35.732814
1467.000000	35.652118
1468.000000	35.553388
1469.000000	35.462801
1470.000000	35.395091
1471.000000	35.341189
1472.000000	35.256105
1473.000000	35.160872
1474.000000	35.075125
1475.000000	34.987970
1476.000000	34.905479
1477.000000	34.843206
1478.000000	34.786703
1479.000000	34.718563
1480.000000	34.661126
1481.000000	34.623345
1482.000000	34.570815
1483.000000	34.516646
1484.000000	34.476171
1485.000000	34.442623
1486.000000	34.416457
1487.000000	34.399508
1488.000000	34.366474
1489.000000	34.349657
1490.000000	34.314308
1491.000000	34.294184
1492.000000	34.281915
1493.000000	34.262431
1494.000000	34.239901
1495.000000	34.226878
1496.000000	34.236403
1497.000000	34.236942
1498.000000	34.236558
1499.000000	34.253198
1500.000000	34.265561
1501.000000	34.288497
1502.000000	34.309106
1503.000000	34.341584
1504.000000	34.380015
1505.000000	34.422725
1506.000000	34.461284
1507.000000	34.504734
1508.000000	34.546179
1509.000000	34.595101
1510.000000	34.632182
1511.000000	34.677717
1512.000000	34.727981
1513.000000	34.782979
1514.000000	34.821839
1515.000000	34.854708
1516.000000	34.894869
1517.000000	34.936819
1518.000000	34.977922
1519.000000	35.012892
1520.000000	35.053550
1521.000000	35.102220
1522.000000	35.138359
1523.000000	35.166182
1524.000000	35.207959
1525.000000	35.242423
1526.000000	35.266964
1527.000000	35.297229
1528.000000	35.332256
1529.000000	35.358004
1530.000000	35.387758
1531.000000	35.412619
1532.000000	35.436786
1533.000000	35.456284
1534.000000	35.474155
1535.000000	35.488064
1536.000000	35.497707
1537.000000	35.497279
1538.000000	35.506989
1539.000000	35.516735
1540.000000	35.517331
1541.000000	35.515315
1542.000000	35.516106
1543.000000	35.525661
1544.000000	35.532634
1545.000000	35.547141
1546.000000	35.579922
1547.000000	35.603891
1548.000000	35.626839
1549.000000	35.663604
1550.000000	35.692926
1551.000000	35.723386
1552.000000	35.754757
1553.000000	35.773576
1554.000000	35.790471
1555.000000	35.806978
1556.000000	35.811610
1557.000000	35.812557
1558.000000	35.811482
1559.000000	35.799568
1560.000000	35.779610
1561.000000	35.758081
1562.000000	35.732682
1563.000000	35.700994
1564.000000	35.663581
1565.000000	35.625505
1566.000000	35.587253
1567.000000	35.543539
1568.000000	35.498645
1569.000000	35.454389
1570.000000	35.419386
1571.000000	35.381611
1572.000000	35.346375
1573.000000	35.317511
1574.000000	35.290561
1575.000000	35.275980
1576.000000	35.265233
1577.000000	35.256474
1578.000000	35.255886
1579.000000	35.261417
1580.000000	35.270354
1581.000000	35.285161
1582.000000	35.304674
1583.000000	35.331141
1584.000000	35.367168
1585.000000	35.400019
1586.000000	35.443400
1587.000000	35.485501
1588.000000	35.533896
1589.000000	35.582090
1590.000000	35.633935
1591.000000	35.682156
1592.000000	35.738685
1593.000000	35.796371
1594.000000	35.856424
1595.000000	35.926367
1596.000000	36.000879
1597.000000	36.076760
1598.000000	36.158999
1599.000000	36.242775
1600.000000	36.328687
1601.000000	36.412118
1602.000000	36.506008
1603.000000	36.600827
1604.000000	36.685690
1605.000000	36.780379
1606.000000	36.888303
1607.000000	36.982130
1608.000000	37.074522
1609.000000	37.165475
1610.000000	37.253792
1611.000000	37.350959
1612.000000	37.435253
1613.000000	37.517457
1614.000000	37.603392
1615.000000	37.701737
1616.000000	37.795153
1617.000000	37.893761
1618.000000	37.992019
1619.000000	38.073149
1620.000000	38.159622
1621.000000	38.259908
1622.000000	38.350319
1623.000000	38.447178
1624.000000	38.553818
1625.000000	38.653052
1626.000000	38.759554
1627.000000	38.867838
1628.000000	38.969261
1629.000000	39.066876
1630.000000	39.171965
1631.000000	39.279199
1632.000000	39.375732
1633.000000	39.471428
1634.000000	39.563397
1635.000000	39.657217
1636.000000	39.746037
1637.000000	39.826397
1638.000000	39.911303
1639.000000	39.985386
1640.000000	40.058628
1641.000000	40.130132
1642.000000	40.206782
1643.000000	40.273537
1644.000000	40.342136
1645.000000	40.410222
1646.000000	40.470579
1647.000000	40.532270
1648.000000	40.591372
1649.000000	40.643753
1650.000000	40.688830
1651.000000	40.734618
1652.000000	40.767192
1653.000000	40.779407
1654.000000	40.803797
1655.000000	40.825311
1656.000000	40.816241
1657.000000	40.800626
1658.000000	40.774039
1659.000000	40.742093
1660.000000	40.700491
1661.000000	40.647952
1662.000000	40.563684
1663.000000	40.483600
1664.000000	40.386129
1665.000000	40.263626
1666.000000	40.132206
1667.000000	40.000403
1668.000000	39.826745
1669.000000	39.629269
1670.000000	39.393962
1671.000000	39.144082
1672.000000	38.865211
1673.000000	38.554072
1674.000000	38.192449
1675.000000	37.783971
1676.000000	37.315935
1677.000000	36.788031
1678.000000	36.211415
1679.000000	35.573965
1680.000000	34.918456
1681.000000	34.256274
1682.000000	33.670630
1683.000000	33.194235
1684.000000	32.850411
1685.000000	32.642427
1686.000000	32.524680
1687.000000	32.469492
1688.000000	32.422324
1689.000000	32.363265
1690.000000	32.230705
1691.000000	32.111971
1692.000000	31.956551
1693.000000	31.787409
1694.000000	31.682512
1695.000000	31.624053
1696.000000	31.625564
1697.000000	31.674671
1698.000000	31.777999
1699.000000	31.934403
1700.000000	32.105002
1701.000000	32.264461
1702.000000	32.413854
1703.000000	32.542878
1704.000000	32.635011
1705.000000	32.697009
1706.000000	32.742373
1707.000000	32.759153
1708.000000	32.762845
1709.000000	32.747658
1710.000000	32.740840
1711.000000	32.671420
1712.000000	32.608591
1713.000000	32.525753
1714.000000	32.411666
1715.000000	32.283253
1716.000000	32.160445
1717.000000	32.015860
1718.000000	31.886999
1719.000000	31.794547
1720.000000	31.700724
1721.000000	31.621622
1722.000000	31.567302
1723.000000	31.516992
1724.000000	31.485112
1725.000000	31.444683
1726.000000	31.383248
1727.000000	31.315154
1728.000000	31.229160
1729.000000	31.142499
1730.000000	31.029669
1731.000000	30.940174
1732.000000	30.874337
1733.000000	30.831045
1734.000000	30.825616
1735.000000	30.871622
1736.000000	30.978134
1737.000000	31.138296
1738.000000	31.343303
1739.000000	31.586475
1740.000000	31.864785
1741.000000	32.152460
1742.000000	32.439198
1743.000000	32.701578
1744.000000	32.956651
1745.000000	33.182441
1746.000000	33.375231
1747.000000	33.545349
1748.000000	33.691404
1749.000000	33.809793
1750.000000	33.903179
1751.000000	33.981542
1752.000000	34.044527
1753.000000	34.079104
1754.000000	34.104714
1755.000000	34.102603
1756.000000	34.086226
1757.000000	34.046666
1758.000000	33.998282
1759.000000	33.932731
1760.000000	33.854645
1761.000000	33.798173
1762.000000	33.768455
1763.000000	33.755121
1764.000000	33.767089
1765.000000	33.805721
1766.000000	33.903032
1767.000000	34.015768
1768.000000	34.141599
1769.000000	34.285399
1770.000000	34.444200
1771.000000	34.601040
1772.000000	34.760438
1773.000000	34.921867
1774.000000	35.097259
1775.000000	35.254094
1776.000000	35.405951
1777.000000	35.550127
1778.000000	35.688168
1779.000000	35.802407
1780.000000	35.911452
1781.000000	36.011562
1782.000000	36.117587
1783.000000	36.196885
1784.000000	36.292733
1785.000000	36.393169
1786.000000	36.476998
1787.000000	36.564939
1788.000000	36.634008
1789.000000	36.697460
1790.000000	36.763388
1791.000000	36.833732
1792.000000	36.903115
1793.000000	36.964513
1794.000000	37.037836
1795.000000	37.100354
1796.000000	37.158487
1797.000000	37.217612
1798.000000	37.268367
1799.000000	37.322585
1800.000000	37.382220
1801.000000	37.466253
1802.000000	37.544159
1803.000000	37.592615
1804.000000	37.633741
1805.000000	37.695472
1806.000000	37.775084
1807.000000	37.839831
1808.000000	37.881638
1809.000000	37.927324
1810.000000	37.980466
1811.000000	38.047007
1812.000000	38.101022
1813.000000	38.131305
1814.000000	38.152464
1815.000000	38.167140
1816.000000	38.190334
1817.000000	38.186294
1818.000000	38.184497
1819.000000	38.223109
1820.000000	38.286364
1821.000000	38.338609
1822.000000	38.358802
1823.000000	38.336851
1824.000000	38.314123
1825.000000	38.369161
1826.000000	38.458368
1827.000000	38.536409
1828.000000	38.626114
1829.000000	38.738836
1830.000000	38.832532
1831.000000	38.928364
1832.000000	39.016514
1833.000000	39.091844
1834.000000	39.174861
1835.000000	39.300191
1836.000000	39.428238
1837.000000	39.529958
1838.000000	39.612824
1839.000000	39.669601
1840.000000	39.741301
1841.000000	39.817735
1842.000000	39.891991
1843.000000	39.904985
1844.000000	39.883299
1845.000000	39.927425
1846.000000	40.024139
1847.000000	40.160948
1848.000000	40.300940
1849.000000	40.396544
1850.000000	40.406308
1851.000000	40.425411
1852.000000	40.475065
1853.000000	40.541274
1854.000000	40.638654
1855.000000	40.707555
1856.000000	40.742443
1857.000000	40.773685
1858.000000	40.798899
1859.000000	40.816562
1860.000000	40.827906
1861.000000	40.798101
1862.000000	40.751968
1863.000000	40.690921
1864.000000	40.622169
1865.000000	40.572466
1866.000000	40.528141
1867.000000	40.480647
1868.000000	40.415161
1869.000000	40.290679
1870.000000	40.138082
1871.000000	39.977647
1872.000000	39.752086
1873.000000	39.467103
1874.000000	39.159041
1875.000000	38.821228
1876.000000	38.453239
1877.000000	38.062609
1878.000000	37.622724
1879.000000	37.171478
1880.000000	36.700321
1881.000000	36.240486
1882.000000	35.726400
1883.000000	35.220739
1884.000000	34.716654
1885.000000	34.186681
1886.000000	33.686505
1887.000000	33.232148
1888.000000	32.819005
1889.000000	32.403179
1890.000000	32.007795
1891.000000	31.620767
1892.000000	31.199056
1893.000000	30.747336
1894.000000	30.321153
1895.000000	29.914637
1896.000000	29.536427
1897.000000	29.186853
1898.000000	28.797486
1899.000000	28.378424
1900.000000	27.966937
1901.000000	27.525318
1902.000000	27.116912
1903.000000	26.754186
1904.000000	26.385809
1905.000000	26.003620
1906.000000	25.589225
1907.000000	25.167451
1908.000000	24.795894
1909.000000	24.454584
1910.000000	24.165853
1911.000000	23.871251
1912.000000	23.588665
1913.000000	23.276941
1914.000000	22.957683
1915.000000	22.626370
1916.000000	22.340978
1917.000000	22.080975
1918.000000	21.845801
1919.000000	21.618470
1920.000000	21.413553
1921.000000	21.187833
1922.000000	20.953594
1923.000000	20.745289
1924.000000	20.549645
1925.000000	20.390358
1926.000000	20.232384
1927.000000	20.073867
1928.000000	19.951419
1929.000000	19.814471
1930.000000	19.698387
1931.000000	19.594208
1932.000000	19.503366
1933.000000	19.397099
1934.000000	19.333635
1935.000000	19.270714
1936.000000	19.233404
1937.000000	19.211125
1938.000000	19.183895
1939.000000	19.169690
1940.000000	19.160059
1941.000000	19.170720
1942.000000	19.173843
1943.000000	19.180086
1944.000000	19.210473
1945.000000	19.244469
1946.000000	19.296932
1947.000000	19.337097
1948.000000	19.404209
1949.000000	19.450253
1950.000000	19.515544
1951.000000	19.578648
1952.000000	19.652138
1953.000000	19.721732
1954.000000	19.811262
1955.000000	19.889263
1956.000000	19.977404
1957.000000	20.057908
1958.000000	20.150320
1959.000000	20.223199
1960.000000	20.309469
1961.000000	20.393239
1962.000000	20.482481
1963.000000	20.555366
1964.000000	20.648148
1965.000000	20.729032
1966.000000	20.805824
1967.000000	20.901968
1968.000000	20.969033
1969.000000	21.058768
1970.000000	21.143211
1971.000000	21.236657
1972.000000	21.328192
1973.000000	21.404487
1974.000000	21.500440
1975.000000	21.578358
1976.000000	21.674630
1977.000000	21.754223
1978.000000	21.857786
1979.000000	21.937285
1980.000000	22.050887
1981.000000	22.133781
1982.000000	22.228080
1983.000000	22.322526
1984.000000	22.408919
1985.000000	22.504189
1986.000000	22.587588
1987.000000	22.667383
1988.000000	22.751848
1989.000000	22.830443
1990.000000	22.907556
1991.000000	22.982000
1992.000000	23.055148
1993.000000	23.108473
1994.000000	23.172576
1995.000000	23.232937
1996.000000	23.278615
1997.000000	23.328254
1998.000000	23.368873
1999.000000	23.413813
2000.000000	23.433662
2001.000000	23.446901
2002.000000	23.444968
2003.000000	23.472559
2004.000000	23.482447
2005.000000	23.473815
2006.000000	23.472654
2007.000000	23.463243
2008.000000	23.445556
2009.000000	23.427487
2010.000000	23.385567
2011.000000	23.344314
2012.000000	23.313766
2013.000000	23.261974
2014.000000	23.204853
2015.000000	23.144123
2016.000000	23.071901
2017.000000	23.005506
2018.000000	22.926585
2019.000000	22.840723
2020.000000	22.755989
2021.000000	22.665065
2022.000000	22.564958
2023.000000	22.478159
2024.000000	22.363907
2025.000000	22.255752
2026.000000	22.143230
2027.000000	22.032401
2028.000000	21.926034
2029.000000	21.792490
2030.000000	21.656213
2031.000000	21.526787
2032.000000	21.380550
2033.000000	21.236122
2034.000000	21.077567
2035.000000	20.913931
2036.000000	20.745980
2037.000000	20.568770
2038.000000	20.394611
2039.000000	20.218497
2040.000000	20.024815
2041.000000	19.835586
2042.000000	19.622359
2043.000000	19.429502
2044.000000	19.237320
2045.000000	19.052412
2046.000000	18.864926
2047.000000	18.683054
2048.000000	18.512015
2049.000000	18.366210
2050.000000	18.232485
2051.000000	18.100231
2052.000000	17.994321
2053.000000	17.915761
2054.000000	17.837969
2055.000000	17.789851
2056.000000	17.752491
2057.000000	17.721076
2058.000000	17.709881
2059.000000	17.721456
2060.000000	17.740975
2061.000000	17.768379
2062.000000	17.803386
2063.000000	17.849160
2064.000000	17.904518
2065.000000	17.951196
2066.000000	18.008179
2067.000000	18.064656
2068.000000	18.120402
2069.000000	18.185554
2070.000000	18.247405
2071.000000	18.299381
2072.000000	18.360657
2073.000000	18.419926
2074.000000	18.473240
2075.000000	18.520181
2076.000000	18.565688
2077.000000	18.614242
2078.000000	18.654160
2079.000000	18.694487
2080.000000	18.740769
2081.000000	18.775316
2082.000000	18.803802
2083.000000	18.826155
2084.000000	18.847629
2085.000000	18.869952
2086.000000	18.895765
2087.000000	18.909628
2088.000000	18.915651
2089.000000	18.927870
2090.000000	18.933217
2091.000000	18.937636
2092.000000	18.949487
2093.000000	18.969139
2094.000000	18.984620
2095.000000	18.994832
2096.000000	19.009522
2097.000000	19.027426
2098.000000	19.051321
2099.000000	19.078811
2100.000000	19.107834
2101.000000	19.141522
2102.000000	19.166160
2103.000000	19.194355
2104.000000	19.230703
2105.000000	19.264466
2106.000000	19.297658
2107.000000	19.327929
2108.000000	19.354823
2109.000000	19.379752
2110.000000	19.404337
2111.000000	19.439800
2112.000000	19.472194
2113.000000	19.496698
2114.000000	19.524887
2115.000000	19.554464
2116.000000	19.580721
2117.000000	19.600491
2118.000000	19.618284
2119.000000	19.645562
2120.000000	19.666980
2121.000000	19.687548
2122.000000	19.694325
2123.000000	19.695371
2124.000000	19.697729
2125.000000	19.701323
2126.000000	19.698494
2127.000000	19.693498
2128.000000	19.686426
2129.000000	19.657320
2130.000000	19.641610
2131.000000	19.628918
2132.000000	19.599043
2133.000000	19.565862
2134.000000	19.538656
2135.000000	19.495523
2136.000000	19.461361
2137.000000	19.413720
2138.000000	19.364644
2139.000000	19.317546
2140.000000	19.252985
2141.000000	19.201119
2142.000000	19.155696
2143.000000	19.094363
2144.000000	19.030425
2145.000000	18.968545
2146.000000	18.906202
2147.000000	18.845237
2148.000000	18.773323
2149.000000	18.706084
2150.000000	18.647696
2151.000000	18.569029
2152.000000	18.487011
2153.000000	18.417368
2154.000000	18.351120
2155.000000	18.276749
2156.000000	18.219453
2157.000000	18.155773
2158.000000	18.075160
2159.000000	18.017072
2160.000000	17.970253
2161.000000	17.923606
2162.000000	17.873524
2163.000000	17.828816
2164.000000	17.791902
2165.000000	17.748700
2166.000000	17.726373
2167.000000	17.684487
2168.000000	17.653058
2169.000000	17.639757
2170.000000	17.620484
2171.000000	17.596469
2172.000000	17.584789
2173.000000	17.575066
2174.000000	17.571745
2175.000000	17.559383
2176.000000	17.563153
2177.000000	17.576615
2178.000000	17.576394
2179.000000	17.575533
2180.000000	17.588583
2181.000000	17.601139
2182.000000	17.623469
2183.000000	17.640960
2184.000000	17.658819
2185.000000	17.671456
2186.000000	17.685751
2187.000000	17.719475
2188.000000	17.716343
2189.000000	17.729767
2190.000000	17.750888
2191.000000	17.761465
2192.000000	17.772114
2193.000000	17.771687
2194.000000	17.788317
2195.000000	17.793882
2196.000000	17.808107
2197.000000	17.817210
2198.000000	17.831089
2199.000000	17.846063
2200.000000	17.865636
2201.000000	17.876244
2202.000000	17.897462
2203.000000	17.912964
2204.000000	17.944085
2205.000000	17.963000
2206.000000	17.993134
2207.000000	18.036824
2208.000000	18.059695
2209.000000	18.097442
2210.000000	18.128268
2211.000000	18.171027
2212.000000	18.217686
2213.000000	18.253510
2214.000000	18.304595
2215.000000	18.350665
2216.000000	18.402270
2217.000000	18.458664
2218.000000	18.500819
2219.000000	18.548047
2220.000000	18.601430
2221.000000	18.629376
2222.000000	18.690825
2223.000000	18.727566
2224.000000	18.750305
2225.000000	18.779133
2226.000000	18.786788
2227.000000	18.809837
2228.000000	18.814539
2229.000000	18.813417
2230.000000	18.794485
2231.000000	18.766259
2232.000000	18.739099
2233.000000	18.689873
2234.000000	18.639193
2235.000000	18.580677
2236.000000	18.498742
2237.000000	18.413562
2238.000000	18.324425
2239.000000	18.221896
2240.000000	18.109084
2241.000000	17.994730
2242.000000	17.850181
2243.000000	17.705362
2244.000000	17.554997
2245.000000	17.380534
2246.000000	17.191117
2247.000000	16.995617
2248.000000	16.780485
2249.000000	16.562334
2250.000000	16.329873
2251.000000	16.065592
2252.000000	15.800519
2253.000000	15.545175
2254.000000	15.247128
2255.000000	14.956695
2256.000000	14.667366
2257.000000	14.365464
2258.000000	14.085144
2259.000000	13.819206
2260.000000	13.556260
2261.000000	13.302203
2262.000000	13.082665
2263.000000	12.868761
2264.000000	12.676624
2265.000000	12.508466
2266.000000	12.370052
2267.000000	12.259368
2268.000000	12.157435
2269.000000	12.091673
2270.000000	12.022285
2271.000000	11.989419
2272.000000	11.953390
2273.000000	11.953707
2274.000000	11.958021
2275.000000	11.962982
2276.000000	11.993487
2277.000000	12.019894
2278.000000	12.051315
2279.000000	12.086486
2280.000000	12.125560
2281.000000	12.172986
2282.000000	12.201455
2283.000000	12.232515
2284.000000	12.259623
2285.000000	12.285246
2286.000000	12.309877
2287.000000	12.318208
2288.000000	12.318875
2289.000000	12.315415
2290.000000	12.297777
2291.000000	12.271197
2292.000000	12.231401
2293.000000	12.187209
2294.000000	12.131319
2295.000000	12.060920
2296.000000	11.977723
2297.000000	11.896444
2298.000000	11.810874
2299.000000	11.720460
2300.000000	11.646580
2301.000000	11.569716
2302.000000	11.503647
2303.000000	11.441951
2304.000000	11.406635
2305.000000	11.379108
2306.000000	11.368598
2307.000000	11.396733
2308.000000	11.423480
2309.000000	11.468000
2310.000000	11.532846
2311.000000	11.614622
2312.000000	11.696095
2313.000000	11.789085
2314.000000	11.895492
2315.000000	12.014659
2316.000000	12.138418
2317.000000	12.245725
2318.000000	12.376243
2319.000000	12.487616
2320.000000	12.594934
2321.000000	12.705069
2322.000000	12.799352
2323.000000	12.899952
2324.000000	12.986127
2325.000000	13.070955
2326.000000	13.147910
2327.000000	13.211859
2328.000000	13.274977
2329.000000	13.345733
2330.000000	13.400513
2331.000000	13.453146
2332.000000	13.501517
2333.000000	13.532957
2334.000000	13.567941
2335.000000	13.597193
2336.000000	13.619720
2337.000000	13.639972
2338.000000	13.645895
2339.000000	13.649929
2340.000000	13.639499
2341.000000	13.624592
2342.000000	13.611979
2343.000000	13.587170
2344.000000	13.554123
2345.000000	13.520713
2346.000000	13.489672
2347.000000	13.460510
2348.000000	13.429384
2349.000000	13.412174
2350.000000	13.408053
2351.000000	13.399535
2352.000000	13.400263
2353.000000	13.412978
2354.000000	13.431233
2355.000000	13.468717
2356.000000	13.508401
2357.000000	13.547002
2358.000000	13.610772
2359.000000	13.680051
2360.000000	13.751539
2361.000000	13.823226
2362.000000	13.890513
2363.000000	13.958402
2364.000000	14.032100
2365.000000	14.106989
2366.000000	14.168508
2367.000000	14.226059
2368.000000	14.285879
2369.000000	14.339206
2370.000000	14.388417
2371.000000	14.437380
2372.000000	14.486717
2373.000000	14.534012
2374.000000	14.568307
2375.000000	14.595782
2376.000000	14.632234
2377.000000	14.669765
2378.000000	14.698835
2379.000000	14.731972
2380.000000	14.763035
2381.000000	14.786739
2382.000000	14.804153
2383.000000	14.825106
2384.000000	14.843530
2385.000000	14.855487
2386.000000	14.862155
2387.000000	14.862242
2388.000000	14.862099
2389.000000	14.861160
2390.000000	14.857889
2391.000000	14.850204
2392.000000	14.830369
2393.000000	14.817459
2394.000000	14.807464
2395.000000	14.775036
2396.000000	14.751255
2397.000000	14.731147
2398.000000	14.709010
2399.000000	14.690451
2400.000000	14.665353
2401.000000	14.635764
2402.000000	14.608318
2403.000000	14.589691
2404.000000	14.564626
2405.000000	14.538541
2406.000000	14.511388
2407.000000	14.478125
2408.000000	14.464597
2409.000000	14.439888
2410.000000	14.401416
2411.000000	14.372434
2412.000000	14.345024
2413.000000	14.309865
2414.000000	14.290124
2415.000000	14.259084
2416.000000	14.227345
2417.000000	14.180636
2418.000000	14.145009
2419.000000	14.101236
2420.000000	14.046292
2421.000000	14.009562
2422.000000	13.964696
2423.000000	13.935886
2424.000000	13.890936
2425.000000	13.839700
2426.000000	13.790240
2427.000000	13.729348
2428.000000	13.667193
2429.000000	13.601998
2430.000000	13.525731
2431.000000	13.453061
2432.000000	13.381008
2433.000000	13.300776
2434.000000	13.221226
2435.000000	13.132287
2436.000000	13.040505
2437.000000	12.956439
2438.000000	12.871994
2439.000000	12.770234
2440.000000	12.674499
2441.000000	12.585735
2442.000000	12.493189
2443.000000	12.383782
2444.000000	12.285476
2445.000000	12.192349
2446.000000	12.075149
2447.000000	11.986141
2448.000000	11.881362
2449.000000	11.796975
2450.000000	11.705431
2451.000000	11.601321
2452.000000	11.498922
2453.000000	11.412950
2454.000000	11.323755
2455.000000	11.241311
2456.000000	11.174239
2457.000000	11.095937
2458.000000	11.030898
2459.000000	10.944655
2460.000000	10.883557
2461.000000	10.860975
2462.000000	10.778796
2463.000000	10.747766
2464.000000	10.709013
2465.000000	10.677503
2466.000000	10.651278
2467.000000	10.616482
2468.000000	10.586485
2469.000000	10.586399
2470.000000	10.550502
2471.000000	10.535542
2472.000000	10.529874
2473.000000	10.532927
2474.000000	10.507540
2475.000000	10.507013
2476.000000	10.473982
2477.000000	10.496818
2478.000000	10.504430
2479.000000	10.496257
2480.000000	10.478640
2481.000000	10.499237
2482.000000	10.483145
2483.000000	10.505260
2484.000000	10.489778
2485.000000	10.460414
2486.000000	10.536295
2487.000000	10.526679
2488.000000	10.553037
2489.000000	10.587391
2490.000000	10.526500
2491.000000	10.644174
2492.000000	10.603456
2493.000000	10.669425
2494.000000	10.706227
2495.000000	10.662935
2496.000000	10.698402
2497.000000	10.697859
2498.000000	10.786904
2499.000000	10.845911
2500.000000	10.822206
