PE UV       SUBTECH     SPECTRUM    ASCII       PEDS        4.00        
   -1
CICIMAUCR0101-3.Sample.ASC
24/04/11
14:27:02.00
24/04/11
14:27:02.00
Vinicio Soto Monge
C. resplendens
250,000000
1
Lambda 1050
1050L1511233
PerkinElmer UV WinLab 6.3.2.0749 / 2.02.05 Lambda 900 UV/VIS/NIR, Aug  7 2015 09:38:08

0
0
3350/2 860,8/2
0
0
UV/VIS
1
1
1
DoubleDePol,CommonBeamDepol,RBeamAtt,SBeamAtt,60mm sphere, WB InGaAs Detector
0
0
0
0
Program
Program
3350/2 860,8/2
3350/0,2 860,8/0,2
3350/0,2 860,8/0,2
0
15.00
 
 
 
0
 
860,8
319,2
860,8
Front
100
on
S:100 R:100
0
0
0
0
 
0
 
 
 
0
 
 
0
0
0
0
0
 
 
 
 
0
0


0
0
#HDR
-1
-1
#GR
nm
%R
1.0
0.0
2400,000000
-1,000000
2151
8
92,537900
5,932000
#DATA
250.000000	6.726823
251.000000	6.680400
252.000000	6.680024
253.000000	6.705690
254.000000	6.654740
255.000000	6.675815
256.000000	6.654409
257.000000	6.612496
258.000000	6.575610
259.000000	6.563885
260.000000	6.550854
261.000000	6.516600
262.000000	6.492819
263.000000	6.483295
264.000000	6.430265
265.000000	6.401600
266.000000	6.377527
267.000000	6.322577
268.000000	6.331029
269.000000	6.295385
270.000000	6.254686
271.000000	6.260259
272.000000	6.205111
273.000000	6.199962
274.000000	6.202281
275.000000	6.173883
276.000000	6.171538
277.000000	6.184883
278.000000	6.132431
279.000000	6.114264
280.000000	6.119179
281.000000	6.116294
282.000000	6.086900
283.000000	6.097288
284.000000	6.083082
285.000000	6.077861
286.000000	6.095787
287.000000	6.103495
288.000000	6.063989
289.000000	6.046559
290.000000	6.051002
291.000000	6.024319
292.000000	6.022778
293.000000	6.023354
294.000000	6.022272
295.000000	6.020234
296.000000	6.019651
297.000000	6.014987
298.000000	6.006879
299.000000	5.974666
300.000000	5.995442
301.000000	6.008267
302.000000	5.991098
303.000000	6.003011
304.000000	5.981889
305.000000	5.981632
306.000000	5.949389
307.000000	5.930703
308.000000	5.944556
309.000000	5.928070
310.000000	5.921118
311.000000	5.930355
312.000000	5.940955
313.000000	5.915785
314.000000	5.903124
315.000000	5.901444
316.000000	6.039627
317.000000	6.305377
318.000000	6.195121
319.000000	6.195208
320.000000	6.119694
321.000000	6.053647
322.000000	6.069549
323.000000	5.952515
324.000000	6.010452
325.000000	6.087571
326.000000	6.060687
327.000000	5.999739
328.000000	6.009995
329.000000	5.935113
330.000000	5.977655
331.000000	5.955016
332.000000	5.882837
333.000000	5.849192
334.000000	5.864588
335.000000	5.868684
336.000000	5.924351
337.000000	5.943812
338.000000	5.915076
339.000000	5.897089
340.000000	5.850532
341.000000	5.818765
342.000000	5.895889
343.000000	5.888884
344.000000	5.846772
345.000000	5.883187
346.000000	5.931093
347.000000	5.862464
348.000000	5.879706
349.000000	5.870252
350.000000	5.843413
351.000000	5.879306
352.000000	5.969130
353.000000	5.977359
354.000000	5.977420
355.000000	5.983622
356.000000	5.994322
357.000000	6.039977
358.000000	6.053734
359.000000	6.052674
360.000000	6.083612
361.000000	6.054712
362.000000	6.060589
363.000000	6.111211
364.000000	6.168765
365.000000	6.149766
366.000000	6.168339
367.000000	6.201759
368.000000	6.212888
369.000000	6.215664
370.000000	6.239362
371.000000	6.212732
372.000000	6.224554
373.000000	6.263466
374.000000	6.240749
375.000000	6.286412
376.000000	6.471448
377.000000	6.546991
378.000000	6.595675
379.000000	6.651968
380.000000	6.700012
381.000000	6.760921
382.000000	6.827771
383.000000	6.889237
384.000000	6.964058
385.000000	7.044587
386.000000	7.130221
387.000000	7.229660
388.000000	7.318380
389.000000	7.415275
390.000000	7.528560
391.000000	7.658052
392.000000	7.777975
393.000000	7.908211
394.000000	8.052255
395.000000	8.200250
396.000000	8.364284
397.000000	8.539247
398.000000	8.716311
399.000000	8.898150
400.000000	9.084379
401.000000	9.297518
402.000000	9.523224
403.000000	9.754214
404.000000	10.008880
405.000000	10.256046
406.000000	10.537816
407.000000	10.815237
408.000000	11.102832
409.000000	11.408823
410.000000	11.719073
411.000000	12.052846
412.000000	12.383790
413.000000	12.742819
414.000000	13.101122
415.000000	13.468301
416.000000	13.839608
417.000000	14.220541
418.000000	14.582916
419.000000	14.975086
420.000000	15.373384
421.000000	15.763672
422.000000	16.164730
423.000000	16.561953
424.000000	16.944555
425.000000	17.342403
426.000000	17.724069
427.000000	18.093716
428.000000	18.466147
429.000000	18.832128
430.000000	19.175095
431.000000	19.532230
432.000000	19.871365
433.000000	20.225397
434.000000	20.558275
435.000000	20.879738
436.000000	21.171562
437.000000	21.477324
438.000000	21.765609
439.000000	22.044959
440.000000	22.303644
441.000000	22.561505
442.000000	22.824090
443.000000	23.073330
444.000000	23.276791
445.000000	23.490402
446.000000	23.688169
447.000000	23.876486
448.000000	24.043702
449.000000	24.204828
450.000000	24.343601
451.000000	24.493307
452.000000	24.628659
453.000000	24.745684
454.000000	24.850349
455.000000	24.925553
456.000000	25.013872
457.000000	25.101265
458.000000	25.162062
459.000000	25.214780
460.000000	25.259999
461.000000	25.297748
462.000000	25.318872
463.000000	25.356514
464.000000	25.363370
465.000000	25.358046
466.000000	25.372144
467.000000	25.373352
468.000000	25.372325
469.000000	25.381285
470.000000	25.381606
471.000000	25.411006
472.000000	25.453365
473.000000	25.523929
474.000000	25.605657
475.000000	25.710227
476.000000	25.851442
477.000000	26.012825
478.000000	26.214635
479.000000	26.453692
480.000000	26.715963
481.000000	27.003085
482.000000	27.330119
483.000000	27.680562
484.000000	28.079383
485.000000	28.525160
486.000000	28.963632
487.000000	29.405518
488.000000	29.883725
489.000000	30.365690
490.000000	30.863843
491.000000	31.337357
492.000000	31.835165
493.000000	32.305246
494.000000	32.746073
495.000000	33.178071
496.000000	33.599971
497.000000	33.999509
498.000000	34.378936
499.000000	34.747763
500.000000	35.119235
501.000000	35.479653
502.000000	35.832472
503.000000	36.172678
504.000000	36.508609
505.000000	36.849330
506.000000	37.185658
507.000000	37.546441
508.000000	37.925858
509.000000	38.340822
510.000000	38.785838
511.000000	39.286208
512.000000	39.826609
513.000000	40.425581
514.000000	41.098859
515.000000	41.824914
516.000000	42.604548
517.000000	43.447780
518.000000	44.372528
519.000000	45.359320
520.000000	46.399974
521.000000	47.505269
522.000000	48.695070
523.000000	49.938657
524.000000	51.183770
525.000000	52.485930
526.000000	53.783894
527.000000	55.087991
528.000000	56.389033
529.000000	57.712743
530.000000	59.012770
531.000000	60.302108
532.000000	61.564973
533.000000	62.802222
534.000000	64.007214
535.000000	65.167966
536.000000	66.303589
537.000000	67.400221
538.000000	68.467484
539.000000	69.516162
540.000000	70.551789
541.000000	71.546019
542.000000	72.536249
543.000000	73.455807
544.000000	74.373542
545.000000	75.254111
546.000000	76.091705
547.000000	76.897880
548.000000	77.681186
549.000000	78.425501
550.000000	79.178439
551.000000	79.911201
552.000000	80.595897
553.000000	81.279085
554.000000	81.926869
555.000000	82.544180
556.000000	83.122688
557.000000	83.681752
558.000000	84.190097
559.000000	84.720399
560.000000	85.274679
561.000000	85.718093
562.000000	86.142602
563.000000	86.542618
564.000000	86.918871
565.000000	87.261568
566.000000	87.579426
567.000000	87.867656
568.000000	88.152218
569.000000	88.419011
570.000000	88.680121
571.000000	88.874541
572.000000	89.099362
573.000000	89.301741
574.000000	89.512810
575.000000	89.677793
576.000000	89.828408
577.000000	89.999367
578.000000	90.131587
579.000000	90.261591
580.000000	90.371176
581.000000	90.479707
582.000000	90.537470
583.000000	90.605867
584.000000	90.634627
585.000000	90.643824
586.000000	90.631288
587.000000	90.612703
588.000000	90.557263
589.000000	90.488719
590.000000	90.398661
591.000000	90.283130
592.000000	90.136861
593.000000	89.949785
594.000000	89.772017
595.000000	89.539703
596.000000	89.271227
597.000000	89.013591
598.000000	88.713640
599.000000	88.405341
600.000000	88.038920
601.000000	87.644385
602.000000	87.224684
603.000000	86.786274
604.000000	86.306763
605.000000	85.780092
606.000000	85.257944
607.000000	84.694535
608.000000	84.083719
609.000000	83.474096
610.000000	82.839866
611.000000	82.179155
612.000000	81.483304
613.000000	80.765842
614.000000	80.020450
615.000000	79.270721
616.000000	78.514559
617.000000	77.751975
618.000000	76.983829
619.000000	76.179254
620.000000	75.387552
621.000000	74.544510
622.000000	73.678384
623.000000	72.811801
624.000000	71.908822
625.000000	71.011692
626.000000	70.099436
627.000000	69.166814
628.000000	68.228443
629.000000	67.331194
630.000000	66.437866
631.000000	65.560504
632.000000	64.741917
633.000000	64.002169
634.000000	63.319480
635.000000	62.729118
636.000000	62.278649
637.000000	61.902743
638.000000	61.665107
639.000000	61.546056
640.000000	61.573682
641.000000	61.703614
642.000000	61.977982
643.000000	62.349457
644.000000	62.819828
645.000000	63.382965
646.000000	64.007242
647.000000	64.684969
648.000000	65.441324
649.000000	66.238555
650.000000	67.114180
651.000000	67.955026
652.000000	68.816975
653.000000	69.661898
654.000000	70.494128
655.000000	71.299127
656.000000	72.005620
657.000000	72.732290
658.000000	73.387182
659.000000	73.955079
660.000000	74.475058
661.000000	74.958296
662.000000	75.378312
663.000000	75.739932
664.000000	76.052449
665.000000	76.355916
666.000000	76.620409
667.000000	76.882687
668.000000	77.117780
669.000000	77.315166
670.000000	77.542433
671.000000	77.724175
672.000000	77.898032
673.000000	78.062909
674.000000	78.211216
675.000000	78.360867
676.000000	78.479176
677.000000	78.563005
678.000000	78.590983
679.000000	78.635991
680.000000	78.686767
681.000000	78.682876
682.000000	78.716766
683.000000	78.756300
684.000000	78.822664
685.000000	78.839844
686.000000	78.909428
687.000000	78.962056
688.000000	78.995075
689.000000	79.033976
690.000000	79.067125
691.000000	79.156200
692.000000	79.210065
693.000000	79.239841
694.000000	79.270764
695.000000	79.314944
696.000000	79.406353
697.000000	79.470963
698.000000	79.546610
699.000000	79.672011
700.000000	79.805131
701.000000	79.945240
702.000000	80.135223
703.000000	80.343036
704.000000	80.579295
705.000000	80.868352
706.000000	81.202601
707.000000	81.520402
708.000000	81.831140
709.000000	82.184771
710.000000	82.547705
711.000000	82.865864
712.000000	83.198561
713.000000	83.558226
714.000000	83.841029
715.000000	84.104114
716.000000	84.375344
717.000000	84.638096
718.000000	84.884664
719.000000	85.118263
720.000000	85.307124
721.000000	85.434015
722.000000	85.606088
723.000000	85.739432
724.000000	85.883548
725.000000	85.991597
726.000000	86.093269
727.000000	86.117043
728.000000	86.237301
729.000000	86.331226
730.000000	86.384420
731.000000	86.420559
732.000000	86.499056
733.000000	86.551318
734.000000	86.615941
735.000000	86.683990
736.000000	86.671047
737.000000	86.710012
738.000000	86.746255
739.000000	86.838469
740.000000	86.865666
741.000000	86.892313
742.000000	86.867531
743.000000	86.884424
744.000000	86.808399
745.000000	86.731593
746.000000	86.680160
747.000000	86.575066
748.000000	86.395929
749.000000	86.267087
750.000000	86.084976
751.000000	85.856223
752.000000	85.604178
753.000000	85.431488
754.000000	85.167605
755.000000	85.017496
756.000000	84.721693
757.000000	84.504918
758.000000	84.277491
759.000000	84.101088
760.000000	83.836807
761.000000	83.747564
762.000000	83.531903
763.000000	83.333033
764.000000	83.213237
765.000000	83.074234
766.000000	83.040544
767.000000	82.923042
768.000000	82.846808
769.000000	82.897992
770.000000	82.912200
771.000000	82.866479
772.000000	82.968206
773.000000	82.938862
774.000000	82.911654
775.000000	82.996737
776.000000	82.919085
777.000000	82.891236
778.000000	82.888361
779.000000	82.775600
780.000000	82.593115
781.000000	82.512514
782.000000	82.425896
783.000000	82.251035
784.000000	81.980913
785.000000	81.879983
786.000000	81.669580
787.000000	81.357658
788.000000	81.066510
789.000000	80.847023
790.000000	80.535371
791.000000	80.322236
792.000000	79.985470
793.000000	79.817055
794.000000	79.451980
795.000000	79.193232
796.000000	78.928210
797.000000	78.695525
798.000000	78.448330
799.000000	78.320130
800.000000	78.056204
801.000000	77.893470
802.000000	77.571387
803.000000	77.482421
804.000000	77.389707
805.000000	77.266680
806.000000	77.063667
807.000000	76.920894
808.000000	76.848479
809.000000	76.774471
810.000000	76.583544
811.000000	76.569186
812.000000	76.485165
813.000000	76.413838
814.000000	76.314111
815.000000	76.378221
816.000000	76.211613
817.000000	76.043834
818.000000	75.972509
819.000000	75.999444
820.000000	75.949418
821.000000	75.875235
822.000000	75.825041
823.000000	75.817383
824.000000	75.791815
825.000000	75.856135
826.000000	75.847399
827.000000	75.660111
828.000000	75.697045
829.000000	75.685735
830.000000	75.787892
831.000000	75.709592
832.000000	75.615282
833.000000	75.679319
834.000000	75.514634
835.000000	75.619524
836.000000	75.509976
837.000000	75.342107
838.000000	75.277550
839.000000	75.140928
840.000000	75.085343
841.000000	74.884105
842.000000	74.796534
843.000000	74.776998
844.000000	74.553503
845.000000	74.304817
846.000000	74.270792
847.000000	74.006385
848.000000	73.941043
849.000000	73.607737
850.000000	73.650867
851.000000	73.501316
852.000000	73.251894
853.000000	72.951581
854.000000	72.756255
855.000000	72.701632
856.000000	72.632409
857.000000	72.730360
858.000000	72.574933
859.000000	73.041367
860.000000	72.678500
861.000000	72.694100
862.000000	72.536700
863.000000	72.566700
864.000000	72.350633
865.000000	72.158433
866.000000	72.198833
867.000000	71.855333
868.000000	71.718300
869.000000	71.633300
870.000000	71.537033
871.000000	71.516900
872.000000	71.332033
873.000000	71.089233
874.000000	71.150767
875.000000	70.827233
876.000000	70.804633
877.000000	70.519467
878.000000	70.721100
879.000000	70.439933
880.000000	70.540100
881.000000	70.278000
882.000000	70.020933
883.000000	69.842500
884.000000	69.557133
885.000000	69.517000
886.000000	69.369333
887.000000	69.242300
888.000000	69.071033
889.000000	68.906633
890.000000	68.765367
891.000000	68.454167
892.000000	68.230467
893.000000	68.190533
894.000000	67.988800
895.000000	67.569900
896.000000	67.274900
897.000000	67.131500
898.000000	66.870833
899.000000	66.675000
900.000000	66.484700
901.000000	66.252000
902.000000	66.023200
903.000000	65.719533
904.000000	65.342533
905.000000	65.017633
906.000000	64.899467
907.000000	64.697400
908.000000	64.507500
909.000000	64.394200
910.000000	64.321100
911.000000	64.133033
912.000000	64.005167
913.000000	63.903100
914.000000	63.835367
915.000000	63.877167
916.000000	63.756300
917.000000	63.631967
918.000000	63.522533
919.000000	63.477600
920.000000	63.376100
921.000000	63.250767
922.000000	63.157733
923.000000	63.045700
924.000000	62.984467
925.000000	62.812367
926.000000	62.649000
927.000000	62.535367
928.000000	62.399900
929.000000	62.311500
930.000000	62.197033
931.000000	62.126500
932.000000	62.026700
933.000000	61.845233
934.000000	61.705667
935.000000	61.554700
936.000000	61.410067
937.000000	61.287633
938.000000	61.168200
939.000000	61.004533
940.000000	60.839633
941.000000	60.757500
942.000000	60.626633
943.000000	60.507867
944.000000	60.414433
945.000000	60.240800
946.000000	60.120700
947.000000	60.048867
948.000000	59.960667
949.000000	59.867000
950.000000	59.773567
951.000000	59.666000
952.000000	59.583167
953.000000	59.485700
954.000000	59.378667
955.000000	59.284133
956.000000	59.187533
957.000000	59.086533
958.000000	58.976333
959.000000	58.884433
960.000000	58.784867
961.000000	58.617733
962.000000	58.515667
963.000000	58.459100
964.000000	58.379633
965.000000	58.285267
966.000000	58.193200
967.000000	58.130600
968.000000	58.104500
969.000000	58.058367
970.000000	57.982200
971.000000	57.897133
972.000000	57.828933
973.000000	57.787400
974.000000	57.724467
975.000000	57.636900
976.000000	57.594000
977.000000	57.497600
978.000000	57.404700
979.000000	57.323500
980.000000	57.234000
981.000000	57.171000
982.000000	57.082600
983.000000	57.017667
984.000000	56.951433
985.000000	56.890933
986.000000	56.788867
987.000000	56.717333
988.000000	56.661467
989.000000	56.585500
990.000000	56.486433
991.000000	56.402233
992.000000	56.343567
993.000000	56.299767
994.000000	56.252267
995.000000	56.185767
996.000000	56.127300
997.000000	56.087933
998.000000	56.028600
999.000000	55.949333
1000.000000	55.910000
1001.000000	55.831567
1002.000000	55.810833
1003.000000	55.756067
1004.000000	55.708500
1005.000000	55.660467
1006.000000	55.602133
1007.000000	55.552467
1008.000000	55.503267
1009.000000	55.436100
1010.000000	55.315967
1011.000000	55.295333
1012.000000	55.263667
1013.000000	55.229267
1014.000000	55.224167
1015.000000	55.248033
1016.000000	55.256467
1017.000000	55.300733
1018.000000	55.300267
1019.000000	55.357200
1020.000000	55.401400
1021.000000	55.473233
1022.000000	55.546900
1023.000000	55.604100
1024.000000	55.680133
1025.000000	55.773900
1026.000000	55.833633
1027.000000	55.899767
1028.000000	55.979067
1029.000000	56.071400
1030.000000	56.144200
1031.000000	56.235200
1032.000000	56.294600
1033.000000	56.355067
1034.000000	56.450800
1035.000000	56.487367
1036.000000	56.570867
1037.000000	56.619733
1038.000000	56.674200
1039.000000	56.753500
1040.000000	56.808167
1041.000000	56.847333
1042.000000	56.870867
1043.000000	56.936600
1044.000000	56.990000
1045.000000	57.041433
1046.000000	57.097833
1047.000000	57.162067
1048.000000	57.201133
1049.000000	57.259600
1050.000000	57.321367
1051.000000	57.371133
1052.000000	57.447967
1053.000000	57.477600
1054.000000	57.567967
1055.000000	57.672667
1056.000000	57.746667
1057.000000	57.819600
1058.000000	57.898767
1059.000000	57.964033
1060.000000	58.034033
1061.000000	58.091767
1062.000000	58.157467
1063.000000	58.206000
1064.000000	58.260000
1065.000000	58.322867
1066.000000	58.361667
1067.000000	58.434533
1068.000000	58.473600
1069.000000	58.510333
1070.000000	58.583733
1071.000000	58.621767
1072.000000	58.665933
1073.000000	58.723933
1074.000000	58.779033
1075.000000	58.856167
1076.000000	58.902533
1077.000000	58.960767
1078.000000	59.009167
1079.000000	59.077200
1080.000000	59.106400
1081.000000	59.199033
1082.000000	59.251367
1083.000000	59.341233
1084.000000	59.405333
1085.000000	59.482600
1086.000000	59.559767
1087.000000	59.643467
1088.000000	59.720333
1089.000000	59.805733
1090.000000	59.880300
1091.000000	59.955200
1092.000000	60.015700
1093.000000	60.070300
1094.000000	60.138400
1095.000000	60.210733
1096.000000	60.263700
1097.000000	60.326067
1098.000000	60.385333
1099.000000	60.411567
1100.000000	60.479967
1101.000000	60.518167
1102.000000	60.563900
1103.000000	60.613400
1104.000000	60.630433
1105.000000	60.644967
1106.000000	60.669367
1107.000000	60.687533
1108.000000	60.710767
1109.000000	60.742700
1110.000000	60.751967
1111.000000	60.770433
1112.000000	60.782467
1113.000000	60.796400
1114.000000	60.813900
1115.000000	60.822300
1116.000000	60.841200
1117.000000	60.844733
1118.000000	60.829433
1119.000000	60.795900
1120.000000	60.742700
1121.000000	60.663500
1122.000000	60.604467
1123.000000	60.522433
1124.000000	60.381433
1125.000000	60.259233
1126.000000	60.133233
1127.000000	59.979633
1128.000000	59.768800
1129.000000	59.517467
1130.000000	59.206467
1131.000000	58.832400
1132.000000	58.402967
1133.000000	57.940133
1134.000000	57.495133
1135.000000	56.989800
1136.000000	56.377567
1137.000000	55.747333
1138.000000	55.126800
1139.000000	54.537500
1140.000000	53.978500
1141.000000	53.437000
1142.000000	52.893500
1143.000000	52.373667
1144.000000	51.886800
1145.000000	51.473567
1146.000000	51.177533
1147.000000	51.000167
1148.000000	50.962767
1149.000000	50.989733
1150.000000	51.044367
1151.000000	51.099167
1152.000000	51.124667
1153.000000	51.121167
1154.000000	51.030700
1155.000000	50.851700
1156.000000	50.587067
1157.000000	50.217233
1158.000000	49.790233
1159.000000	49.316467
1160.000000	48.805033
1161.000000	48.279733
1162.000000	47.754867
1163.000000	47.213433
1164.000000	46.660300
1165.000000	46.130900
1166.000000	45.594967
1167.000000	45.089000
1168.000000	44.566767
1169.000000	44.085800
1170.000000	43.596400
1171.000000	43.107200
1172.000000	42.631133
1173.000000	42.200933
1174.000000	41.786000
1175.000000	41.383400
1176.000000	40.977333
1177.000000	40.565567
1178.000000	40.102700
1179.000000	39.553000
1180.000000	38.936067
1181.000000	38.254267
1182.000000	37.587000
1183.000000	37.002400
1184.000000	36.534767
1185.000000	36.233900
1186.000000	36.085900
1187.000000	36.100533
1188.000000	36.291733
1189.000000	36.628300
1190.000000	37.088800
1191.000000	37.652900
1192.000000	38.268733
1193.000000	38.848467
1194.000000	39.364067
1195.000000	39.781000
1196.000000	40.102233
1197.000000	40.352367
1198.000000	40.531633
1199.000000	40.649800
1200.000000	40.726967
1201.000000	40.754267
1202.000000	40.764400
1203.000000	40.755833
1204.000000	40.745700
1205.000000	40.737500
1206.000000	40.741533
1207.000000	40.772467
1208.000000	40.815867
1209.000000	40.881800
1210.000000	40.967267
1211.000000	41.074667
1212.000000	41.191233
1213.000000	41.309833
1214.000000	41.441967
1215.000000	41.579800
1216.000000	41.719933
1217.000000	41.883433
1218.000000	42.057067
1219.000000	42.233300
1220.000000	42.429000
1221.000000	42.643533
1222.000000	42.865300
1223.000000	43.102700
1224.000000	43.348900
1225.000000	43.596800
1226.000000	43.849567
1227.000000	44.113500
1228.000000	44.384133
1229.000000	44.647033
1230.000000	44.914567
1231.000000	45.197767
1232.000000	45.467733
1233.000000	45.724000
1234.000000	45.988533
1235.000000	46.259867
1236.000000	46.514333
1237.000000	46.775733
1238.000000	47.034867
1239.000000	47.284933
1240.000000	47.534633
1241.000000	47.773767
1242.000000	48.004100
1243.000000	48.224233
1244.000000	48.435100
1245.000000	48.644333
1246.000000	48.828700
1247.000000	48.994800
1248.000000	49.146367
1249.000000	49.287333
1250.000000	49.420500
1251.000000	49.550600
1252.000000	49.657733
1253.000000	49.760600
1254.000000	49.865200
1255.000000	49.958600
1256.000000	50.048967
1257.000000	50.134300
1258.000000	50.211800
1259.000000	50.299533
1260.000000	50.384000
1261.000000	50.453067
1262.000000	50.529867
1263.000000	50.613300
1264.000000	50.691900
1265.000000	50.778733
1266.000000	50.865633
1267.000000	50.952133
1268.000000	51.040867
1269.000000	51.123767
1270.000000	51.217533
1271.000000	51.315067
1272.000000	51.397000
1273.000000	51.480633
1274.000000	51.570533
1275.000000	51.658400
1276.000000	51.748967
1277.000000	51.852900
1278.000000	51.960067
1279.000000	52.069167
1280.000000	52.179600
1281.000000	52.298567
1282.000000	52.414433
1283.000000	52.530167
1284.000000	52.646300
1285.000000	52.754200
1286.000000	52.866633
1287.000000	52.976800
1288.000000	53.070300
1289.000000	53.162167
1290.000000	53.246233
1291.000000	53.313667
1292.000000	53.369167
1293.000000	53.420467
1294.000000	53.466600
1295.000000	53.498800
1296.000000	53.551267
1297.000000	53.583800
1298.000000	53.605667
1299.000000	53.634500
1300.000000	53.656067
1301.000000	53.684100
1302.000000	53.699433
1303.000000	53.714467
1304.000000	53.716800
1305.000000	53.713733
1306.000000	53.692000
1307.000000	53.672800
1308.000000	53.640867
1309.000000	53.597000
1310.000000	53.539667
1311.000000	53.486867
1312.000000	53.403667
1313.000000	53.332567
1314.000000	53.256600
1315.000000	53.166433
1316.000000	53.078767
1317.000000	52.970933
1318.000000	52.864700
1319.000000	52.742433
1320.000000	52.632300
1321.000000	52.493033
1322.000000	52.367767
1323.000000	52.222867
1324.000000	52.063200
1325.000000	51.901900
1326.000000	51.717167
1327.000000	51.549600
1328.000000	51.346700
1329.000000	51.155533
1330.000000	50.938500
1331.000000	50.712967
1332.000000	50.457867
1333.000000	50.186867
1334.000000	49.913833
1335.000000	49.622500
1336.000000	49.328700
1337.000000	49.012967
1338.000000	48.671667
1339.000000	48.329000
1340.000000	47.959833
1341.000000	47.575867
1342.000000	47.182600
1343.000000	46.758133
1344.000000	46.337700
1345.000000	45.851700
1346.000000	45.356367
1347.000000	44.873233
1348.000000	44.348333
1349.000000	43.738800
1350.000000	43.090500
1351.000000	42.369233
1352.000000	41.605867
1353.000000	40.804333
1354.000000	40.080400
1355.000000	39.394867
1356.000000	38.819233
1357.000000	38.439733
1358.000000	38.210400
1359.000000	38.091500
1360.000000	38.045267
1361.000000	38.068867
1362.000000	38.016333
1363.000000	37.756267
1364.000000	37.575300
1365.000000	37.425500
1366.000000	37.162967
1367.000000	36.918333
1368.000000	36.660000
1369.000000	36.288400
1370.000000	35.930200
1371.000000	35.581900
1372.000000	35.154633
1373.000000	34.711500
1374.000000	34.337433
1375.000000	34.035600
1376.000000	33.841367
1377.000000	33.722433
1378.000000	33.660300
1379.000000	33.642867
1380.000000	33.635700
1381.000000	33.577600
1382.000000	33.438067
1383.000000	33.183267
1384.000000	32.811667
1385.000000	32.455267
1386.000000	32.059433
1387.000000	31.783767
1388.000000	31.574000
1389.000000	31.343367
1390.000000	31.114433
1391.000000	30.984567
1392.000000	30.914000
1393.000000	30.781400
1394.000000	30.662900
1395.000000	30.625700
1396.000000	30.559767
1397.000000	30.357367
1398.000000	30.090233
1399.000000	29.897100
1400.000000	29.754833
1401.000000	29.461267
1402.000000	29.057467
1403.000000	28.661900
1404.000000	28.353767
1405.000000	28.013233
1406.000000	27.648467
1407.000000	27.299167
1408.000000	26.964133
1409.000000	26.678033
1410.000000	26.424600
1411.000000	26.126567
1412.000000	25.915600
1413.000000	25.741133
1414.000000	25.610467
1415.000000	25.448433
1416.000000	25.201333
1417.000000	25.003667
1418.000000	24.852167
1419.000000	24.672933
1420.000000	24.465733
1421.000000	24.235400
1422.000000	24.024933
1423.000000	23.835367
1424.000000	23.638700
1425.000000	23.429500
1426.000000	23.217100
1427.000000	23.030100
1428.000000	22.864567
1429.000000	22.693467
1430.000000	22.531767
1431.000000	22.395033
1432.000000	22.270600
1433.000000	22.154867
1434.000000	22.021900
1435.000000	21.904000
1436.000000	21.779600
1437.000000	21.673367
1438.000000	21.568567
1439.000000	21.449833
1440.000000	21.323400
1441.000000	21.202033
1442.000000	21.083400
1443.000000	20.968367
1444.000000	20.835900
1445.000000	20.747967
1446.000000	20.637067
1447.000000	20.504333
1448.000000	20.373633
1449.000000	20.251267
1450.000000	20.166967
1451.000000	20.067067
1452.000000	19.955367
1453.000000	19.847067
1454.000000	19.754600
1455.000000	19.663967
1456.000000	19.576000
1457.000000	19.495200
1458.000000	19.409300
1459.000000	19.321000
1460.000000	19.234967
1461.000000	19.180200
1462.000000	19.109667
1463.000000	19.033600
1464.000000	18.970200
1465.000000	18.903600
1466.000000	18.854867
1467.000000	18.801733
1468.000000	18.753900
1469.000000	18.709467
1470.000000	18.674600
1471.000000	18.628167
1472.000000	18.588200
1473.000000	18.533600
1474.000000	18.472033
1475.000000	18.411000
1476.000000	18.355100
1477.000000	18.318267
1478.000000	18.280100
1479.000000	18.228467
1480.000000	18.182233
1481.000000	18.149200
1482.000000	18.109000
1483.000000	18.072767
1484.000000	18.027067
1485.000000	17.996100
1486.000000	17.972000
1487.000000	17.950733
1488.000000	17.933433
1489.000000	17.900933
1490.000000	17.866200
1491.000000	17.830500
1492.000000	17.803000
1493.000000	17.778200
1494.000000	17.760233
1495.000000	17.735333
1496.000000	17.725400
1497.000000	17.713500
1498.000000	17.691300
1499.000000	17.692400
1500.000000	17.691133
1501.000000	17.673200
1502.000000	17.665333
1503.000000	17.677900
1504.000000	17.690433
1505.000000	17.689800
1506.000000	17.680700
1507.000000	17.691867
1508.000000	17.712467
1509.000000	17.714400
1510.000000	17.713167
1511.000000	17.716767
1512.000000	17.738033
1513.000000	17.749500
1514.000000	17.760833
1515.000000	17.758433
1516.000000	17.747867
1517.000000	17.752967
1518.000000	17.749067
1519.000000	17.773067
1520.000000	17.787133
1521.000000	17.803600
1522.000000	17.823500
1523.000000	17.843067
1524.000000	17.849267
1525.000000	17.847267
1526.000000	17.855100
1527.000000	17.877000
1528.000000	17.896733
1529.000000	17.897800
1530.000000	17.906433
1531.000000	17.919767
1532.000000	17.918067
1533.000000	17.906733
1534.000000	17.915633
1535.000000	17.924033
1536.000000	17.908133
1537.000000	17.925367
1538.000000	17.921667
1539.000000	17.914033
1540.000000	17.908100
1541.000000	17.912733
1542.000000	17.920333
1543.000000	17.924967
1544.000000	17.915133
1545.000000	17.922433
1546.000000	17.947067
1547.000000	17.949767
1548.000000	17.940867
1549.000000	17.940733
1550.000000	17.967333
1551.000000	17.967700
1552.000000	17.963033
1553.000000	17.954133
1554.000000	17.948000
1555.000000	17.935533
1556.000000	17.952267
1557.000000	17.937633
1558.000000	17.923867
1559.000000	17.888267
1560.000000	17.878833
1561.000000	17.866600
1562.000000	17.830400
1563.000000	17.799067
1564.000000	17.759233
1565.000000	17.740500
1566.000000	17.722667
1567.000000	17.676333
1568.000000	17.636233
1569.000000	17.618033
1570.000000	17.584067
1571.000000	17.557233
1572.000000	17.534300
1573.000000	17.523600
1574.000000	17.486667
1575.000000	17.470133
1576.000000	17.455800
1577.000000	17.443833
1578.000000	17.438000
1579.000000	17.413167
1580.000000	17.430567
1581.000000	17.422533
1582.000000	17.424933
1583.000000	17.438033
1584.000000	17.441067
1585.000000	17.460767
1586.000000	17.459967
1587.000000	17.477700
1588.000000	17.505200
1589.000000	17.522667
1590.000000	17.538400
1591.000000	17.564100
1592.000000	17.575867
1593.000000	17.603133
1594.000000	17.625767
1595.000000	17.650267
1596.000000	17.689600
1597.000000	17.710267
1598.000000	17.772400
1599.000000	17.814233
1600.000000	17.845967
1601.000000	17.903633
1602.000000	17.925367
1603.000000	18.004733
1604.000000	18.043267
1605.000000	18.085900
1606.000000	18.151900
1607.000000	18.198233
1608.000000	18.253000
1609.000000	18.252967
1610.000000	18.320267
1611.000000	18.360833
1612.000000	18.415000
1613.000000	18.471600
1614.000000	18.526367
1615.000000	18.584800
1616.000000	18.663833
1617.000000	18.726967
1618.000000	18.782000
1619.000000	18.844700
1620.000000	18.939767
1621.000000	19.006833
1622.000000	19.076067
1623.000000	19.141467
1624.000000	19.213900
1625.000000	19.296667
1626.000000	19.380300
1627.000000	19.440367
1628.000000	19.530633
1629.000000	19.600633
1630.000000	19.671000
1631.000000	19.743167
1632.000000	19.827433
1633.000000	19.900967
1634.000000	19.958167
1635.000000	20.041000
1636.000000	20.116500
1637.000000	20.173900
1638.000000	20.253000
1639.000000	20.327533
1640.000000	20.369600
1641.000000	20.446900
1642.000000	20.503167
1643.000000	20.557800
1644.000000	20.600667
1645.000000	20.669000
1646.000000	20.724400
1647.000000	20.760067
1648.000000	20.821767
1649.000000	20.866967
1650.000000	20.911900
1651.000000	20.933100
1652.000000	20.953833
1653.000000	20.972133
1654.000000	20.976000
1655.000000	20.995167
1656.000000	21.017633
1657.000000	21.014200
1658.000000	21.011533
1659.000000	20.974333
1660.000000	20.955333
1661.000000	20.920833
1662.000000	20.889500
1663.000000	20.838733
1664.000000	20.771167
1665.000000	20.705133
1666.000000	20.623767
1667.000000	20.537200
1668.000000	20.413100
1669.000000	20.285367
1670.000000	20.149833
1671.000000	19.990033
1672.000000	19.795500
1673.000000	19.559100
1674.000000	19.312300
1675.000000	18.993500
1676.000000	18.618100
1677.000000	18.207100
1678.000000	17.754100
1679.000000	17.273767
1680.000000	16.802400
1681.000000	16.312500
1682.000000	15.880867
1683.000000	15.611767
1684.000000	15.451433
1685.000000	15.366900
1686.000000	15.346967
1687.000000	15.345767
1688.000000	15.339833
1689.000000	15.300867
1690.000000	15.223667
1691.000000	15.083967
1692.000000	14.935767
1693.000000	14.791900
1694.000000	14.691733
1695.000000	14.619300
1696.000000	14.617200
1697.000000	14.657933
1698.000000	14.721767
1699.000000	14.841467
1700.000000	14.949900
1701.000000	15.049433
1702.000000	15.136000
1703.000000	15.225100
1704.000000	15.287100
1705.000000	15.308067
1706.000000	15.330400
1707.000000	15.352133
1708.000000	15.364500
1709.000000	15.358200
1710.000000	15.354467
1711.000000	15.336267
1712.000000	15.293067
1713.000000	15.240367
1714.000000	15.171833
1715.000000	15.116533
1716.000000	15.056800
1717.000000	14.993167
1718.000000	14.940767
1719.000000	14.912333
1720.000000	14.892333
1721.000000	14.862900
1722.000000	14.836867
1723.000000	14.815900
1724.000000	14.799167
1725.000000	14.754600
1726.000000	14.707433
1727.000000	14.621333
1728.000000	14.511667
1729.000000	14.409800
1730.000000	14.317167
1731.000000	14.237867
1732.000000	14.170533
1733.000000	14.131467
1734.000000	14.116567
1735.000000	14.158967
1736.000000	14.261733
1737.000000	14.379567
1738.000000	14.551900
1739.000000	14.740000
1740.000000	14.950300
1741.000000	15.171100
1742.000000	15.384200
1743.000000	15.581133
1744.000000	15.782333
1745.000000	15.947133
1746.000000	16.094567
1747.000000	16.220367
1748.000000	16.307967
1749.000000	16.381167
1750.000000	16.452633
1751.000000	16.520000
1752.000000	16.535633
1753.000000	16.538533
1754.000000	16.558367
1755.000000	16.577300
1756.000000	16.551600
1757.000000	16.505133
1758.000000	16.449700
1759.000000	16.406400
1760.000000	16.347300
1761.000000	16.295467
1762.000000	16.263033
1763.000000	16.236400
1764.000000	16.253633
1765.000000	16.309400
1766.000000	16.358267
1767.000000	16.452033
1768.000000	16.580867
1769.000000	16.721567
1770.000000	16.857767
1771.000000	16.996400
1772.000000	17.117600
1773.000000	17.249933
1774.000000	17.385000
1775.000000	17.519067
1776.000000	17.648833
1777.000000	17.760233
1778.000000	17.848300
1779.000000	17.942867
1780.000000	18.042667
1781.000000	18.128533
1782.000000	18.207867
1783.000000	18.301167
1784.000000	18.403600
1785.000000	18.485267
1786.000000	18.552000
1787.000000	18.633800
1788.000000	18.692400
1789.000000	18.751600
1790.000000	18.816233
1791.000000	18.873167
1792.000000	18.939333
1793.000000	18.991500
1794.000000	19.030667
1795.000000	19.098233
1796.000000	19.146167
1797.000000	19.192633
1798.000000	19.216600
1799.000000	19.257467
1800.000000	19.302833
1801.000000	19.385700
1802.000000	19.449233
1803.000000	19.477967
1804.000000	19.477500
1805.000000	19.525833
1806.000000	19.618333
1807.000000	19.659767
1808.000000	19.680733
1809.000000	19.727967
1810.000000	19.791367
1811.000000	19.834700
1812.000000	19.859733
1813.000000	19.834133
1814.000000	19.838867
1815.000000	19.870033
1816.000000	19.882067
1817.000000	19.872833
1818.000000	19.866833
1819.000000	19.849900
1820.000000	19.977467
1821.000000	20.024500
1822.000000	19.993767
1823.000000	19.970767
1824.000000	19.940867
1825.000000	20.012633
1826.000000	20.133000
1827.000000	20.167633
1828.000000	20.239600
1829.000000	20.321667
1830.000000	20.410467
1831.000000	20.524933
1832.000000	20.582833
1833.000000	20.601633
1834.000000	20.670567
1835.000000	20.811200
1836.000000	20.927733
1837.000000	21.035867
1838.000000	21.000833
1839.000000	21.026833
1840.000000	21.151433
1841.000000	21.235467
1842.000000	21.281467
1843.000000	21.255267
1844.000000	21.202400
1845.000000	21.237867
1846.000000	21.330300
1847.000000	21.588933
1848.000000	21.736100
1849.000000	21.701267
1850.000000	21.711100
1851.000000	21.745367
1852.000000	21.778700
1853.000000	21.969233
1854.000000	22.076133
1855.000000	22.055400
1856.000000	22.163567
1857.000000	22.234000
1858.000000	22.223900
1859.000000	22.324500
1860.000000	22.439000
1861.000000	22.345400
1862.000000	22.240433
1863.000000	22.323433
1864.000000	22.327633
1865.000000	22.268500
1866.000000	22.211867
1867.000000	22.335767
1868.000000	22.350467
1869.000000	22.231400
1870.000000	22.140000
1871.000000	22.015267
1872.000000	21.784067
1873.000000	21.677300
1874.000000	21.414100
1875.000000	21.104133
1876.000000	20.892700
1877.000000	20.691400
1878.000000	20.273100
1879.000000	19.905133
1880.000000	19.644333
1881.000000	19.293867
1882.000000	18.841600
1883.000000	18.579067
1884.000000	18.349567
1885.000000	17.981600
1886.000000	17.676433
1887.000000	17.455367
1888.000000	17.192067
1889.000000	17.081100
1890.000000	16.948833
1891.000000	16.763600
1892.000000	16.581033
1893.000000	16.400433
1894.000000	16.181933
1895.000000	15.959367
1896.000000	15.815767
1897.000000	15.682600
1898.000000	15.554500
1899.000000	15.464733
1900.000000	15.247433
1901.000000	14.964167
1902.000000	14.816033
1903.000000	14.654167
1904.000000	14.458233
1905.000000	14.426067
1906.000000	14.168767
1907.000000	13.969800
1908.000000	13.743033
1909.000000	13.602967
1910.000000	13.488867
1911.000000	13.395800
1912.000000	13.209900
1913.000000	13.089500
1914.000000	12.972467
1915.000000	12.782267
1916.000000	12.685767
1917.000000	12.463900
1918.000000	12.336500
1919.000000	12.271200
1920.000000	12.294533
1921.000000	12.193067
1922.000000	11.935667
1923.000000	11.867867
1924.000000	11.813267
1925.000000	11.665467
1926.000000	11.593933
1927.000000	11.553667
1928.000000	11.526167
1929.000000	11.406033
1930.000000	11.314233
1931.000000	11.287900
1932.000000	11.216567
1933.000000	11.138433
1934.000000	11.122233
1935.000000	11.055133
1936.000000	11.037167
1937.000000	11.022100
1938.000000	11.033200
1939.000000	11.070667
1940.000000	11.027933
1941.000000	11.013467
1942.000000	11.013700
1943.000000	10.984667
1944.000000	11.019200
1945.000000	11.056800
1946.000000	11.082900
1947.000000	11.089800
1948.000000	11.102533
1949.000000	11.126333
1950.000000	11.160800
1951.000000	11.174933
1952.000000	11.215600
1953.000000	11.228367
1954.000000	11.275900
1955.000000	11.307167
1956.000000	11.328233
1957.000000	11.338633
1958.000000	11.382133
1959.000000	11.413733
1960.000000	11.464533
1961.000000	11.528633
1962.000000	11.519333
1963.000000	11.553133
1964.000000	11.583200
1965.000000	11.642633
1966.000000	11.710433
1967.000000	11.723933
1968.000000	11.761133
1969.000000	11.778667
1970.000000	11.823033
1971.000000	11.838900
1972.000000	11.918367
1973.000000	11.971033
1974.000000	11.966767
1975.000000	11.976300
1976.000000	12.039533
1977.000000	12.100600
1978.000000	12.120433
1979.000000	12.172433
1980.000000	12.219267
1981.000000	12.270200
1982.000000	12.320267
1983.000000	12.374300
1984.000000	12.396100
1985.000000	12.409700
1986.000000	12.456133
1987.000000	12.514833
1988.000000	12.557433
1989.000000	12.561833
1990.000000	12.599200
1991.000000	12.624300
1992.000000	12.638700
1993.000000	12.666800
1994.000000	12.666467
1995.000000	12.687533
1996.000000	12.704100
1997.000000	12.724933
1998.000000	12.748400
1999.000000	12.737000
2000.000000	12.733933
2001.000000	12.746767
2002.000000	12.742833
2003.000000	12.714067
2004.000000	12.710433
2005.000000	12.706700
2006.000000	12.681333
2007.000000	12.685700
2008.000000	12.687367
2009.000000	12.639733
2010.000000	12.574067
2011.000000	12.568900
2012.000000	12.546033
2013.000000	12.460800
2014.000000	12.387133
2015.000000	12.381533
2016.000000	12.394933
2017.000000	12.314967
2018.000000	12.264133
2019.000000	12.222133
2020.000000	12.148867
2021.000000	12.081967
2022.000000	11.991133
2023.000000	11.954033
2024.000000	11.893033
2025.000000	11.814933
2026.000000	11.764433
2027.000000	11.674800
2028.000000	11.639833
2029.000000	11.553367
2030.000000	11.483067
2031.000000	11.418667
2032.000000	11.361500
2033.000000	11.292167
2034.000000	11.196567
2035.000000	11.089500
2036.000000	11.017167
2037.000000	10.913600
2038.000000	10.797700
2039.000000	10.703533
2040.000000	10.642900
2041.000000	10.508533
2042.000000	10.425200
2043.000000	10.378800
2044.000000	10.253967
2045.000000	10.132433
2046.000000	9.989700
2047.000000	9.977267
2048.000000	9.982167
2049.000000	9.907133
2050.000000	9.875233
2051.000000	9.769433
2052.000000	9.804733
2053.000000	9.791000
2054.000000	9.683367
2055.000000	9.670467
2056.000000	9.724700
2057.000000	9.666033
2058.000000	9.634333
2059.000000	9.678333
2060.000000	9.691733
2061.000000	9.663133
2062.000000	9.669467
2063.000000	9.769800
2064.000000	9.812633
2065.000000	9.757300
2066.000000	9.828433
2067.000000	9.876433
2068.000000	9.793333
2069.000000	9.880467
2070.000000	9.848500
2071.000000	9.764233
2072.000000	9.739100
2073.000000	9.854867
2074.000000	9.865267
2075.000000	9.879633
2076.000000	9.855167
2077.000000	9.871733
2078.000000	9.942733
2079.000000	9.948567
2080.000000	10.010233
2081.000000	10.028500
2082.000000	10.010100
2083.000000	10.012367
2084.000000	10.055967
2085.000000	10.156900
2086.000000	9.961200
2087.000000	10.115767
2088.000000	10.142233
2089.000000	10.076133
2090.000000	10.125300
2091.000000	10.161033
2092.000000	10.104967
2093.000000	10.003400
2094.000000	10.187267
2095.000000	10.179100
2096.000000	10.066900
2097.000000	10.172767
2098.000000	10.288733
2099.000000	10.227167
2100.000000	10.209000
2101.000000	10.226333
2102.000000	10.249067
2103.000000	10.213600
2104.000000	10.362633
2105.000000	10.462400
2106.000000	10.402267
2107.000000	10.298700
2108.000000	10.334200
2109.000000	10.416300
2110.000000	10.353567
2111.000000	10.543533
2112.000000	10.547433
2113.000000	10.461333
2114.000000	10.575833
2115.000000	10.742367
2116.000000	10.681167
2117.000000	10.444033
2118.000000	10.714667
2119.000000	10.624133
2120.000000	10.724333
2121.000000	10.702433
2122.000000	10.816533
2123.000000	10.834100
2124.000000	10.890600
2125.000000	10.634633
2126.000000	10.636600
2127.000000	10.939433
2128.000000	10.836233
2129.000000	10.705833
2130.000000	10.927600
2131.000000	10.782167
2132.000000	10.659800
2133.000000	10.853867
2134.000000	10.656867
2135.000000	10.921500
2136.000000	10.656233
2137.000000	10.818133
2138.000000	10.866767
2139.000000	10.744500
2140.000000	10.754133
2141.000000	10.639633
2142.000000	10.539167
2143.000000	10.520200
2144.000000	10.771500
2145.000000	10.483200
2146.000000	10.550367
2147.000000	10.543300
2148.000000	10.389900
2149.000000	10.506067
2150.000000	10.382833
2151.000000	10.416200
2152.000000	10.444867
2153.000000	10.622867
2154.000000	10.388933
2155.000000	10.330533
2156.000000	10.383133
2157.000000	10.138200
2158.000000	10.023967
2159.000000	10.194533
2160.000000	10.157233
2161.000000	10.067533
2162.000000	10.177900
2163.000000	10.131400
2164.000000	9.922200
2165.000000	10.162867
2166.000000	10.001667
2167.000000	9.996100
2168.000000	9.969000
2169.000000	9.917300
2170.000000	9.735733
2171.000000	10.116067
2172.000000	9.822233
2173.000000	9.900133
2174.000000	10.024833
2175.000000	9.823500
2176.000000	9.719200
2177.000000	9.742967
2178.000000	9.738867
2179.000000	9.916067
2180.000000	9.848333
2181.000000	9.945333
2182.000000	9.814833
2183.000000	9.862133
2184.000000	9.825400
2185.000000	9.973067
2186.000000	10.006433
2187.000000	9.849900
2188.000000	9.959367
2189.000000	9.909667
2190.000000	9.863900
2191.000000	10.103867
2192.000000	10.039833
2193.000000	9.929533
2194.000000	9.878000
2195.000000	9.933667
2196.000000	10.045500
2197.000000	9.883267
2198.000000	9.720800
2199.000000	9.779900
2200.000000	10.013833
2201.000000	10.148100
2202.000000	10.133933
2203.000000	10.077333
2204.000000	10.073133
2205.000000	9.977467
2206.000000	9.954733
2207.000000	10.061933
2208.000000	10.061033
2209.000000	10.043800
2210.000000	9.990167
2211.000000	10.082367
2212.000000	10.050267
2213.000000	10.123467
2214.000000	10.203267
2215.000000	10.118267
2216.000000	10.141767
2217.000000	10.124667
2218.000000	9.984267
2219.000000	10.064700
2220.000000	10.159300
2221.000000	9.991467
2222.000000	10.036167
2223.000000	10.206400
2224.000000	10.312967
2225.000000	10.267600
2226.000000	10.209333
2227.000000	10.272267
2228.000000	10.035200
2229.000000	10.111200
2230.000000	10.142767
2231.000000	10.016400
2232.000000	10.078367
2233.000000	10.071467
2234.000000	9.970233
2235.000000	9.997700
2236.000000	9.953200
2237.000000	9.801767
2238.000000	9.747333
2239.000000	9.723467
2240.000000	9.676433
2241.000000	9.713867
2242.000000	9.621900
2243.000000	9.489667
2244.000000	9.511267
2245.000000	9.565267
2246.000000	9.368000
2247.000000	9.204700
2248.000000	9.083933
2249.000000	8.996767
2250.000000	8.986467
2251.000000	8.786300
2252.000000	8.706433
2253.000000	8.667933
2254.000000	8.486067
2255.000000	8.288267
2256.000000	8.126800
2257.000000	8.057800
2258.000000	7.874433
2259.000000	7.846500
2260.000000	7.872567
2261.000000	7.677467
2262.000000	7.543067
2263.000000	7.526500
2264.000000	7.370500
2265.000000	7.317133
2266.000000	7.348167
2267.000000	7.295367
2268.000000	7.274800
2269.000000	7.193967
2270.000000	7.014400
2271.000000	6.999667
2272.000000	6.958967
2273.000000	7.061400
2274.000000	7.170000
2275.000000	7.049567
2276.000000	7.010867
2277.000000	7.229833
2278.000000	7.366533
2279.000000	7.256300
2280.000000	7.157800
2281.000000	7.174033
2282.000000	7.293267
2283.000000	7.436000
2284.000000	7.273633
2285.000000	7.310100
2286.000000	7.360833
2287.000000	7.377600
2288.000000	7.498300
2289.000000	7.421700
2290.000000	7.317433
2291.000000	7.458933
2292.000000	7.574967
2293.000000	7.515933
2294.000000	7.403200
2295.000000	7.370500
2296.000000	7.312533
2297.000000	7.268733
2298.000000	7.061267
2299.000000	7.180700
2300.000000	7.230900
2301.000000	6.885733
2302.000000	6.980733
2303.000000	7.009933
2304.000000	7.063000
2305.000000	7.056633
2306.000000	6.946500
2307.000000	6.932767
2308.000000	6.824433
2309.000000	6.919433
2310.000000	7.138400
2311.000000	7.013000
2312.000000	7.101967
2313.000000	7.387600
2314.000000	7.431600
2315.000000	7.309600
2316.000000	7.384033
2317.000000	7.659300
2318.000000	7.479400
2319.000000	7.659233
2320.000000	7.739600
2321.000000	7.786933
2322.000000	7.624200
2323.000000	7.793367
2324.000000	8.015933
2325.000000	8.194167
2326.000000	7.982667
2327.000000	7.912667
2328.000000	7.960133
2329.000000	7.979333
2330.000000	8.214933
2331.000000	8.382933
2332.000000	8.187267
2333.000000	8.008000
2334.000000	8.362767
2335.000000	8.157033
2336.000000	8.156133
2337.000000	8.217867
2338.000000	8.259567
2339.000000	8.646867
2340.000000	8.395133
2341.000000	8.330133
2342.000000	8.169433
2343.000000	8.353733
2344.000000	8.427833
2345.000000	8.082400
2346.000000	8.160067
2347.000000	8.526167
2348.000000	8.078133
2349.000000	7.974200
2350.000000	8.506800
2351.000000	7.963700
2352.000000	8.395000
2353.000000	8.351767
2354.000000	8.294500
2355.000000	8.152367
2356.000000	8.349233
2357.000000	8.432567
2358.000000	8.473100
2359.000000	8.741500
2360.000000	8.571300
2361.000000	8.577500
2362.000000	8.698767
2363.000000	8.742367
2364.000000	8.398900
2365.000000	8.603367
2366.000000	8.917133
2367.000000	8.166900
2368.000000	8.460467
2369.000000	8.777967
2370.000000	8.974467
2371.000000	8.733867
2372.000000	8.882867
2373.000000	9.150567
2374.000000	8.972767
2375.000000	8.853200
2376.000000	8.900133
2377.000000	9.211933
2378.000000	9.077033
2379.000000	9.015567
2380.000000	8.987600
2381.000000	8.953933
2382.000000	9.314433
2383.000000	9.201133
2384.000000	9.141800
2385.000000	9.494667
2386.000000	9.224900
2387.000000	9.381133
2388.000000	9.665433
2389.000000	9.051200
2390.000000	9.450033
2391.000000	9.024933
2392.000000	9.194767
2393.000000	9.434267
2394.000000	9.140200
2395.000000	8.896500
2396.000000	9.293533
2397.000000	8.846767
2398.000000	9.395233
2399.000000	8.957933
2400.000000	9.170633
2401.000000	7.978000
2402.000000	7.966400
2403.000000	7.958700
2404.000000	7.941400
2405.000000	7.932700
2406.000000	7.937400
2407.000000	7.919200
2408.000000	7.901800
2409.000000	7.875900
2410.000000	7.894500
2411.000000	7.905200
2412.000000	7.885100
2413.000000	7.869000
2414.000000	7.865100
2415.000000	7.853900
2416.000000	7.841600
2417.000000	7.858100
2418.000000	7.847600
2419.000000	7.829200
2420.000000	7.821900
2421.000000	7.812400
2422.000000	7.802200
2423.000000	7.806600
2424.000000	7.798600
2425.000000	7.778000
2426.000000	7.764000
2427.000000	7.733400
2428.000000	7.709300
2429.000000	7.676500
2430.000000	7.651600
2431.000000	7.621600
2432.000000	7.599600
2433.000000	7.565900
2434.000000	7.531100
2435.000000	7.497500
2436.000000	7.479000
2437.000000	7.442100
2438.000000	7.390800
2439.000000	7.352600
2440.000000	7.336800
2441.000000	7.282100
2442.000000	7.228000
2443.000000	7.178900
2444.000000	7.140200
2445.000000	7.083200
2446.000000	7.026800
2447.000000	6.991600
2448.000000	6.974300
2449.000000	6.926700
2450.000000	6.874600
2451.000000	6.821700
2452.000000	6.783500
2453.000000	6.748000
2454.000000	6.701200
2455.000000	6.673700
2456.000000	6.640400
2457.000000	6.596700
2458.000000	6.553200
2459.000000	6.535400
2460.000000	6.522400
2461.000000	6.489600
2462.000000	6.457100
2463.000000	6.431800
2464.000000	6.411200
2465.000000	6.416300
2466.000000	6.407700
2467.000000	6.420100
2468.000000	6.411100
2469.000000	6.411000
2470.000000	6.422200
2471.000000	6.453700
2472.000000	6.406900
2473.000000	6.435500
2474.000000	6.444300
2475.000000	6.424700
2476.000000	6.441900
2477.000000	6.397100
2478.000000	6.441500
2479.000000	6.415900
2480.000000	6.433000
2481.000000	6.497500
2482.000000	6.513100
2483.000000	6.531000
2484.000000	6.470200
2485.000000	6.481900
2486.000000	6.497700
2487.000000	6.450100
2488.000000	6.525400
2489.000000	6.541800
2490.000000	6.530200
2491.000000	6.616000
2492.000000	6.584500
2493.000000	6.614400
2494.000000	6.604800
2495.000000	6.699400
2496.000000	6.704400
2497.000000	6.649800
2498.000000	6.720800
2499.000000	6.734000
2500.000000	6.748300
