PE UV       SUBTECH     SPECTRUM    ASCII       PEDS        4.00        
   -1
CICIMAUCR0100-3.Sample.ASC
24/04/18
17:00:45.00
24/04/18
17:00:45.00
Vinicio Soto Monge
C. cupreomarginata
250,000000
1
Lambda 1050
1050L1511233
PerkinElmer UV WinLab 6.3.2.0749 / 2.02.05 Lambda 900 UV/VIS/NIR, Aug  7 2015 09:38:08

0
0
3350/servo 860,8/2
0
0
UV/VIS
1
1
1
DoubleDePol,CommonBeamDepol,RBeamAtt,SBeamAtt,60mm sphere, WB InGaAs Detector
0
0
0
0
Program
Program
3350/servo 860,8/2
3350/0,2 860,8/0,2
3350/0,2 860,8/0,2
0
15.00
 
 
 
0
 
860,8
319,2
860,8
Front
100
on
S:100 R:100
0
0
0
0
 
0
 
 
 
0
 
 
0
0
0
0
0
 
 
 
 
0
0


0
0
#HDR
-1
-1
#GR
nm
%R
1.0
0.0
2500,000000
-1,000000
2251
8
64,613100
4,484200
#DATA
250.000000	5.191600
251.000000	5.191933
252.000000	5.193233
253.000000	5.187600
254.000000	5.191667
255.000000	5.183867
256.000000	5.172833
257.000000	5.142867
258.000000	5.138267
259.000000	5.122833
260.000000	5.120167
261.000000	5.128000
262.000000	5.098800
263.000000	5.051133
264.000000	5.046333
265.000000	5.038200
266.000000	5.026733
267.000000	4.991800
268.000000	4.950667
269.000000	4.962533
270.000000	4.955400
271.000000	4.969433
272.000000	4.918033
273.000000	4.932867
274.000000	4.920267
275.000000	4.901700
276.000000	4.898567
277.000000	4.862633
278.000000	4.844733
279.000000	4.888033
280.000000	4.853100
281.000000	4.835733
282.000000	4.832900
283.000000	4.805067
284.000000	4.812733
285.000000	4.783000
286.000000	4.788733
287.000000	4.801333
288.000000	4.804667
289.000000	4.747300
290.000000	4.778100
291.000000	4.761300
292.000000	4.772200
293.000000	4.743500
294.000000	4.748567
295.000000	4.759967
296.000000	4.746800
297.000000	4.723667
298.000000	4.750033
299.000000	4.735900
300.000000	4.705100
301.000000	4.704967
302.000000	4.708500
303.000000	4.709133
304.000000	4.695233
305.000000	4.656633
306.000000	4.687400
307.000000	4.711167
308.000000	4.686000
309.000000	4.680167
310.000000	4.700000
311.000000	4.697800
312.000000	4.665333
313.000000	4.706300
314.000000	4.698400
315.000000	4.684600
316.000000	4.751467
317.000000	5.000767
318.000000	5.016700
319.000000	4.933367
320.000000	4.924500
321.000000	4.923367
322.000000	4.869733
323.000000	4.860667
324.000000	4.872467
325.000000	4.907700
326.000000	4.880267
327.000000	4.899300
328.000000	4.863333
329.000000	4.954000
330.000000	4.846700
331.000000	4.875533
332.000000	4.799700
333.000000	4.818100
334.000000	4.756800
335.000000	4.874067
336.000000	4.841367
337.000000	4.839767
338.000000	4.793933
339.000000	4.884300
340.000000	4.828100
341.000000	4.835300
342.000000	4.834033
343.000000	4.861767
344.000000	4.853967
345.000000	4.832900
346.000000	4.858367
347.000000	4.885400
348.000000	4.863433
349.000000	4.841300
350.000000	4.834033
351.000000	4.850300
352.000000	4.917100
353.000000	4.938433
354.000000	4.900300
355.000000	4.922433
356.000000	4.938333
357.000000	4.945500
358.000000	4.967567
359.000000	4.983000
360.000000	4.968100
361.000000	5.003833
362.000000	5.041233
363.000000	5.008767
364.000000	5.028800
365.000000	5.066200
366.000000	5.091933
367.000000	5.089000
368.000000	5.143833
369.000000	5.150800
370.000000	5.179633
371.000000	5.186000
372.000000	5.199867
373.000000	5.212767
374.000000	5.220967
375.000000	5.320933
376.000000	5.452500
377.000000	5.484700
378.000000	5.543100
379.000000	5.619667
380.000000	5.682133
381.000000	5.759900
382.000000	5.847967
383.000000	5.933800
384.000000	6.024633
385.000000	6.132933
386.000000	6.245867
387.000000	6.342267
388.000000	6.459233
389.000000	6.600633
390.000000	6.742933
391.000000	6.882533
392.000000	7.028567
393.000000	7.191833
394.000000	7.357500
395.000000	7.530267
396.000000	7.702867
397.000000	7.875833
398.000000	8.061900
399.000000	8.253367
400.000000	8.445133
401.000000	8.644033
402.000000	8.841800
403.000000	9.044600
404.000000	9.243733
405.000000	9.447600
406.000000	9.650233
407.000000	9.856167
408.000000	10.054267
409.000000	10.246667
410.000000	10.438733
411.000000	10.636667
412.000000	10.826400
413.000000	11.013367
414.000000	11.211100
415.000000	11.398700
416.000000	11.575700
417.000000	11.752733
418.000000	11.926233
419.000000	12.101233
420.000000	12.281000
421.000000	12.459233
422.000000	12.640133
423.000000	12.810767
424.000000	12.972500
425.000000	13.144267
426.000000	13.301333
427.000000	13.457967
428.000000	13.612533
429.000000	13.761500
430.000000	13.912800
431.000000	14.057700
432.000000	14.215167
433.000000	14.367400
434.000000	14.510767
435.000000	14.658467
436.000000	14.797000
437.000000	14.923367
438.000000	15.051733
439.000000	15.182300
440.000000	15.307600
441.000000	15.422867
442.000000	15.532333
443.000000	15.639933
444.000000	15.738033
445.000000	15.822733
446.000000	15.909067
447.000000	15.986700
448.000000	16.057933
449.000000	16.138633
450.000000	16.226133
451.000000	16.314633
452.000000	16.399000
453.000000	16.485767
454.000000	16.586367
455.000000	16.688200
456.000000	16.790867
457.000000	16.904667
458.000000	17.037500
459.000000	17.167400
460.000000	17.307467
461.000000	17.463500
462.000000	17.619767
463.000000	17.781600
464.000000	17.951667
465.000000	18.128800
466.000000	18.314267
467.000000	18.500167
468.000000	18.682000
469.000000	18.874167
470.000000	19.072933
471.000000	19.278233
472.000000	19.479067
473.000000	19.670833
474.000000	19.881200
475.000000	20.097433
476.000000	20.310100
477.000000	20.523533
478.000000	20.740733
479.000000	20.972567
480.000000	21.203867
481.000000	21.441133
482.000000	21.688967
483.000000	21.941333
484.000000	22.201267
485.000000	22.470467
486.000000	22.742233
487.000000	23.030833
488.000000	23.347533
489.000000	23.667067
490.000000	23.995133
491.000000	24.337233
492.000000	24.704633
493.000000	25.076200
494.000000	25.449900
495.000000	25.829300
496.000000	26.223633
497.000000	26.622000
498.000000	27.014300
499.000000	27.425367
500.000000	27.832467
501.000000	28.237933
502.000000	28.665067
503.000000	29.085267
504.000000	29.512900
505.000000	29.954300
506.000000	30.374500
507.000000	30.820367
508.000000	31.264933
509.000000	31.730200
510.000000	32.210467
511.000000	32.708667
512.000000	33.239533
513.000000	33.801467
514.000000	34.366400
515.000000	34.949900
516.000000	35.570267
517.000000	36.209233
518.000000	36.883933
519.000000	37.586000
520.000000	38.316033
521.000000	39.080033
522.000000	39.873700
523.000000	40.703633
524.000000	41.556067
525.000000	42.418700
526.000000	43.292500
527.000000	44.184167
528.000000	45.069433
529.000000	45.962967
530.000000	46.868933
531.000000	47.766700
532.000000	48.669567
533.000000	49.544667
534.000000	50.402067
535.000000	51.221167
536.000000	52.025333
537.000000	52.795200
538.000000	53.519967
539.000000	54.237233
540.000000	54.918700
541.000000	55.572967
542.000000	56.176033
543.000000	56.739100
544.000000	57.281000
545.000000	57.791200
546.000000	58.257700
547.000000	58.708233
548.000000	59.102200
549.000000	59.496300
550.000000	59.825700
551.000000	60.121200
552.000000	60.421100
553.000000	60.675233
554.000000	60.873967
555.000000	61.084367
556.000000	61.258667
557.000000	61.393633
558.000000	61.527633
559.000000	61.615800
560.000000	61.590900
561.000000	61.647267
562.000000	61.704300
563.000000	61.743267
564.000000	61.807533
565.000000	61.834833
566.000000	61.874967
567.000000	61.917867
568.000000	61.925033
569.000000	61.925100
570.000000	61.937800
571.000000	61.909133
572.000000	61.859233
573.000000	61.794600
574.000000	61.712567
575.000000	61.630700
576.000000	61.486567
577.000000	61.361233
578.000000	61.226433
579.000000	61.042367
580.000000	60.879433
581.000000	60.686900
582.000000	60.499100
583.000000	60.294633
584.000000	60.110567
585.000000	59.922967
586.000000	59.726600
587.000000	59.552533
588.000000	59.367667
589.000000	59.197300
590.000000	59.004133
591.000000	58.841833
592.000000	58.645333
593.000000	58.469200
594.000000	58.264767
595.000000	58.037800
596.000000	57.832067
597.000000	57.614667
598.000000	57.379167
599.000000	57.106267
600.000000	56.842733
601.000000	56.565333
602.000000	56.264933
603.000000	55.943100
604.000000	55.622800
605.000000	55.311467
606.000000	54.985900
607.000000	54.617233
608.000000	54.293633
609.000000	53.927100
610.000000	53.544733
611.000000	53.160533
612.000000	52.779167
613.000000	52.388167
614.000000	51.971400
615.000000	51.573433
616.000000	51.191067
617.000000	50.755600
618.000000	50.365200
619.000000	49.969767
620.000000	49.577500
621.000000	49.167533
622.000000	48.799100
623.000000	48.468900
624.000000	48.140567
625.000000	47.834867
626.000000	47.573467
627.000000	47.325400
628.000000	47.112100
629.000000	46.930367
630.000000	46.783500
631.000000	46.671600
632.000000	46.607367
633.000000	46.571433
634.000000	46.566900
635.000000	46.611933
636.000000	46.691267
637.000000	46.806500
638.000000	46.954533
639.000000	47.083867
640.000000	47.291767
641.000000	47.507633
642.000000	47.709367
643.000000	47.940933
644.000000	48.161500
645.000000	48.401500
646.000000	48.608700
647.000000	48.807467
648.000000	49.011633
649.000000	49.199800
650.000000	49.362067
651.000000	49.541100
652.000000	49.699533
653.000000	49.843100
654.000000	49.989433
655.000000	50.113267
656.000000	50.208400
657.000000	50.332833
658.000000	50.425200
659.000000	50.502933
660.000000	50.565667
661.000000	50.606567
662.000000	50.655900
663.000000	50.677267
664.000000	50.707233
665.000000	50.741933
666.000000	50.748867
667.000000	50.783833
668.000000	50.773600
669.000000	50.767933
670.000000	50.755167
671.000000	50.755933
672.000000	50.740133
673.000000	50.723167
674.000000	50.724100
675.000000	50.729267
676.000000	50.739700
677.000000	50.729500
678.000000	50.726600
679.000000	50.746900
680.000000	50.750433
681.000000	50.765767
682.000000	50.792833
683.000000	50.832733
684.000000	50.851067
685.000000	50.890200
686.000000	50.935100
687.000000	50.979900
688.000000	51.002367
689.000000	51.049800
690.000000	51.119367
691.000000	51.181333
692.000000	51.236967
693.000000	51.334967
694.000000	51.394700
695.000000	51.451867
696.000000	51.532767
697.000000	51.653067
698.000000	51.736633
699.000000	51.821700
700.000000	51.946567
701.000000	52.039967
702.000000	52.139933
703.000000	52.251533
704.000000	52.332333
705.000000	52.422000
706.000000	52.523200
707.000000	52.612833
708.000000	52.689267
709.000000	52.772600
710.000000	52.858967
711.000000	52.939400
712.000000	53.024433
713.000000	53.106167
714.000000	53.184867
715.000000	53.249500
716.000000	53.333467
717.000000	53.416700
718.000000	53.498533
719.000000	53.553733
720.000000	53.617900
721.000000	53.717600
722.000000	53.777300
723.000000	53.808833
724.000000	53.867600
725.000000	53.956600
726.000000	54.010633
727.000000	54.026033
728.000000	54.046067
729.000000	54.107967
730.000000	54.187200
731.000000	54.230000
732.000000	54.283067
733.000000	54.367633
734.000000	54.408033
735.000000	54.428333
736.000000	54.494167
737.000000	54.572400
738.000000	54.623333
739.000000	54.689033
740.000000	54.731533
741.000000	54.786967
742.000000	54.879467
743.000000	54.949300
744.000000	54.995067
745.000000	55.019767
746.000000	55.094533
747.000000	55.212133
748.000000	55.274067
749.000000	55.351567
750.000000	55.447400
751.000000	55.514633
752.000000	55.607033
753.000000	55.732267
754.000000	55.823667
755.000000	55.908133
756.000000	56.028867
757.000000	56.143200
758.000000	56.254867
759.000000	56.375600
760.000000	56.486367
761.000000	56.593900
762.000000	56.730767
763.000000	56.855833
764.000000	56.955000
765.000000	57.088933
766.000000	57.212500
767.000000	57.330733
768.000000	57.458633
769.000000	57.613000
770.000000	57.752467
771.000000	57.904067
772.000000	58.028767
773.000000	58.139700
774.000000	58.247133
775.000000	58.433467
776.000000	58.608700
777.000000	58.695233
778.000000	58.830633
779.000000	58.960300
780.000000	59.107000
781.000000	59.233700
782.000000	59.383800
783.000000	59.567500
784.000000	59.705833
785.000000	59.826667
786.000000	59.969800
787.000000	60.139067
788.000000	60.281433
789.000000	60.442267
790.000000	60.510433
791.000000	60.625000
792.000000	60.788400
793.000000	60.909333
794.000000	61.057067
795.000000	61.166333
796.000000	61.270800
797.000000	61.416167
798.000000	61.526933
799.000000	61.595600
800.000000	61.721733
801.000000	61.873133
802.000000	61.942500
803.000000	62.028000
804.000000	62.135467
805.000000	62.222367
806.000000	62.328733
807.000000	62.461367
808.000000	62.541833
809.000000	62.551367
810.000000	62.652733
811.000000	62.711333
812.000000	62.802967
813.000000	62.875133
814.000000	62.947000
815.000000	63.070000
816.000000	63.118100
817.000000	63.101100
818.000000	63.140600
819.000000	63.250133
820.000000	63.277867
821.000000	63.286333
822.000000	63.353200
823.000000	63.479200
824.000000	63.441467
825.000000	63.505600
826.000000	63.607333
827.000000	63.640333
828.000000	63.667033
829.000000	63.718767
830.000000	63.760400
831.000000	63.803867
832.000000	63.818700
833.000000	63.812033
834.000000	63.813767
835.000000	63.832333
836.000000	63.913500
837.000000	64.021300
838.000000	64.095100
839.000000	64.114167
840.000000	64.145033
841.000000	64.238400
842.000000	64.052333
843.000000	64.291833
844.000000	64.259400
845.000000	64.327867
846.000000	64.430833
847.000000	64.400300
848.000000	64.213933
849.000000	64.428767
850.000000	64.259333
851.000000	64.326300
852.000000	64.032467
853.000000	64.210833
854.000000	64.314100
855.000000	64.334767
856.000000	64.304700
857.000000	64.222933
858.000000	64.287467
859.000000	63.931229
860.000000	64.130487
861.000000	64.334693
862.000000	64.495574
863.000000	64.626198
864.000000	64.727615
865.000000	64.838660
866.000000	64.918481
867.000000	65.013602
868.000000	65.091852
869.000000	65.160492
870.000000	65.215554
871.000000	65.286249
872.000000	65.341420
873.000000	65.408444
874.000000	65.441472
875.000000	65.493894
876.000000	65.530431
877.000000	65.555944
878.000000	65.586224
879.000000	65.610148
880.000000	65.647411
881.000000	65.653809
882.000000	65.702370
883.000000	65.722147
884.000000	65.709710
885.000000	65.721780
886.000000	65.724995
887.000000	65.735888
888.000000	65.725240
889.000000	65.724867
890.000000	65.703627
891.000000	65.696497
892.000000	65.679620
893.000000	65.658220
894.000000	65.648560
895.000000	65.647764
896.000000	65.639410
897.000000	65.623105
898.000000	65.605119
899.000000	65.583259
900.000000	65.559581
901.000000	65.553379
902.000000	65.536938
903.000000	65.525729
904.000000	65.513203
905.000000	65.504622
906.000000	65.494661
907.000000	65.503158
908.000000	65.492350
909.000000	65.484728
910.000000	65.508847
911.000000	65.525804
912.000000	65.530422
913.000000	65.553384
914.000000	65.572920
915.000000	65.552092
916.000000	65.573241
917.000000	65.580841
918.000000	65.579471
919.000000	65.574164
920.000000	65.568884
921.000000	65.557638
922.000000	65.558101
923.000000	65.530597
924.000000	65.537960
925.000000	65.511840
926.000000	65.502942
927.000000	65.488761
928.000000	65.455807
929.000000	65.454193
930.000000	65.430376
931.000000	65.387431
932.000000	65.363046
933.000000	65.343682
934.000000	65.307101
935.000000	65.261679
936.000000	65.235493
937.000000	65.203433
938.000000	65.160827
939.000000	65.153343
940.000000	65.101352
941.000000	65.093173
942.000000	65.062234
943.000000	65.021724
944.000000	64.999005
945.000000	64.978289
946.000000	64.938814
947.000000	64.917299
948.000000	64.898220
949.000000	64.861030
950.000000	64.836884
951.000000	64.820385
952.000000	64.779167
953.000000	64.773510
954.000000	64.748682
955.000000	64.723779
956.000000	64.697600
957.000000	64.677490
958.000000	64.648006
959.000000	64.628376
960.000000	64.607402
961.000000	64.582956
962.000000	64.553561
963.000000	64.539604
964.000000	64.519630
965.000000	64.507800
966.000000	64.491617
967.000000	64.466904
968.000000	64.461584
969.000000	64.448436
970.000000	64.436649
971.000000	64.415025
972.000000	64.396167
973.000000	64.384802
974.000000	64.376950
975.000000	64.363633
976.000000	64.347867
977.000000	64.331149
978.000000	64.315868
979.000000	64.309556
980.000000	64.289255
981.000000	64.267479
982.000000	64.250465
983.000000	64.228426
984.000000	64.218248
985.000000	64.203317
986.000000	64.177514
987.000000	64.157861
988.000000	64.143651
989.000000	64.121968
990.000000	64.101390
991.000000	64.089423
992.000000	64.067774
993.000000	64.054614
994.000000	64.041341
995.000000	64.034851
996.000000	64.021330
997.000000	64.003143
998.000000	63.990764
999.000000	63.977310
1000.000000	63.974721
1001.000000	63.968919
1002.000000	63.954882
1003.000000	63.944850
1004.000000	63.944788
1005.000000	63.943520
1006.000000	63.928531
1007.000000	63.915857
1008.000000	63.908407
1009.000000	63.905394
1010.000000	63.905399
1011.000000	63.905099
1012.000000	63.910559
1013.000000	63.921326
1014.000000	63.926855
1015.000000	63.941113
1016.000000	63.965363
1017.000000	63.994517
1018.000000	64.028814
1019.000000	64.063427
1020.000000	64.100656
1021.000000	64.143970
1022.000000	64.188903
1023.000000	64.233326
1024.000000	64.281081
1025.000000	64.322862
1026.000000	64.361002
1027.000000	64.415295
1028.000000	64.458737
1029.000000	64.496719
1030.000000	64.549195
1031.000000	64.591345
1032.000000	64.629562
1033.000000	64.668764
1034.000000	64.717109
1035.000000	64.760937
1036.000000	64.801108
1037.000000	64.840774
1038.000000	64.876914
1039.000000	64.910798
1040.000000	64.952754
1041.000000	64.992685
1042.000000	65.021582
1043.000000	65.054672
1044.000000	65.094821
1045.000000	65.130338
1046.000000	65.164614
1047.000000	65.193343
1048.000000	65.231258
1049.000000	65.282315
1050.000000	65.325845
1051.000000	65.361567
1052.000000	65.404179
1053.000000	65.445006
1054.000000	65.493860
1055.000000	65.543823
1056.000000	65.590675
1057.000000	65.636867
1058.000000	65.685843
1059.000000	65.737213
1060.000000	65.784663
1061.000000	65.828843
1062.000000	65.871762
1063.000000	65.922959
1064.000000	65.972320
1065.000000	66.022814
1066.000000	66.077984
1067.000000	66.120499
1068.000000	66.173057
1069.000000	66.220543
1070.000000	66.262762
1071.000000	66.311839
1072.000000	66.360384
1073.000000	66.403050
1074.000000	66.445263
1075.000000	66.493292
1076.000000	66.533798
1077.000000	66.584934
1078.000000	66.633586
1079.000000	66.678100
1080.000000	66.717635
1081.000000	66.768660
1082.000000	66.818189
1083.000000	66.863707
1084.000000	66.905831
1085.000000	66.949389
1086.000000	66.998269
1087.000000	67.048325
1088.000000	67.085893
1089.000000	67.126911
1090.000000	67.164128
1091.000000	67.194923
1092.000000	67.240479
1093.000000	67.270774
1094.000000	67.307077
1095.000000	67.347227
1096.000000	67.376292
1097.000000	67.406801
1098.000000	67.431691
1099.000000	67.456764
1100.000000	67.482735
1101.000000	67.505075
1102.000000	67.517176
1103.000000	67.537572
1104.000000	67.551580
1105.000000	67.572403
1106.000000	67.583624
1107.000000	67.598928
1108.000000	67.617051
1109.000000	67.633323
1110.000000	67.638999
1111.000000	67.646018
1112.000000	67.666122
1113.000000	67.669008
1114.000000	67.681663
1115.000000	67.692354
1116.000000	67.703199
1117.000000	67.706146
1118.000000	67.714991
1119.000000	67.693351
1120.000000	67.672159
1121.000000	67.655698
1122.000000	67.643752
1123.000000	67.593917
1124.000000	67.557533
1125.000000	67.504464
1126.000000	67.427576
1127.000000	67.350480
1128.000000	67.258927
1129.000000	67.148525
1130.000000	66.997849
1131.000000	66.823594
1132.000000	66.649592
1133.000000	66.489035
1134.000000	66.317917
1135.000000	66.089220
1136.000000	65.844127
1137.000000	65.583914
1138.000000	65.348796
1139.000000	65.117105
1140.000000	64.907081
1141.000000	64.700315
1142.000000	64.498918
1143.000000	64.305362
1144.000000	64.140158
1145.000000	64.004295
1146.000000	63.888057
1147.000000	63.816447
1148.000000	63.761283
1149.000000	63.728705
1150.000000	63.717513
1151.000000	63.698413
1152.000000	63.669731
1153.000000	63.616287
1154.000000	63.532672
1155.000000	63.421806
1156.000000	63.276636
1157.000000	63.088212
1158.000000	62.873791
1159.000000	62.649752
1160.000000	62.403440
1161.000000	62.148336
1162.000000	61.887967
1163.000000	61.609512
1164.000000	61.343043
1165.000000	61.065546
1166.000000	60.783306
1167.000000	60.514273
1168.000000	60.254110
1169.000000	59.982444
1170.000000	59.727929
1171.000000	59.462467
1172.000000	59.221203
1173.000000	58.987241
1174.000000	58.755973
1175.000000	58.541384
1176.000000	58.314665
1177.000000	58.073612
1178.000000	57.809596
1179.000000	57.506122
1180.000000	57.180945
1181.000000	56.829544
1182.000000	56.501078
1183.000000	56.207784
1184.000000	55.990423
1185.000000	55.852368
1186.000000	55.807933
1187.000000	55.860821
1188.000000	55.978876
1189.000000	56.209215
1190.000000	56.490384
1191.000000	56.817710
1192.000000	57.167263
1193.000000	57.483337
1194.000000	57.756886
1195.000000	57.977534
1196.000000	58.180880
1197.000000	58.334169
1198.000000	58.456230
1199.000000	58.554124
1200.000000	58.632184
1201.000000	58.692666
1202.000000	58.755327
1203.000000	58.814963
1204.000000	58.854322
1205.000000	58.890503
1206.000000	58.953922
1207.000000	59.039683
1208.000000	59.107552
1209.000000	59.187339
1210.000000	59.273490
1211.000000	59.380174
1212.000000	59.469764
1213.000000	59.569310
1214.000000	59.673416
1215.000000	59.768443
1216.000000	59.866580
1217.000000	59.979896
1218.000000	60.080731
1219.000000	60.183529
1220.000000	60.289756
1221.000000	60.408203
1222.000000	60.534211
1223.000000	60.646208
1224.000000	60.762214
1225.000000	60.889131
1226.000000	61.012890
1227.000000	61.122427
1228.000000	61.233062
1229.000000	61.362538
1230.000000	61.476105
1231.000000	61.587460
1232.000000	61.690067
1233.000000	61.799647
1234.000000	61.911356
1235.000000	62.021521
1236.000000	62.123229
1237.000000	62.216914
1238.000000	62.309172
1239.000000	62.408470
1240.000000	62.512808
1241.000000	62.606728
1242.000000	62.702390
1243.000000	62.788168
1244.000000	62.887156
1245.000000	62.971187
1246.000000	63.060168
1247.000000	63.154022
1248.000000	63.227974
1249.000000	63.284514
1250.000000	63.354377
1251.000000	63.430472
1252.000000	63.487927
1253.000000	63.537075
1254.000000	63.584660
1255.000000	63.620631
1256.000000	63.664332
1257.000000	63.703734
1258.000000	63.728837
1259.000000	63.762101
1260.000000	63.790182
1261.000000	63.817462
1262.000000	63.845996
1263.000000	63.875940
1264.000000	63.893714
1265.000000	63.919045
1266.000000	63.937220
1267.000000	63.955431
1268.000000	63.973876
1269.000000	63.991485
1270.000000	64.009331
1271.000000	64.029174
1272.000000	64.043068
1273.000000	64.054613
1274.000000	64.078485
1275.000000	64.105715
1276.000000	64.131418
1277.000000	64.162973
1278.000000	64.201552
1279.000000	64.236316
1280.000000	64.282636
1281.000000	64.324605
1282.000000	64.373271
1283.000000	64.424535
1284.000000	64.472036
1285.000000	64.524195
1286.000000	64.571039
1287.000000	64.609364
1288.000000	64.646576
1289.000000	64.686877
1290.000000	64.724009
1291.000000	64.746644
1292.000000	64.775290
1293.000000	64.798054
1294.000000	64.810209
1295.000000	64.821482
1296.000000	64.834450
1297.000000	64.843658
1298.000000	64.844151
1299.000000	64.841838
1300.000000	64.850698
1301.000000	64.862073
1302.000000	64.862267
1303.000000	64.859121
1304.000000	64.849094
1305.000000	64.832415
1306.000000	64.817529
1307.000000	64.805144
1308.000000	64.781013
1309.000000	64.757862
1310.000000	64.732287
1311.000000	64.695119
1312.000000	64.653029
1313.000000	64.605748
1314.000000	64.553600
1315.000000	64.497985
1316.000000	64.443397
1317.000000	64.389133
1318.000000	64.324233
1319.000000	64.255746
1320.000000	64.191339
1321.000000	64.121856
1322.000000	64.051568
1323.000000	63.983934
1324.000000	63.914258
1325.000000	63.827500
1326.000000	63.729908
1327.000000	63.628128
1328.000000	63.535195
1329.000000	63.426916
1330.000000	63.310868
1331.000000	63.196894
1332.000000	63.074669
1333.000000	62.928984
1334.000000	62.773711
1335.000000	62.620061
1336.000000	62.466094
1337.000000	62.290499
1338.000000	62.101047
1339.000000	61.910299
1340.000000	61.717073
1341.000000	61.498116
1342.000000	61.263243
1343.000000	61.029529
1344.000000	60.788017
1345.000000	60.512020
1346.000000	60.235806
1347.000000	59.971842
1348.000000	59.667779
1349.000000	59.333449
1350.000000	58.998144
1351.000000	58.624767
1352.000000	58.222869
1353.000000	57.835054
1354.000000	57.487310
1355.000000	57.117165
1356.000000	56.806844
1357.000000	56.598288
1358.000000	56.453245
1359.000000	56.357599
1360.000000	56.320774
1361.000000	56.277729
1362.000000	56.152910
1363.000000	55.970114
1364.000000	55.835528
1365.000000	55.652088
1366.000000	55.442730
1367.000000	55.263966
1368.000000	55.070817
1369.000000	54.798418
1370.000000	54.553234
1371.000000	54.310992
1372.000000	54.023738
1373.000000	53.728254
1374.000000	53.464340
1375.000000	53.260824
1376.000000	53.099500
1377.000000	52.967906
1378.000000	52.876127
1379.000000	52.786955
1380.000000	52.653433
1381.000000	52.558719
1382.000000	52.348436
1383.000000	52.048931
1384.000000	51.714230
1385.000000	51.300015
1386.000000	50.952237
1387.000000	50.647638
1388.000000	50.387597
1389.000000	50.046865
1390.000000	49.796357
1391.000000	49.603633
1392.000000	49.420338
1393.000000	49.188212
1394.000000	49.039871
1395.000000	48.890838
1396.000000	48.649092
1397.000000	48.331762
1398.000000	48.055211
1399.000000	47.879211
1400.000000	47.629133
1401.000000	47.276439
1402.000000	46.809076
1403.000000	46.463136
1404.000000	46.098400
1405.000000	45.720067
1406.000000	45.321465
1407.000000	44.951070
1408.000000	44.566631
1409.000000	44.241683
1410.000000	43.843116
1411.000000	43.498969
1412.000000	43.208534
1413.000000	42.968565
1414.000000	42.740508
1415.000000	42.430045
1416.000000	42.143798
1417.000000	41.856235
1418.000000	41.657629
1419.000000	41.446973
1420.000000	41.169259
1421.000000	40.881990
1422.000000	40.628953
1423.000000	40.410020
1424.000000	40.187417
1425.000000	39.936894
1426.000000	39.683502
1427.000000	39.482604
1428.000000	39.312219
1429.000000	39.098274
1430.000000	38.898501
1431.000000	38.759835
1432.000000	38.608146
1433.000000	38.444851
1434.000000	38.301469
1435.000000	38.113987
1436.000000	37.988170
1437.000000	37.857453
1438.000000	37.724796
1439.000000	37.579313
1440.000000	37.423646
1441.000000	37.291741
1442.000000	37.144843
1443.000000	37.004910
1444.000000	36.883460
1445.000000	36.757614
1446.000000	36.648667
1447.000000	36.490645
1448.000000	36.343037
1449.000000	36.240045
1450.000000	36.151898
1451.000000	36.044228
1452.000000	35.917834
1453.000000	35.769382
1454.000000	35.655502
1455.000000	35.548663
1456.000000	35.444878
1457.000000	35.341151
1458.000000	35.222007
1459.000000	35.128820
1460.000000	35.061001
1461.000000	34.971097
1462.000000	34.894357
1463.000000	34.817910
1464.000000	34.747838
1465.000000	34.685229
1466.000000	34.633011
1467.000000	34.572098
1468.000000	34.514082
1469.000000	34.467333
1470.000000	34.424284
1471.000000	34.388162
1472.000000	34.319675
1473.000000	34.256562
1474.000000	34.203695
1475.000000	34.145245
1476.000000	34.100956
1477.000000	34.062627
1478.000000	34.031974
1479.000000	33.992337
1480.000000	33.956369
1481.000000	33.924539
1482.000000	33.888978
1483.000000	33.857297
1484.000000	33.818917
1485.000000	33.795708
1486.000000	33.778914
1487.000000	33.762993
1488.000000	33.742033
1489.000000	33.721168
1490.000000	33.711391
1491.000000	33.694283
1492.000000	33.687474
1493.000000	33.679939
1494.000000	33.668758
1495.000000	33.661385
1496.000000	33.672409
1497.000000	33.680350
1498.000000	33.699058
1499.000000	33.712559
1500.000000	33.739005
1501.000000	33.755492
1502.000000	33.790834
1503.000000	33.821769
1504.000000	33.855752
1505.000000	33.891725
1506.000000	33.928137
1507.000000	33.972798
1508.000000	34.013638
1509.000000	34.049759
1510.000000	34.089579
1511.000000	34.138241
1512.000000	34.180779
1513.000000	34.222254
1514.000000	34.259872
1515.000000	34.297376
1516.000000	34.333155
1517.000000	34.374869
1518.000000	34.414408
1519.000000	34.446704
1520.000000	34.487202
1521.000000	34.520916
1522.000000	34.561759
1523.000000	34.593836
1524.000000	34.630201
1525.000000	34.664080
1526.000000	34.705031
1527.000000	34.734904
1528.000000	34.761499
1529.000000	34.788111
1530.000000	34.819260
1531.000000	34.842843
1532.000000	34.863866
1533.000000	34.884584
1534.000000	34.917906
1535.000000	34.937792
1536.000000	34.947241
1537.000000	34.963418
1538.000000	34.971527
1539.000000	34.990084
1540.000000	34.997574
1541.000000	35.011468
1542.000000	35.024541
1543.000000	35.042920
1544.000000	35.064406
1545.000000	35.086379
1546.000000	35.113715
1547.000000	35.149257
1548.000000	35.185563
1549.000000	35.227777
1550.000000	35.264989
1551.000000	35.294703
1552.000000	35.323133
1553.000000	35.354181
1554.000000	35.383979
1555.000000	35.406797
1556.000000	35.426717
1557.000000	35.435616
1558.000000	35.435682
1559.000000	35.434091
1560.000000	35.434506
1561.000000	35.431589
1562.000000	35.421468
1563.000000	35.410884
1564.000000	35.385967
1565.000000	35.353570
1566.000000	35.333723
1567.000000	35.308795
1568.000000	35.284192
1569.000000	35.262997
1570.000000	35.245626
1571.000000	35.228057
1572.000000	35.217285
1573.000000	35.205399
1574.000000	35.195462
1575.000000	35.198084
1576.000000	35.202308
1577.000000	35.213748
1578.000000	35.228094
1579.000000	35.246234
1580.000000	35.277488
1581.000000	35.307057
1582.000000	35.333876
1583.000000	35.364644
1584.000000	35.404999
1585.000000	35.451322
1586.000000	35.495505
1587.000000	35.538516
1588.000000	35.586175
1589.000000	35.639997
1590.000000	35.688589
1591.000000	35.746077
1592.000000	35.805250
1593.000000	35.866684
1594.000000	35.922489
1595.000000	35.985557
1596.000000	36.061396
1597.000000	36.132481
1598.000000	36.201502
1599.000000	36.268403
1600.000000	36.339924
1601.000000	36.420819
1602.000000	36.496398
1603.000000	36.574945
1604.000000	36.660824
1605.000000	36.744225
1606.000000	36.824068
1607.000000	36.895918
1608.000000	36.968265
1609.000000	37.038742
1610.000000	37.105886
1611.000000	37.180047
1612.000000	37.256834
1613.000000	37.329232
1614.000000	37.392672
1615.000000	37.462568
1616.000000	37.532130
1617.000000	37.601935
1618.000000	37.679058
1619.000000	37.751950
1620.000000	37.820802
1621.000000	37.896534
1622.000000	37.969522
1623.000000	38.042349
1624.000000	38.116443
1625.000000	38.198669
1626.000000	38.275547
1627.000000	38.348729
1628.000000	38.417094
1629.000000	38.496519
1630.000000	38.577274
1631.000000	38.646356
1632.000000	38.719031
1633.000000	38.789031
1634.000000	38.850320
1635.000000	38.908905
1636.000000	38.965958
1637.000000	39.013399
1638.000000	39.065236
1639.000000	39.115900
1640.000000	39.168796
1641.000000	39.210237
1642.000000	39.256127
1643.000000	39.298026
1644.000000	39.331836
1645.000000	39.379408
1646.000000	39.409322
1647.000000	39.443915
1648.000000	39.468362
1649.000000	39.493860
1650.000000	39.509824
1651.000000	39.521468
1652.000000	39.514680
1653.000000	39.508197
1654.000000	39.490416
1655.000000	39.462245
1656.000000	39.425137
1657.000000	39.372700
1658.000000	39.304118
1659.000000	39.234064
1660.000000	39.145009
1661.000000	39.039444
1662.000000	38.922575
1663.000000	38.806797
1664.000000	38.662561
1665.000000	38.517860
1666.000000	38.369409
1667.000000	38.205134
1668.000000	37.983665
1669.000000	37.787510
1670.000000	37.561921
1671.000000	37.336186
1672.000000	37.087400
1673.000000	36.817474
1674.000000	36.490979
1675.000000	36.134963
1676.000000	35.711902
1677.000000	35.271051
1678.000000	34.768404
1679.000000	34.230540
1680.000000	33.702964
1681.000000	33.191735
1682.000000	32.743129
1683.000000	32.425911
1684.000000	32.191167
1685.000000	32.078971
1686.000000	32.006854
1687.000000	31.976561
1688.000000	31.953189
1689.000000	31.881171
1690.000000	31.798093
1691.000000	31.676160
1692.000000	31.550551
1693.000000	31.447367
1694.000000	31.367100
1695.000000	31.326617
1696.000000	31.358309
1697.000000	31.430793
1698.000000	31.545431
1699.000000	31.661124
1700.000000	31.821583
1701.000000	31.951636
1702.000000	32.050622
1703.000000	32.140873
1704.000000	32.204000
1705.000000	32.236975
1706.000000	32.265681
1707.000000	32.277886
1708.000000	32.264540
1709.000000	32.258279
1710.000000	32.214918
1711.000000	32.167161
1712.000000	32.085560
1713.000000	31.997046
1714.000000	31.895553
1715.000000	31.781423
1716.000000	31.678519
1717.000000	31.567723
1718.000000	31.474882
1719.000000	31.394272
1720.000000	31.322922
1721.000000	31.258269
1722.000000	31.229959
1723.000000	31.186324
1724.000000	31.154645
1725.000000	31.107110
1726.000000	31.050880
1727.000000	30.975428
1728.000000	30.886533
1729.000000	30.812557
1730.000000	30.730337
1731.000000	30.683267
1732.000000	30.633185
1733.000000	30.634732
1734.000000	30.656720
1735.000000	30.721051
1736.000000	30.838235
1737.000000	31.009373
1738.000000	31.199649
1739.000000	31.417520
1740.000000	31.646848
1741.000000	31.881414
1742.000000	32.103570
1743.000000	32.306170
1744.000000	32.486983
1745.000000	32.638287
1746.000000	32.772933
1747.000000	32.892567
1748.000000	32.991403
1749.000000	33.077138
1750.000000	33.147273
1751.000000	33.206543
1752.000000	33.243669
1753.000000	33.267952
1754.000000	33.283649
1755.000000	33.296012
1756.000000	33.277433
1757.000000	33.255070
1758.000000	33.212959
1759.000000	33.175160
1760.000000	33.139831
1761.000000	33.113213
1762.000000	33.098360
1763.000000	33.106313
1764.000000	33.155062
1765.000000	33.223562
1766.000000	33.315922
1767.000000	33.421721
1768.000000	33.542676
1769.000000	33.674112
1770.000000	33.804505
1771.000000	33.938398
1772.000000	34.073695
1773.000000	34.207757
1774.000000	34.333619
1775.000000	34.458254
1776.000000	34.584766
1777.000000	34.691979
1778.000000	34.790948
1779.000000	34.885630
1780.000000	34.972642
1781.000000	35.054238
1782.000000	35.124754
1783.000000	35.186921
1784.000000	35.258314
1785.000000	35.334823
1786.000000	35.405261
1787.000000	35.460902
1788.000000	35.506425
1789.000000	35.559930
1790.000000	35.606920
1791.000000	35.662895
1792.000000	35.712695
1793.000000	35.766420
1794.000000	35.815820
1795.000000	35.853947
1796.000000	35.892655
1797.000000	35.926934
1798.000000	35.959522
1799.000000	36.000578
1800.000000	36.070172
1801.000000	36.129296
1802.000000	36.167486
1803.000000	36.196174
1804.000000	36.226547
1805.000000	36.274179
1806.000000	36.334226
1807.000000	36.378680
1808.000000	36.398777
1809.000000	36.427656
1810.000000	36.471620
1811.000000	36.523407
1812.000000	36.561744
1813.000000	36.575467
1814.000000	36.572451
1815.000000	36.593021
1816.000000	36.613164
1817.000000	36.616210
1818.000000	36.621798
1819.000000	36.651772
1820.000000	36.720431
1821.000000	36.766745
1822.000000	36.768760
1823.000000	36.746740
1824.000000	36.755932
1825.000000	36.809330
1826.000000	36.876164
1827.000000	36.938366
1828.000000	37.021619
1829.000000	37.111637
1830.000000	37.179764
1831.000000	37.245740
1832.000000	37.304517
1833.000000	37.369726
1834.000000	37.450226
1835.000000	37.540016
1836.000000	37.625148
1837.000000	37.699286
1838.000000	37.749279
1839.000000	37.799384
1840.000000	37.857327
1841.000000	37.908033
1842.000000	37.925852
1843.000000	37.907527
1844.000000	37.915816
1845.000000	37.960460
1846.000000	38.036331
1847.000000	38.130658
1848.000000	38.195209
1849.000000	38.228470
1850.000000	38.226395
1851.000000	38.226299
1852.000000	38.237680
1853.000000	38.282997
1854.000000	38.328020
1855.000000	38.336734
1856.000000	38.339256
1857.000000	38.340014
1858.000000	38.319977
1859.000000	38.294706
1860.000000	38.256038
1861.000000	38.180001
1862.000000	38.104064
1863.000000	38.029843
1864.000000	37.960043
1865.000000	37.879853
1866.000000	37.797524
1867.000000	37.725625
1868.000000	37.616269
1869.000000	37.447578
1870.000000	37.259728
1871.000000	37.054890
1872.000000	36.811175
1873.000000	36.519402
1874.000000	36.194240
1875.000000	35.854702
1876.000000	35.498903
1877.000000	35.113070
1878.000000	34.704438
1879.000000	34.262249
1880.000000	33.814381
1881.000000	33.328128
1882.000000	32.819279
1883.000000	32.333190
1884.000000	31.814767
1885.000000	31.285372
1886.000000	30.813805
1887.000000	30.370465
1888.000000	29.951331
1889.000000	29.509632
1890.000000	29.100597
1891.000000	28.665811
1892.000000	28.217812
1893.000000	27.766031
1894.000000	27.339707
1895.000000	26.948609
1896.000000	26.584644
1897.000000	26.218269
1898.000000	25.794821
1899.000000	25.412690
1900.000000	24.983169
1901.000000	24.583873
1902.000000	24.244242
1903.000000	23.887153
1904.000000	23.550879
1905.000000	23.195778
1906.000000	22.828960
1907.000000	22.474139
1908.000000	22.167133
1909.000000	21.895750
1910.000000	21.647077
1911.000000	21.362379
1912.000000	21.117870
1913.000000	20.852491
1914.000000	20.563082
1915.000000	20.304191
1916.000000	20.086688
1917.000000	19.890171
1918.000000	19.681332
1919.000000	19.493172
1920.000000	19.301841
1921.000000	19.124766
1922.000000	18.934647
1923.000000	18.774309
1924.000000	18.631929
1925.000000	18.484532
1926.000000	18.367179
1927.000000	18.258155
1928.000000	18.151560
1929.000000	18.047061
1930.000000	17.961280
1931.000000	17.888340
1932.000000	17.818514
1933.000000	17.762491
1934.000000	17.712036
1935.000000	17.680361
1936.000000	17.665379
1937.000000	17.648445
1938.000000	17.648206
1939.000000	17.662523
1940.000000	17.660469
1941.000000	17.663492
1942.000000	17.688717
1943.000000	17.719841
1944.000000	17.745606
1945.000000	17.801975
1946.000000	17.844546
1947.000000	17.913706
1948.000000	17.963945
1949.000000	18.019125
1950.000000	18.078283
1951.000000	18.141499
1952.000000	18.218795
1953.000000	18.318247
1954.000000	18.390509
1955.000000	18.474958
1956.000000	18.547988
1957.000000	18.651694
1958.000000	18.718400
1959.000000	18.807364
1960.000000	18.885844
1961.000000	18.979388
1962.000000	19.058198
1963.000000	19.143422
1964.000000	19.210688
1965.000000	19.289199
1966.000000	19.393429
1967.000000	19.461727
1968.000000	19.546020
1969.000000	19.629350
1970.000000	19.719405
1971.000000	19.792928
1972.000000	19.895900
1973.000000	19.970906
1974.000000	20.055504
1975.000000	20.144566
1976.000000	20.243830
1977.000000	20.329704
1978.000000	20.425447
1979.000000	20.516494
1980.000000	20.624273
1981.000000	20.711017
1982.000000	20.786901
1983.000000	20.890617
1984.000000	20.969298
1985.000000	21.079600
1986.000000	21.165609
1987.000000	21.240447
1988.000000	21.320562
1989.000000	21.413822
1990.000000	21.478519
1991.000000	21.559954
1992.000000	21.639429
1993.000000	21.713736
1994.000000	21.786757
1995.000000	21.857982
1996.000000	21.912365
1997.000000	21.975321
1998.000000	22.028556
1999.000000	22.073970
2000.000000	22.118504
2001.000000	22.151994
2002.000000	22.188394
2003.000000	22.229649
2004.000000	22.252117
2005.000000	22.271719
2006.000000	22.281679
2007.000000	22.294489
2008.000000	22.298416
2009.000000	22.304216
2010.000000	22.283895
2011.000000	22.285974
2012.000000	22.275429
2013.000000	22.256430
2014.000000	22.223620
2015.000000	22.194251
2016.000000	22.163298
2017.000000	22.124968
2018.000000	22.081688
2019.000000	22.032071
2020.000000	21.979976
2021.000000	21.909714
2022.000000	21.853389
2023.000000	21.783693
2024.000000	21.713405
2025.000000	21.645956
2026.000000	21.563366
2027.000000	21.483536
2028.000000	21.397443
2029.000000	21.321776
2030.000000	21.230330
2031.000000	21.128642
2032.000000	21.024183
2033.000000	20.907728
2034.000000	20.795798
2035.000000	20.685426
2036.000000	20.566721
2037.000000	20.435467
2038.000000	20.308669
2039.000000	20.151356
2040.000000	20.002505
2041.000000	19.861315
2042.000000	19.721147
2043.000000	19.568480
2044.000000	19.432511
2045.000000	19.280622
2046.000000	19.149369
2047.000000	19.012269
2048.000000	18.893859
2049.000000	18.783791
2050.000000	18.686727
2051.000000	18.599027
2052.000000	18.535547
2053.000000	18.478691
2054.000000	18.436119
2055.000000	18.410419
2056.000000	18.387296
2057.000000	18.390609
2058.000000	18.399435
2059.000000	18.427182
2060.000000	18.454281
2061.000000	18.498525
2062.000000	18.540961
2063.000000	18.591138
2064.000000	18.647164
2065.000000	18.700180
2066.000000	18.758539
2067.000000	18.822152
2068.000000	18.882326
2069.000000	18.942177
2070.000000	19.004033
2071.000000	19.063128
2072.000000	19.117842
2073.000000	19.176249
2074.000000	19.224189
2075.000000	19.262305
2076.000000	19.318159
2077.000000	19.370861
2078.000000	19.407396
2079.000000	19.439161
2080.000000	19.473347
2081.000000	19.500341
2082.000000	19.532445
2083.000000	19.564603
2084.000000	19.584309
2085.000000	19.594177
2086.000000	19.603120
2087.000000	19.621132
2088.000000	19.635406
2089.000000	19.634151
2090.000000	19.636184
2091.000000	19.643278
2092.000000	19.656509
2093.000000	19.661983
2094.000000	19.665178
2095.000000	19.674973
2096.000000	19.689812
2097.000000	19.714491
2098.000000	19.736930
2099.000000	19.748558
2100.000000	19.773657
2101.000000	19.801500
2102.000000	19.824176
2103.000000	19.846441
2104.000000	19.865847
2105.000000	19.894159
2106.000000	19.922035
2107.000000	19.937420
2108.000000	19.957515
2109.000000	19.983431
2110.000000	19.999262
2111.000000	20.020387
2112.000000	20.049158
2113.000000	20.060946
2114.000000	20.067865
2115.000000	20.085135
2116.000000	20.106934
2117.000000	20.108265
2118.000000	20.117794
2119.000000	20.127530
2120.000000	20.130395
2121.000000	20.151111
2122.000000	20.153467
2123.000000	20.142146
2124.000000	20.135271
2125.000000	20.134546
2126.000000	20.124394
2127.000000	20.113645
2128.000000	20.099477
2129.000000	20.076443
2130.000000	20.065610
2131.000000	20.041684
2132.000000	20.003429
2133.000000	19.969080
2134.000000	19.937368
2135.000000	19.903910
2136.000000	19.859793
2137.000000	19.810457
2138.000000	19.763268
2139.000000	19.723577
2140.000000	19.674640
2141.000000	19.609917
2142.000000	19.552749
2143.000000	19.506779
2144.000000	19.442335
2145.000000	19.375786
2146.000000	19.315849
2147.000000	19.254971
2148.000000	19.193648
2149.000000	19.118500
2150.000000	19.051704
2151.000000	18.994137
2152.000000	18.916861
2153.000000	18.847680
2154.000000	18.794306
2155.000000	18.729750
2156.000000	18.669817
2157.000000	18.613412
2158.000000	18.562836
2159.000000	18.507408
2160.000000	18.474592
2161.000000	18.429915
2162.000000	18.387011
2163.000000	18.359886
2164.000000	18.325654
2165.000000	18.298343
2166.000000	18.277306
2167.000000	18.250297
2168.000000	18.219678
2169.000000	18.196611
2170.000000	18.175857
2171.000000	18.166529
2172.000000	18.156089
2173.000000	18.148300
2174.000000	18.168791
2175.000000	18.168456
2176.000000	18.164391
2177.000000	18.163033
2178.000000	18.175123
2179.000000	18.186826
2180.000000	18.213077
2181.000000	18.221189
2182.000000	18.229919
2183.000000	18.257006
2184.000000	18.282403
2185.000000	18.301665
2186.000000	18.316034
2187.000000	18.335933
2188.000000	18.341593
2189.000000	18.364483
2190.000000	18.369846
2191.000000	18.392544
2192.000000	18.401403
2193.000000	18.415945
2194.000000	18.436468
2195.000000	18.447884
2196.000000	18.468180
2197.000000	18.475342
2198.000000	18.486833
2199.000000	18.512936
2200.000000	18.542176
2201.000000	18.550382
2202.000000	18.575911
2203.000000	18.598091
2204.000000	18.635744
2205.000000	18.650045
2206.000000	18.680829
2207.000000	18.713609
2208.000000	18.728061
2209.000000	18.758748
2210.000000	18.804663
2211.000000	18.840005
2212.000000	18.875734
2213.000000	18.918712
2214.000000	18.961700
2215.000000	18.990069
2216.000000	19.044354
2217.000000	19.082448
2218.000000	19.120335
2219.000000	19.168140
2220.000000	19.198498
2221.000000	19.224058
2222.000000	19.251450
2223.000000	19.278063
2224.000000	19.294634
2225.000000	19.306262
2226.000000	19.299979
2227.000000	19.303340
2228.000000	19.302049
2229.000000	19.286659
2230.000000	19.254815
2231.000000	19.224445
2232.000000	19.178739
2233.000000	19.135007
2234.000000	19.082146
2235.000000	19.011680
2236.000000	18.933823
2237.000000	18.846317
2238.000000	18.748104
2239.000000	18.652703
2240.000000	18.538788
2241.000000	18.416275
2242.000000	18.288474
2243.000000	18.153323
2244.000000	17.989456
2245.000000	17.826386
2246.000000	17.653320
2247.000000	17.460022
2248.000000	17.255603
2249.000000	17.024498
2250.000000	16.791642
2251.000000	16.544654
2252.000000	16.282560
2253.000000	16.017170
2254.000000	15.736731
2255.000000	15.449117
2256.000000	15.155120
2257.000000	14.882304
2258.000000	14.611957
2259.000000	14.310518
2260.000000	14.057269
2261.000000	13.817435
2262.000000	13.592515
2263.000000	13.379195
2264.000000	13.187324
2265.000000	13.039155
2266.000000	12.911783
2267.000000	12.804270
2268.000000	12.701312
2269.000000	12.631983
2270.000000	12.594193
2271.000000	12.566785
2272.000000	12.553841
2273.000000	12.554792
2274.000000	12.585993
2275.000000	12.598401
2276.000000	12.637864
2277.000000	12.670888
2278.000000	12.717276
2279.000000	12.762396
2280.000000	12.819425
2281.000000	12.860271
2282.000000	12.911149
2283.000000	12.945289
2284.000000	12.971065
2285.000000	13.009091
2286.000000	13.014814
2287.000000	13.028262
2288.000000	13.030866
2289.000000	13.013580
2290.000000	12.981436
2291.000000	12.939995
2292.000000	12.887165
2293.000000	12.825303
2294.000000	12.755161
2295.000000	12.661569
2296.000000	12.563138
2297.000000	12.457907
2298.000000	12.354544
2299.000000	12.251486
2300.000000	12.157023
2301.000000	12.085399
2302.000000	12.004703
2303.000000	11.944502
2304.000000	11.912801
2305.000000	11.891027
2306.000000	11.889904
2307.000000	11.907971
2308.000000	11.962729
2309.000000	12.018258
2310.000000	12.089906
2311.000000	12.180013
2312.000000	12.294345
2313.000000	12.416317
2314.000000	12.539014
2315.000000	12.658239
2316.000000	12.782114
2317.000000	12.905434
2318.000000	13.036593
2319.000000	13.165449
2320.000000	13.268897
2321.000000	13.369946
2322.000000	13.488195
2323.000000	13.573941
2324.000000	13.660934
2325.000000	13.742154
2326.000000	13.819892
2327.000000	13.871643
2328.000000	13.932499
2329.000000	13.990691
2330.000000	14.039608
2331.000000	14.081834
2332.000000	14.104732
2333.000000	14.135808
2334.000000	14.161592
2335.000000	14.173032
2336.000000	14.189474
2337.000000	14.195832
2338.000000	14.175150
2339.000000	14.157578
2340.000000	14.131282
2341.000000	14.096307
2342.000000	14.058851
2343.000000	14.015425
2344.000000	13.975971
2345.000000	13.927348
2346.000000	13.879921
2347.000000	13.842737
2348.000000	13.801069
2349.000000	13.771018
2350.000000	13.756246
2351.000000	13.742941
2352.000000	13.732144
2353.000000	13.751217
2354.000000	13.778927
2355.000000	13.801414
2356.000000	13.843083
2357.000000	13.893271
2358.000000	13.938340
2359.000000	14.007470
2360.000000	14.075789
2361.000000	14.140711
2362.000000	14.208697
2363.000000	14.272223
2364.000000	14.336185
2365.000000	14.397581
2366.000000	14.451338
2367.000000	14.506578
2368.000000	14.561284
2369.000000	14.606684
2370.000000	14.645184
2371.000000	14.683797
2372.000000	14.707053
2373.000000	14.736163
2374.000000	14.781206
2375.000000	14.804635
2376.000000	14.815552
2377.000000	14.834889
2378.000000	14.858204
2379.000000	14.877039
2380.000000	14.899451
2381.000000	14.912369
2382.000000	14.910361
2383.000000	14.914692
2384.000000	14.918053
2385.000000	14.911929
2386.000000	14.921479
2387.000000	14.917636
2388.000000	14.898321
2389.000000	14.880811
2390.000000	14.869324
2391.000000	14.857062
2392.000000	14.834297
2393.000000	14.798139
2394.000000	14.775152
2395.000000	14.750497
2396.000000	14.721673
2397.000000	14.687261
2398.000000	14.662102
2399.000000	14.631014
2400.000000	14.588620
2401.000000	14.560253
2402.000000	14.536748
2403.000000	14.501107
2404.000000	14.472688
2405.000000	14.435993
2406.000000	14.405553
2407.000000	14.377904
2408.000000	14.348366
2409.000000	14.315325
2410.000000	14.274409
2411.000000	14.244843
2412.000000	14.213460
2413.000000	14.173372
2414.000000	14.137373
2415.000000	14.096466
2416.000000	14.060995
2417.000000	14.022726
2418.000000	13.980463
2419.000000	13.933306
2420.000000	13.876643
2421.000000	13.815381
2422.000000	13.758216
2423.000000	13.704486
2424.000000	13.655890
2425.000000	13.596076
2426.000000	13.547588
2427.000000	13.507196
2428.000000	13.436734
2429.000000	13.374362
2430.000000	13.311921
2431.000000	13.239151
2432.000000	13.176295
2433.000000	13.100990
2434.000000	13.027009
2435.000000	12.961545
2436.000000	12.872983
2437.000000	12.787951
2438.000000	12.703884
2439.000000	12.612730
2440.000000	12.526797
2441.000000	12.447119
2442.000000	12.339436
2443.000000	12.244907
2444.000000	12.154509
2445.000000	12.067012
2446.000000	11.973204
2447.000000	11.875823
2448.000000	11.767096
2449.000000	11.678916
2450.000000	11.587544
2451.000000	11.488134
2452.000000	11.418378
2453.000000	11.323544
2454.000000	11.234784
2455.000000	11.146840
2456.000000	11.068330
2457.000000	11.000370
2458.000000	10.930436
2459.000000	10.850480
2460.000000	10.791189
2461.000000	10.720183
2462.000000	10.691177
2463.000000	10.661131
2464.000000	10.620818
2465.000000	10.574540
2466.000000	10.551053
2467.000000	10.504288
2468.000000	10.488950
2469.000000	10.486324
2470.000000	10.486365
2471.000000	10.463347
2472.000000	10.443988
2473.000000	10.435008
2474.000000	10.400981
2475.000000	10.430881
2476.000000	10.419937
2477.000000	10.405829
2478.000000	10.386611
2479.000000	10.439486
2480.000000	10.398443
2481.000000	10.396560
2482.000000	10.404725
2483.000000	10.427385
2484.000000	10.413639
2485.000000	10.438656
2486.000000	10.415412
2487.000000	10.385535
2488.000000	10.430363
2489.000000	10.438650
2490.000000	10.450184
2491.000000	10.467889
2492.000000	10.502673
2493.000000	10.457072
2494.000000	10.543114
2495.000000	10.523592
2496.000000	10.564745
2497.000000	10.644237
2498.000000	10.570220
2499.000000	10.651132
2500.000000	10.671008
