PE UV       SUBTECH     SPECTRUM    ASCII       PEDS        4.00        
   -1
CICIMAUCR0116-3.Sample.ASC
24/04/11
14:13:42.00
24/04/11
14:13:42.00
Vinicio Soto Monge
C. kalinini
250,000000
1
Lambda 1050
1050L1511233
PerkinElmer UV WinLab 6.3.2.0749 / 2.02.05 Lambda 900 UV/VIS/NIR, Aug  7 2015 09:38:08

0
0
3350/2 860,8/2
0
0
UV/VIS
1
1
1
DoubleDePol,CommonBeamDepol,RBeamAtt,SBeamAtt,60mm sphere, WB InGaAs Detector
0
0
0
0
Program
Program
3350/2 860,8/2
3350/0,2 860,8/0,2
3350/0,2 860,8/0,2
0
15.00
 
 
 
0
 
860,8
319,2
860,8
Front
100
on
S:100 R:100
0
0
0
0
 
0
 
 
 
0
 
 
0
0
0
0
0
 
 
 
 
0
0


0
0
#HDR
-1
-1
#GR
nm
%R
1.0
0.0
2400,000000
-1,000000
2151
8
95,435400
5,183200
#DATA
250.000000	6.077967
251.000000	6.042900
252.000000	6.015433
253.000000	6.005967
254.000000	6.013433
255.000000	5.987967
256.000000	6.003767
257.000000	6.013733
258.000000	5.977900
259.000000	5.972033
260.000000	5.933933
261.000000	5.895667
262.000000	5.886567
263.000000	5.870767
264.000000	5.839267
265.000000	5.829733
266.000000	5.788200
267.000000	5.792033
268.000000	5.772267
269.000000	5.756767
270.000000	5.723533
271.000000	5.706733
272.000000	5.668333
273.000000	5.689900
274.000000	5.676900
275.000000	5.649100
276.000000	5.689467
277.000000	5.633433
278.000000	5.642000
279.000000	5.635267
280.000000	5.625500
281.000000	5.599567
282.000000	5.583367
283.000000	5.561567
284.000000	5.580500
285.000000	5.594533
286.000000	5.561900
287.000000	5.528900
288.000000	5.519067
289.000000	5.533833
290.000000	5.508067
291.000000	5.530633
292.000000	5.530433
293.000000	5.525500
294.000000	5.541000
295.000000	5.516333
296.000000	5.512967
297.000000	5.504933
298.000000	5.480900
299.000000	5.490200
300.000000	5.511767
301.000000	5.494167
302.000000	5.497067
303.000000	5.491667
304.000000	5.472533
305.000000	5.483933
306.000000	5.467667
307.000000	5.506367
308.000000	5.488100
309.000000	5.450333
310.000000	5.436533
311.000000	5.447633
312.000000	5.442133
313.000000	5.448600
314.000000	5.450800
315.000000	5.471367
316.000000	5.593233
317.000000	5.853233
318.000000	5.722600
319.000000	5.832633
320.000000	5.796667
321.000000	5.838267
322.000000	5.705400
323.000000	5.559500
324.000000	6.026467
325.000000	6.078667
326.000000	5.702400
327.000000	5.698733
328.000000	5.649333
329.000000	5.585767
330.000000	5.585200
331.000000	5.663700
332.000000	5.614400
333.000000	5.589000
334.000000	5.562767
335.000000	5.603267
336.000000	5.610700
337.000000	5.589433
338.000000	5.655733
339.000000	5.642967
340.000000	5.606033
341.000000	5.630367
342.000000	5.645867
343.000000	5.680200
344.000000	5.692600
345.000000	5.693133
346.000000	5.704667
347.000000	5.671833
348.000000	5.713200
349.000000	5.712067
350.000000	5.715500
351.000000	5.796433
352.000000	5.825600
353.000000	5.831133
354.000000	5.816833
355.000000	5.807467
356.000000	5.854833
357.000000	5.891400
358.000000	5.928333
359.000000	6.015100
360.000000	6.004333
361.000000	5.990367
362.000000	5.991867
363.000000	6.017900
364.000000	6.041867
365.000000	6.100433
366.000000	6.096100
367.000000	6.070333
368.000000	6.137533
369.000000	6.143067
370.000000	6.118333
371.000000	6.136800
372.000000	6.148800
373.000000	6.122200
374.000000	6.135033
375.000000	6.281633
376.000000	6.349267
377.000000	6.374933
378.000000	6.413533
379.000000	6.446433
380.000000	6.483967
381.000000	6.523200
382.000000	6.569000
383.000000	6.620700
384.000000	6.668267
385.000000	6.718567
386.000000	6.772433
387.000000	6.831367
388.000000	6.889967
389.000000	6.959833
390.000000	7.036633
391.000000	7.108567
392.000000	7.196000
393.000000	7.290667
394.000000	7.377167
395.000000	7.482167
396.000000	7.593433
397.000000	7.708667
398.000000	7.829733
399.000000	7.966000
400.000000	8.100133
401.000000	8.246700
402.000000	8.418467
403.000000	8.593500
404.000000	8.773500
405.000000	8.964567
406.000000	9.163200
407.000000	9.386133
408.000000	9.610500
409.000000	9.851233
410.000000	10.110533
411.000000	10.379167
412.000000	10.655767
413.000000	10.955433
414.000000	11.271300
415.000000	11.599633
416.000000	11.940633
417.000000	12.282467
418.000000	12.639200
419.000000	13.008333
420.000000	13.397067
421.000000	13.797933
422.000000	14.207267
423.000000	14.638600
424.000000	15.063533
425.000000	15.503733
426.000000	15.954300
427.000000	16.411100
428.000000	16.871900
429.000000	17.340700
430.000000	17.817867
431.000000	18.295800
432.000000	18.792367
433.000000	19.284567
434.000000	19.781400
435.000000	20.265667
436.000000	20.751100
437.000000	21.232667
438.000000	21.696633
439.000000	22.156767
440.000000	22.632200
441.000000	23.087233
442.000000	23.537333
443.000000	23.973200
444.000000	24.385967
445.000000	24.790700
446.000000	25.190467
447.000000	25.550200
448.000000	25.916033
449.000000	26.275000
450.000000	26.607067
451.000000	26.921933
452.000000	27.234167
453.000000	27.514767
454.000000	27.791533
455.000000	28.063233
456.000000	28.297433
457.000000	28.544600
458.000000	28.762833
459.000000	28.972733
460.000000	29.177500
461.000000	29.350733
462.000000	29.531967
463.000000	29.707367
464.000000	29.871967
465.000000	30.031267
466.000000	30.177567
467.000000	30.322967
468.000000	30.449333
469.000000	30.585633
470.000000	30.696767
471.000000	30.799633
472.000000	30.915800
473.000000	31.021933
474.000000	31.110033
475.000000	31.216400
476.000000	31.301400
477.000000	31.378333
478.000000	31.470200
479.000000	31.539533
480.000000	31.659667
481.000000	31.759433
482.000000	31.854933
483.000000	31.954667
484.000000	32.025800
485.000000	32.091967
486.000000	32.165700
487.000000	32.236400
488.000000	32.338700
489.000000	32.431433
490.000000	32.534800
491.000000	32.634967
492.000000	32.756400
493.000000	32.903300
494.000000	33.054633
495.000000	33.235333
496.000000	33.437567
497.000000	33.664967
498.000000	33.886633
499.000000	34.165100
500.000000	34.489267
501.000000	34.809567
502.000000	35.168867
503.000000	35.563800
504.000000	35.986467
505.000000	36.427533
506.000000	36.902733
507.000000	37.391800
508.000000	37.905567
509.000000	38.458033
510.000000	39.041433
511.000000	39.643400
512.000000	40.272133
513.000000	40.909467
514.000000	41.574800
515.000000	42.254267
516.000000	42.952100
517.000000	43.655000
518.000000	44.359800
519.000000	45.078167
520.000000	45.782533
521.000000	46.491700
522.000000	47.195433
523.000000	47.879000
524.000000	48.553067
525.000000	49.222900
526.000000	49.879033
527.000000	50.498700
528.000000	51.117667
529.000000	51.720300
530.000000	52.301900
531.000000	52.895200
532.000000	53.466933
533.000000	54.023167
534.000000	54.590600
535.000000	55.118767
536.000000	55.659567
537.000000	56.187600
538.000000	56.698867
539.000000	57.211533
540.000000	57.715933
541.000000	58.230233
542.000000	58.746400
543.000000	59.256533
544.000000	59.740533
545.000000	60.217733
546.000000	60.700000
547.000000	61.171500
548.000000	61.635467
549.000000	62.092933
550.000000	62.537500
551.000000	62.986400
552.000000	63.444100
553.000000	63.836167
554.000000	64.253500
555.000000	64.642100
556.000000	65.014400
557.000000	65.381000
558.000000	65.713200
559.000000	66.033633
560.000000	66.351433
561.000000	66.644033
562.000000	66.929133
563.000000	67.175167
564.000000	67.418367
565.000000	67.636400
566.000000	67.870033
567.000000	68.075600
568.000000	68.277200
569.000000	68.434800
570.000000	68.585067
571.000000	68.728133
572.000000	68.847000
573.000000	68.938467
574.000000	69.059867
575.000000	69.155700
576.000000	69.212600
577.000000	69.278100
578.000000	69.321500
579.000000	69.370600
580.000000	69.386000
581.000000	69.402067
582.000000	69.374267
583.000000	69.332133
584.000000	69.284733
585.000000	69.251800
586.000000	69.176700
587.000000	69.097567
588.000000	68.992033
589.000000	68.907900
590.000000	68.793933
591.000000	68.657067
592.000000	68.484567
593.000000	68.316933
594.000000	68.127300
595.000000	67.941567
596.000000	67.714833
597.000000	67.500433
598.000000	67.289500
599.000000	67.071900
600.000000	66.822133
601.000000	66.550600
602.000000	66.258700
603.000000	65.970900
604.000000	65.662867
605.000000	65.361133
606.000000	65.054400
607.000000	64.753667
608.000000	64.433667
609.000000	64.141467
610.000000	63.843800
611.000000	63.565533
612.000000	63.263767
613.000000	62.989433
614.000000	62.719967
615.000000	62.463867
616.000000	62.216000
617.000000	61.980067
618.000000	61.734400
619.000000	61.507800
620.000000	61.332000
621.000000	61.146967
622.000000	60.985633
623.000000	60.852833
624.000000	60.709233
625.000000	60.578100
626.000000	60.480767
627.000000	60.399933
628.000000	60.341033
629.000000	60.279600
630.000000	60.246433
631.000000	60.211933
632.000000	60.222500
633.000000	60.230100
634.000000	60.268800
635.000000	60.308433
636.000000	60.377300
637.000000	60.474433
638.000000	60.597333
639.000000	60.732333
640.000000	60.863300
641.000000	61.011967
642.000000	61.189667
643.000000	61.362300
644.000000	61.542633
645.000000	61.708700
646.000000	61.875067
647.000000	62.039933
648.000000	62.208533
649.000000	62.366600
650.000000	62.539867
651.000000	62.715467
652.000000	62.861400
653.000000	63.012767
654.000000	63.186500
655.000000	63.360533
656.000000	63.546800
657.000000	63.739500
658.000000	63.949500
659.000000	64.140967
660.000000	64.365433
661.000000	64.560933
662.000000	64.737133
663.000000	64.945000
664.000000	65.143267
665.000000	65.345700
666.000000	65.546133
667.000000	65.711433
668.000000	65.880667
669.000000	66.052567
670.000000	66.256667
671.000000	66.443067
672.000000	66.645067
673.000000	66.862600
674.000000	67.089333
675.000000	67.324733
676.000000	67.551233
677.000000	67.846767
678.000000	68.144033
679.000000	68.435900
680.000000	68.782700
681.000000	69.135567
682.000000	69.468033
683.000000	69.834067
684.000000	70.186067
685.000000	70.573300
686.000000	71.008200
687.000000	71.392967
688.000000	71.783633
689.000000	72.193567
690.000000	72.603500
691.000000	73.009233
692.000000	73.449200
693.000000	73.849467
694.000000	74.256200
695.000000	74.694033
696.000000	75.136267
697.000000	75.583200
698.000000	75.995767
699.000000	76.427833
700.000000	76.895400
701.000000	77.348267
702.000000	77.784500
703.000000	78.219100
704.000000	78.677400
705.000000	79.101733
706.000000	79.499367
707.000000	79.935233
708.000000	80.375733
709.000000	80.746900
710.000000	81.132800
711.000000	81.512600
712.000000	81.880100
713.000000	82.231133
714.000000	82.587800
715.000000	82.931900
716.000000	83.299967
717.000000	83.638933
718.000000	83.960033
719.000000	84.294200
720.000000	84.632867
721.000000	84.958100
722.000000	85.278167
723.000000	85.621000
724.000000	85.916933
725.000000	86.233633
726.000000	86.580667
727.000000	86.874400
728.000000	87.145967
729.000000	87.480867
730.000000	87.731300
731.000000	88.065500
732.000000	88.315200
733.000000	88.618667
734.000000	88.808367
735.000000	89.061367
736.000000	89.315200
737.000000	89.562200
738.000000	89.804733
739.000000	90.024333
740.000000	90.319067
741.000000	90.569933
742.000000	90.784067
743.000000	91.077900
744.000000	91.290433
745.000000	91.518367
746.000000	91.734900
747.000000	91.943800
748.000000	92.168067
749.000000	92.346367
750.000000	92.570567
751.000000	92.797400
752.000000	92.994067
753.000000	93.166533
754.000000	93.423633
755.000000	93.604600
756.000000	93.748167
757.000000	93.953067
758.000000	94.155933
759.000000	94.303767
760.000000	94.560267
761.000000	94.672233
762.000000	94.873300
763.000000	95.009633
764.000000	95.103833
765.000000	95.280233
766.000000	95.395300
767.000000	95.611600
768.000000	95.751600
769.000000	95.910167
770.000000	96.076000
771.000000	96.167700
772.000000	96.323967
773.000000	96.435733
774.000000	96.491233
775.000000	96.656567
776.000000	96.830533
777.000000	96.854600
778.000000	96.994400
779.000000	97.118533
780.000000	97.159567
781.000000	97.237967
782.000000	97.370767
783.000000	97.372633
784.000000	97.464800
785.000000	97.597433
786.000000	97.606467
787.000000	97.625967
788.000000	97.582800
789.000000	97.668767
790.000000	97.726700
791.000000	97.592167
792.000000	97.677633
793.000000	97.648300
794.000000	97.597133
795.000000	97.531833
796.000000	97.474233
797.000000	97.465700
798.000000	97.448667
799.000000	97.426200
800.000000	97.348400
801.000000	97.130033
802.000000	96.984000
803.000000	96.984800
804.000000	96.834733
805.000000	96.706800
806.000000	96.671433
807.000000	96.481400
808.000000	96.258300
809.000000	96.139000
810.000000	95.986967
811.000000	95.784200
812.000000	95.650133
813.000000	95.417500
814.000000	95.070900
815.000000	94.938900
816.000000	94.699800
817.000000	94.490467
818.000000	94.273567
819.000000	94.035867
820.000000	93.666633
821.000000	93.379933
822.000000	93.088333
823.000000	92.751233
824.000000	92.496633
825.000000	92.119600
826.000000	91.920000
827.000000	91.706267
828.000000	91.268000
829.000000	91.105467
830.000000	90.744833
831.000000	90.459133
832.000000	90.190233
833.000000	89.850300
834.000000	89.377200
835.000000	89.178233
836.000000	88.893167
837.000000	88.422633
838.000000	88.101733
839.000000	87.739967
840.000000	87.391300
841.000000	87.076633
842.000000	86.774233
843.000000	86.444533
844.000000	86.170667
845.000000	85.687633
846.000000	85.357500
847.000000	85.181200
848.000000	84.842267
849.000000	84.348767
850.000000	84.144967
851.000000	83.727833
852.000000	83.342233
853.000000	83.109700
854.000000	82.740433
855.000000	82.438667
856.000000	82.175633
857.000000	81.864467
858.000000	82.159589
859.000000	83.272619
860.000000	83.083133
861.000000	83.067094
862.000000	82.758751
863.000000	82.674676
864.000000	82.369825
865.000000	81.950690
866.000000	81.562933
867.000000	81.527500
868.000000	81.420600
869.000000	81.223073
870.000000	81.030881
871.000000	80.643253
872.000000	80.297759
873.000000	80.232453
874.000000	80.173693
875.000000	79.903448
876.000000	79.559618
877.000000	79.170655
878.000000	79.171744
879.000000	78.859501
880.000000	78.493135
881.000000	78.512821
882.000000	78.433013
883.000000	78.190075
884.000000	77.977754
885.000000	77.742351
886.000000	77.506992
887.000000	77.211717
888.000000	76.988109
889.000000	76.940339
890.000000	76.772758
891.000000	76.555247
892.000000	76.283233
893.000000	76.102113
894.000000	75.901698
895.000000	75.656871
896.000000	75.445218
897.000000	75.415283
898.000000	75.149622
899.000000	74.728972
900.000000	74.567198
901.000000	74.362437
902.000000	74.224441
903.000000	74.067606
904.000000	73.807109
905.000000	73.509998
906.000000	73.298576
907.000000	73.173922
908.000000	72.950281
909.000000	72.644889
910.000000	72.463223
911.000000	72.358204
912.000000	72.301331
913.000000	72.131611
914.000000	71.867772
915.000000	71.677840
916.000000	71.532474
917.000000	71.408338
918.000000	71.276379
919.000000	71.110311
920.000000	70.944866
921.000000	70.687913
922.000000	70.510715
923.000000	70.456768
924.000000	70.241984
925.000000	70.055183
926.000000	69.953339
927.000000	69.811046
928.000000	69.661990
929.000000	69.474183
930.000000	69.307676
931.000000	69.228689
932.000000	69.171471
933.000000	69.027095
934.000000	68.908847
935.000000	68.783463
936.000000	68.596139
937.000000	68.428293
938.000000	68.283381
939.000000	68.161022
940.000000	68.017479
941.000000	67.908279
942.000000	67.803942
943.000000	67.682165
944.000000	67.522091
945.000000	67.356634
946.000000	67.248765
947.000000	67.128574
948.000000	66.960822
949.000000	66.865822
950.000000	66.773132
951.000000	66.645981
952.000000	66.520642
953.000000	66.371626
954.000000	66.288444
955.000000	66.162339
956.000000	66.025998
957.000000	65.891138
958.000000	65.767188
959.000000	65.646433
960.000000	65.555317
961.000000	65.416849
962.000000	65.301681
963.000000	65.194607
964.000000	65.066244
965.000000	64.938243
966.000000	64.832234
967.000000	64.702772
968.000000	64.623989
969.000000	64.531688
970.000000	64.408972
971.000000	64.335061
972.000000	64.261068
973.000000	64.160307
974.000000	64.060959
975.000000	63.971974
976.000000	63.869563
977.000000	63.835876
978.000000	63.759739
979.000000	63.685598
980.000000	63.610215
981.000000	63.566370
982.000000	63.475226
983.000000	63.418250
984.000000	63.375431
985.000000	63.312674
986.000000	63.247532
987.000000	63.201896
988.000000	63.155864
989.000000	63.083290
990.000000	63.040887
991.000000	63.030089
992.000000	62.969236
993.000000	62.908123
994.000000	62.850573
995.000000	62.819686
996.000000	62.782154
997.000000	62.770311
998.000000	62.719407
999.000000	62.671823
1000.000000	62.642766
1001.000000	62.614573
1002.000000	62.598718
1003.000000	62.575419
1004.000000	62.548626
1005.000000	62.499283
1006.000000	62.453789
1007.000000	62.443472
1008.000000	62.424239
1009.000000	62.400202
1010.000000	62.387711
1011.000000	62.380775
1012.000000	62.337684
1013.000000	62.350532
1014.000000	62.350584
1015.000000	62.355315
1016.000000	62.370494
1017.000000	62.387157
1018.000000	62.409994
1019.000000	62.440535
1020.000000	62.472867
1021.000000	62.540399
1022.000000	62.578018
1023.000000	62.604425
1024.000000	62.651350
1025.000000	62.716067
1026.000000	62.767998
1027.000000	62.833060
1028.000000	62.868173
1029.000000	62.939956
1030.000000	62.985084
1031.000000	63.050718
1032.000000	63.114399
1033.000000	63.151727
1034.000000	63.213458
1035.000000	63.258805
1036.000000	63.322498
1037.000000	63.372622
1038.000000	63.435527
1039.000000	63.527059
1040.000000	63.556149
1041.000000	63.613449
1042.000000	63.690518
1043.000000	63.759495
1044.000000	63.787004
1045.000000	63.850519
1046.000000	63.908142
1047.000000	64.005806
1048.000000	64.052858
1049.000000	64.113902
1050.000000	64.195268
1051.000000	64.270250
1052.000000	64.322484
1053.000000	64.394088
1054.000000	64.473064
1055.000000	64.525568
1056.000000	64.624621
1057.000000	64.714196
1058.000000	64.807040
1059.000000	64.846608
1060.000000	64.926980
1061.000000	65.004788
1062.000000	65.062067
1063.000000	65.153287
1064.000000	65.202981
1065.000000	65.282818
1066.000000	65.341688
1067.000000	65.454035
1068.000000	65.509530
1069.000000	65.580535
1070.000000	65.639843
1071.000000	65.718252
1072.000000	65.793576
1073.000000	65.856965
1074.000000	65.949293
1075.000000	66.000793
1076.000000	66.079712
1077.000000	66.150496
1078.000000	66.230001
1079.000000	66.292724
1080.000000	66.377313
1081.000000	66.455079
1082.000000	66.494284
1083.000000	66.575825
1084.000000	66.647714
1085.000000	66.727020
1086.000000	66.816135
1087.000000	66.872760
1088.000000	66.953853
1089.000000	67.023183
1090.000000	67.101284
1091.000000	67.174917
1092.000000	67.256892
1093.000000	67.313336
1094.000000	67.379918
1095.000000	67.424677
1096.000000	67.493058
1097.000000	67.555891
1098.000000	67.633124
1099.000000	67.672906
1100.000000	67.736863
1101.000000	67.797649
1102.000000	67.831585
1103.000000	67.899207
1104.000000	67.945184
1105.000000	67.998813
1106.000000	68.040015
1107.000000	68.088443
1108.000000	68.137180
1109.000000	68.187528
1110.000000	68.222341
1111.000000	68.269843
1112.000000	68.320296
1113.000000	68.361970
1114.000000	68.396647
1115.000000	68.439902
1116.000000	68.476403
1117.000000	68.518096
1118.000000	68.553011
1119.000000	68.577449
1120.000000	68.574777
1121.000000	68.579417
1122.000000	68.596212
1123.000000	68.595516
1124.000000	68.556687
1125.000000	68.525134
1126.000000	68.482451
1127.000000	68.418170
1128.000000	68.343162
1129.000000	68.246518
1130.000000	68.104250
1131.000000	67.916878
1132.000000	67.712833
1133.000000	67.504740
1134.000000	67.325467
1135.000000	67.121039
1136.000000	66.823621
1137.000000	66.532770
1138.000000	66.249738
1139.000000	65.985495
1140.000000	65.760085
1141.000000	65.528583
1142.000000	65.290475
1143.000000	65.067949
1144.000000	64.875685
1145.000000	64.707772
1146.000000	64.579060
1147.000000	64.508581
1148.000000	64.448102
1149.000000	64.449434
1150.000000	64.461677
1151.000000	64.452639
1152.000000	64.440400
1153.000000	64.403518
1154.000000	64.328426
1155.000000	64.219092
1156.000000	64.082775
1157.000000	63.884456
1158.000000	63.680501
1159.000000	63.449805
1160.000000	63.205891
1161.000000	62.937963
1162.000000	62.666824
1163.000000	62.386898
1164.000000	62.112965
1165.000000	61.830663
1166.000000	61.558312
1167.000000	61.301967
1168.000000	61.045903
1169.000000	60.798387
1170.000000	60.544637
1171.000000	60.282238
1172.000000	60.052539
1173.000000	59.828651
1174.000000	59.597287
1175.000000	59.388514
1176.000000	59.175772
1177.000000	58.948805
1178.000000	58.681489
1179.000000	58.386885
1180.000000	58.043937
1181.000000	57.696836
1182.000000	57.344780
1183.000000	57.032473
1184.000000	56.788770
1185.000000	56.640303
1186.000000	56.569552
1187.000000	56.605832
1188.000000	56.759573
1189.000000	56.974083
1190.000000	57.264292
1191.000000	57.603802
1192.000000	57.976538
1193.000000	58.329957
1194.000000	58.631655
1195.000000	58.895560
1196.000000	59.116426
1197.000000	59.290322
1198.000000	59.433162
1199.000000	59.535914
1200.000000	59.630918
1201.000000	59.698211
1202.000000	59.759144
1203.000000	59.801456
1204.000000	59.847247
1205.000000	59.897214
1206.000000	59.955294
1207.000000	60.030758
1208.000000	60.119341
1209.000000	60.217296
1210.000000	60.310820
1211.000000	60.414270
1212.000000	60.522602
1213.000000	60.635709
1214.000000	60.745758
1215.000000	60.853467
1216.000000	60.966883
1217.000000	61.089684
1218.000000	61.219425
1219.000000	61.359305
1220.000000	61.499398
1221.000000	61.635826
1222.000000	61.774024
1223.000000	61.927911
1224.000000	62.082406
1225.000000	62.235152
1226.000000	62.390360
1227.000000	62.539463
1228.000000	62.689831
1229.000000	62.846351
1230.000000	63.003078
1231.000000	63.159230
1232.000000	63.310313
1233.000000	63.469420
1234.000000	63.613442
1235.000000	63.751453
1236.000000	63.896294
1237.000000	64.045297
1238.000000	64.184699
1239.000000	64.310307
1240.000000	64.433826
1241.000000	64.571079
1242.000000	64.708330
1243.000000	64.834431
1244.000000	64.953208
1245.000000	65.074365
1246.000000	65.187795
1247.000000	65.297879
1248.000000	65.401635
1249.000000	65.491112
1250.000000	65.588079
1251.000000	65.667499
1252.000000	65.740948
1253.000000	65.824537
1254.000000	65.888211
1255.000000	65.951948
1256.000000	65.998493
1257.000000	66.062541
1258.000000	66.116656
1259.000000	66.159032
1260.000000	66.199689
1261.000000	66.248630
1262.000000	66.287440
1263.000000	66.325731
1264.000000	66.376516
1265.000000	66.424229
1266.000000	66.465171
1267.000000	66.497529
1268.000000	66.542984
1269.000000	66.587201
1270.000000	66.609962
1271.000000	66.637795
1272.000000	66.666113
1273.000000	66.713095
1274.000000	66.755884
1275.000000	66.791855
1276.000000	66.829445
1277.000000	66.891248
1278.000000	66.946391
1279.000000	67.002771
1280.000000	67.056685
1281.000000	67.115020
1282.000000	67.179497
1283.000000	67.238021
1284.000000	67.293588
1285.000000	67.353385
1286.000000	67.422805
1287.000000	67.469606
1288.000000	67.521490
1289.000000	67.585267
1290.000000	67.620757
1291.000000	67.653344
1292.000000	67.673215
1293.000000	67.695261
1294.000000	67.723343
1295.000000	67.747647
1296.000000	67.761327
1297.000000	67.768188
1298.000000	67.773657
1299.000000	67.779008
1300.000000	67.772176
1301.000000	67.776976
1302.000000	67.767224
1303.000000	67.762282
1304.000000	67.759799
1305.000000	67.743369
1306.000000	67.718168
1307.000000	67.688965
1308.000000	67.649385
1309.000000	67.609262
1310.000000	67.563568
1311.000000	67.510797
1312.000000	67.446412
1313.000000	67.389900
1314.000000	67.318421
1315.000000	67.256478
1316.000000	67.181095
1317.000000	67.094540
1318.000000	67.003515
1319.000000	66.919309
1320.000000	66.823679
1321.000000	66.740797
1322.000000	66.639270
1323.000000	66.526442
1324.000000	66.408259
1325.000000	66.297081
1326.000000	66.164503
1327.000000	66.043353
1328.000000	65.912480
1329.000000	65.769208
1330.000000	65.616113
1331.000000	65.452870
1332.000000	65.282497
1333.000000	65.106106
1334.000000	64.917687
1335.000000	64.716294
1336.000000	64.512988
1337.000000	64.304175
1338.000000	64.085346
1339.000000	63.864619
1340.000000	63.616261
1341.000000	63.363383
1342.000000	63.109533
1343.000000	62.847821
1344.000000	62.583033
1345.000000	62.268689
1346.000000	61.946197
1347.000000	61.651658
1348.000000	61.340256
1349.000000	60.945581
1350.000000	60.549566
1351.000000	60.127157
1352.000000	59.674604
1353.000000	59.223831
1354.000000	58.834818
1355.000000	58.487820
1356.000000	58.146154
1357.000000	57.909231
1358.000000	57.748360
1359.000000	57.631691
1360.000000	57.555980
1361.000000	57.609874
1362.000000	57.582931
1363.000000	57.324524
1364.000000	57.170799
1365.000000	57.066111
1366.000000	56.816669
1367.000000	56.647324
1368.000000	56.465040
1369.000000	56.172144
1370.000000	55.915210
1371.000000	55.679451
1372.000000	55.369446
1373.000000	55.022954
1374.000000	54.733240
1375.000000	54.498059
1376.000000	54.351852
1377.000000	54.177900
1378.000000	54.035204
1379.000000	53.921341
1380.000000	53.831072
1381.000000	53.657813
1382.000000	53.456043
1383.000000	53.136874
1384.000000	52.719866
1385.000000	52.327900
1386.000000	51.823250
1387.000000	51.493152
1388.000000	51.238887
1389.000000	50.875928
1390.000000	50.541307
1391.000000	50.315589
1392.000000	50.135758
1393.000000	49.870316
1394.000000	49.660874
1395.000000	49.551721
1396.000000	49.356061
1397.000000	49.001507
1398.000000	48.633845
1399.000000	48.406587
1400.000000	48.243731
1401.000000	47.914180
1402.000000	47.422369
1403.000000	46.999093
1404.000000	46.687026
1405.000000	46.316770
1406.000000	45.878108
1407.000000	45.470745
1408.000000	45.068528
1409.000000	44.721394
1410.000000	44.364082
1411.000000	43.964766
1412.000000	43.616623
1413.000000	43.362308
1414.000000	43.133923
1415.000000	42.833883
1416.000000	42.488928
1417.000000	42.200123
1418.000000	41.974182
1419.000000	41.761055
1420.000000	41.495078
1421.000000	41.182849
1422.000000	40.920294
1423.000000	40.717311
1424.000000	40.471595
1425.000000	40.216875
1426.000000	39.975216
1427.000000	39.756974
1428.000000	39.574299
1429.000000	39.374235
1430.000000	39.195454
1431.000000	39.019028
1432.000000	38.886646
1433.000000	38.733473
1434.000000	38.562618
1435.000000	38.417018
1436.000000	38.275513
1437.000000	38.159053
1438.000000	38.031195
1439.000000	37.886669
1440.000000	37.751802
1441.000000	37.620268
1442.000000	37.501804
1443.000000	37.355775
1444.000000	37.216912
1445.000000	37.127470
1446.000000	37.013786
1447.000000	36.878000
1448.000000	36.751545
1449.000000	36.630514
1450.000000	36.555082
1451.000000	36.461179
1452.000000	36.339225
1453.000000	36.218312
1454.000000	36.095065
1455.000000	35.996774
1456.000000	35.913543
1457.000000	35.810990
1458.000000	35.727088
1459.000000	35.630880
1460.000000	35.561740
1461.000000	35.484136
1462.000000	35.406660
1463.000000	35.325662
1464.000000	35.264054
1465.000000	35.201369
1466.000000	35.140728
1467.000000	35.079080
1468.000000	35.017754
1469.000000	34.958229
1470.000000	34.919411
1471.000000	34.887282
1472.000000	34.835063
1473.000000	34.771165
1474.000000	34.713294
1475.000000	34.665554
1476.000000	34.617991
1477.000000	34.572648
1478.000000	34.533080
1479.000000	34.492530
1480.000000	34.472364
1481.000000	34.455680
1482.000000	34.438104
1483.000000	34.403764
1484.000000	34.388777
1485.000000	34.376140
1486.000000	34.370982
1487.000000	34.377303
1488.000000	34.367983
1489.000000	34.354081
1490.000000	34.352734
1491.000000	34.348617
1492.000000	34.346701
1493.000000	34.340884
1494.000000	34.346140
1495.000000	34.351436
1496.000000	34.366042
1497.000000	34.389574
1498.000000	34.408693
1499.000000	34.421593
1500.000000	34.452482
1501.000000	34.494870
1502.000000	34.528201
1503.000000	34.567761
1504.000000	34.610601
1505.000000	34.666177
1506.000000	34.708082
1507.000000	34.755922
1508.000000	34.799315
1509.000000	34.866068
1510.000000	34.918791
1511.000000	34.956093
1512.000000	35.017549
1513.000000	35.072921
1514.000000	35.116740
1515.000000	35.165399
1516.000000	35.214555
1517.000000	35.274968
1518.000000	35.310004
1519.000000	35.353850
1520.000000	35.398798
1521.000000	35.439138
1522.000000	35.475424
1523.000000	35.513535
1524.000000	35.563669
1525.000000	35.614735
1526.000000	35.646588
1527.000000	35.670769
1528.000000	35.709868
1529.000000	35.743525
1530.000000	35.772994
1531.000000	35.811730
1532.000000	35.840146
1533.000000	35.855428
1534.000000	35.877727
1535.000000	35.906760
1536.000000	35.919951
1537.000000	35.939920
1538.000000	35.949682
1539.000000	35.953007
1540.000000	35.979477
1541.000000	35.982328
1542.000000	35.999596
1543.000000	36.012683
1544.000000	36.032908
1545.000000	36.074330
1546.000000	36.093438
1547.000000	36.126425
1548.000000	36.157386
1549.000000	36.200829
1550.000000	36.256968
1551.000000	36.288848
1552.000000	36.316173
1553.000000	36.345375
1554.000000	36.373197
1555.000000	36.403346
1556.000000	36.411047
1557.000000	36.437557
1558.000000	36.448620
1559.000000	36.433867
1560.000000	36.437576
1561.000000	36.422803
1562.000000	36.398487
1563.000000	36.393513
1564.000000	36.359956
1565.000000	36.346411
1566.000000	36.301108
1567.000000	36.266986
1568.000000	36.240102
1569.000000	36.208767
1570.000000	36.179643
1571.000000	36.145989
1572.000000	36.139060
1573.000000	36.139383
1574.000000	36.130909
1575.000000	36.111852
1576.000000	36.104343
1577.000000	36.110476
1578.000000	36.131547
1579.000000	36.134464
1580.000000	36.146448
1581.000000	36.177121
1582.000000	36.199992
1583.000000	36.227380
1584.000000	36.261587
1585.000000	36.280969
1586.000000	36.337768
1587.000000	36.387491
1588.000000	36.425017
1589.000000	36.472761
1590.000000	36.533884
1591.000000	36.569086
1592.000000	36.657780
1593.000000	36.678920
1594.000000	36.721041
1595.000000	36.787317
1596.000000	36.851443
1597.000000	36.927816
1598.000000	36.994361
1599.000000	37.069882
1600.000000	37.135753
1601.000000	37.197752
1602.000000	37.292391
1603.000000	37.361087
1604.000000	37.431266
1605.000000	37.527934
1606.000000	37.601053
1607.000000	37.684721
1608.000000	37.754748
1609.000000	37.812800
1610.000000	37.880151
1611.000000	37.979608
1612.000000	38.045017
1613.000000	38.109187
1614.000000	38.188371
1615.000000	38.243518
1616.000000	38.309650
1617.000000	38.379646
1618.000000	38.454343
1619.000000	38.520950
1620.000000	38.594373
1621.000000	38.667090
1622.000000	38.732941
1623.000000	38.836026
1624.000000	38.900493
1625.000000	38.973221
1626.000000	39.043200
1627.000000	39.138019
1628.000000	39.206813
1629.000000	39.276852
1630.000000	39.361115
1631.000000	39.433187
1632.000000	39.515622
1633.000000	39.579662
1634.000000	39.645806
1635.000000	39.721347
1636.000000	39.767429
1637.000000	39.828195
1638.000000	39.887143
1639.000000	39.935338
1640.000000	39.995821
1641.000000	40.030862
1642.000000	40.086750
1643.000000	40.125596
1644.000000	40.172619
1645.000000	40.206572
1646.000000	40.250054
1647.000000	40.297449
1648.000000	40.319609
1649.000000	40.340426
1650.000000	40.378873
1651.000000	40.399188
1652.000000	40.396422
1653.000000	40.412513
1654.000000	40.400619
1655.000000	40.387096
1656.000000	40.368020
1657.000000	40.344432
1658.000000	40.289932
1659.000000	40.231737
1660.000000	40.162480
1661.000000	40.079972
1662.000000	39.990987
1663.000000	39.907250
1664.000000	39.791294
1665.000000	39.674393
1666.000000	39.539222
1667.000000	39.390498
1668.000000	39.204956
1669.000000	39.033240
1670.000000	38.826350
1671.000000	38.583124
1672.000000	38.346281
1673.000000	38.070355
1674.000000	37.773571
1675.000000	37.437400
1676.000000	37.049499
1677.000000	36.605650
1678.000000	36.122914
1679.000000	35.586354
1680.000000	35.045481
1681.000000	34.539324
1682.000000	34.061324
1683.000000	33.706209
1684.000000	33.457040
1685.000000	33.281838
1686.000000	33.193771
1687.000000	33.130816
1688.000000	33.074134
1689.000000	33.007645
1690.000000	32.916414
1691.000000	32.781291
1692.000000	32.654380
1693.000000	32.546312
1694.000000	32.455769
1695.000000	32.413794
1696.000000	32.427595
1697.000000	32.475694
1698.000000	32.571378
1699.000000	32.719923
1700.000000	32.837459
1701.000000	32.948950
1702.000000	33.082768
1703.000000	33.179423
1704.000000	33.237898
1705.000000	33.273658
1706.000000	33.297657
1707.000000	33.310514
1708.000000	33.294825
1709.000000	33.262758
1710.000000	33.228125
1711.000000	33.164804
1712.000000	33.092747
1713.000000	33.003166
1714.000000	32.878243
1715.000000	32.745155
1716.000000	32.605593
1717.000000	32.478454
1718.000000	32.342939
1719.000000	32.212330
1720.000000	32.112274
1721.000000	32.050202
1722.000000	31.994992
1723.000000	31.935794
1724.000000	31.882488
1725.000000	31.827120
1726.000000	31.783056
1727.000000	31.727869
1728.000000	31.659691
1729.000000	31.577270
1730.000000	31.483316
1731.000000	31.416319
1732.000000	31.373283
1733.000000	31.345571
1734.000000	31.369285
1735.000000	31.430575
1736.000000	31.532975
1737.000000	31.684177
1738.000000	31.860301
1739.000000	32.089066
1740.000000	32.319405
1741.000000	32.559777
1742.000000	32.790561
1743.000000	32.996455
1744.000000	33.183926
1745.000000	33.362355
1746.000000	33.512230
1747.000000	33.623998
1748.000000	33.712643
1749.000000	33.796878
1750.000000	33.863863
1751.000000	33.904016
1752.000000	33.943046
1753.000000	33.965799
1754.000000	33.957314
1755.000000	33.936675
1756.000000	33.898181
1757.000000	33.864150
1758.000000	33.818985
1759.000000	33.762044
1760.000000	33.711780
1761.000000	33.670056
1762.000000	33.634100
1763.000000	33.622683
1764.000000	33.651159
1765.000000	33.711509
1766.000000	33.774313
1767.000000	33.868074
1768.000000	33.983959
1769.000000	34.104597
1770.000000	34.224437
1771.000000	34.367452
1772.000000	34.502075
1773.000000	34.610400
1774.000000	34.756801
1775.000000	34.890263
1776.000000	34.981892
1777.000000	35.095527
1778.000000	35.202676
1779.000000	35.283755
1780.000000	35.357888
1781.000000	35.441620
1782.000000	35.514925
1783.000000	35.591948
1784.000000	35.672302
1785.000000	35.741838
1786.000000	35.799446
1787.000000	35.845865
1788.000000	35.882109
1789.000000	35.922087
1790.000000	35.973372
1791.000000	36.033921
1792.000000	36.084628
1793.000000	36.133300
1794.000000	36.166054
1795.000000	36.222647
1796.000000	36.275702
1797.000000	36.311099
1798.000000	36.346255
1799.000000	36.391672
1800.000000	36.467720
1801.000000	36.522775
1802.000000	36.571965
1803.000000	36.577021
1804.000000	36.606076
1805.000000	36.672538
1806.000000	36.738954
1807.000000	36.758931
1808.000000	36.804042
1809.000000	36.834305
1810.000000	36.884391
1811.000000	36.939157
1812.000000	36.990598
1813.000000	36.979814
1814.000000	36.965606
1815.000000	37.018452
1816.000000	37.022854
1817.000000	36.978049
1818.000000	36.985579
1819.000000	37.028663
1820.000000	37.159950
1821.000000	37.183592
1822.000000	37.133554
1823.000000	37.106700
1824.000000	37.044703
1825.000000	37.112597
1826.000000	37.225010
1827.000000	37.292660
1828.000000	37.337514
1829.000000	37.404938
1830.000000	37.453719
1831.000000	37.571107
1832.000000	37.587867
1833.000000	37.605010
1834.000000	37.650097
1835.000000	37.815930
1836.000000	38.025956
1837.000000	38.037305
1838.000000	37.983111
1839.000000	38.011259
1840.000000	38.088247
1841.000000	38.233987
1842.000000	38.288147
1843.000000	38.188656
1844.000000	38.101500
1845.000000	38.102263
1846.000000	38.205801
1847.000000	38.493578
1848.000000	38.615036
1849.000000	38.472338
1850.000000	38.452387
1851.000000	38.413754
1852.000000	38.425939
1853.000000	38.564590
1854.000000	38.615079
1855.000000	38.505522
1856.000000	38.627693
1857.000000	38.591093
1858.000000	38.491742
1859.000000	38.544294
1860.000000	38.609789
1861.000000	38.417199
1862.000000	38.264503
1863.000000	38.214293
1864.000000	38.176294
1865.000000	38.005470
1866.000000	37.857193
1867.000000	37.970237
1868.000000	37.843916
1869.000000	37.614969
1870.000000	37.517191
1871.000000	37.336947
1872.000000	36.975510
1873.000000	36.831571
1874.000000	36.425839
1875.000000	36.020559
1876.000000	35.734036
1877.000000	35.380005
1878.000000	34.955052
1879.000000	34.439312
1880.000000	34.030103
1881.000000	33.604265
1882.000000	33.054485
1883.000000	32.590417
1884.000000	32.191530
1885.000000	31.677829
1886.000000	31.254153
1887.000000	30.755768
1888.000000	30.286567
1889.000000	30.013091
1890.000000	29.596722
1891.000000	29.246611
1892.000000	28.837233
1893.000000	28.451872
1894.000000	28.038387
1895.000000	27.638734
1896.000000	27.303259
1897.000000	26.917287
1898.000000	26.655839
1899.000000	26.345574
1900.000000	25.942720
1901.000000	25.431039
1902.000000	25.076150
1903.000000	24.801152
1904.000000	24.478490
1905.000000	24.246653
1906.000000	23.920935
1907.000000	23.437031
1908.000000	23.038843
1909.000000	22.735312
1910.000000	22.508997
1911.000000	22.279725
1912.000000	22.006487
1913.000000	21.873492
1914.000000	21.559735
1915.000000	21.266350
1916.000000	21.005635
1917.000000	20.710982
1918.000000	20.509372
1919.000000	20.327269
1920.000000	20.328086
1921.000000	20.057604
1922.000000	19.771920
1923.000000	19.668540
1924.000000	19.567554
1925.000000	19.348053
1926.000000	19.234986
1927.000000	19.149141
1928.000000	19.042492
1929.000000	18.885476
1930.000000	18.826897
1931.000000	18.760636
1932.000000	18.664254
1933.000000	18.572436
1934.000000	18.552024
1935.000000	18.513210
1936.000000	18.471793
1937.000000	18.441747
1938.000000	18.449856
1939.000000	18.442714
1940.000000	18.435558
1941.000000	18.440765
1942.000000	18.435302
1943.000000	18.461143
1944.000000	18.532164
1945.000000	18.551833
1946.000000	18.589695
1947.000000	18.698011
1948.000000	18.713050
1949.000000	18.758847
1950.000000	18.814320
1951.000000	18.887446
1952.000000	18.995181
1953.000000	19.070391
1954.000000	19.140653
1955.000000	19.209299
1956.000000	19.260656
1957.000000	19.344487
1958.000000	19.413858
1959.000000	19.535713
1960.000000	19.637223
1961.000000	19.677393
1962.000000	19.730445
1963.000000	19.876847
1964.000000	19.950424
1965.000000	19.983337
1966.000000	20.067574
1967.000000	20.157781
1968.000000	20.230595
1969.000000	20.321723
1970.000000	20.431689
1971.000000	20.500449
1972.000000	20.585060
1973.000000	20.658528
1974.000000	20.714218
1975.000000	20.820904
1976.000000	20.921867
1977.000000	20.999397
1978.000000	21.090863
1979.000000	21.189971
1980.000000	21.288942
1981.000000	21.358027
1982.000000	21.450447
1983.000000	21.572752
1984.000000	21.672080
1985.000000	21.748235
1986.000000	21.810222
1987.000000	21.921304
1988.000000	21.998681
1989.000000	22.050234
1990.000000	22.143840
1991.000000	22.240063
1992.000000	22.315684
1993.000000	22.391611
1994.000000	22.432129
1995.000000	22.518141
1996.000000	22.600915
1997.000000	22.618767
1998.000000	22.663347
1999.000000	22.726412
2000.000000	22.750647
2001.000000	22.791200
2002.000000	22.831200
2003.000000	22.882214
2004.000000	22.906838
2005.000000	22.914177
2006.000000	22.925954
2007.000000	22.926721
2008.000000	22.933956
2009.000000	22.932009
2010.000000	22.925359
2011.000000	22.932602
2012.000000	22.949250
2013.000000	22.947850
2014.000000	22.880378
2015.000000	22.844256
2016.000000	22.822846
2017.000000	22.755825
2018.000000	22.683461
2019.000000	22.647745
2020.000000	22.611759
2021.000000	22.571828
2022.000000	22.510985
2023.000000	22.393746
2024.000000	22.310654
2025.000000	22.285357
2026.000000	22.215136
2027.000000	22.128654
2028.000000	22.053774
2029.000000	21.973778
2030.000000	21.859336
2031.000000	21.762595
2032.000000	21.601065
2033.000000	21.512229
2034.000000	21.439199
2035.000000	21.305109
2036.000000	21.208715
2037.000000	21.036109
2038.000000	20.832794
2039.000000	20.695676
2040.000000	20.570175
2041.000000	20.406987
2042.000000	20.219179
2043.000000	20.083502
2044.000000	19.928046
2045.000000	19.746464
2046.000000	19.596339
2047.000000	19.438035
2048.000000	19.312161
2049.000000	19.193979
2050.000000	19.081540
2051.000000	18.955420
2052.000000	18.873946
2053.000000	18.820252
2054.000000	18.773139
2055.000000	18.832251
2056.000000	18.773490
2057.000000	18.809269
2058.000000	18.838737
2059.000000	18.910441
2060.000000	18.873026
2061.000000	18.838375
2062.000000	18.936542
2063.000000	19.107333
2064.000000	19.191934
2065.000000	19.226589
2066.000000	19.302490
2067.000000	19.314283
2068.000000	19.494471
2069.000000	19.600339
2070.000000	19.646896
2071.000000	19.747561
2072.000000	19.817383
2073.000000	19.914821
2074.000000	19.909135
2075.000000	19.986206
2076.000000	20.056789
2077.000000	20.003562
2078.000000	20.154312
2079.000000	20.345831
2080.000000	20.180881
2081.000000	20.377130
2082.000000	20.494879
2083.000000	20.413136
2084.000000	20.369722
2085.000000	20.429422
2086.000000	20.503604
2087.000000	20.484682
2088.000000	20.474777
2089.000000	20.477975
2090.000000	20.521222
2091.000000	20.559942
2092.000000	20.532359
2093.000000	20.388071
2094.000000	20.339411
2095.000000	20.398099
2096.000000	20.643280
2097.000000	20.650555
2098.000000	20.672162
2099.000000	20.663062
2100.000000	20.651429
2101.000000	20.564961
2102.000000	20.701265
2103.000000	20.698980
2104.000000	20.742987
2105.000000	20.789567
2106.000000	20.776326
2107.000000	20.836533
2108.000000	20.929891
2109.000000	20.921296
2110.000000	20.775883
2111.000000	21.070957
2112.000000	20.962774
2113.000000	21.173919
2114.000000	20.864357
2115.000000	21.078182
2116.000000	20.975590
2117.000000	21.242797
2118.000000	20.962053
2119.000000	21.052000
2120.000000	21.129315
2121.000000	21.107503
2122.000000	21.094797
2123.000000	21.176126
2124.000000	21.144302
2125.000000	21.259926
2126.000000	21.199844
2127.000000	21.127720
2128.000000	21.089652
2129.000000	21.231578
2130.000000	20.997995
2131.000000	21.028936
2132.000000	21.025855
2133.000000	21.027225
2134.000000	21.034801
2135.000000	20.991254
2136.000000	20.841251
2137.000000	20.734620
2138.000000	20.591187
2139.000000	20.711941
2140.000000	20.705423
2141.000000	20.657964
2142.000000	20.418862
2143.000000	20.369571
2144.000000	20.189722
2145.000000	20.307471
2146.000000	20.266223
2147.000000	20.148494
2148.000000	19.858331
2149.000000	19.942176
2150.000000	19.838000
2151.000000	19.845358
2152.000000	19.998217
2153.000000	19.737883
2154.000000	19.592831
2155.000000	19.343402
2156.000000	19.311039
2157.000000	19.186800
2158.000000	19.235538
2159.000000	19.318679
2160.000000	19.280423
2161.000000	19.143560
2162.000000	19.117337
2163.000000	18.954186
2164.000000	19.054213
2165.000000	18.841629
2166.000000	18.740705
2167.000000	18.912019
2168.000000	18.862429
2169.000000	18.883177
2170.000000	18.930058
2171.000000	18.792043
2172.000000	18.756003
2173.000000	18.812354
2174.000000	18.700734
2175.000000	18.702020
2176.000000	18.815817
2177.000000	18.794470
2178.000000	18.815829
2179.000000	18.769411
2180.000000	18.770208
2181.000000	18.740341
2182.000000	18.725898
2183.000000	18.802524
2184.000000	18.932104
2185.000000	18.972414
2186.000000	18.967141
2187.000000	18.890215
2188.000000	18.868955
2189.000000	18.875789
2190.000000	18.890947
2191.000000	18.891740
2192.000000	19.024296
2193.000000	18.785038
2194.000000	18.946358
2195.000000	18.995465
2196.000000	19.090500
2197.000000	19.012719
2198.000000	18.940461
2199.000000	18.983304
2200.000000	19.062756
2201.000000	18.928897
2202.000000	19.064046
2203.000000	19.085735
2204.000000	19.133989
2205.000000	19.287352
2206.000000	19.265470
2207.000000	19.187201
2208.000000	19.370339
2209.000000	19.376210
2210.000000	19.379526
2211.000000	19.385898
2212.000000	19.415247
2213.000000	19.453875
2214.000000	19.531883
2215.000000	19.579439
2216.000000	19.698451
2217.000000	19.830864
2218.000000	19.793448
2219.000000	19.973768
2220.000000	20.056741
2221.000000	20.036475
2222.000000	19.867344
2223.000000	20.023871
2224.000000	20.114897
2225.000000	20.224449
2226.000000	20.177407
2227.000000	20.106343
2228.000000	20.287618
2229.000000	20.269559
2230.000000	20.243917
2231.000000	20.280948
2232.000000	20.243168
2233.000000	20.189175
2234.000000	20.186281
2235.000000	20.155257
2236.000000	20.000559
2237.000000	19.943703
2238.000000	19.936533
2239.000000	19.871876
2240.000000	19.682781
2241.000000	19.539283
2242.000000	19.418369
2243.000000	19.273563
2244.000000	19.198702
2245.000000	19.082845
2246.000000	18.981881
2247.000000	18.824696
2248.000000	18.562581
2249.000000	18.440853
2250.000000	18.116271
2251.000000	17.864632
2252.000000	17.630581
2253.000000	17.355346
2254.000000	17.087763
2255.000000	16.832570
2256.000000	16.508639
2257.000000	16.203703
2258.000000	15.938340
2259.000000	15.682684
2260.000000	15.338278
2261.000000	14.994226
2262.000000	14.746140
2263.000000	14.410903
2264.000000	14.182366
2265.000000	14.253751
2266.000000	14.217790
2267.000000	14.027309
2268.000000	13.939962
2269.000000	13.847792
2270.000000	13.688195
2271.000000	13.750562
2272.000000	13.703052
2273.000000	13.604686
2274.000000	13.784592
2275.000000	13.909861
2276.000000	13.852835
2277.000000	13.889926
2278.000000	13.979636
2279.000000	14.086184
2280.000000	13.991923
2281.000000	14.040030
2282.000000	14.234495
2283.000000	14.214871
2284.000000	14.239237
2285.000000	14.274126
2286.000000	14.325135
2287.000000	14.421762
2288.000000	14.280270
2289.000000	14.361123
2290.000000	14.538610
2291.000000	14.528913
2292.000000	14.247102
2293.000000	14.084227
2294.000000	14.133932
2295.000000	14.017397
2296.000000	14.091701
2297.000000	14.053266
2298.000000	13.952556
2299.000000	13.604801
2300.000000	13.425246
2301.000000	13.374599
2302.000000	13.364422
2303.000000	13.545618
2304.000000	13.358598
2305.000000	13.127569
2306.000000	13.302223
2307.000000	13.411422
2308.000000	13.258310
2309.000000	13.327741
2310.000000	13.385568
2311.000000	13.609527
2312.000000	13.822292
2313.000000	13.660710
2314.000000	13.821800
2315.000000	14.025903
2316.000000	14.266771
2317.000000	14.477722
2318.000000	14.802532
2319.000000	14.826570
2320.000000	14.829774
2321.000000	15.077522
2322.000000	15.204460
2323.000000	15.065535
2324.000000	15.072843
2325.000000	15.265445
2326.000000	15.632590
2327.000000	15.515072
2328.000000	15.494568
2329.000000	15.602272
2330.000000	15.716031
2331.000000	15.748772
2332.000000	15.925571
2333.000000	15.872174
2334.000000	15.878018
2335.000000	15.936461
2336.000000	16.161654
2337.000000	16.043735
2338.000000	15.832882
2339.000000	16.029964
2340.000000	16.217938
2341.000000	16.219044
2342.000000	16.051566
2343.000000	16.079301
2344.000000	15.669648
2345.000000	15.875589
2346.000000	15.821346
2347.000000	15.623095
2348.000000	15.649411
2349.000000	15.514507
2350.000000	15.494607
2351.000000	15.536320
2352.000000	15.922464
2353.000000	15.347821
2354.000000	15.652731
2355.000000	15.854522
2356.000000	15.669175
2357.000000	15.867405
2358.000000	16.025788
2359.000000	15.898196
2360.000000	15.873829
2361.000000	16.179724
2362.000000	16.416914
2363.000000	16.586760
2364.000000	16.875649
2365.000000	16.800883
2366.000000	16.702243
2367.000000	16.444461
2368.000000	16.438289
2369.000000	16.843887
2370.000000	16.878881
2371.000000	16.914399
2372.000000	16.846987
2373.000000	16.759934
2374.000000	16.697061
2375.000000	16.866460
2376.000000	17.208921
2377.000000	17.479084
2378.000000	17.568774
2379.000000	16.991814
2380.000000	16.906170
2381.000000	17.444169
2382.000000	17.334570
2383.000000	17.335017
2384.000000	17.159354
2385.000000	17.087970
2386.000000	17.547902
2387.000000	17.421606
2388.000000	17.907777
2389.000000	17.464813
2390.000000	17.669332
2391.000000	17.394157
2392.000000	17.060582
2393.000000	17.193369
2394.000000	17.130818
2395.000000	17.654021
2396.000000	17.200751
2397.000000	17.154004
2398.000000	16.890932
2399.000000	17.285841
2400.000000	16.914424
2401.000000	15.018840
2402.000000	14.989390
2403.000000	14.954176
2404.000000	14.923573
2405.000000	14.894962
2406.000000	14.840779
2407.000000	14.815731
2408.000000	14.784185
2409.000000	14.746561
2410.000000	14.701181
2411.000000	14.667958
2412.000000	14.630229
2413.000000	14.586735
2414.000000	14.541565
2415.000000	14.512535
2416.000000	14.478159
2417.000000	14.426386
2418.000000	14.351452
2419.000000	14.307854
2420.000000	14.260902
2421.000000	14.227679
2422.000000	14.162177
2423.000000	14.089758
2424.000000	14.029496
2425.000000	13.963575
2426.000000	13.894405
2427.000000	13.804169
2428.000000	13.755436
2429.000000	13.668134
2430.000000	13.580414
2431.000000	13.528851
2432.000000	13.464502
2433.000000	13.375314
2434.000000	13.313690
2435.000000	13.222406
2436.000000	13.132589
2437.000000	13.024118
2438.000000	12.940380
2439.000000	12.848363
2440.000000	12.755612
2441.000000	12.647350
2442.000000	12.555857
2443.000000	12.451158
2444.000000	12.347403
2445.000000	12.245115
2446.000000	12.142093
2447.000000	12.045465
2448.000000	11.943491
2449.000000	11.857028
2450.000000	11.759247
2451.000000	11.648994
2452.000000	11.552679
2453.000000	11.462863
2454.000000	11.391492
2455.000000	11.284802
2456.000000	11.210182
2457.000000	11.125082
2458.000000	11.058741
2459.000000	11.003091
2460.000000	10.959388
2461.000000	10.862759
2462.000000	10.802183
2463.000000	10.772733
2464.000000	10.738777
2465.000000	10.679249
2466.000000	10.647598
2467.000000	10.664157
2468.000000	10.611231
2469.000000	10.605677
2470.000000	10.514288
2471.000000	10.509886
2472.000000	10.511039
2473.000000	10.496157
2474.000000	10.505799
2475.000000	10.482114
2476.000000	10.499196
2477.000000	10.496576
2478.000000	10.432227
2479.000000	10.430550
2480.000000	10.429293
2481.000000	10.474253
2482.000000	10.467546
2483.000000	10.450987
2484.000000	10.453712
2485.000000	10.491336
2486.000000	10.473834
2487.000000	10.526445
2488.000000	10.482218
2489.000000	10.505065
2490.000000	10.586078
2491.000000	10.485467
2492.000000	10.558830
2493.000000	10.564594
2494.000000	10.580105
2495.000000	10.633030
2496.000000	10.667091
2497.000000	10.698952
2498.000000	10.833938
2499.000000	10.695703
2500.000000	10.854165
