PE UV       SUBTECH     SPECTRUM    ASCII       PEDS        4.00        
   -1
CICIMAUCR0098-5.Sample.ASC
24/04/25
11:55:07.00
24/04/25
11:55:07.00
Vinicio Soto Monge
C. cupreomarginata
250,000000
1
Lambda 1050
1050L1511233
PerkinElmer UV WinLab 6.3.2.0749 / 2.02.05 Lambda 900 UV/VIS/NIR, Aug  7 2015 09:38:08

0
0
3350/servo 860,8/2
0
0
UV/VIS
1
1
1
DoubleDePol,CommonBeamDepol,RBeamAtt,SBeamAtt,60mm sphere, WB InGaAs Detector
0
0
0
0
Program
Program
3350/servo 860,8/2
3350/0,2 860,8/0,2
3350/0,2 860,8/0,2
0
15.00
 
 
 
0
 
860,8
319,2
860,8
Front
100
on
S:100 R:100
0
0
0
0
 
0
 
 
 
0
 
 
0
0
0
0
0
 
 
 
 
0
0


0
0
#HDR
-1
-1
#GR
nm
%R
1.0
0.0
2500,000000
-1,000000
2251
8
65,296400
4,773000
#DATA
250.000000	6.059033
251.000000	6.052233
252.000000	6.033967
253.000000	6.025833
254.000000	5.993167
255.000000	6.004867
256.000000	5.973633
257.000000	5.963067
258.000000	5.983400
259.000000	5.928800
260.000000	5.908633
261.000000	5.871000
262.000000	5.851567
263.000000	5.842133
264.000000	5.812533
265.000000	5.777267
266.000000	5.782500
267.000000	5.719600
268.000000	5.692667
269.000000	5.711000
270.000000	5.659800
271.000000	5.664633
272.000000	5.643133
273.000000	5.623033
274.000000	5.634600
275.000000	5.594800
276.000000	5.554467
277.000000	5.580567
278.000000	5.593133
279.000000	5.532267
280.000000	5.551667
281.000000	5.484600
282.000000	5.508967
283.000000	5.506967
284.000000	5.490433
285.000000	5.484000
286.000000	5.487833
287.000000	5.468300
288.000000	5.431433
289.000000	5.474767
290.000000	5.449233
291.000000	5.445800
292.000000	5.419767
293.000000	5.416233
294.000000	5.413100
295.000000	5.410033
296.000000	5.407567
297.000000	5.374467
298.000000	5.381933
299.000000	5.323500
300.000000	5.347467
301.000000	5.359467
302.000000	5.333633
303.000000	5.366800
304.000000	5.342167
305.000000	5.337533
306.000000	5.320933
307.000000	5.342867
308.000000	5.341733
309.000000	5.342500
310.000000	5.326600
311.000000	5.314800
312.000000	5.296433
313.000000	5.294267
314.000000	5.302133
315.000000	5.280167
316.000000	5.312700
317.000000	5.645067
318.000000	5.805333
319.000000	5.924767
320.000000	5.652667
321.000000	5.589533
322.000000	5.440500
323.000000	5.464133
324.000000	5.526167
325.000000	5.450900
326.000000	5.565767
327.000000	5.396433
328.000000	5.479300
329.000000	5.494800
330.000000	5.369400
331.000000	5.438967
332.000000	5.313467
333.000000	5.354133
334.000000	5.473700
335.000000	5.313400
336.000000	5.312067
337.000000	5.290233
338.000000	5.241267
339.000000	5.235733
340.000000	5.282233
341.000000	5.349600
342.000000	5.297733
343.000000	5.271100
344.000000	5.232333
345.000000	5.194767
346.000000	5.290100
347.000000	5.248933
348.000000	5.207533
349.000000	5.241333
350.000000	5.180467
351.000000	5.224733
352.000000	5.256733
353.000000	5.194300
354.000000	5.219500
355.000000	5.200500
356.000000	5.204233
357.000000	5.177200
358.000000	5.186267
359.000000	5.178300
360.000000	5.167167
361.000000	5.150933
362.000000	5.164167
363.000000	5.195067
364.000000	5.147767
365.000000	5.187333
366.000000	5.199633
367.000000	5.171633
368.000000	5.184133
369.000000	5.124633
370.000000	5.103600
371.000000	5.091267
372.000000	5.116500
373.000000	5.102667
374.000000	4.983933
375.000000	4.985833
376.000000	5.217667
377.000000	5.278767
378.000000	5.294067
379.000000	5.310367
380.000000	5.328833
381.000000	5.337733
382.000000	5.343233
383.000000	5.361167
384.000000	5.382800
385.000000	5.387367
386.000000	5.410600
387.000000	5.417167
388.000000	5.422367
389.000000	5.449767
390.000000	5.473167
391.000000	5.486633
392.000000	5.498400
393.000000	5.527933
394.000000	5.556167
395.000000	5.587200
396.000000	5.612733
397.000000	5.635967
398.000000	5.670333
399.000000	5.703533
400.000000	5.739233
401.000000	5.791233
402.000000	5.847367
403.000000	5.895367
404.000000	5.954200
405.000000	6.019967
406.000000	6.091867
407.000000	6.172667
408.000000	6.257000
409.000000	6.350600
410.000000	6.448000
411.000000	6.554033
412.000000	6.670067
413.000000	6.796967
414.000000	6.931767
415.000000	7.074633
416.000000	7.228367
417.000000	7.394567
418.000000	7.568300
419.000000	7.755133
420.000000	7.955800
421.000000	8.166200
422.000000	8.383333
423.000000	8.599433
424.000000	8.833533
425.000000	9.077433
426.000000	9.332433
427.000000	9.590733
428.000000	9.848700
429.000000	10.116133
430.000000	10.393433
431.000000	10.678433
432.000000	10.961167
433.000000	11.251033
434.000000	11.564733
435.000000	11.865000
436.000000	12.152367
437.000000	12.457400
438.000000	12.758733
439.000000	13.047667
440.000000	13.347967
441.000000	13.654333
442.000000	13.954633
443.000000	14.241167
444.000000	14.519033
445.000000	14.815733
446.000000	15.102567
447.000000	15.370000
448.000000	15.632033
449.000000	15.879667
450.000000	16.122000
451.000000	16.367767
452.000000	16.610100
453.000000	16.840733
454.000000	17.062800
455.000000	17.282133
456.000000	17.476733
457.000000	17.680633
458.000000	17.877200
459.000000	18.066867
460.000000	18.258000
461.000000	18.439333
462.000000	18.616367
463.000000	18.794033
464.000000	18.965600
465.000000	19.122733
466.000000	19.282567
467.000000	19.438733
468.000000	19.586333
469.000000	19.728567
470.000000	19.866467
471.000000	20.003300
472.000000	20.136767
473.000000	20.255233
474.000000	20.367033
475.000000	20.498100
476.000000	20.617567
477.000000	20.721233
478.000000	20.822867
479.000000	20.920967
480.000000	21.011933
481.000000	21.093667
482.000000	21.156733
483.000000	21.224433
484.000000	21.298800
485.000000	21.371333
486.000000	21.460067
487.000000	21.542567
488.000000	21.634567
489.000000	21.727533
490.000000	21.834833
491.000000	21.965900
492.000000	22.115400
493.000000	22.285133
494.000000	22.497033
495.000000	22.728233
496.000000	23.002167
497.000000	23.306900
498.000000	23.650567
499.000000	24.020567
500.000000	24.429433
501.000000	24.888733
502.000000	25.360633
503.000000	25.862867
504.000000	26.387667
505.000000	26.924667
506.000000	27.496267
507.000000	28.062700
508.000000	28.641667
509.000000	29.259100
510.000000	29.869267
511.000000	30.487633
512.000000	31.129567
513.000000	31.770100
514.000000	32.415367
515.000000	33.076367
516.000000	33.738500
517.000000	34.419933
518.000000	35.110200
519.000000	35.833733
520.000000	36.567367
521.000000	37.320033
522.000000	38.085300
523.000000	38.883000
524.000000	39.705233
525.000000	40.542300
526.000000	41.396767
527.000000	42.268567
528.000000	43.152033
529.000000	44.050367
530.000000	44.991900
531.000000	45.954867
532.000000	46.925567
533.000000	47.923433
534.000000	48.929400
535.000000	49.928733
536.000000	50.906067
537.000000	51.889800
538.000000	52.823900
539.000000	53.716867
540.000000	54.575267
541.000000	55.437400
542.000000	56.244400
543.000000	57.033700
544.000000	57.777333
545.000000	58.485800
546.000000	59.172167
547.000000	59.814300
548.000000	60.448000
549.000000	61.009800
550.000000	61.523100
551.000000	61.985533
552.000000	62.405467
553.000000	62.778700
554.000000	63.071733
555.000000	63.342867
556.000000	63.577300
557.000000	63.795000
558.000000	63.989500
559.000000	64.174300
560.000000	64.435300
561.000000	64.607033
562.000000	64.767567
563.000000	64.907567
564.000000	65.022933
565.000000	65.107167
566.000000	65.189867
567.000000	65.222700
568.000000	65.261300
569.000000	65.248667
570.000000	65.216933
571.000000	65.159000
572.000000	65.082367
573.000000	65.018067
574.000000	64.921433
575.000000	64.846167
576.000000	64.742900
577.000000	64.679600
578.000000	64.639700
579.000000	64.560533
580.000000	64.531333
581.000000	64.459833
582.000000	64.410767
583.000000	64.371100
584.000000	64.263500
585.000000	64.148900
586.000000	64.017567
587.000000	63.794867
588.000000	63.543700
589.000000	63.269200
590.000000	62.959100
591.000000	62.576667
592.000000	62.213567
593.000000	61.822900
594.000000	61.432833
595.000000	61.047767
596.000000	60.655467
597.000000	60.232733
598.000000	59.858400
599.000000	59.467933
600.000000	59.042867
601.000000	58.642833
602.000000	58.197733
603.000000	57.757033
604.000000	57.344067
605.000000	56.904700
606.000000	56.427433
607.000000	55.908500
608.000000	55.410000
609.000000	54.832900
610.000000	54.222933
611.000000	53.537000
612.000000	52.853267
613.000000	52.107367
614.000000	51.359800
615.000000	50.664167
616.000000	49.935033
617.000000	49.241733
618.000000	48.595467
619.000000	47.993400
620.000000	47.426633
621.000000	46.921500
622.000000	46.471533
623.000000	46.087800
624.000000	45.762700
625.000000	45.495667
626.000000	45.280933
627.000000	45.100433
628.000000	44.985867
629.000000	44.908933
630.000000	44.902300
631.000000	44.898267
632.000000	44.955567
633.000000	45.061233
634.000000	45.192867
635.000000	45.341300
636.000000	45.534267
637.000000	45.749000
638.000000	45.961900
639.000000	46.207733
640.000000	46.459800
641.000000	46.680667
642.000000	46.909600
643.000000	47.160700
644.000000	47.371667
645.000000	47.603400
646.000000	47.780767
647.000000	47.947400
648.000000	48.145733
649.000000	48.279867
650.000000	48.410633
651.000000	48.523667
652.000000	48.651667
653.000000	48.752767
654.000000	48.835867
655.000000	48.898033
656.000000	48.930667
657.000000	48.982633
658.000000	49.047467
659.000000	49.077333
660.000000	49.091667
661.000000	49.147400
662.000000	49.173800
663.000000	49.171800
664.000000	49.199967
665.000000	49.224867
666.000000	49.274533
667.000000	49.317633
668.000000	49.380200
669.000000	49.434500
670.000000	49.496033
671.000000	49.579633
672.000000	49.670300
673.000000	49.752567
674.000000	49.847600
675.000000	49.936033
676.000000	50.045500
677.000000	50.187433
678.000000	50.328467
679.000000	50.489100
680.000000	50.636767
681.000000	50.831267
682.000000	51.046867
683.000000	51.274267
684.000000	51.452167
685.000000	51.705533
686.000000	51.927733
687.000000	52.147000
688.000000	52.389433
689.000000	52.623900
690.000000	52.828067
691.000000	53.033733
692.000000	53.251133
693.000000	53.441633
694.000000	53.630833
695.000000	53.809200
696.000000	53.993333
697.000000	54.196467
698.000000	54.369167
699.000000	54.535433
700.000000	54.728833
701.000000	54.872700
702.000000	55.031500
703.000000	55.204200
704.000000	55.364600
705.000000	55.518800
706.000000	55.639333
707.000000	55.737433
708.000000	55.864433
709.000000	55.947800
710.000000	56.038500
711.000000	56.162733
712.000000	56.246267
713.000000	56.342167
714.000000	56.440933
715.000000	56.544133
716.000000	56.617300
717.000000	56.693167
718.000000	56.759200
719.000000	56.822867
720.000000	56.897267
721.000000	56.948867
722.000000	57.001567
723.000000	57.036400
724.000000	57.066267
725.000000	57.124733
726.000000	57.198400
727.000000	57.228367
728.000000	57.268967
729.000000	57.323000
730.000000	57.385133
731.000000	57.452067
732.000000	57.510867
733.000000	57.566200
734.000000	57.649433
735.000000	57.730100
736.000000	57.794733
737.000000	57.860667
738.000000	57.933267
739.000000	57.978967
740.000000	58.013567
741.000000	58.075500
742.000000	58.154167
743.000000	58.185733
744.000000	58.258633
745.000000	58.342233
746.000000	58.391800
747.000000	58.438967
748.000000	58.503600
749.000000	58.580500
750.000000	58.655667
751.000000	58.767500
752.000000	58.853900
753.000000	58.948533
754.000000	59.083533
755.000000	59.179833
756.000000	59.218900
757.000000	59.277033
758.000000	59.405733
759.000000	59.443500
760.000000	59.520633
761.000000	59.639333
762.000000	59.676233
763.000000	59.703600
764.000000	59.786567
765.000000	59.827500
766.000000	59.840600
767.000000	59.945733
768.000000	60.060967
769.000000	60.139533
770.000000	60.172133
771.000000	60.243333
772.000000	60.338767
773.000000	60.454833
774.000000	60.539800
775.000000	60.556400
776.000000	60.628133
777.000000	60.681967
778.000000	60.696233
779.000000	60.733833
780.000000	60.768333
781.000000	60.839067
782.000000	60.886900
783.000000	60.914700
784.000000	60.980967
785.000000	61.064733
786.000000	61.115300
787.000000	61.161900
788.000000	61.225200
789.000000	61.283967
790.000000	61.373500
791.000000	61.505100
792.000000	61.561900
793.000000	61.612067
794.000000	61.692800
795.000000	61.680367
796.000000	61.756167
797.000000	61.909167
798.000000	61.953133
799.000000	61.986800
800.000000	62.053067
801.000000	62.108367
802.000000	62.206033
803.000000	62.266933
804.000000	62.352433
805.000000	62.409200
806.000000	62.547233
807.000000	62.644100
808.000000	62.685667
809.000000	62.789933
810.000000	62.866067
811.000000	62.961500
812.000000	63.047367
813.000000	63.191433
814.000000	63.270567
815.000000	63.380433
816.000000	63.418667
817.000000	63.550167
818.000000	63.707033
819.000000	63.662300
820.000000	63.876633
821.000000	64.050600
822.000000	64.196700
823.000000	64.219967
824.000000	64.279833
825.000000	64.312367
826.000000	64.390133
827.000000	64.540833
828.000000	64.645467
829.000000	64.659667
830.000000	64.631733
831.000000	64.805833
832.000000	64.855833
833.000000	64.868867
834.000000	64.900467
835.000000	65.040000
836.000000	65.046233
837.000000	64.971267
838.000000	65.086767
839.000000	65.184233
840.000000	65.223900
841.000000	65.172967
842.000000	65.174267
843.000000	65.220800
844.000000	65.206100
845.000000	65.247900
846.000000	65.106267
847.000000	65.213533
848.000000	65.159167
849.000000	65.168933
850.000000	65.045967
851.000000	65.172033
852.000000	64.887500
853.000000	65.116300
854.000000	65.177367
855.000000	65.022667
856.000000	65.026967
857.000000	65.166967
858.000000	65.072200
859.000000	64.420940
860.000000	64.385229
861.000000	64.327811
862.000000	64.277235
863.000000	64.196890
864.000000	64.124130
865.000000	64.046343
866.000000	64.004347
867.000000	64.060425
868.000000	64.172597
869.000000	64.281227
870.000000	64.389739
871.000000	64.503597
872.000000	64.558933
873.000000	64.638076
874.000000	64.679262
875.000000	64.684024
876.000000	64.709405
877.000000	64.693123
878.000000	64.709036
879.000000	64.682773
880.000000	64.664881
881.000000	64.626973
882.000000	64.561256
883.000000	64.544013
884.000000	64.489117
885.000000	64.459087
886.000000	64.380677
887.000000	64.287728
888.000000	64.216738
889.000000	64.152687
890.000000	64.074319
891.000000	63.977097
892.000000	63.892470
893.000000	63.780840
894.000000	63.642991
895.000000	63.514164
896.000000	63.373742
897.000000	63.243640
898.000000	63.088614
899.000000	62.962446
900.000000	62.808765
901.000000	62.661437
902.000000	62.507024
903.000000	62.335071
904.000000	62.192517
905.000000	62.048725
906.000000	61.916966
907.000000	61.767634
908.000000	61.642164
909.000000	61.537367
910.000000	61.432526
911.000000	61.351108
912.000000	61.279605
913.000000	61.165526
914.000000	61.092966
915.000000	61.012504
916.000000	60.946771
917.000000	60.862419
918.000000	60.774985
919.000000	60.702314
920.000000	60.627411
921.000000	60.529364
922.000000	60.444682
923.000000	60.326930
924.000000	60.231804
925.000000	60.140335
926.000000	60.039743
927.000000	59.947778
928.000000	59.858033
929.000000	59.763943
930.000000	59.680467
931.000000	59.577398
932.000000	59.504211
933.000000	59.406009
934.000000	59.327978
935.000000	59.232220
936.000000	59.161744
937.000000	59.094741
938.000000	59.002729
939.000000	58.927579
940.000000	58.844728
941.000000	58.755445
942.000000	58.673394
943.000000	58.594599
944.000000	58.519326
945.000000	58.434884
946.000000	58.367599
947.000000	58.281167
948.000000	58.202673
949.000000	58.109710
950.000000	58.034245
951.000000	57.974148
952.000000	57.883745
953.000000	57.813052
954.000000	57.725861
955.000000	57.656840
956.000000	57.564684
957.000000	57.458928
958.000000	57.369176
959.000000	57.287551
960.000000	57.176235
961.000000	57.076944
962.000000	56.973642
963.000000	56.874718
964.000000	56.800768
965.000000	56.704698
966.000000	56.617806
967.000000	56.537768
968.000000	56.460919
969.000000	56.386643
970.000000	56.311102
971.000000	56.234892
972.000000	56.170433
973.000000	56.101707
974.000000	56.028903
975.000000	55.963796
976.000000	55.899130
977.000000	55.823090
978.000000	55.759441
979.000000	55.691360
980.000000	55.619958
981.000000	55.552446
982.000000	55.477372
983.000000	55.416963
984.000000	55.347725
985.000000	55.278198
986.000000	55.218996
987.000000	55.166596
988.000000	55.108628
989.000000	55.045290
990.000000	54.996864
991.000000	54.949814
992.000000	54.900637
993.000000	54.862881
994.000000	54.829882
995.000000	54.793022
996.000000	54.760539
997.000000	54.726595
998.000000	54.686074
999.000000	54.649643
1000.000000	54.625031
1001.000000	54.612417
1002.000000	54.580178
1003.000000	54.551268
1004.000000	54.530545
1005.000000	54.494778
1006.000000	54.473697
1007.000000	54.445642
1008.000000	54.413326
1009.000000	54.395132
1010.000000	54.373862
1011.000000	54.354608
1012.000000	54.353455
1013.000000	54.359249
1014.000000	54.364786
1015.000000	54.382353
1016.000000	54.409966
1017.000000	54.453236
1018.000000	54.493643
1019.000000	54.531935
1020.000000	54.591669
1021.000000	54.642984
1022.000000	54.692777
1023.000000	54.749038
1024.000000	54.814113
1025.000000	54.873537
1026.000000	54.932811
1027.000000	55.005216
1028.000000	55.061601
1029.000000	55.117683
1030.000000	55.178960
1031.000000	55.227748
1032.000000	55.279290
1033.000000	55.332046
1034.000000	55.379441
1035.000000	55.428262
1036.000000	55.474439
1037.000000	55.524126
1038.000000	55.567568
1039.000000	55.614273
1040.000000	55.658585
1041.000000	55.689040
1042.000000	55.722583
1043.000000	55.752561
1044.000000	55.787356
1045.000000	55.828994
1046.000000	55.873215
1047.000000	55.913949
1048.000000	55.957980
1049.000000	56.000088
1050.000000	56.043501
1051.000000	56.094034
1052.000000	56.138579
1053.000000	56.184266
1054.000000	56.243759
1055.000000	56.304866
1056.000000	56.360382
1057.000000	56.419618
1058.000000	56.485574
1059.000000	56.552524
1060.000000	56.603134
1061.000000	56.647373
1062.000000	56.703877
1063.000000	56.760558
1064.000000	56.808302
1065.000000	56.850667
1066.000000	56.901076
1067.000000	56.949643
1068.000000	56.990650
1069.000000	57.038506
1070.000000	57.084578
1071.000000	57.126871
1072.000000	57.169978
1073.000000	57.214239
1074.000000	57.252068
1075.000000	57.291441
1076.000000	57.328795
1077.000000	57.372192
1078.000000	57.411308
1079.000000	57.454253
1080.000000	57.492535
1081.000000	57.528060
1082.000000	57.573751
1083.000000	57.616361
1084.000000	57.665707
1085.000000	57.709100
1086.000000	57.745811
1087.000000	57.790103
1088.000000	57.830458
1089.000000	57.872595
1090.000000	57.902213
1091.000000	57.944077
1092.000000	57.975260
1093.000000	58.006275
1094.000000	58.032599
1095.000000	58.059659
1096.000000	58.087881
1097.000000	58.129983
1098.000000	58.155412
1099.000000	58.173844
1100.000000	58.195994
1101.000000	58.209898
1102.000000	58.233504
1103.000000	58.243638
1104.000000	58.253705
1105.000000	58.265697
1106.000000	58.273498
1107.000000	58.273196
1108.000000	58.288967
1109.000000	58.298347
1110.000000	58.308043
1111.000000	58.323194
1112.000000	58.330943
1113.000000	58.323045
1114.000000	58.351930
1115.000000	58.353685
1116.000000	58.365336
1117.000000	58.368463
1118.000000	58.360000
1119.000000	58.339924
1120.000000	58.321135
1121.000000	58.291031
1122.000000	58.247734
1123.000000	58.204428
1124.000000	58.129681
1125.000000	58.047699
1126.000000	57.967323
1127.000000	57.854179
1128.000000	57.714004
1129.000000	57.553302
1130.000000	57.354991
1131.000000	57.101979
1132.000000	56.813264
1133.000000	56.498239
1134.000000	56.186169
1135.000000	55.818058
1136.000000	55.396062
1137.000000	54.966888
1138.000000	54.542633
1139.000000	54.137253
1140.000000	53.736660
1141.000000	53.358279
1142.000000	52.975663
1143.000000	52.611170
1144.000000	52.266493
1145.000000	51.970915
1146.000000	51.747935
1147.000000	51.605425
1148.000000	51.529178
1149.000000	51.506754
1150.000000	51.502191
1151.000000	51.498949
1152.000000	51.488608
1153.000000	51.432916
1154.000000	51.338503
1155.000000	51.181815
1156.000000	50.966859
1157.000000	50.705160
1158.000000	50.368087
1159.000000	50.033333
1160.000000	49.633994
1161.000000	49.253164
1162.000000	48.831889
1163.000000	48.427416
1164.000000	47.997792
1165.000000	47.554397
1166.000000	47.135524
1167.000000	46.723217
1168.000000	46.301101
1169.000000	45.888614
1170.000000	45.473983
1171.000000	45.069081
1172.000000	44.665763
1173.000000	44.279827
1174.000000	43.903533
1175.000000	43.536714
1176.000000	43.190642
1177.000000	42.789764
1178.000000	42.340304
1179.000000	41.844779
1180.000000	41.288291
1181.000000	40.687581
1182.000000	40.091118
1183.000000	39.566662
1184.000000	39.130915
1185.000000	38.852729
1186.000000	38.727665
1187.000000	38.731712
1188.000000	38.883425
1189.000000	39.198702
1190.000000	39.620590
1191.000000	40.118846
1192.000000	40.642484
1193.000000	41.144920
1194.000000	41.602888
1195.000000	41.968299
1196.000000	42.267341
1197.000000	42.495337
1198.000000	42.667906
1199.000000	42.792391
1200.000000	42.884746
1201.000000	42.950080
1202.000000	42.996215
1203.000000	43.034503
1204.000000	43.067994
1205.000000	43.102129
1206.000000	43.158114
1207.000000	43.229433
1208.000000	43.319912
1209.000000	43.417267
1210.000000	43.537824
1211.000000	43.682268
1212.000000	43.812809
1213.000000	43.955428
1214.000000	44.101356
1215.000000	44.249774
1216.000000	44.424567
1217.000000	44.592218
1218.000000	44.764596
1219.000000	44.944352
1220.000000	45.126336
1221.000000	45.337598
1222.000000	45.549582
1223.000000	45.755293
1224.000000	45.968965
1225.000000	46.176678
1226.000000	46.397673
1227.000000	46.622834
1228.000000	46.834453
1229.000000	47.044148
1230.000000	47.262025
1231.000000	47.469712
1232.000000	47.680368
1233.000000	47.891511
1234.000000	48.087733
1235.000000	48.281128
1236.000000	48.468699
1237.000000	48.652756
1238.000000	48.843343
1239.000000	49.019786
1240.000000	49.182558
1241.000000	49.356508
1242.000000	49.523060
1243.000000	49.673715
1244.000000	49.825880
1245.000000	49.970540
1246.000000	50.105517
1247.000000	50.241376
1248.000000	50.357806
1249.000000	50.461624
1250.000000	50.569427
1251.000000	50.667049
1252.000000	50.746844
1253.000000	50.822130
1254.000000	50.908530
1255.000000	50.984377
1256.000000	51.051007
1257.000000	51.119458
1258.000000	51.191401
1259.000000	51.242310
1260.000000	51.288073
1261.000000	51.340404
1262.000000	51.397202
1263.000000	51.443509
1264.000000	51.487084
1265.000000	51.534088
1266.000000	51.573717
1267.000000	51.613571
1268.000000	51.646182
1269.000000	51.680051
1270.000000	51.720042
1271.000000	51.754430
1272.000000	51.790829
1273.000000	51.836055
1274.000000	51.871391
1275.000000	51.915382
1276.000000	51.963755
1277.000000	52.016475
1278.000000	52.069746
1279.000000	52.131124
1280.000000	52.192872
1281.000000	52.254760
1282.000000	52.319413
1283.000000	52.386292
1284.000000	52.446604
1285.000000	52.507373
1286.000000	52.571458
1287.000000	52.624872
1288.000000	52.663365
1289.000000	52.700181
1290.000000	52.734368
1291.000000	52.765876
1292.000000	52.792080
1293.000000	52.808783
1294.000000	52.820318
1295.000000	52.828201
1296.000000	52.824097
1297.000000	52.820800
1298.000000	52.818594
1299.000000	52.817077
1300.000000	52.811424
1301.000000	52.793402
1302.000000	52.785026
1303.000000	52.769481
1304.000000	52.740874
1305.000000	52.705999
1306.000000	52.669325
1307.000000	52.632706
1308.000000	52.587714
1309.000000	52.530663
1310.000000	52.463807
1311.000000	52.397308
1312.000000	52.333115
1313.000000	52.252955
1314.000000	52.174576
1315.000000	52.085342
1316.000000	51.984631
1317.000000	51.887006
1318.000000	51.782251
1319.000000	51.673936
1320.000000	51.562050
1321.000000	51.439955
1322.000000	51.318701
1323.000000	51.189227
1324.000000	51.054549
1325.000000	50.920295
1326.000000	50.767777
1327.000000	50.606382
1328.000000	50.441856
1329.000000	50.278343
1330.000000	50.102898
1331.000000	49.906107
1332.000000	49.706476
1333.000000	49.498167
1334.000000	49.270076
1335.000000	49.040281
1336.000000	48.800902
1337.000000	48.547686
1338.000000	48.285440
1339.000000	48.020010
1340.000000	47.741504
1341.000000	47.448034
1342.000000	47.131869
1343.000000	46.823661
1344.000000	46.493685
1345.000000	46.128867
1346.000000	45.754141
1347.000000	45.410469
1348.000000	44.991353
1349.000000	44.530676
1350.000000	44.047226
1351.000000	43.505666
1352.000000	42.922240
1353.000000	42.291107
1354.000000	41.744596
1355.000000	41.198539
1356.000000	40.726621
1357.000000	40.401260
1358.000000	40.188847
1359.000000	40.067200
1360.000000	39.974714
1361.000000	39.924125
1362.000000	39.791937
1363.000000	39.606764
1364.000000	39.426522
1365.000000	39.220736
1366.000000	38.984583
1367.000000	38.755372
1368.000000	38.475088
1369.000000	38.140009
1370.000000	37.792870
1371.000000	37.429805
1372.000000	37.012120
1373.000000	36.602541
1374.000000	36.234727
1375.000000	35.931805
1376.000000	35.691356
1377.000000	35.533391
1378.000000	35.403556
1379.000000	35.304402
1380.000000	35.150150
1381.000000	34.971026
1382.000000	34.666654
1383.000000	34.261479
1384.000000	33.788863
1385.000000	33.294492
1386.000000	32.846404
1387.000000	32.432671
1388.000000	32.061199
1389.000000	31.680145
1390.000000	31.364205
1391.000000	31.116474
1392.000000	30.883793
1393.000000	30.628305
1394.000000	30.425877
1395.000000	30.247081
1396.000000	29.990393
1397.000000	29.671016
1398.000000	29.384702
1399.000000	29.162316
1400.000000	28.885782
1401.000000	28.482408
1402.000000	28.052942
1403.000000	27.666555
1404.000000	27.280174
1405.000000	26.895014
1406.000000	26.494587
1407.000000	26.126827
1408.000000	25.763533
1409.000000	25.403665
1410.000000	25.051624
1411.000000	24.748554
1412.000000	24.471091
1413.000000	24.253168
1414.000000	24.034250
1415.000000	23.776006
1416.000000	23.529915
1417.000000	23.293653
1418.000000	23.089789
1419.000000	22.873181
1420.000000	22.648877
1421.000000	22.410945
1422.000000	22.177880
1423.000000	21.980334
1424.000000	21.779514
1425.000000	21.564717
1426.000000	21.347955
1427.000000	21.167536
1428.000000	21.003012
1429.000000	20.831015
1430.000000	20.663474
1431.000000	20.540272
1432.000000	20.393873
1433.000000	20.275542
1434.000000	20.149975
1435.000000	20.034343
1436.000000	19.895679
1437.000000	19.779409
1438.000000	19.688091
1439.000000	19.562795
1440.000000	19.462804
1441.000000	19.340932
1442.000000	19.228276
1443.000000	19.128967
1444.000000	18.999891
1445.000000	18.911086
1446.000000	18.830666
1447.000000	18.697050
1448.000000	18.599858
1449.000000	18.510635
1450.000000	18.437783
1451.000000	18.367651
1452.000000	18.272764
1453.000000	18.174941
1454.000000	18.102385
1455.000000	18.033411
1456.000000	17.950914
1457.000000	17.892200
1458.000000	17.834875
1459.000000	17.773099
1460.000000	17.720852
1461.000000	17.679065
1462.000000	17.623771
1463.000000	17.588207
1464.000000	17.557776
1465.000000	17.531172
1466.000000	17.502584
1467.000000	17.479426
1468.000000	17.450154
1469.000000	17.444495
1470.000000	17.431380
1471.000000	17.423660
1472.000000	17.410815
1473.000000	17.381189
1474.000000	17.375361
1475.000000	17.356314
1476.000000	17.344329
1477.000000	17.339875
1478.000000	17.320976
1479.000000	17.317420
1480.000000	17.318911
1481.000000	17.314779
1482.000000	17.306831
1483.000000	17.289247
1484.000000	17.290956
1485.000000	17.294641
1486.000000	17.307950
1487.000000	17.317544
1488.000000	17.318954
1489.000000	17.329759
1490.000000	17.335925
1491.000000	17.340370
1492.000000	17.348982
1493.000000	17.356773
1494.000000	17.365713
1495.000000	17.371009
1496.000000	17.393997
1497.000000	17.430491
1498.000000	17.446501
1499.000000	17.458207
1500.000000	17.481143
1501.000000	17.509180
1502.000000	17.531043
1503.000000	17.557245
1504.000000	17.586288
1505.000000	17.616024
1506.000000	17.648134
1507.000000	17.679247
1508.000000	17.711696
1509.000000	17.736109
1510.000000	17.759423
1511.000000	17.777885
1512.000000	17.812139
1513.000000	17.844194
1514.000000	17.871410
1515.000000	17.907162
1516.000000	17.936047
1517.000000	17.960673
1518.000000	17.979262
1519.000000	18.003045
1520.000000	18.023582
1521.000000	18.047767
1522.000000	18.077135
1523.000000	18.098180
1524.000000	18.125259
1525.000000	18.153117
1526.000000	18.171221
1527.000000	18.187796
1528.000000	18.201533
1529.000000	18.223110
1530.000000	18.243169
1531.000000	18.258242
1532.000000	18.270855
1533.000000	18.279412
1534.000000	18.288802
1535.000000	18.300615
1536.000000	18.304931
1537.000000	18.309974
1538.000000	18.318893
1539.000000	18.317700
1540.000000	18.323244
1541.000000	18.330707
1542.000000	18.330462
1543.000000	18.329391
1544.000000	18.331893
1545.000000	18.335839
1546.000000	18.335794
1547.000000	18.340118
1548.000000	18.347799
1549.000000	18.346668
1550.000000	18.362111
1551.000000	18.372922
1552.000000	18.381225
1553.000000	18.386703
1554.000000	18.378809
1555.000000	18.376793
1556.000000	18.380016
1557.000000	18.373437
1558.000000	18.364151
1559.000000	18.357105
1560.000000	18.348791
1561.000000	18.331606
1562.000000	18.319501
1563.000000	18.306485
1564.000000	18.294409
1565.000000	18.278521
1566.000000	18.249388
1567.000000	18.225866
1568.000000	18.208062
1569.000000	18.183880
1570.000000	18.161065
1571.000000	18.150353
1572.000000	18.137885
1573.000000	18.125836
1574.000000	18.114954
1575.000000	18.108754
1576.000000	18.112751
1577.000000	18.107160
1578.000000	18.113505
1579.000000	18.125630
1580.000000	18.126812
1581.000000	18.133268
1582.000000	18.152094
1583.000000	18.167591
1584.000000	18.182647
1585.000000	18.211428
1586.000000	18.239582
1587.000000	18.272597
1588.000000	18.303832
1589.000000	18.343501
1590.000000	18.373916
1591.000000	18.408655
1592.000000	18.449210
1593.000000	18.486961
1594.000000	18.521876
1595.000000	18.564749
1596.000000	18.616262
1597.000000	18.667835
1598.000000	18.724502
1599.000000	18.778651
1600.000000	18.828560
1601.000000	18.878190
1602.000000	18.942263
1603.000000	19.000208
1604.000000	19.056838
1605.000000	19.118032
1606.000000	19.183073
1607.000000	19.241161
1608.000000	19.301111
1609.000000	19.363728
1610.000000	19.430919
1611.000000	19.499682
1612.000000	19.555786
1613.000000	19.628388
1614.000000	19.701319
1615.000000	19.761374
1616.000000	19.832902
1617.000000	19.897429
1618.000000	19.971736
1619.000000	20.047709
1620.000000	20.123480
1621.000000	20.199101
1622.000000	20.273063
1623.000000	20.355498
1624.000000	20.426114
1625.000000	20.502470
1626.000000	20.590426
1627.000000	20.671639
1628.000000	20.749309
1629.000000	20.819109
1630.000000	20.901310
1631.000000	20.990733
1632.000000	21.074743
1633.000000	21.140467
1634.000000	21.213705
1635.000000	21.290787
1636.000000	21.354338
1637.000000	21.436518
1638.000000	21.494377
1639.000000	21.574431
1640.000000	21.628522
1641.000000	21.701560
1642.000000	21.759673
1643.000000	21.819185
1644.000000	21.874919
1645.000000	21.934177
1646.000000	22.001536
1647.000000	22.050943
1648.000000	22.106385
1649.000000	22.147109
1650.000000	22.183988
1651.000000	22.218151
1652.000000	22.255355
1653.000000	22.279551
1654.000000	22.291260
1655.000000	22.314179
1656.000000	22.313545
1657.000000	22.320186
1658.000000	22.317249
1659.000000	22.300222
1660.000000	22.272581
1661.000000	22.255876
1662.000000	22.217320
1663.000000	22.165748
1664.000000	22.101499
1665.000000	22.052662
1666.000000	21.957168
1667.000000	21.864151
1668.000000	21.723197
1669.000000	21.597256
1670.000000	21.451168
1671.000000	21.282994
1672.000000	21.070590
1673.000000	20.826143
1674.000000	20.570518
1675.000000	20.253437
1676.000000	19.879115
1677.000000	19.469872
1678.000000	19.021691
1679.000000	18.541499
1680.000000	18.058797
1681.000000	17.630249
1682.000000	17.273779
1683.000000	17.005666
1684.000000	16.830417
1685.000000	16.752579
1686.000000	16.731843
1687.000000	16.720519
1688.000000	16.705015
1689.000000	16.634194
1690.000000	16.530928
1691.000000	16.413482
1692.000000	16.278783
1693.000000	16.144372
1694.000000	16.059889
1695.000000	16.014927
1696.000000	16.012319
1697.000000	16.078109
1698.000000	16.153377
1699.000000	16.270483
1700.000000	16.400548
1701.000000	16.523424
1702.000000	16.650394
1703.000000	16.722789
1704.000000	16.805769
1705.000000	16.858636
1706.000000	16.907285
1707.000000	16.941331
1708.000000	16.961223
1709.000000	16.970833
1710.000000	16.980728
1711.000000	16.977692
1712.000000	16.960424
1713.000000	16.918990
1714.000000	16.882407
1715.000000	16.844302
1716.000000	16.791761
1717.000000	16.751824
1718.000000	16.723852
1719.000000	16.709533
1720.000000	16.687617
1721.000000	16.676032
1722.000000	16.668302
1723.000000	16.649500
1724.000000	16.622623
1725.000000	16.569351
1726.000000	16.495623
1727.000000	16.420174
1728.000000	16.317151
1729.000000	16.204214
1730.000000	16.099927
1731.000000	16.013858
1732.000000	15.948181
1733.000000	15.895458
1734.000000	15.886059
1735.000000	15.907098
1736.000000	15.974522
1737.000000	16.090271
1738.000000	16.224412
1739.000000	16.382854
1740.000000	16.550618
1741.000000	16.744071
1742.000000	16.922523
1743.000000	17.098474
1744.000000	17.250104
1745.000000	17.376455
1746.000000	17.483546
1747.000000	17.576348
1748.000000	17.622037
1749.000000	17.693175
1750.000000	17.743084
1751.000000	17.777608
1752.000000	17.789439
1753.000000	17.794714
1754.000000	17.806044
1755.000000	17.784858
1756.000000	17.739501
1757.000000	17.692083
1758.000000	17.628451
1759.000000	17.568586
1760.000000	17.513561
1761.000000	17.456607
1762.000000	17.415221
1763.000000	17.400838
1764.000000	17.402516
1765.000000	17.442665
1766.000000	17.499294
1767.000000	17.571197
1768.000000	17.657593
1769.000000	17.757340
1770.000000	17.858944
1771.000000	17.968300
1772.000000	18.085283
1773.000000	18.197869
1774.000000	18.302366
1775.000000	18.407668
1776.000000	18.512586
1777.000000	18.603670
1778.000000	18.692269
1779.000000	18.769211
1780.000000	18.847047
1781.000000	18.922063
1782.000000	19.002200
1783.000000	19.069105
1784.000000	19.139858
1785.000000	19.220285
1786.000000	19.293416
1787.000000	19.364079
1788.000000	19.433816
1789.000000	19.490167
1790.000000	19.540476
1791.000000	19.604103
1792.000000	19.659015
1793.000000	19.706465
1794.000000	19.758504
1795.000000	19.814184
1796.000000	19.866948
1797.000000	19.910867
1798.000000	19.949869
1799.000000	19.996361
1800.000000	20.060236
1801.000000	20.110324
1802.000000	20.143543
1803.000000	20.188425
1804.000000	20.245372
1805.000000	20.296033
1806.000000	20.337387
1807.000000	20.386830
1808.000000	20.431951
1809.000000	20.466126
1810.000000	20.507786
1811.000000	20.543475
1812.000000	20.569173
1813.000000	20.593619
1814.000000	20.613813
1815.000000	20.632978
1816.000000	20.640766
1817.000000	20.640382
1818.000000	20.658753
1819.000000	20.689046
1820.000000	20.728757
1821.000000	20.768519
1822.000000	20.793056
1823.000000	20.801172
1824.000000	20.828178
1825.000000	20.880503
1826.000000	20.948432
1827.000000	21.023806
1828.000000	21.102282
1829.000000	21.177928
1830.000000	21.253077
1831.000000	21.330440
1832.000000	21.407903
1833.000000	21.479241
1834.000000	21.552451
1835.000000	21.633836
1836.000000	21.703724
1837.000000	21.766059
1838.000000	21.822598
1839.000000	21.863816
1840.000000	21.907595
1841.000000	21.945940
1842.000000	21.972975
1843.000000	21.982921
1844.000000	21.989003
1845.000000	22.029609
1846.000000	22.087827
1847.000000	22.166437
1848.000000	22.245275
1849.000000	22.291289
1850.000000	22.324317
1851.000000	22.361450
1852.000000	22.399703
1853.000000	22.433861
1854.000000	22.472947
1855.000000	22.492425
1856.000000	22.512752
1857.000000	22.521880
1858.000000	22.510391
1859.000000	22.494337
1860.000000	22.447352
1861.000000	22.389590
1862.000000	22.326151
1863.000000	22.241886
1864.000000	22.168658
1865.000000	22.084585
1866.000000	21.993226
1867.000000	21.877679
1868.000000	21.748794
1869.000000	21.576998
1870.000000	21.360029
1871.000000	21.125493
1872.000000	20.857657
1873.000000	20.569779
1874.000000	20.258976
1875.000000	19.924819
1876.000000	19.570323
1877.000000	19.203843
1878.000000	18.826552
1879.000000	18.432892
1880.000000	18.038632
1881.000000	17.647780
1882.000000	17.250682
1883.000000	16.856321
1884.000000	16.457547
1885.000000	16.075225
1886.000000	15.738347
1887.000000	15.456421
1888.000000	15.205018
1889.000000	14.958534
1890.000000	14.732782
1891.000000	14.503732
1892.000000	14.281868
1893.000000	14.047146
1894.000000	13.847252
1895.000000	13.662470
1896.000000	13.493890
1897.000000	13.338767
1898.000000	13.169165
1899.000000	12.988486
1900.000000	12.812386
1901.000000	12.631839
1902.000000	12.466480
1903.000000	12.330446
1904.000000	12.180225
1905.000000	12.031679
1906.000000	11.863130
1907.000000	11.721909
1908.000000	11.575728
1909.000000	11.454463
1910.000000	11.343288
1911.000000	11.236737
1912.000000	11.124149
1913.000000	11.008326
1914.000000	10.881368
1915.000000	10.773792
1916.000000	10.676863
1917.000000	10.584966
1918.000000	10.493880
1919.000000	10.400502
1920.000000	10.325793
1921.000000	10.242162
1922.000000	10.174255
1923.000000	10.094375
1924.000000	10.026860
1925.000000	9.958574
1926.000000	9.903249
1927.000000	9.855341
1928.000000	9.800597
1929.000000	9.761211
1930.000000	9.708134
1931.000000	9.675448
1932.000000	9.639842
1933.000000	9.607705
1934.000000	9.586179
1935.000000	9.555915
1936.000000	9.542602
1937.000000	9.535179
1938.000000	9.528322
1939.000000	9.528532
1940.000000	9.529219
1941.000000	9.528244
1942.000000	9.531199
1943.000000	9.533409
1944.000000	9.535365
1945.000000	9.552485
1946.000000	9.557480
1947.000000	9.592854
1948.000000	9.602855
1949.000000	9.628041
1950.000000	9.630774
1951.000000	9.664722
1952.000000	9.683868
1953.000000	9.704179
1954.000000	9.741660
1955.000000	9.770687
1956.000000	9.806665
1957.000000	9.829886
1958.000000	9.854753
1959.000000	9.879598
1960.000000	9.907168
1961.000000	9.950532
1962.000000	9.966329
1963.000000	10.012676
1964.000000	10.035487
1965.000000	10.074919
1966.000000	10.107326
1967.000000	10.136418
1968.000000	10.180244
1969.000000	10.200314
1970.000000	10.230507
1971.000000	10.277332
1972.000000	10.316934
1973.000000	10.342323
1974.000000	10.372240
1975.000000	10.412116
1976.000000	10.446206
1977.000000	10.494954
1978.000000	10.522874
1979.000000	10.565763
1980.000000	10.607853
1981.000000	10.646668
1982.000000	10.685400
1983.000000	10.729584
1984.000000	10.767626
1985.000000	10.801870
1986.000000	10.840196
1987.000000	10.868736
1988.000000	10.916679
1989.000000	10.954721
1990.000000	10.986829
1991.000000	11.032207
1992.000000	11.047893
1993.000000	11.082160
1994.000000	11.109577
1995.000000	11.156570
1996.000000	11.178961
1997.000000	11.205560
1998.000000	11.239035
1999.000000	11.260341
2000.000000	11.276729
2001.000000	11.298595
2002.000000	11.317608
2003.000000	11.340116
2004.000000	11.351087
2005.000000	11.370317
2006.000000	11.373766
2007.000000	11.377129
2008.000000	11.393222
2009.000000	11.388904
2010.000000	11.394732
2011.000000	11.399906
2012.000000	11.395269
2013.000000	11.394074
2014.000000	11.387687
2015.000000	11.374841
2016.000000	11.367113
2017.000000	11.352344
2018.000000	11.342630
2019.000000	11.328990
2020.000000	11.302216
2021.000000	11.288897
2022.000000	11.264371
2023.000000	11.240340
2024.000000	11.212886
2025.000000	11.189376
2026.000000	11.167540
2027.000000	11.149265
2028.000000	11.112678
2029.000000	11.082554
2030.000000	11.049303
2031.000000	11.014963
2032.000000	10.982831
2033.000000	10.940129
2034.000000	10.900306
2035.000000	10.851831
2036.000000	10.806700
2037.000000	10.757421
2038.000000	10.703800
2039.000000	10.658969
2040.000000	10.602736
2041.000000	10.550154
2042.000000	10.506568
2043.000000	10.426695
2044.000000	10.373736
2045.000000	10.327720
2046.000000	10.271285
2047.000000	10.202372
2048.000000	10.152248
2049.000000	10.118562
2050.000000	10.081798
2051.000000	10.045364
2052.000000	9.998838
2053.000000	9.969925
2054.000000	9.959851
2055.000000	9.941468
2056.000000	9.925401
2057.000000	9.914872
2058.000000	9.906100
2059.000000	9.905684
2060.000000	9.905923
2061.000000	9.915269
2062.000000	9.919240
2063.000000	9.926672
2064.000000	9.947764
2065.000000	9.962534
2066.000000	9.977809
2067.000000	9.993153
2068.000000	9.999447
2069.000000	10.014786
2070.000000	10.031538
2071.000000	10.058444
2072.000000	10.078021
2073.000000	10.090488
2074.000000	10.109497
2075.000000	10.129658
2076.000000	10.140358
2077.000000	10.157262
2078.000000	10.169865
2079.000000	10.189054
2080.000000	10.213687
2081.000000	10.236111
2082.000000	10.244999
2083.000000	10.251906
2084.000000	10.264968
2085.000000	10.281669
2086.000000	10.295646
2087.000000	10.311590
2088.000000	10.322738
2089.000000	10.339334
2090.000000	10.358295
2091.000000	10.365664
2092.000000	10.367974
2093.000000	10.384643
2094.000000	10.407338
2095.000000	10.424400
2096.000000	10.437224
2097.000000	10.451433
2098.000000	10.468844
2099.000000	10.487005
2100.000000	10.501491
2101.000000	10.523598
2102.000000	10.550062
2103.000000	10.562803
2104.000000	10.574909
2105.000000	10.599177
2106.000000	10.625578
2107.000000	10.646358
2108.000000	10.664122
2109.000000	10.687316
2110.000000	10.705585
2111.000000	10.723380
2112.000000	10.747230
2113.000000	10.763676
2114.000000	10.777903
2115.000000	10.799732
2116.000000	10.828725
2117.000000	10.858633
2118.000000	10.867374
2119.000000	10.876811
2120.000000	10.895449
2121.000000	10.913621
2122.000000	10.938306
2123.000000	10.948697
2124.000000	10.959625
2125.000000	10.976073
2126.000000	10.985777
2127.000000	10.987043
2128.000000	10.994166
2129.000000	11.001429
2130.000000	11.000894
2131.000000	11.006821
2132.000000	11.008561
2133.000000	11.011296
2134.000000	11.010692
2135.000000	11.005439
2136.000000	10.993378
2137.000000	10.986596
2138.000000	10.978832
2139.000000	10.983932
2140.000000	10.966790
2141.000000	10.949379
2142.000000	10.945601
2143.000000	10.931510
2144.000000	10.928905
2145.000000	10.914711
2146.000000	10.882192
2147.000000	10.870893
2148.000000	10.853432
2149.000000	10.828425
2150.000000	10.811401
2151.000000	10.795432
2152.000000	10.782463
2153.000000	10.769240
2154.000000	10.746029
2155.000000	10.722885
2156.000000	10.697263
2157.000000	10.682037
2158.000000	10.671076
2159.000000	10.655744
2160.000000	10.632323
2161.000000	10.614027
2162.000000	10.607186
2163.000000	10.599781
2164.000000	10.587862
2165.000000	10.568842
2166.000000	10.553705
2167.000000	10.537026
2168.000000	10.524782
2169.000000	10.522254
2170.000000	10.514530
2171.000000	10.513940
2172.000000	10.494982
2173.000000	10.489289
2174.000000	10.493879
2175.000000	10.500571
2176.000000	10.493342
2177.000000	10.503327
2178.000000	10.489411
2179.000000	10.498222
2180.000000	10.500239
2181.000000	10.504217
2182.000000	10.500895
2183.000000	10.515176
2184.000000	10.518328
2185.000000	10.525396
2186.000000	10.533326
2187.000000	10.539665
2188.000000	10.545608
2189.000000	10.550536
2190.000000	10.553222
2191.000000	10.563259
2192.000000	10.565793
2193.000000	10.562181
2194.000000	10.568673
2195.000000	10.572330
2196.000000	10.575130
2197.000000	10.584681
2198.000000	10.597621
2199.000000	10.586830
2200.000000	10.595123
2201.000000	10.601058
2202.000000	10.601159
2203.000000	10.618146
2204.000000	10.622545
2205.000000	10.626010
2206.000000	10.634135
2207.000000	10.631185
2208.000000	10.641848
2209.000000	10.655830
2210.000000	10.660090
2211.000000	10.661536
2212.000000	10.684282
2213.000000	10.692016
2214.000000	10.704290
2215.000000	10.723809
2216.000000	10.730173
2217.000000	10.742810
2218.000000	10.752230
2219.000000	10.763682
2220.000000	10.755785
2221.000000	10.766225
2222.000000	10.758668
2223.000000	10.760390
2224.000000	10.757204
2225.000000	10.758820
2226.000000	10.759235
2227.000000	10.753412
2228.000000	10.731955
2229.000000	10.715239
2230.000000	10.703297
2231.000000	10.673448
2232.000000	10.653082
2233.000000	10.619906
2234.000000	10.577084
2235.000000	10.550868
2236.000000	10.510890
2237.000000	10.449328
2238.000000	10.403457
2239.000000	10.359395
2240.000000	10.316509
2241.000000	10.229075
2242.000000	10.167905
2243.000000	10.106566
2244.000000	10.025690
2245.000000	9.935486
2246.000000	9.857361
2247.000000	9.751677
2248.000000	9.668304
2249.000000	9.556103
2250.000000	9.453494
2251.000000	9.335590
2252.000000	9.208663
2253.000000	9.095268
2254.000000	8.968081
2255.000000	8.843182
2256.000000	8.711453
2257.000000	8.584144
2258.000000	8.450072
2259.000000	8.334197
2260.000000	8.227462
2261.000000	8.120532
2262.000000	8.009718
2263.000000	7.928313
2264.000000	7.848123
2265.000000	7.789032
2266.000000	7.723316
2267.000000	7.680906
2268.000000	7.647232
2269.000000	7.607672
2270.000000	7.597504
2271.000000	7.586340
2272.000000	7.585880
2273.000000	7.582401
2274.000000	7.599487
2275.000000	7.609826
2276.000000	7.621204
2277.000000	7.638305
2278.000000	7.661554
2279.000000	7.682471
2280.000000	7.698719
2281.000000	7.722977
2282.000000	7.762224
2283.000000	7.768629
2284.000000	7.785315
2285.000000	7.797095
2286.000000	7.794082
2287.000000	7.811265
2288.000000	7.814598
2289.000000	7.805506
2290.000000	7.795066
2291.000000	7.771889
2292.000000	7.749308
2293.000000	7.730735
2294.000000	7.697771
2295.000000	7.662952
2296.000000	7.615667
2297.000000	7.572347
2298.000000	7.514971
2299.000000	7.472777
2300.000000	7.436451
2301.000000	7.409721
2302.000000	7.376842
2303.000000	7.346337
2304.000000	7.336759
2305.000000	7.318252
2306.000000	7.317346
2307.000000	7.326418
2308.000000	7.340329
2309.000000	7.356798
2310.000000	7.392243
2311.000000	7.423111
2312.000000	7.465610
2313.000000	7.505274
2314.000000	7.548433
2315.000000	7.607761
2316.000000	7.660217
2317.000000	7.709286
2318.000000	7.758668
2319.000000	7.812452
2320.000000	7.874547
2321.000000	7.923620
2322.000000	7.969154
2323.000000	8.014421
2324.000000	8.051417
2325.000000	8.090971
2326.000000	8.127092
2327.000000	8.163391
2328.000000	8.197823
2329.000000	8.227380
2330.000000	8.257628
2331.000000	8.277792
2332.000000	8.298763
2333.000000	8.313715
2334.000000	8.324229
2335.000000	8.331468
2336.000000	8.336539
2337.000000	8.336694
2338.000000	8.330311
2339.000000	8.328399
2340.000000	8.313975
2341.000000	8.295614
2342.000000	8.285532
2343.000000	8.261233
2344.000000	8.238754
2345.000000	8.215770
2346.000000	8.194232
2347.000000	8.168111
2348.000000	8.149704
2349.000000	8.144484
2350.000000	8.130695
2351.000000	8.124684
2352.000000	8.128960
2353.000000	8.132762
2354.000000	8.133794
2355.000000	8.152608
2356.000000	8.175979
2357.000000	8.193076
2358.000000	8.220870
2359.000000	8.250256
2360.000000	8.281343
2361.000000	8.314149
2362.000000	8.347646
2363.000000	8.373315
2364.000000	8.401128
2365.000000	8.429551
2366.000000	8.456410
2367.000000	8.476417
2368.000000	8.497661
2369.000000	8.527205
2370.000000	8.540360
2371.000000	8.556340
2372.000000	8.570505
2373.000000	8.578417
2374.000000	8.598117
2375.000000	8.607413
2376.000000	8.616190
2377.000000	8.629465
2378.000000	8.634235
2379.000000	8.642763
2380.000000	8.656112
2381.000000	8.654589
2382.000000	8.650845
2383.000000	8.656692
2384.000000	8.661871
2385.000000	8.658356
2386.000000	8.650384
2387.000000	8.644181
2388.000000	8.639811
2389.000000	8.640622
2390.000000	8.629592
2391.000000	8.609001
2392.000000	8.594270
2393.000000	8.586176
2394.000000	8.578763
2395.000000	8.568614
2396.000000	8.557444
2397.000000	8.541290
2398.000000	8.534894
2399.000000	8.519021
2400.000000	8.499115
2401.000000	8.486808
2402.000000	8.467872
2403.000000	8.452879
2404.000000	8.451038
2405.000000	8.439660
2406.000000	8.422791
2407.000000	8.409698
2408.000000	8.391542
2409.000000	8.389429
2410.000000	8.375453
2411.000000	8.355673
2412.000000	8.344124
2413.000000	8.335770
2414.000000	8.323251
2415.000000	8.308602
2416.000000	8.284302
2417.000000	8.272505
2418.000000	8.272715
2419.000000	8.267241
2420.000000	8.251955
2421.000000	8.241071
2422.000000	8.226114
2423.000000	8.209053
2424.000000	8.182220
2425.000000	8.152959
2426.000000	8.136243
2427.000000	8.114997
2428.000000	8.090446
2429.000000	8.064513
2430.000000	8.041625
2431.000000	8.007214
2432.000000	7.981109
2433.000000	7.955845
2434.000000	7.923372
2435.000000	7.886409
2436.000000	7.860841
2437.000000	7.829693
2438.000000	7.786485
2439.000000	7.742904
2440.000000	7.701598
2441.000000	7.659340
2442.000000	7.639233
2443.000000	7.590027
2444.000000	7.547169
2445.000000	7.517855
2446.000000	7.483070
2447.000000	7.438484
2448.000000	7.410729
2449.000000	7.367636
2450.000000	7.318270
2451.000000	7.278880
2452.000000	7.241664
2453.000000	7.210630
2454.000000	7.163280
2455.000000	7.134307
2456.000000	7.101276
2457.000000	7.072937
2458.000000	7.050289
2459.000000	7.021054
2460.000000	6.984220
2461.000000	6.991511
2462.000000	6.944991
2463.000000	6.939159
2464.000000	6.934552
2465.000000	6.913200
2466.000000	6.931453
2467.000000	6.877885
2468.000000	6.891902
2469.000000	6.886780
2470.000000	6.874348
2471.000000	6.876986
2472.000000	6.867157
2473.000000	6.860719
2474.000000	6.840510
2475.000000	6.848561
2476.000000	6.855950
2477.000000	6.869407
2478.000000	6.849828
2479.000000	6.828983
2480.000000	6.846102
2481.000000	6.866037
2482.000000	6.878597
2483.000000	6.869131
2484.000000	6.884623
2485.000000	6.885242
2486.000000	6.840794
2487.000000	6.887571
2488.000000	6.877143
2489.000000	6.892744
2490.000000	6.905185
2491.000000	6.918176
2492.000000	6.924775
2493.000000	6.910896
2494.000000	6.974165
2495.000000	6.933304
2496.000000	7.008900
2497.000000	7.021426
2498.000000	6.983193
2499.000000	6.950293
2500.000000	7.087286
