PE UV       SUBTECH     SPECTRUM    ASCII       PEDS        4.00        
   -1
CICIMAUCR0018-5.Sample.ASC
24/04/25
10:17:18.00
24/04/25
10:17:18.00
Vinicio Soto Monge
C. cupreomarginata
250,000000
1
Lambda 1050
1050L1511233
PerkinElmer UV WinLab 6.3.2.0749 / 2.02.05 Lambda 900 UV/VIS/NIR, Aug  7 2015 09:38:08

0
0
3350/servo 860,8/2
0
0
UV/VIS
1
1
1
DoubleDePol,CommonBeamDepol,RBeamAtt,SBeamAtt,60mm sphere, WB InGaAs Detector
0
0
0
0
Program
Program
3350/servo 860,8/2
3350/0,2 860,8/0,2
3350/0,2 860,8/0,2
0
15.00
 
 
 
0
 
860,8
319,2
860,8
Front
100
on
S:100 R:100
0
0
0
0
 
0
 
 
 
0
 
 
0
0
0
0
0
 
 
 
 
0
0


0
0
#HDR
-1
-1
#GR
nm
%R
1.0
0.0
2500,000000
-1,000000
2251
8
70,377300
5,315300
#DATA
250.000000	4.079067
251.000000	4.080353
252.000000	4.059011
253.000000	4.048299
254.000000	4.013699
255.000000	4.028865
256.000000	3.998842
257.000000	4.010977
258.000000	3.997238
259.000000	3.977718
260.000000	3.952308
261.000000	3.949636
262.000000	3.932338
263.000000	3.914254
264.000000	3.871196
265.000000	3.864133
266.000000	3.859959
267.000000	3.841492
268.000000	3.826449
269.000000	3.809459
270.000000	3.819028
271.000000	3.800729
272.000000	3.767895
273.000000	3.759112
274.000000	3.771823
275.000000	3.737588
276.000000	3.752643
277.000000	3.716085
278.000000	3.726690
279.000000	3.740096
280.000000	3.713689
281.000000	3.699040
282.000000	3.693567
283.000000	3.692587
284.000000	3.680196
285.000000	3.699592
286.000000	3.694028
287.000000	3.687817
288.000000	3.702985
289.000000	3.698564
290.000000	3.695646
291.000000	3.690291
292.000000	3.694847
293.000000	3.692045
294.000000	3.679686
295.000000	3.694592
296.000000	3.685333
297.000000	3.679272
298.000000	3.673647
299.000000	3.669186
300.000000	3.673927
301.000000	3.672883
302.000000	3.666111
303.000000	3.664940
304.000000	3.692066
305.000000	3.688652
306.000000	3.681884
307.000000	3.678523
308.000000	3.674630
309.000000	3.670661
310.000000	3.672067
311.000000	3.665609
312.000000	3.677103
313.000000	3.665116
314.000000	3.648917
315.000000	3.653085
316.000000	3.704525
317.000000	4.047422
318.000000	3.966541
319.000000	3.953269
320.000000	4.050901
321.000000	3.849810
322.000000	3.865796
323.000000	3.925731
324.000000	3.925043
325.000000	3.842709
326.000000	3.850881
327.000000	3.777193
328.000000	3.706066
329.000000	3.811613
330.000000	3.756788
331.000000	3.700273
332.000000	3.765764
333.000000	3.771354
334.000000	3.726004
335.000000	3.780015
336.000000	3.824933
337.000000	3.789377
338.000000	3.788198
339.000000	3.746231
340.000000	3.793563
341.000000	3.744735
342.000000	3.826693
343.000000	3.748738
344.000000	3.783368
345.000000	3.796011
346.000000	3.718930
347.000000	3.767088
348.000000	3.826212
349.000000	3.776635
350.000000	3.804775
351.000000	3.835485
352.000000	3.804320
353.000000	3.810353
354.000000	3.807279
355.000000	3.806056
356.000000	3.820862
357.000000	3.847785
358.000000	3.866165
359.000000	3.897382
360.000000	3.877546
361.000000	3.912325
362.000000	3.913453
363.000000	3.898239
364.000000	3.935868
365.000000	3.951121
366.000000	3.964170
367.000000	4.007064
368.000000	4.050597
369.000000	4.045483
370.000000	4.002702
371.000000	4.022288
372.000000	4.071881
373.000000	4.078063
374.000000	4.019562
375.000000	4.133771
376.000000	4.297417
377.000000	4.319900
378.000000	4.368122
379.000000	4.411909
380.000000	4.463065
381.000000	4.514083
382.000000	4.572765
383.000000	4.639385
384.000000	4.701721
385.000000	4.769685
386.000000	4.844591
387.000000	4.921608
388.000000	4.999253
389.000000	5.081920
390.000000	5.178713
391.000000	5.267161
392.000000	5.371074
393.000000	5.475598
394.000000	5.582499
395.000000	5.690843
396.000000	5.800097
397.000000	5.913411
398.000000	6.030797
399.000000	6.153373
400.000000	6.272339
401.000000	6.393750
402.000000	6.517577
403.000000	6.644668
404.000000	6.773304
405.000000	6.895126
406.000000	7.017629
407.000000	7.135763
408.000000	7.249372
409.000000	7.368706
410.000000	7.492303
411.000000	7.605179
412.000000	7.714232
413.000000	7.823197
414.000000	7.928872
415.000000	8.027633
416.000000	8.121757
417.000000	8.219728
418.000000	8.312477
419.000000	8.401411
420.000000	8.489658
421.000000	8.573520
422.000000	8.654241
423.000000	8.735493
424.000000	8.813009
425.000000	8.885732
426.000000	8.956303
427.000000	9.029434
428.000000	9.101135
429.000000	9.171439
430.000000	9.238296
431.000000	9.303804
432.000000	9.370918
433.000000	9.431116
434.000000	9.487799
435.000000	9.547313
436.000000	9.602796
437.000000	9.656298
438.000000	9.707914
439.000000	9.758278
440.000000	9.802804
441.000000	9.844829
442.000000	9.881295
443.000000	9.910937
444.000000	9.938563
445.000000	9.953442
446.000000	9.963302
447.000000	9.970768
448.000000	9.970582
449.000000	9.977719
450.000000	9.984188
451.000000	9.980906
452.000000	9.983675
453.000000	9.991016
454.000000	10.001199
455.000000	10.016360
456.000000	10.033933
457.000000	10.057973
458.000000	10.088215
459.000000	10.130740
460.000000	10.183590
461.000000	10.247985
462.000000	10.323359
463.000000	10.406432
464.000000	10.502369
465.000000	10.610672
466.000000	10.729212
467.000000	10.855715
468.000000	10.990861
469.000000	11.138669
470.000000	11.301651
471.000000	11.477542
472.000000	11.663430
473.000000	11.848924
474.000000	12.044306
475.000000	12.249459
476.000000	12.456646
477.000000	12.664579
478.000000	12.874455
479.000000	13.082770
480.000000	13.305355
481.000000	13.536796
482.000000	13.766411
483.000000	13.979911
484.000000	14.184137
485.000000	14.375608
486.000000	14.565340
487.000000	14.754860
488.000000	14.942814
489.000000	15.131495
490.000000	15.329159
491.000000	15.529043
492.000000	15.724015
493.000000	15.930533
494.000000	16.137478
495.000000	16.346411
496.000000	16.571839
497.000000	16.802364
498.000000	17.040632
499.000000	17.284827
500.000000	17.545343
501.000000	17.817398
502.000000	18.101691
503.000000	18.389618
504.000000	18.689886
505.000000	19.002258
506.000000	19.327008
507.000000	19.658503
508.000000	19.994623
509.000000	20.357085
510.000000	20.729888
511.000000	21.097511
512.000000	21.481498
513.000000	21.880648
514.000000	22.301454
515.000000	22.714241
516.000000	23.142758
517.000000	23.574916
518.000000	24.017710
519.000000	24.475859
520.000000	24.938322
521.000000	25.424473
522.000000	25.909464
523.000000	26.397552
524.000000	26.893281
525.000000	27.401903
526.000000	27.913204
527.000000	28.421567
528.000000	28.934359
529.000000	29.464803
530.000000	30.000680
531.000000	30.544190
532.000000	31.101220
533.000000	31.645897
534.000000	32.190072
535.000000	32.727634
536.000000	33.265285
537.000000	33.773695
538.000000	34.284434
539.000000	34.790066
540.000000	35.266030
541.000000	35.713287
542.000000	36.163100
543.000000	36.587540
544.000000	36.966056
545.000000	37.308361
546.000000	37.628117
547.000000	37.938376
548.000000	38.187699
549.000000	38.441590
550.000000	38.662429
551.000000	38.858721
552.000000	39.024621
553.000000	39.187066
554.000000	39.331601
555.000000	39.451055
556.000000	39.548578
557.000000	39.672028
558.000000	39.769594
559.000000	39.859110
560.000000	39.873896
561.000000	39.946188
562.000000	40.026564
563.000000	40.085598
564.000000	40.137235
565.000000	40.194122
566.000000	40.212799
567.000000	40.226534
568.000000	40.230717
569.000000	40.218762
570.000000	40.199869
571.000000	40.165888
572.000000	40.125556
573.000000	40.102018
574.000000	40.060020
575.000000	40.017414
576.000000	39.980541
577.000000	39.939189
578.000000	39.893324
579.000000	39.862809
580.000000	39.830944
581.000000	39.779426
582.000000	39.748634
583.000000	39.716127
584.000000	39.693675
585.000000	39.643424
586.000000	39.602785
587.000000	39.575338
588.000000	39.510221
589.000000	39.447295
590.000000	39.360998
591.000000	39.257014
592.000000	39.138015
593.000000	39.018934
594.000000	38.892669
595.000000	38.759642
596.000000	38.615613
597.000000	38.477762
598.000000	38.324255
599.000000	38.171841
600.000000	38.019635
601.000000	37.862342
602.000000	37.693405
603.000000	37.535427
604.000000	37.387805
605.000000	37.208394
606.000000	37.037939
607.000000	36.869055
608.000000	36.690313
609.000000	36.514941
610.000000	36.301235
611.000000	36.079347
612.000000	35.835355
613.000000	35.573670
614.000000	35.318150
615.000000	35.043608
616.000000	34.765128
617.000000	34.464548
618.000000	34.149587
619.000000	33.833791
620.000000	33.528552
621.000000	33.221476
622.000000	32.899937
623.000000	32.597935
624.000000	32.294634
625.000000	32.018045
626.000000	31.747736
627.000000	31.504454
628.000000	31.272160
629.000000	31.073548
630.000000	30.891990
631.000000	30.729996
632.000000	30.582844
633.000000	30.472900
634.000000	30.383481
635.000000	30.347751
636.000000	30.322564
637.000000	30.320175
638.000000	30.358157
639.000000	30.433187
640.000000	30.514733
641.000000	30.626838
642.000000	30.762389
643.000000	30.912003
644.000000	31.101663
645.000000	31.261397
646.000000	31.451585
647.000000	31.662390
648.000000	31.852948
649.000000	32.049958
650.000000	32.272618
651.000000	32.464365
652.000000	32.659117
653.000000	32.841018
654.000000	32.999349
655.000000	33.151572
656.000000	33.294755
657.000000	33.429037
658.000000	33.543948
659.000000	33.653466
660.000000	33.768488
661.000000	33.840280
662.000000	33.912680
663.000000	33.981771
664.000000	34.056180
665.000000	34.105645
666.000000	34.149386
667.000000	34.191346
668.000000	34.236096
669.000000	34.276856
670.000000	34.315626
671.000000	34.332148
672.000000	34.346888
673.000000	34.368542
674.000000	34.383052
675.000000	34.390848
676.000000	34.402560
677.000000	34.408437
678.000000	34.396616
679.000000	34.395360
680.000000	34.379807
681.000000	34.373840
682.000000	34.382823
683.000000	34.389006
684.000000	34.393973
685.000000	34.404658
686.000000	34.436510
687.000000	34.458698
688.000000	34.479627
689.000000	34.520872
690.000000	34.567058
691.000000	34.635252
692.000000	34.696181
693.000000	34.759243
694.000000	34.833465
695.000000	34.920138
696.000000	34.991120
697.000000	35.073203
698.000000	35.153947
699.000000	35.237786
700.000000	35.322559
701.000000	35.400475
702.000000	35.495398
703.000000	35.592706
704.000000	35.675087
705.000000	35.756311
706.000000	35.845362
707.000000	35.941665
708.000000	36.036027
709.000000	36.128624
710.000000	36.210537
711.000000	36.295305
712.000000	36.398096
713.000000	36.484598
714.000000	36.575284
715.000000	36.668844
716.000000	36.766411
717.000000	36.849313
718.000000	36.921621
719.000000	36.997749
720.000000	37.081629
721.000000	37.153353
722.000000	37.224055
723.000000	37.298511
724.000000	37.379865
725.000000	37.461503
726.000000	37.527184
727.000000	37.574758
728.000000	37.621363
729.000000	37.679476
730.000000	37.755782
731.000000	37.822536
732.000000	37.894057
733.000000	37.955597
734.000000	38.003842
735.000000	38.061946
736.000000	38.133466
737.000000	38.198600
738.000000	38.263695
739.000000	38.317567
740.000000	38.382429
741.000000	38.453625
742.000000	38.489838
743.000000	38.543961
744.000000	38.607592
745.000000	38.648919
746.000000	38.685089
747.000000	38.731007
748.000000	38.782495
749.000000	38.834978
750.000000	38.886396
751.000000	38.934507
752.000000	38.984128
753.000000	39.025425
754.000000	39.084607
755.000000	39.156159
756.000000	39.212453
757.000000	39.265882
758.000000	39.337305
759.000000	39.408378
760.000000	39.453002
761.000000	39.503535
762.000000	39.551708
763.000000	39.603460
764.000000	39.669076
765.000000	39.737070
766.000000	39.814810
767.000000	39.880945
768.000000	39.942175
769.000000	40.006487
770.000000	40.070700
771.000000	40.130178
772.000000	40.197687
773.000000	40.272124
774.000000	40.349799
775.000000	40.416909
776.000000	40.498276
777.000000	40.556091
778.000000	40.633451
779.000000	40.698188
780.000000	40.759804
781.000000	40.819978
782.000000	40.885326
783.000000	41.005263
784.000000	41.070995
785.000000	41.109961
786.000000	41.205464
787.000000	41.269935
788.000000	41.343733
789.000000	41.436415
790.000000	41.491244
791.000000	41.566131
792.000000	41.635603
793.000000	41.727502
794.000000	41.800868
795.000000	41.876476
796.000000	41.945446
797.000000	42.042481
798.000000	42.131783
799.000000	42.191258
800.000000	42.236347
801.000000	42.322263
802.000000	42.386849
803.000000	42.444005
804.000000	42.542000
805.000000	42.594446
806.000000	42.665974
807.000000	42.713924
808.000000	42.772003
809.000000	42.853150
810.000000	42.913022
811.000000	43.009319
812.000000	43.057092
813.000000	43.083595
814.000000	43.103663
815.000000	43.107197
816.000000	43.198482
817.000000	43.263622
818.000000	43.275270
819.000000	43.326895
820.000000	43.378148
821.000000	43.359357
822.000000	43.433092
823.000000	43.436594
824.000000	43.490845
825.000000	43.534868
826.000000	43.541660
827.000000	43.546707
828.000000	43.553787
829.000000	43.607316
830.000000	43.663275
831.000000	43.684629
832.000000	43.662319
833.000000	43.703801
834.000000	43.701178
835.000000	43.747604
836.000000	43.733685
837.000000	43.774293
838.000000	43.745610
839.000000	43.823696
840.000000	43.820550
841.000000	43.759636
842.000000	43.782534
843.000000	43.868028
844.000000	43.861562
845.000000	43.844921
846.000000	43.766241
847.000000	43.801467
848.000000	43.729749
849.000000	43.881821
850.000000	43.824298
851.000000	43.800961
852.000000	43.811143
853.000000	43.639320
854.000000	43.619110
855.000000	43.724687
856.000000	43.724413
857.000000	43.917684
858.000000	44.855880
859.000000	43.654380
860.000000	43.692720
861.000000	43.736620
862.000000	43.776800
863.000000	43.834460
864.000000	43.882820
865.000000	43.918400
866.000000	43.943140
867.000000	44.005680
868.000000	44.116540
869.000000	44.327360
870.000000	44.557740
871.000000	44.762220
872.000000	44.959340
873.000000	45.156700
874.000000	45.349360
875.000000	45.551620
876.000000	45.711600
877.000000	45.866160
878.000000	46.023420
879.000000	46.165920
880.000000	46.309040
881.000000	46.428500
882.000000	46.578780
883.000000	46.682480
884.000000	46.816920
885.000000	46.953240
886.000000	47.084780
887.000000	47.205320
888.000000	47.284980
889.000000	47.353980
890.000000	47.438200
891.000000	47.528020
892.000000	47.593160
893.000000	47.678340
894.000000	47.765180
895.000000	47.819160
896.000000	47.861740
897.000000	47.898360
898.000000	47.927080
899.000000	47.958860
900.000000	47.990120
901.000000	48.020860
902.000000	48.052260
903.000000	48.065260
904.000000	48.070560
905.000000	48.097480
906.000000	48.126420
907.000000	48.146660
908.000000	48.138600
909.000000	48.161980
910.000000	48.182960
911.000000	48.187880
912.000000	48.179860
913.000000	48.214600
914.000000	48.239320
915.000000	48.296320
916.000000	48.315920
917.000000	48.321100
918.000000	48.344560
919.000000	48.371060
920.000000	48.399800
921.000000	48.437380
922.000000	48.486900
923.000000	48.470940
924.000000	48.484060
925.000000	48.516920
926.000000	48.535500
927.000000	48.556480
928.000000	48.591660
929.000000	48.585840
930.000000	48.605860
931.000000	48.614420
932.000000	48.627280
933.000000	48.635780
934.000000	48.620380
935.000000	48.632680
936.000000	48.639800
937.000000	48.640140
938.000000	48.665080
939.000000	48.683700
940.000000	48.723540
941.000000	48.768680
942.000000	48.798740
943.000000	48.793280
944.000000	48.804320
945.000000	48.825800
946.000000	48.831860
947.000000	48.835560
948.000000	48.853100
949.000000	48.857660
950.000000	48.850000
951.000000	48.864200
952.000000	48.858700
953.000000	48.856080
954.000000	48.852700
955.000000	48.818560
956.000000	48.810220
957.000000	48.788660
958.000000	48.777960
959.000000	48.775360
960.000000	48.753080
961.000000	48.717300
962.000000	48.701660
963.000000	48.697600
964.000000	48.682700
965.000000	48.658140
966.000000	48.624580
967.000000	48.611340
968.000000	48.603580
969.000000	48.591840
970.000000	48.566780
971.000000	48.549520
972.000000	48.522160
973.000000	48.502100
974.000000	48.473200
975.000000	48.450740
976.000000	48.435920
977.000000	48.430060
978.000000	48.407100
979.000000	48.379500
980.000000	48.368940
981.000000	48.369400
982.000000	48.356160
983.000000	48.335420
984.000000	48.320860
985.000000	48.311620
986.000000	48.302280
987.000000	48.305200
988.000000	48.308740
989.000000	48.305100
990.000000	48.298660
991.000000	48.290200
992.000000	48.304720
993.000000	48.311040
994.000000	48.312000
995.000000	48.314160
996.000000	48.321240
997.000000	48.339100
998.000000	48.353600
999.000000	48.371100
1000.000000	48.375020
1001.000000	48.386520
1002.000000	48.412380
1003.000000	48.428920
1004.000000	48.440780
1005.000000	48.447560
1006.000000	48.451920
1007.000000	48.457560
1008.000000	48.468260
1009.000000	48.487300
1010.000000	48.505620
1011.000000	48.512640
1012.000000	48.515760
1013.000000	48.520380
1014.000000	48.540260
1015.000000	48.576380
1016.000000	48.598580
1017.000000	48.616580
1018.000000	48.644500
1019.000000	48.675300
1020.000000	48.709780
1021.000000	48.737680
1022.000000	48.757180
1023.000000	48.776440
1024.000000	48.802880
1025.000000	48.828920
1026.000000	48.858980
1027.000000	48.888920
1028.000000	48.907600
1029.000000	48.928920
1030.000000	48.955680
1031.000000	48.973220
1032.000000	48.984340
1033.000000	49.007940
1034.000000	49.034440
1035.000000	49.043980
1036.000000	49.054660
1037.000000	49.076900
1038.000000	49.099060
1039.000000	49.114300
1040.000000	49.118440
1041.000000	49.129160
1042.000000	49.142640
1043.000000	49.148060
1044.000000	49.156060
1045.000000	49.171080
1046.000000	49.191900
1047.000000	49.204680
1048.000000	49.216260
1049.000000	49.239420
1050.000000	49.262720
1051.000000	49.278180
1052.000000	49.293980
1053.000000	49.309140
1054.000000	49.341180
1055.000000	49.365140
1056.000000	49.374760
1057.000000	49.393820
1058.000000	49.432220
1059.000000	49.468000
1060.000000	49.483680
1061.000000	49.510840
1062.000000	49.534760
1063.000000	49.570560
1064.000000	49.608540
1065.000000	49.630840
1066.000000	49.649120
1067.000000	49.669080
1068.000000	49.696560
1069.000000	49.726740
1070.000000	49.748800
1071.000000	49.781880
1072.000000	49.820220
1073.000000	49.859640
1074.000000	49.882620
1075.000000	49.904500
1076.000000	49.927660
1077.000000	49.961300
1078.000000	49.998620
1079.000000	50.032280
1080.000000	50.061460
1081.000000	50.093240
1082.000000	50.132520
1083.000000	50.164800
1084.000000	50.190140
1085.000000	50.221620
1086.000000	50.243940
1087.000000	50.277660
1088.000000	50.310340
1089.000000	50.340820
1090.000000	50.362640
1091.000000	50.411720
1092.000000	50.442720
1093.000000	50.464340
1094.000000	50.491580
1095.000000	50.499780
1096.000000	50.527760
1097.000000	50.551040
1098.000000	50.576340
1099.000000	50.605360
1100.000000	50.613620
1101.000000	50.638480
1102.000000	50.650280
1103.000000	50.664000
1104.000000	50.681460
1105.000000	50.702140
1106.000000	50.717900
1107.000000	50.728940
1108.000000	50.739140
1109.000000	50.749140
1110.000000	50.758460
1111.000000	50.765540
1112.000000	50.779520
1113.000000	50.798580
1114.000000	50.790480
1115.000000	50.799540
1116.000000	50.817120
1117.000000	50.818280
1118.000000	50.813940
1119.000000	50.805860
1120.000000	50.796760
1121.000000	50.795600
1122.000000	50.792360
1123.000000	50.756940
1124.000000	50.723560
1125.000000	50.688180
1126.000000	50.654880
1127.000000	50.612280
1128.000000	50.581300
1129.000000	50.514840
1130.000000	50.415560
1131.000000	50.311560
1132.000000	50.208380
1133.000000	50.123640
1134.000000	50.001160
1135.000000	49.830720
1136.000000	49.659180
1137.000000	49.505100
1138.000000	49.331540
1139.000000	49.180620
1140.000000	49.021960
1141.000000	48.877420
1142.000000	48.713560
1143.000000	48.581800
1144.000000	48.450320
1145.000000	48.321060
1146.000000	48.212740
1147.000000	48.141140
1148.000000	48.081360
1149.000000	48.045240
1150.000000	48.030000
1151.000000	48.008880
1152.000000	47.999740
1153.000000	47.976740
1154.000000	47.936400
1155.000000	47.885260
1156.000000	47.795180
1157.000000	47.685100
1158.000000	47.552680
1159.000000	47.407140
1160.000000	47.247440
1161.000000	47.078020
1162.000000	46.898360
1163.000000	46.729340
1164.000000	46.561980
1165.000000	46.376480
1166.000000	46.201180
1167.000000	46.018980
1168.000000	45.849340
1169.000000	45.673400
1170.000000	45.489580
1171.000000	45.322700
1172.000000	45.157780
1173.000000	44.999200
1174.000000	44.842840
1175.000000	44.706380
1176.000000	44.553660
1177.000000	44.408960
1178.000000	44.233640
1179.000000	44.035020
1180.000000	43.830920
1181.000000	43.587700
1182.000000	43.340760
1183.000000	43.122540
1184.000000	42.933820
1185.000000	42.802920
1186.000000	42.734980
1187.000000	42.731240
1188.000000	42.783760
1189.000000	42.893160
1190.000000	43.053200
1191.000000	43.258420
1192.000000	43.474320
1193.000000	43.688540
1194.000000	43.889900
1195.000000	44.059160
1196.000000	44.186260
1197.000000	44.302580
1198.000000	44.376880
1199.000000	44.449240
1200.000000	44.502200
1201.000000	44.545980
1202.000000	44.577620
1203.000000	44.584220
1204.000000	44.627740
1205.000000	44.656320
1206.000000	44.683620
1207.000000	44.710260
1208.000000	44.746120
1209.000000	44.785160
1210.000000	44.843600
1211.000000	44.909220
1212.000000	44.965580
1213.000000	45.021560
1214.000000	45.076900
1215.000000	45.142900
1216.000000	45.216160
1217.000000	45.283520
1218.000000	45.356040
1219.000000	45.425600
1220.000000	45.494660
1221.000000	45.555880
1222.000000	45.634340
1223.000000	45.723420
1224.000000	45.797140
1225.000000	45.877820
1226.000000	45.973560
1227.000000	46.051700
1228.000000	46.122180
1229.000000	46.206220
1230.000000	46.286540
1231.000000	46.364180
1232.000000	46.445340
1233.000000	46.530560
1234.000000	46.602620
1235.000000	46.666600
1236.000000	46.737320
1237.000000	46.813640
1238.000000	46.889820
1239.000000	46.962960
1240.000000	47.035860
1241.000000	47.095900
1242.000000	47.155240
1243.000000	47.222220
1244.000000	47.288380
1245.000000	47.359400
1246.000000	47.417140
1247.000000	47.466040
1248.000000	47.521740
1249.000000	47.576020
1250.000000	47.617920
1251.000000	47.651000
1252.000000	47.698400
1253.000000	47.740120
1254.000000	47.769340
1255.000000	47.800840
1256.000000	47.826180
1257.000000	47.860760
1258.000000	47.884920
1259.000000	47.900520
1260.000000	47.916300
1261.000000	47.929520
1262.000000	47.941460
1263.000000	47.958760
1264.000000	47.984580
1265.000000	48.009340
1266.000000	48.026400
1267.000000	48.041560
1268.000000	48.050840
1269.000000	48.062360
1270.000000	48.074100
1271.000000	48.083920
1272.000000	48.098580
1273.000000	48.118640
1274.000000	48.139540
1275.000000	48.159860
1276.000000	48.169040
1277.000000	48.183480
1278.000000	48.211100
1279.000000	48.234160
1280.000000	48.265140
1281.000000	48.299900
1282.000000	48.324020
1283.000000	48.348960
1284.000000	48.375920
1285.000000	48.409000
1286.000000	48.443680
1287.000000	48.480740
1288.000000	48.511180
1289.000000	48.533860
1290.000000	48.544800
1291.000000	48.547560
1292.000000	48.554860
1293.000000	48.575700
1294.000000	48.605420
1295.000000	48.616220
1296.000000	48.611280
1297.000000	48.614840
1298.000000	48.625920
1299.000000	48.632480
1300.000000	48.634540
1301.000000	48.631440
1302.000000	48.623400
1303.000000	48.619440
1304.000000	48.611160
1305.000000	48.601860
1306.000000	48.595420
1307.000000	48.579520
1308.000000	48.561620
1309.000000	48.537720
1310.000000	48.507040
1311.000000	48.487040
1312.000000	48.470040
1313.000000	48.445720
1314.000000	48.409500
1315.000000	48.362240
1316.000000	48.315560
1317.000000	48.264700
1318.000000	48.214600
1319.000000	48.171220
1320.000000	48.124660
1321.000000	48.073540
1322.000000	48.028140
1323.000000	47.980580
1324.000000	47.911360
1325.000000	47.833640
1326.000000	47.773480
1327.000000	47.714260
1328.000000	47.639900
1329.000000	47.563420
1330.000000	47.487020
1331.000000	47.401040
1332.000000	47.317500
1333.000000	47.227740
1334.000000	47.129680
1335.000000	47.030480
1336.000000	46.925420
1337.000000	46.811720
1338.000000	46.690420
1339.000000	46.567580
1340.000000	46.440820
1341.000000	46.295580
1342.000000	46.150220
1343.000000	46.006220
1344.000000	45.851600
1345.000000	45.683300
1346.000000	45.529160
1347.000000	45.354920
1348.000000	45.151620
1349.000000	44.948280
1350.000000	44.746360
1351.000000	44.488340
1352.000000	44.209460
1353.000000	43.976020
1354.000000	43.744140
1355.000000	43.480420
1356.000000	43.227060
1357.000000	43.058040
1358.000000	42.938640
1359.000000	42.859560
1360.000000	42.859220
1361.000000	42.801400
1362.000000	42.653660
1363.000000	42.568200
1364.000000	42.529380
1365.000000	42.390800
1366.000000	42.280740
1367.000000	42.213880
1368.000000	42.054360
1369.000000	41.877380
1370.000000	41.768700
1371.000000	41.596460
1372.000000	41.377240
1373.000000	41.204420
1374.000000	41.045300
1375.000000	40.915540
1376.000000	40.769080
1377.000000	40.676500
1378.000000	40.591880
1379.000000	40.544960
1380.000000	40.441540
1381.000000	40.372080
1382.000000	40.172060
1383.000000	39.942960
1384.000000	39.707760
1385.000000	39.462320
1386.000000	39.249940
1387.000000	39.071900
1388.000000	38.833220
1389.000000	38.540300
1390.000000	38.382320
1391.000000	38.254560
1392.000000	38.032400
1393.000000	37.817920
1394.000000	37.745980
1395.000000	37.657840
1396.000000	37.345640
1397.000000	37.064400
1398.000000	36.948000
1399.000000	36.903060
1400.000000	36.704340
1401.000000	36.319800
1402.000000	36.044380
1403.000000	35.860920
1404.000000	35.600940
1405.000000	35.316620
1406.000000	35.031220
1407.000000	34.769960
1408.000000	34.518220
1409.000000	34.266260
1410.000000	33.948300
1411.000000	33.691520
1412.000000	33.504960
1413.000000	33.347940
1414.000000	33.121420
1415.000000	32.840200
1416.000000	32.645580
1417.000000	32.497600
1418.000000	32.325080
1419.000000	32.135700
1420.000000	31.919120
1421.000000	31.709180
1422.000000	31.549860
1423.000000	31.370540
1424.000000	31.192000
1425.000000	31.010240
1426.000000	30.841640
1427.000000	30.694460
1428.000000	30.545460
1429.000000	30.377020
1430.000000	30.257080
1431.000000	30.153300
1432.000000	30.027020
1433.000000	29.914960
1434.000000	29.796320
1435.000000	29.682160
1436.000000	29.590840
1437.000000	29.487340
1438.000000	29.392920
1439.000000	29.302540
1440.000000	29.211420
1441.000000	29.115620
1442.000000	29.013240
1443.000000	28.930400
1444.000000	28.868140
1445.000000	28.800560
1446.000000	28.682920
1447.000000	28.564600
1448.000000	28.485800
1449.000000	28.411760
1450.000000	28.366840
1451.000000	28.285580
1452.000000	28.217740
1453.000000	28.143200
1454.000000	28.063220
1455.000000	27.996260
1456.000000	27.928160
1457.000000	27.859780
1458.000000	27.779400
1459.000000	27.715660
1460.000000	27.662600
1461.000000	27.600960
1462.000000	27.558280
1463.000000	27.513160
1464.000000	27.462580
1465.000000	27.414820
1466.000000	27.373120
1467.000000	27.324520
1468.000000	27.280220
1469.000000	27.253760
1470.000000	27.226680
1471.000000	27.189200
1472.000000	27.159360
1473.000000	27.133640
1474.000000	27.091460
1475.000000	27.066920
1476.000000	27.038220
1477.000000	27.012980
1478.000000	26.976340
1479.000000	26.962780
1480.000000	26.942260
1481.000000	26.929320
1482.000000	26.911880
1483.000000	26.890900
1484.000000	26.887600
1485.000000	26.877340
1486.000000	26.866280
1487.000000	26.863780
1488.000000	26.853820
1489.000000	26.846520
1490.000000	26.841180
1491.000000	26.836680
1492.000000	26.833480
1493.000000	26.838360
1494.000000	26.848060
1495.000000	26.855720
1496.000000	26.857420
1497.000000	26.870920
1498.000000	26.882640
1499.000000	26.897680
1500.000000	26.925680
1501.000000	26.957200
1502.000000	26.986020
1503.000000	27.010620
1504.000000	27.044820
1505.000000	27.080220
1506.000000	27.114280
1507.000000	27.145980
1508.000000	27.185940
1509.000000	27.231080
1510.000000	27.267700
1511.000000	27.300060
1512.000000	27.325660
1513.000000	27.352540
1514.000000	27.390380
1515.000000	27.427080
1516.000000	27.460480
1517.000000	27.490700
1518.000000	27.532000
1519.000000	27.570460
1520.000000	27.599440
1521.000000	27.637200
1522.000000	27.666620
1523.000000	27.687140
1524.000000	27.716040
1525.000000	27.744840
1526.000000	27.769340
1527.000000	27.796320
1528.000000	27.824040
1529.000000	27.850840
1530.000000	27.870900
1531.000000	27.895360
1532.000000	27.916740
1533.000000	27.932900
1534.000000	27.944680
1535.000000	27.966940
1536.000000	27.977600
1537.000000	27.977920
1538.000000	27.988380
1539.000000	28.005280
1540.000000	28.021240
1541.000000	28.038440
1542.000000	28.050860
1543.000000	28.065080
1544.000000	28.081380
1545.000000	28.103180
1546.000000	28.129740
1547.000000	28.144220
1548.000000	28.162200
1549.000000	28.192760
1550.000000	28.220820
1551.000000	28.247600
1552.000000	28.272020
1553.000000	28.294060
1554.000000	28.307860
1555.000000	28.318220
1556.000000	28.327680
1557.000000	28.339780
1558.000000	28.346820
1559.000000	28.349620
1560.000000	28.349380
1561.000000	28.347000
1562.000000	28.341100
1563.000000	28.329180
1564.000000	28.321340
1565.000000	28.313580
1566.000000	28.302300
1567.000000	28.292060
1568.000000	28.282800
1569.000000	28.268760
1570.000000	28.258820
1571.000000	28.250640
1572.000000	28.239700
1573.000000	28.242700
1574.000000	28.256240
1575.000000	28.258360
1576.000000	28.262400
1577.000000	28.269580
1578.000000	28.275800
1579.000000	28.285340
1580.000000	28.296980
1581.000000	28.310180
1582.000000	28.328160
1583.000000	28.356300
1584.000000	28.379960
1585.000000	28.399240
1586.000000	28.422800
1587.000000	28.444180
1588.000000	28.467200
1589.000000	28.508720
1590.000000	28.542000
1591.000000	28.573120
1592.000000	28.612520
1593.000000	28.650440
1594.000000	28.693160
1595.000000	28.739200
1596.000000	28.779380
1597.000000	28.814560
1598.000000	28.864920
1599.000000	28.916300
1600.000000	28.965440
1601.000000	29.027080
1602.000000	29.077820
1603.000000	29.131940
1604.000000	29.194500
1605.000000	29.253680
1606.000000	29.303560
1607.000000	29.357720
1608.000000	29.419220
1609.000000	29.476460
1610.000000	29.528780
1611.000000	29.576600
1612.000000	29.624980
1613.000000	29.669520
1614.000000	29.729140
1615.000000	29.791400
1616.000000	29.837300
1617.000000	29.888660
1618.000000	29.935700
1619.000000	29.990540
1620.000000	30.036600
1621.000000	30.082760
1622.000000	30.137620
1623.000000	30.190600
1624.000000	30.242020
1625.000000	30.290300
1626.000000	30.348800
1627.000000	30.406360
1628.000000	30.454820
1629.000000	30.505400
1630.000000	30.564880
1631.000000	30.623040
1632.000000	30.661240
1633.000000	30.708720
1634.000000	30.761380
1635.000000	30.801600
1636.000000	30.845040
1637.000000	30.892440
1638.000000	30.930640
1639.000000	30.969720
1640.000000	31.014720
1641.000000	31.050480
1642.000000	31.082740
1643.000000	31.119240
1644.000000	31.146200
1645.000000	31.178280
1646.000000	31.214060
1647.000000	31.239160
1648.000000	31.262900
1649.000000	31.301000
1650.000000	31.332780
1651.000000	31.341560
1652.000000	31.354240
1653.000000	31.355140
1654.000000	31.358900
1655.000000	31.360820
1656.000000	31.355120
1657.000000	31.344260
1658.000000	31.324220
1659.000000	31.292900
1660.000000	31.261600
1661.000000	31.213180
1662.000000	31.163980
1663.000000	31.114540
1664.000000	31.049280
1665.000000	30.979820
1666.000000	30.907860
1667.000000	30.839620
1668.000000	30.723140
1669.000000	30.603800
1670.000000	30.486780
1671.000000	30.348920
1672.000000	30.202400
1673.000000	30.049540
1674.000000	29.870020
1675.000000	29.652700
1676.000000	29.427740
1677.000000	29.174120
1678.000000	28.888280
1679.000000	28.587420
1680.000000	28.256460
1681.000000	27.950720
1682.000000	27.665100
1683.000000	27.438560
1684.000000	27.279000
1685.000000	27.160940
1686.000000	27.097340
1687.000000	27.054260
1688.000000	27.020920
1689.000000	26.994840
1690.000000	26.942800
1691.000000	26.883460
1692.000000	26.805980
1693.000000	26.731680
1694.000000	26.683180
1695.000000	26.644060
1696.000000	26.647780
1697.000000	26.677320
1698.000000	26.724900
1699.000000	26.789440
1700.000000	26.868140
1701.000000	26.932920
1702.000000	26.999500
1703.000000	27.054280
1704.000000	27.082460
1705.000000	27.100340
1706.000000	27.124780
1707.000000	27.127180
1708.000000	27.134400
1709.000000	27.112980
1710.000000	27.088860
1711.000000	27.062300
1712.000000	27.014480
1713.000000	26.951120
1714.000000	26.888380
1715.000000	26.814060
1716.000000	26.727280
1717.000000	26.653980
1718.000000	26.584060
1719.000000	26.514120
1720.000000	26.458980
1721.000000	26.404340
1722.000000	26.366440
1723.000000	26.333760
1724.000000	26.309900
1725.000000	26.280260
1726.000000	26.240920
1727.000000	26.216860
1728.000000	26.171800
1729.000000	26.111720
1730.000000	26.061120
1731.000000	26.013740
1732.000000	25.980460
1733.000000	25.959500
1734.000000	25.961900
1735.000000	25.989060
1736.000000	26.034760
1737.000000	26.102720
1738.000000	26.184960
1739.000000	26.293740
1740.000000	26.412380
1741.000000	26.528480
1742.000000	26.649460
1743.000000	26.777520
1744.000000	26.885060
1745.000000	26.977280
1746.000000	27.062740
1747.000000	27.123580
1748.000000	27.185380
1749.000000	27.236660
1750.000000	27.279220
1751.000000	27.296280
1752.000000	27.321140
1753.000000	27.335180
1754.000000	27.330220
1755.000000	27.321800
1756.000000	27.305360
1757.000000	27.279160
1758.000000	27.264760
1759.000000	27.230760
1760.000000	27.196400
1761.000000	27.173420
1762.000000	27.155000
1763.000000	27.139280
1764.000000	27.136420
1765.000000	27.158200
1766.000000	27.183620
1767.000000	27.238120
1768.000000	27.296000
1769.000000	27.359900
1770.000000	27.427380
1771.000000	27.504960
1772.000000	27.579780
1773.000000	27.641260
1774.000000	27.713800
1775.000000	27.779780
1776.000000	27.848660
1777.000000	27.918680
1778.000000	27.971780
1779.000000	28.027560
1780.000000	28.064000
1781.000000	28.110220
1782.000000	28.155680
1783.000000	28.212680
1784.000000	28.255260
1785.000000	28.287820
1786.000000	28.326460
1787.000000	28.367980
1788.000000	28.397920
1789.000000	28.431760
1790.000000	28.467140
1791.000000	28.494820
1792.000000	28.525540
1793.000000	28.562060
1794.000000	28.605420
1795.000000	28.636180
1796.000000	28.656000
1797.000000	28.683220
1798.000000	28.712600
1799.000000	28.744240
1800.000000	28.774000
1801.000000	28.788240
1802.000000	28.801920
1803.000000	28.836200
1804.000000	28.885820
1805.000000	28.917320
1806.000000	28.933000
1807.000000	28.944900
1808.000000	28.975380
1809.000000	29.024600
1810.000000	29.070240
1811.000000	29.081340
1812.000000	29.067720
1813.000000	29.089420
1814.000000	29.121900
1815.000000	29.131520
1816.000000	29.107380
1817.000000	29.088820
1818.000000	29.133500
1819.000000	29.184260
1820.000000	29.181240
1821.000000	29.116180
1822.000000	29.063640
1823.000000	29.116880
1824.000000	29.217880
1825.000000	29.267020
1826.000000	29.271760
1827.000000	29.258040
1828.000000	29.298280
1829.000000	29.365400
1830.000000	29.396140
1831.000000	29.399980
1832.000000	29.441180
1833.000000	29.528320
1834.000000	29.648560
1835.000000	29.704000
1836.000000	29.665880
1837.000000	29.602320
1838.000000	29.604340
1839.000000	29.693960
1840.000000	29.762460
1841.000000	29.772620
1842.000000	29.705700
1843.000000	29.686160
1844.000000	29.797420
1845.000000	29.942800
1846.000000	30.023980
1847.000000	29.983600
1848.000000	29.852700
1849.000000	29.784160
1850.000000	29.882660
1851.000000	30.021820
1852.000000	30.066180
1853.000000	30.075660
1854.000000	30.060600
1855.000000	29.999900
1856.000000	30.009320
1857.000000	30.050460
1858.000000	30.018520
1859.000000	29.949220
1860.000000	29.892220
1861.000000	29.843120
1862.000000	29.808800
1863.000000	29.787080
1864.000000	29.782920
1865.000000	29.745840
1866.000000	29.664360
1867.000000	29.616760
1868.000000	29.466100
1869.000000	29.273940
1870.000000	29.039700
1871.000000	28.763060
1872.000000	28.525800
1873.000000	28.307080
1874.000000	28.089220
1875.000000	27.887940
1876.000000	27.689100
1877.000000	27.488240
1878.000000	27.253840
1879.000000	26.993560
1880.000000	26.732400
1881.000000	26.448500
1882.000000	26.117800
1883.000000	25.767640
1884.000000	25.412520
1885.000000	25.016760
1886.000000	24.658420
1887.000000	24.350340
1888.000000	24.063820
1889.000000	23.738080
1890.000000	23.419480
1891.000000	23.078980
1892.000000	22.717620
1893.000000	22.367500
1894.000000	22.072760
1895.000000	21.795400
1896.000000	21.586260
1897.000000	21.326120
1898.000000	20.966940
1899.000000	20.586300
1900.000000	20.194380
1901.000000	19.866200
1902.000000	19.634820
1903.000000	19.385360
1904.000000	19.121640
1905.000000	18.814220
1906.000000	18.493320
1907.000000	18.228600
1908.000000	18.027440
1909.000000	17.877060
1910.000000	17.753500
1911.000000	17.542780
1912.000000	17.314540
1913.000000	17.086840
1914.000000	16.849040
1915.000000	16.650940
1916.000000	16.541820
1917.000000	16.438900
1918.000000	16.297740
1919.000000	16.152360
1920.000000	16.020940
1921.000000	15.838240
1922.000000	15.685980
1923.000000	15.610620
1924.000000	15.559140
1925.000000	15.483040
1926.000000	15.383980
1927.000000	15.304140
1928.000000	15.231280
1929.000000	15.161800
1930.000000	15.121040
1931.000000	15.099000
1932.000000	15.075900
1933.000000	15.050980
1934.000000	15.022060
1935.000000	15.009960
1936.000000	15.015920
1937.000000	15.002420
1938.000000	15.001520
1939.000000	15.011660
1940.000000	15.019040
1941.000000	15.067440
1942.000000	15.091620
1943.000000	15.133560
1944.000000	15.161500
1945.000000	15.192920
1946.000000	15.238160
1947.000000	15.296920
1948.000000	15.349040
1949.000000	15.393200
1950.000000	15.448700
1951.000000	15.499720
1952.000000	15.557920
1953.000000	15.620060
1954.000000	15.667180
1955.000000	15.719080
1956.000000	15.768660
1957.000000	15.840120
1958.000000	15.901520
1959.000000	15.949300
1960.000000	16.014420
1961.000000	16.070340
1962.000000	16.131600
1963.000000	16.193160
1964.000000	16.251840
1965.000000	16.306540
1966.000000	16.360800
1967.000000	16.428880
1968.000000	16.474580
1969.000000	16.528980
1970.000000	16.596520
1971.000000	16.659500
1972.000000	16.709280
1973.000000	16.762420
1974.000000	16.830840
1975.000000	16.890740
1976.000000	16.951400
1977.000000	17.013760
1978.000000	17.068100
1979.000000	17.129260
1980.000000	17.188180
1981.000000	17.260640
1982.000000	17.318920
1983.000000	17.383060
1984.000000	17.441900
1985.000000	17.504820
1986.000000	17.556900
1987.000000	17.624680
1988.000000	17.668160
1989.000000	17.726840
1990.000000	17.795900
1991.000000	17.847940
1992.000000	17.889440
1993.000000	17.951440
1994.000000	18.000000
1995.000000	18.037260
1996.000000	18.091020
1997.000000	18.142760
1998.000000	18.162560
1999.000000	18.185960
2000.000000	18.224680
2001.000000	18.265600
2002.000000	18.285840
2003.000000	18.314420
2004.000000	18.324880
2005.000000	18.348400
2006.000000	18.371900
2007.000000	18.365540
2008.000000	18.377980
2009.000000	18.390560
2010.000000	18.385840
2011.000000	18.390260
2012.000000	18.375220
2013.000000	18.380140
2014.000000	18.359240
2015.000000	18.330820
2016.000000	18.308220
2017.000000	18.286100
2018.000000	18.259340
2019.000000	18.232180
2020.000000	18.205420
2021.000000	18.174600
2022.000000	18.120480
2023.000000	18.061480
2024.000000	18.025400
2025.000000	17.981760
2026.000000	17.942560
2027.000000	17.884960
2028.000000	17.815720
2029.000000	17.768020
2030.000000	17.694060
2031.000000	17.625120
2032.000000	17.554840
2033.000000	17.476200
2034.000000	17.418780
2035.000000	17.337860
2036.000000	17.249940
2037.000000	17.165100
2038.000000	17.078820
2039.000000	16.980680
2040.000000	16.892700
2041.000000	16.784260
2042.000000	16.688400
2043.000000	16.589060
2044.000000	16.479300
2045.000000	16.389020
2046.000000	16.301400
2047.000000	16.218800
2048.000000	16.129520
2049.000000	16.034800
2050.000000	15.953800
2051.000000	15.897980
2052.000000	15.840660
2053.000000	15.788880
2054.000000	15.755620
2055.000000	15.714140
2056.000000	15.681800
2057.000000	15.673360
2058.000000	15.673420
2059.000000	15.673260
2060.000000	15.670000
2061.000000	15.686420
2062.000000	15.699980
2063.000000	15.708100
2064.000000	15.734480
2065.000000	15.766780
2066.000000	15.784980
2067.000000	15.820900
2068.000000	15.856680
2069.000000	15.882680
2070.000000	15.904360
2071.000000	15.925660
2072.000000	15.947800
2073.000000	15.982140
2074.000000	15.996580
2075.000000	16.010040
2076.000000	16.040380
2077.000000	16.052740
2078.000000	16.065900
2079.000000	16.084340
2080.000000	16.089180
2081.000000	16.098460
2082.000000	16.117100
2083.000000	16.120540
2084.000000	16.122700
2085.000000	16.127880
2086.000000	16.127200
2087.000000	16.125920
2088.000000	16.128840
2089.000000	16.129740
2090.000000	16.120240
2091.000000	16.109720
2092.000000	16.103440
2093.000000	16.102160
2094.000000	16.109140
2095.000000	16.109560
2096.000000	16.105000
2097.000000	16.094620
2098.000000	16.081940
2099.000000	16.083640
2100.000000	16.095780
2101.000000	16.097060
2102.000000	16.098340
2103.000000	16.106980
2104.000000	16.115460
2105.000000	16.130820
2106.000000	16.132920
2107.000000	16.128980
2108.000000	16.143680
2109.000000	16.149240
2110.000000	16.154640
2111.000000	16.153580
2112.000000	16.155060
2113.000000	16.169500
2114.000000	16.166180
2115.000000	16.165240
2116.000000	16.172240
2117.000000	16.172460
2118.000000	16.160720
2119.000000	16.154060
2120.000000	16.161020
2121.000000	16.171080
2122.000000	16.170620
2123.000000	16.154760
2124.000000	16.126880
2125.000000	16.111320
2126.000000	16.105160
2127.000000	16.098960
2128.000000	16.075840
2129.000000	16.059840
2130.000000	16.047060
2131.000000	16.016020
2132.000000	15.993360
2133.000000	15.972500
2134.000000	15.953740
2135.000000	15.927520
2136.000000	15.886040
2137.000000	15.852860
2138.000000	15.826920
2139.000000	15.791600
2140.000000	15.753560
2141.000000	15.722500
2142.000000	15.690600
2143.000000	15.656300
2144.000000	15.620680
2145.000000	15.583780
2146.000000	15.552140
2147.000000	15.514100
2148.000000	15.479080
2149.000000	15.439520
2150.000000	15.409320
2151.000000	15.375080
2152.000000	15.333040
2153.000000	15.286540
2154.000000	15.245720
2155.000000	15.221920
2156.000000	15.199920
2157.000000	15.160580
2158.000000	15.121460
2159.000000	15.103560
2160.000000	15.090620
2161.000000	15.070700
2162.000000	15.048600
2163.000000	15.027420
2164.000000	15.006860
2165.000000	14.996900
2166.000000	15.002120
2167.000000	14.992140
2168.000000	14.984440
2169.000000	14.979660
2170.000000	14.979560
2171.000000	14.988640
2172.000000	14.981940
2173.000000	14.985560
2174.000000	14.997580
2175.000000	14.997660
2176.000000	14.995380
2177.000000	15.033940
2178.000000	15.043660
2179.000000	15.049880
2180.000000	15.070620
2181.000000	15.079580
2182.000000	15.106540
2183.000000	15.129180
2184.000000	15.150840
2185.000000	15.161760
2186.000000	15.179920
2187.000000	15.193040
2188.000000	15.213980
2189.000000	15.226820
2190.000000	15.236360
2191.000000	15.258980
2192.000000	15.276020
2193.000000	15.286500
2194.000000	15.303280
2195.000000	15.308320
2196.000000	15.315220
2197.000000	15.316100
2198.000000	15.335560
2199.000000	15.346560
2200.000000	15.358200
2201.000000	15.375560
2202.000000	15.398040
2203.000000	15.394160
2204.000000	15.399120
2205.000000	15.415660
2206.000000	15.434280
2207.000000	15.459500
2208.000000	15.486940
2209.000000	15.491020
2210.000000	15.516680
2211.000000	15.536540
2212.000000	15.580360
2213.000000	15.614980
2214.000000	15.642180
2215.000000	15.650860
2216.000000	15.674860
2217.000000	15.709260
2218.000000	15.730640
2219.000000	15.758200
2220.000000	15.788020
2221.000000	15.807240
2222.000000	15.846100
2223.000000	15.859580
2224.000000	15.880580
2225.000000	15.888100
2226.000000	15.898240
2227.000000	15.885700
2228.000000	15.880420
2229.000000	15.887180
2230.000000	15.879880
2231.000000	15.861760
2232.000000	15.849820
2233.000000	15.823720
2234.000000	15.777020
2235.000000	15.726660
2236.000000	15.693860
2237.000000	15.652260
2238.000000	15.604300
2239.000000	15.531200
2240.000000	15.464480
2241.000000	15.388320
2242.000000	15.314600
2243.000000	15.212720
2244.000000	15.128540
2245.000000	15.028020
2246.000000	14.918020
2247.000000	14.821920
2248.000000	14.677340
2249.000000	14.551720
2250.000000	14.417080
2251.000000	14.282740
2252.000000	14.119480
2253.000000	13.981360
2254.000000	13.821640
2255.000000	13.660480
2256.000000	13.496000
2257.000000	13.326940
2258.000000	13.183220
2259.000000	13.032060
2260.000000	12.852140
2261.000000	12.711980
2262.000000	12.587500
2263.000000	12.458220
2264.000000	12.348180
2265.000000	12.231440
2266.000000	12.143320
2267.000000	12.066240
2268.000000	11.998160
2269.000000	11.924100
2270.000000	11.883840
2271.000000	11.849380
2272.000000	11.823100
2273.000000	11.794680
2274.000000	11.788320
2275.000000	11.777400
2276.000000	11.791520
2277.000000	11.787400
2278.000000	11.776940
2279.000000	11.799660
2280.000000	11.810440
2281.000000	11.809680
2282.000000	11.825380
2283.000000	11.840500
2284.000000	11.852960
2285.000000	11.839580
2286.000000	11.846960
2287.000000	11.847540
2288.000000	11.841500
2289.000000	11.824920
2290.000000	11.811160
2291.000000	11.784980
2292.000000	11.752260
2293.000000	11.722480
2294.000000	11.687540
2295.000000	11.656500
2296.000000	11.595160
2297.000000	11.554900
2298.000000	11.518040
2299.000000	11.462660
2300.000000	11.402400
2301.000000	11.356720
2302.000000	11.309620
2303.000000	11.260020
2304.000000	11.236200
2305.000000	11.213580
2306.000000	11.196160
2307.000000	11.178320
2308.000000	11.184880
2309.000000	11.195980
2310.000000	11.190300
2311.000000	11.210860
2312.000000	11.240060
2313.000000	11.268600
2314.000000	11.290560
2315.000000	11.326940
2316.000000	11.365200
2317.000000	11.412540
2318.000000	11.456360
2319.000000	11.472180
2320.000000	11.494760
2321.000000	11.529040
2322.000000	11.554960
2323.000000	11.584500
2324.000000	11.598760
2325.000000	11.609440
2326.000000	11.614340
2327.000000	11.629480
2328.000000	11.636760
2329.000000	11.652200
2330.000000	11.647680
2331.000000	11.636220
2332.000000	11.636900
2333.000000	11.644200
2334.000000	11.645480
2335.000000	11.630100
2336.000000	11.614320
2337.000000	11.609020
2338.000000	11.612700
2339.000000	11.590300
2340.000000	11.561240
2341.000000	11.532240
2342.000000	11.516940
2343.000000	11.513080
2344.000000	11.485480
2345.000000	11.446220
2346.000000	11.427180
2347.000000	11.408560
2348.000000	11.374120
2349.000000	11.361460
2350.000000	11.342620
2351.000000	11.323700
2352.000000	11.315540
2353.000000	11.310820
2354.000000	11.307220
2355.000000	11.301760
2356.000000	11.311820
2357.000000	11.327180
2358.000000	11.335740
2359.000000	11.349960
2360.000000	11.371740
2361.000000	11.394700
2362.000000	11.405420
2363.000000	11.419960
2364.000000	11.442140
2365.000000	11.463920
2366.000000	11.491820
2367.000000	11.509080
2368.000000	11.517840
2369.000000	11.517840
2370.000000	11.521720
2371.000000	11.533240
2372.000000	11.548740
2373.000000	11.558320
2374.000000	11.560180
2375.000000	11.562200
2376.000000	11.577280
2377.000000	11.587060
2378.000000	11.583840
2379.000000	11.584560
2380.000000	11.594120
2381.000000	11.593760
2382.000000	11.584100
2383.000000	11.583440
2384.000000	11.583380
2385.000000	11.575100
2386.000000	11.572000
2387.000000	11.569020
2388.000000	11.553500
2389.000000	11.541480
2390.000000	11.528980
2391.000000	11.511720
2392.000000	11.496720
2393.000000	11.487220
2394.000000	11.461860
2395.000000	11.441340
2396.000000	11.426000
2397.000000	11.400280
2398.000000	11.376040
2399.000000	11.356860
2400.000000	11.326900
2401.000000	11.294320
2402.000000	11.281780
2403.000000	11.260720
2404.000000	11.227600
2405.000000	11.194920
2406.000000	11.165180
2407.000000	11.148580
2408.000000	11.123880
2409.000000	11.090840
2410.000000	11.043140
2411.000000	11.002340
2412.000000	10.965420
2413.000000	10.934000
2414.000000	10.892340
2415.000000	10.857140
2416.000000	10.821700
2417.000000	10.780640
2418.000000	10.745960
2419.000000	10.715700
2420.000000	10.695540
2421.000000	10.671980
2422.000000	10.643260
2423.000000	10.598200
2424.000000	10.547700
2425.000000	10.496660
2426.000000	10.431520
2427.000000	10.382400
2428.000000	10.343060
2429.000000	10.301800
2430.000000	10.266920
2431.000000	10.225360
2432.000000	10.194020
2433.000000	10.147540
2434.000000	10.100200
2435.000000	10.055680
2436.000000	10.011080
2437.000000	9.970540
2438.000000	9.918300
2439.000000	9.866980
2440.000000	9.812120
2441.000000	9.759420
2442.000000	9.709200
2443.000000	9.644140
2444.000000	9.601680
2445.000000	9.542760
2446.000000	9.482420
2447.000000	9.433760
2448.000000	9.376060
2449.000000	9.324500
2450.000000	9.273840
2451.000000	9.224260
2452.000000	9.169640
2453.000000	9.117440
2454.000000	9.076020
2455.000000	9.025360
2456.000000	8.977660
2457.000000	8.931600
2458.000000	8.900980
2459.000000	8.855500
2460.000000	8.823960
2461.000000	8.785760
2462.000000	8.751580
2463.000000	8.741820
2464.000000	8.704660
2465.000000	8.676960
2466.000000	8.637460
2467.000000	8.633520
2468.000000	8.615460
2469.000000	8.584880
2470.000000	8.580920
2471.000000	8.545380
2472.000000	8.537800
2473.000000	8.532440
2474.000000	8.537080
2475.000000	8.526880
2476.000000	8.481480
2477.000000	8.504080
2478.000000	8.497540
2479.000000	8.483580
2480.000000	8.501240
2481.000000	8.502840
2482.000000	8.498700
2483.000000	8.486640
2484.000000	8.470780
2485.000000	8.485440
2486.000000	8.485280
2487.000000	8.474260
2488.000000	8.498820
2489.000000	8.528840
2490.000000	8.498880
2491.000000	8.495080
2492.000000	8.517740
2493.000000	8.510680
2494.000000	8.548880
2495.000000	8.625580
2496.000000	8.582080
2497.000000	8.576980
2498.000000	8.649260
2499.000000	8.640720
2500.000000	8.686660
