PE UV       SUBTECH     SPECTRUM    ASCII       PEDS        4.00        
   -1
CICIMAUCR0113-6.Sample.ASC
24/04/25
11:40:20.00
24/04/25
11:40:20.00
Vinicio Soto Monge
C. kalinini
250,000000
1
Lambda 1050
1050L1511233
PerkinElmer UV WinLab 6.3.2.0749 / 2.02.05 Lambda 900 UV/VIS/NIR, Aug  7 2015 09:38:08

0
0
3350/servo 860,8/2
0
0
UV/VIS
1
1
1
DoubleDePol,CommonBeamDepol,RBeamAtt,SBeamAtt,60mm sphere, WB InGaAs Detector
0
0
0
0
Program
Program
3350/servo 860,8/2
3350/0,2 860,8/0,2
3350/0,2 860,8/0,2
0
15.00
 
 
 
0
 
860,8
319,2
860,8
Front
100
on
S:100 R:100
0
0
0
0
 
0
 
 
 
0
 
 
0
0
0
0
0
 
 
 
 
0
0


0
0
#HDR
-1
-1
#GR
nm
%R
1.0
0.0
2500,000000
-1,000000
2251
8
101,774400
5,807200
#DATA
250.000000	6.259033
251.000000	6.240933
252.000000	6.239333
253.000000	6.206267
254.000000	6.186733
255.000000	6.167133
256.000000	6.154533
257.000000	6.148300
258.000000	6.152233
259.000000	6.112367
260.000000	6.090733
261.000000	6.071433
262.000000	6.051000
263.000000	6.011767
264.000000	5.979067
265.000000	5.997433
266.000000	5.929267
267.000000	5.907233
268.000000	5.870233
269.000000	5.889233
270.000000	5.868100
271.000000	5.850267
272.000000	5.818467
273.000000	5.823300
274.000000	5.784033
275.000000	5.806600
276.000000	5.775600
277.000000	5.759733
278.000000	5.749467
279.000000	5.733267
280.000000	5.719300
281.000000	5.706667
282.000000	5.708467
283.000000	5.676800
284.000000	5.717967
285.000000	5.685367
286.000000	5.711200
287.000000	5.685967
288.000000	5.683200
289.000000	5.671133
290.000000	5.673733
291.000000	5.671033
292.000000	5.682933
293.000000	5.645867
294.000000	5.636300
295.000000	5.660567
296.000000	5.673033
297.000000	5.645767
298.000000	5.617067
299.000000	5.619500
300.000000	5.614700
301.000000	5.638300
302.000000	5.588367
303.000000	5.574233
304.000000	5.616233
305.000000	5.583767
306.000000	5.625933
307.000000	5.605167
308.000000	5.588467
309.000000	5.566567
310.000000	5.584700
311.000000	5.573933
312.000000	5.610333
313.000000	5.580267
314.000000	5.582700
315.000000	5.554267
316.000000	5.606600
317.000000	5.914500
318.000000	6.118967
319.000000	5.946633
320.000000	5.771400
321.000000	5.664367
322.000000	5.889600
323.000000	5.895733
324.000000	5.858900
325.000000	5.723767
326.000000	5.844667
327.000000	5.745433
328.000000	5.805167
329.000000	5.817733
330.000000	5.728233
331.000000	5.749867
332.000000	5.602433
333.000000	5.765600
334.000000	5.790700
335.000000	5.667667
336.000000	5.755833
337.000000	5.751333
338.000000	5.689567
339.000000	5.694400
340.000000	5.712333
341.000000	5.753533
342.000000	5.784467
343.000000	5.797933
344.000000	5.806367
345.000000	5.771133
346.000000	5.791433
347.000000	5.731667
348.000000	5.807200
349.000000	5.755033
350.000000	5.851967
351.000000	5.905633
352.000000	5.881067
353.000000	5.814200
354.000000	5.899800
355.000000	5.951933
356.000000	5.946500
357.000000	5.921233
358.000000	6.012133
359.000000	6.009867
360.000000	5.959500
361.000000	6.009033
362.000000	5.928533
363.000000	6.020933
364.000000	6.089100
365.000000	6.037200
366.000000	6.072400
367.000000	6.107933
368.000000	6.080567
369.000000	6.184567
370.000000	6.191867
371.000000	6.114800
372.000000	6.157433
373.000000	6.174700
374.000000	6.151200
375.000000	6.256767
376.000000	6.443700
377.000000	6.426300
378.000000	6.467033
379.000000	6.493500
380.000000	6.529867
381.000000	6.577000
382.000000	6.610233
383.000000	6.644767
384.000000	6.687800
385.000000	6.738200
386.000000	6.788933
387.000000	6.847333
388.000000	6.905200
389.000000	6.970567
390.000000	7.041000
391.000000	7.110767
392.000000	7.198467
393.000000	7.284933
394.000000	7.368600
395.000000	7.460100
396.000000	7.570100
397.000000	7.683467
398.000000	7.801933
399.000000	7.933600
400.000000	8.073500
401.000000	8.235667
402.000000	8.401833
403.000000	8.583933
404.000000	8.771833
405.000000	8.977367
406.000000	9.203833
407.000000	9.435467
408.000000	9.681933
409.000000	9.940133
410.000000	10.222433
411.000000	10.528400
412.000000	10.843700
413.000000	11.175700
414.000000	11.531133
415.000000	11.906300
416.000000	12.285600
417.000000	12.667133
418.000000	13.064333
419.000000	13.483433
420.000000	13.922433
421.000000	14.376733
422.000000	14.822900
423.000000	15.271067
424.000000	15.746233
425.000000	16.227100
426.000000	16.700133
427.000000	17.169300
428.000000	17.643200
429.000000	18.116300
430.000000	18.594600
431.000000	19.081733
432.000000	19.551200
433.000000	20.010467
434.000000	20.472033
435.000000	20.927133
436.000000	21.361900
437.000000	21.796167
438.000000	22.217567
439.000000	22.611533
440.000000	23.018367
441.000000	23.414333
442.000000	23.790600
443.000000	24.153900
444.000000	24.490067
445.000000	24.807100
446.000000	25.121200
447.000000	25.427733
448.000000	25.715767
449.000000	25.988167
450.000000	26.258000
451.000000	26.508567
452.000000	26.755933
453.000000	26.994867
454.000000	27.201933
455.000000	27.409967
456.000000	27.618300
457.000000	27.797967
458.000000	27.958367
459.000000	28.135600
460.000000	28.299867
461.000000	28.437233
462.000000	28.585433
463.000000	28.724300
464.000000	28.848167
465.000000	28.956367
466.000000	29.056767
467.000000	29.158533
468.000000	29.255833
469.000000	29.341633
470.000000	29.413833
471.000000	29.477433
472.000000	29.540233
473.000000	29.594800
474.000000	29.635100
475.000000	29.672767
476.000000	29.688167
477.000000	29.694900
478.000000	29.696200
479.000000	29.680767
480.000000	29.684767
481.000000	29.698800
482.000000	29.698033
483.000000	29.664467
484.000000	29.587200
485.000000	29.510967
486.000000	29.432533
487.000000	29.342933
488.000000	29.262533
489.000000	29.182233
490.000000	29.108500
491.000000	29.071467
492.000000	29.030633
493.000000	29.032167
494.000000	29.066667
495.000000	29.132800
496.000000	29.228267
497.000000	29.398467
498.000000	29.615067
499.000000	29.895733
500.000000	30.226633
501.000000	30.637733
502.000000	31.103267
503.000000	31.619800
504.000000	32.199333
505.000000	32.820600
506.000000	33.480400
507.000000	34.179133
508.000000	34.915133
509.000000	35.674700
510.000000	36.461767
511.000000	37.270800
512.000000	38.080300
513.000000	38.890467
514.000000	39.699100
515.000000	40.511100
516.000000	41.304500
517.000000	42.103633
518.000000	42.881500
519.000000	43.655133
520.000000	44.435567
521.000000	45.188500
522.000000	45.946833
523.000000	46.688233
524.000000	47.424800
525.000000	48.139667
526.000000	48.858367
527.000000	49.576133
528.000000	50.280967
529.000000	50.990600
530.000000	51.680333
531.000000	52.382667
532.000000	53.089633
533.000000	53.788500
534.000000	54.489433
535.000000	55.177500
536.000000	55.883767
537.000000	56.584900
538.000000	57.279500
539.000000	57.978567
540.000000	58.681267
541.000000	59.363700
542.000000	60.053667
543.000000	60.741933
544.000000	61.438933
545.000000	62.121767
546.000000	62.761033
547.000000	63.408567
548.000000	64.037100
549.000000	64.637700
550.000000	65.251433
551.000000	65.843167
552.000000	66.404733
553.000000	66.966367
554.000000	67.499567
555.000000	68.013700
556.000000	68.536433
557.000000	69.008067
558.000000	69.457933
559.000000	69.898200
560.000000	70.351300
561.000000	70.774833
562.000000	71.143700
563.000000	71.501167
564.000000	71.856700
565.000000	72.181233
566.000000	72.498767
567.000000	72.762867
568.000000	73.016567
569.000000	73.245067
570.000000	73.473933
571.000000	73.681767
572.000000	73.874200
573.000000	74.026000
574.000000	74.220867
575.000000	74.359567
576.000000	74.506433
577.000000	74.620900
578.000000	74.713700
579.000000	74.821067
580.000000	74.967567
581.000000	75.036000
582.000000	75.098800
583.000000	75.191367
584.000000	75.240633
585.000000	75.290733
586.000000	75.321033
587.000000	75.351167
588.000000	75.345233
589.000000	75.321000
590.000000	75.299967
591.000000	75.258333
592.000000	75.176800
593.000000	75.106033
594.000000	75.001700
595.000000	74.873800
596.000000	74.759633
597.000000	74.549700
598.000000	74.367633
599.000000	74.177433
600.000000	73.972967
601.000000	73.724700
602.000000	73.461933
603.000000	73.194333
604.000000	72.884600
605.000000	72.593767
606.000000	72.297567
607.000000	71.977000
608.000000	71.676400
609.000000	71.388867
610.000000	71.026333
611.000000	70.693200
612.000000	70.367567
613.000000	70.034867
614.000000	69.659067
615.000000	69.315200
616.000000	68.943900
617.000000	68.575100
618.000000	68.204533
619.000000	67.837500
620.000000	67.492733
621.000000	67.111933
622.000000	66.720600
623.000000	66.337567
624.000000	65.983600
625.000000	65.611900
626.000000	65.246400
627.000000	64.916433
628.000000	64.566700
629.000000	64.256467
630.000000	63.994133
631.000000	63.710933
632.000000	63.483200
633.000000	63.278033
634.000000	63.100500
635.000000	62.966333
636.000000	62.852433
637.000000	62.730100
638.000000	62.649233
639.000000	62.626633
640.000000	62.568933
641.000000	62.559033
642.000000	62.577367
643.000000	62.595033
644.000000	62.635767
645.000000	62.711467
646.000000	62.764000
647.000000	62.839600
648.000000	62.936233
649.000000	63.060667
650.000000	63.170533
651.000000	63.384967
652.000000	63.568300
653.000000	63.808467
654.000000	64.067767
655.000000	64.373200
656.000000	64.707800
657.000000	65.055100
658.000000	65.437833
659.000000	65.844833
660.000000	66.275833
661.000000	66.743467
662.000000	67.208500
663.000000	67.684133
664.000000	68.146167
665.000000	68.613933
666.000000	69.048000
667.000000	69.496833
668.000000	69.979267
669.000000	70.418467
670.000000	70.825167
671.000000	71.269167
672.000000	71.707900
673.000000	72.151033
674.000000	72.520033
675.000000	72.886367
676.000000	73.282333
677.000000	73.679900
678.000000	74.048800
679.000000	74.410700
680.000000	74.753600
681.000000	75.060000
682.000000	75.396200
683.000000	75.711033
684.000000	75.984100
685.000000	76.280633
686.000000	76.525367
687.000000	76.765533
688.000000	76.976400
689.000000	77.160033
690.000000	77.334300
691.000000	77.518700
692.000000	77.709267
693.000000	77.880800
694.000000	78.041300
695.000000	78.232767
696.000000	78.420367
697.000000	78.617933
698.000000	78.807300
699.000000	79.083333
700.000000	79.343533
701.000000	79.642533
702.000000	79.974500
703.000000	80.300933
704.000000	80.647567
705.000000	81.027733
706.000000	81.418933
707.000000	81.832533
708.000000	82.221200
709.000000	82.625867
710.000000	83.099167
711.000000	83.523867
712.000000	83.930833
713.000000	84.350400
714.000000	84.798100
715.000000	85.264167
716.000000	85.700300
717.000000	86.126967
718.000000	86.595300
719.000000	87.051900
720.000000	87.528667
721.000000	87.983433
722.000000	88.411833
723.000000	88.871233
724.000000	89.335233
725.000000	89.798667
726.000000	90.200600
727.000000	90.620600
728.000000	91.042233
729.000000	91.400100
730.000000	91.789233
731.000000	92.131367
732.000000	92.480033
733.000000	92.831500
734.000000	93.152767
735.000000	93.462167
736.000000	93.756600
737.000000	94.047567
738.000000	94.274067
739.000000	94.504400
740.000000	94.789367
741.000000	95.030167
742.000000	95.287167
743.000000	95.530400
744.000000	95.724267
745.000000	95.866533
746.000000	96.018233
747.000000	96.212067
748.000000	96.355300
749.000000	96.481167
750.000000	96.626367
751.000000	96.783833
752.000000	96.919500
753.000000	97.028400
754.000000	97.127833
755.000000	97.198300
756.000000	97.235567
757.000000	97.310000
758.000000	97.414167
759.000000	97.492933
760.000000	97.551567
761.000000	97.546533
762.000000	97.531367
763.000000	97.554333
764.000000	97.603733
765.000000	97.627233
766.000000	97.622600
767.000000	97.604600
768.000000	97.624800
769.000000	97.681733
770.000000	97.639800
771.000000	97.586867
772.000000	97.514267
773.000000	97.563733
774.000000	97.637233
775.000000	97.585000
776.000000	97.535300
777.000000	97.468633
778.000000	97.448067
779.000000	97.351567
780.000000	97.315433
781.000000	97.337700
782.000000	97.270467
783.000000	97.154200
784.000000	97.122767
785.000000	97.001267
786.000000	96.936333
787.000000	96.863000
788.000000	96.714167
789.000000	96.612833
790.000000	96.535200
791.000000	96.391167
792.000000	96.194433
793.000000	96.059833
794.000000	95.886467
795.000000	95.704567
796.000000	95.544700
797.000000	95.339300
798.000000	95.142333
799.000000	94.981367
800.000000	94.746833
801.000000	94.586633
802.000000	94.324633
803.000000	93.975667
804.000000	93.708200
805.000000	93.519200
806.000000	93.238433
807.000000	93.014233
808.000000	92.747000
809.000000	92.305733
810.000000	91.939067
811.000000	91.683567
812.000000	91.387700
813.000000	91.022533
814.000000	90.696300
815.000000	90.274733
816.000000	90.057133
817.000000	89.752500
818.000000	89.379767
819.000000	88.970967
820.000000	88.589267
821.000000	88.232833
822.000000	87.918700
823.000000	87.528800
824.000000	87.092167
825.000000	86.660767
826.000000	86.267300
827.000000	85.909433
828.000000	85.466867
829.000000	85.008467
830.000000	84.705267
831.000000	84.270800
832.000000	83.893000
833.000000	83.375800
834.000000	82.964067
835.000000	82.562233
836.000000	82.232900
837.000000	81.797433
838.000000	81.357633
839.000000	80.944233
840.000000	80.665500
841.000000	80.357200
842.000000	79.831567
843.000000	79.570567
844.000000	79.027600
845.000000	78.508767
846.000000	78.302200
847.000000	77.785033
848.000000	77.192633
849.000000	77.149933
850.000000	76.892667
851.000000	76.291300
852.000000	76.013433
853.000000	75.819533
854.000000	74.996400
855.000000	74.861700
856.000000	74.499167
857.000000	74.335900
858.000000	74.565589
859.000000	71.865472
860.000000	71.599560
861.000000	71.321758
862.000000	71.067069
863.000000	70.782518
864.000000	70.485127
865.000000	70.207324
866.000000	69.961258
867.000000	69.924421
868.000000	70.127629
869.000000	70.401531
870.000000	70.574771
871.000000	70.851741
872.000000	71.049661
873.000000	71.222579
874.000000	71.307889
875.000000	71.461921
876.000000	71.528378
877.000000	71.653379
878.000000	71.683890
879.000000	71.788534
880.000000	71.818486
881.000000	71.908478
882.000000	71.896539
883.000000	71.968049
884.000000	71.946622
885.000000	71.913290
886.000000	71.848402
887.000000	71.820308
888.000000	71.749338
889.000000	71.721886
890.000000	71.666491
891.000000	71.534080
892.000000	71.391984
893.000000	71.269209
894.000000	71.167704
895.000000	71.052223
896.000000	70.865918
897.000000	70.667018
898.000000	70.471470
899.000000	70.269264
900.000000	70.099147
901.000000	69.887002
902.000000	69.714909
903.000000	69.504514
904.000000	69.287979
905.000000	69.077114
906.000000	68.856871
907.000000	68.648394
908.000000	68.432464
909.000000	68.229956
910.000000	68.034800
911.000000	67.824016
912.000000	67.640512
913.000000	67.455164
914.000000	67.249983
915.000000	67.068586
916.000000	66.857946
917.000000	66.690966
918.000000	66.454473
919.000000	66.254575
920.000000	66.075735
921.000000	65.883166
922.000000	65.681763
923.000000	65.406955
924.000000	65.189378
925.000000	64.999080
926.000000	64.799935
927.000000	64.613588
928.000000	64.390856
929.000000	64.169786
930.000000	63.992020
931.000000	63.798395
932.000000	63.568044
933.000000	63.380573
934.000000	63.164200
935.000000	62.964382
936.000000	62.746646
937.000000	62.551372
938.000000	62.384438
939.000000	62.220205
940.000000	62.079658
941.000000	61.905398
942.000000	61.765326
943.000000	61.643013
944.000000	61.507126
945.000000	61.347805
946.000000	61.227830
947.000000	61.120131
948.000000	60.984855
949.000000	60.875936
950.000000	60.782682
951.000000	60.672286
952.000000	60.569518
953.000000	60.479579
954.000000	60.375882
955.000000	60.286517
956.000000	60.190920
957.000000	60.094026
958.000000	60.003300
959.000000	59.910619
960.000000	59.814636
961.000000	59.742763
962.000000	59.640853
963.000000	59.554228
964.000000	59.487161
965.000000	59.428054
966.000000	59.369227
967.000000	59.290917
968.000000	59.242594
969.000000	59.206446
970.000000	59.141625
971.000000	59.096552
972.000000	59.047496
973.000000	59.017442
974.000000	58.970196
975.000000	58.935329
976.000000	58.893560
977.000000	58.854102
978.000000	58.824628
979.000000	58.797830
980.000000	58.761488
981.000000	58.729511
982.000000	58.701287
983.000000	58.662127
984.000000	58.644396
985.000000	58.621781
986.000000	58.595124
987.000000	58.560292
988.000000	58.548189
989.000000	58.525144
990.000000	58.506359
991.000000	58.506045
992.000000	58.492539
993.000000	58.483640
994.000000	58.476484
995.000000	58.479705
996.000000	58.475109
997.000000	58.462920
998.000000	58.463575
999.000000	58.477280
1000.000000	58.484901
1001.000000	58.480283
1002.000000	58.497791
1003.000000	58.516315
1004.000000	58.530050
1005.000000	58.543637
1006.000000	58.547778
1007.000000	58.548149
1008.000000	58.551393
1009.000000	58.557115
1010.000000	58.569646
1011.000000	58.590640
1012.000000	58.604845
1013.000000	58.639282
1014.000000	58.687591
1015.000000	58.732917
1016.000000	58.793732
1017.000000	58.867484
1018.000000	58.937616
1019.000000	59.014132
1020.000000	59.101435
1021.000000	59.186448
1022.000000	59.274253
1023.000000	59.360568
1024.000000	59.448172
1025.000000	59.536797
1026.000000	59.628409
1027.000000	59.720681
1028.000000	59.815648
1029.000000	59.899251
1030.000000	59.975905
1031.000000	60.069619
1032.000000	60.147726
1033.000000	60.225073
1034.000000	60.303342
1035.000000	60.368193
1036.000000	60.447779
1037.000000	60.531203
1038.000000	60.591052
1039.000000	60.651901
1040.000000	60.718072
1041.000000	60.776099
1042.000000	60.839785
1043.000000	60.906784
1044.000000	60.979853
1045.000000	61.052639
1046.000000	61.114838
1047.000000	61.183374
1048.000000	61.260703
1049.000000	61.339637
1050.000000	61.408016
1051.000000	61.482871
1052.000000	61.563563
1053.000000	61.653040
1054.000000	61.748736
1055.000000	61.848358
1056.000000	61.945319
1057.000000	62.045895
1058.000000	62.143352
1059.000000	62.245814
1060.000000	62.345904
1061.000000	62.446495
1062.000000	62.538629
1063.000000	62.625864
1064.000000	62.717062
1065.000000	62.803450
1066.000000	62.882336
1067.000000	62.976438
1068.000000	63.064337
1069.000000	63.145744
1070.000000	63.228012
1071.000000	63.310118
1072.000000	63.394974
1073.000000	63.469580
1074.000000	63.554700
1075.000000	63.634402
1076.000000	63.713537
1077.000000	63.796763
1078.000000	63.877340
1079.000000	63.945274
1080.000000	64.022586
1081.000000	64.107901
1082.000000	64.180626
1083.000000	64.264191
1084.000000	64.342817
1085.000000	64.432720
1086.000000	64.513547
1087.000000	64.592156
1088.000000	64.673755
1089.000000	64.758172
1090.000000	64.841336
1091.000000	64.920373
1092.000000	65.006358
1093.000000	65.084604
1094.000000	65.163219
1095.000000	65.231449
1096.000000	65.301664
1097.000000	65.370276
1098.000000	65.428003
1099.000000	65.493868
1100.000000	65.560438
1101.000000	65.627577
1102.000000	65.666635
1103.000000	65.713617
1104.000000	65.772701
1105.000000	65.822335
1106.000000	65.871131
1107.000000	65.903533
1108.000000	65.945542
1109.000000	65.990505
1110.000000	66.032824
1111.000000	66.078391
1112.000000	66.096307
1113.000000	66.125446
1114.000000	66.165605
1115.000000	66.196753
1116.000000	66.229107
1117.000000	66.252764
1118.000000	66.267489
1119.000000	66.264883
1120.000000	66.246379
1121.000000	66.232413
1122.000000	66.209875
1123.000000	66.144279
1124.000000	66.076992
1125.000000	65.998557
1126.000000	65.919201
1127.000000	65.800544
1128.000000	65.669812
1129.000000	65.516806
1130.000000	65.301084
1131.000000	65.040662
1132.000000	64.739562
1133.000000	64.417009
1134.000000	64.115208
1135.000000	63.723929
1136.000000	63.256283
1137.000000	62.810681
1138.000000	62.341954
1139.000000	61.894118
1140.000000	61.458028
1141.000000	61.039173
1142.000000	60.626176
1143.000000	60.228823
1144.000000	59.878738
1145.000000	59.532373
1146.000000	59.279458
1147.000000	59.118443
1148.000000	59.060428
1149.000000	59.052841
1150.000000	59.090556
1151.000000	59.132469
1152.000000	59.163451
1153.000000	59.158598
1154.000000	59.097714
1155.000000	58.982221
1156.000000	58.775595
1157.000000	58.507352
1158.000000	58.162429
1159.000000	57.772534
1160.000000	57.370037
1161.000000	56.919701
1162.000000	56.474056
1163.000000	56.015433
1164.000000	55.522523
1165.000000	55.062851
1166.000000	54.562405
1167.000000	54.084860
1168.000000	53.615998
1169.000000	53.153572
1170.000000	52.696256
1171.000000	52.239273
1172.000000	51.777837
1173.000000	51.340868
1174.000000	50.914224
1175.000000	50.530264
1176.000000	50.114896
1177.000000	49.711083
1178.000000	49.256379
1179.000000	48.709835
1180.000000	48.106915
1181.000000	47.442685
1182.000000	46.766204
1183.000000	46.135021
1184.000000	45.622586
1185.000000	45.253535
1186.000000	45.068574
1187.000000	45.044664
1188.000000	45.170262
1189.000000	45.493997
1190.000000	45.948960
1191.000000	46.485567
1192.000000	47.101276
1193.000000	47.692344
1194.000000	48.232073
1195.000000	48.690454
1196.000000	49.064266
1197.000000	49.340271
1198.000000	49.570926
1199.000000	49.729442
1200.000000	49.855538
1201.000000	49.927565
1202.000000	49.975273
1203.000000	50.013777
1204.000000	50.044344
1205.000000	50.082939
1206.000000	50.128790
1207.000000	50.185020
1208.000000	50.277444
1209.000000	50.380950
1210.000000	50.522222
1211.000000	50.649329
1212.000000	50.800519
1213.000000	50.945320
1214.000000	51.107129
1215.000000	51.279718
1216.000000	51.447764
1217.000000	51.618062
1218.000000	51.818409
1219.000000	52.017666
1220.000000	52.232887
1221.000000	52.447523
1222.000000	52.687318
1223.000000	52.926406
1224.000000	53.167774
1225.000000	53.420118
1226.000000	53.671844
1227.000000	53.923521
1228.000000	54.175312
1229.000000	54.419051
1230.000000	54.678885
1231.000000	54.916425
1232.000000	55.158445
1233.000000	55.415195
1234.000000	55.655191
1235.000000	55.880678
1236.000000	56.112578
1237.000000	56.336509
1238.000000	56.549545
1239.000000	56.771014
1240.000000	56.969637
1241.000000	57.181733
1242.000000	57.387832
1243.000000	57.570310
1244.000000	57.756786
1245.000000	57.947924
1246.000000	58.100714
1247.000000	58.260755
1248.000000	58.421113
1249.000000	58.552805
1250.000000	58.677094
1251.000000	58.794330
1252.000000	58.911647
1253.000000	59.002094
1254.000000	59.094580
1255.000000	59.184735
1256.000000	59.273588
1257.000000	59.334994
1258.000000	59.398067
1259.000000	59.470066
1260.000000	59.523174
1261.000000	59.548927
1262.000000	59.605480
1263.000000	59.661891
1264.000000	59.729654
1265.000000	59.788629
1266.000000	59.849893
1267.000000	59.919226
1268.000000	59.983064
1269.000000	60.031804
1270.000000	60.094112
1271.000000	60.145957
1272.000000	60.202325
1273.000000	60.263783
1274.000000	60.324040
1275.000000	60.393736
1276.000000	60.460858
1277.000000	60.532690
1278.000000	60.615152
1279.000000	60.697076
1280.000000	60.790553
1281.000000	60.897164
1282.000000	60.997793
1283.000000	61.099309
1284.000000	61.208069
1285.000000	61.306757
1286.000000	61.399959
1287.000000	61.493082
1288.000000	61.585565
1289.000000	61.670675
1290.000000	61.736546
1291.000000	61.796898
1292.000000	61.852236
1293.000000	61.899450
1294.000000	61.938295
1295.000000	61.962944
1296.000000	61.985410
1297.000000	62.012870
1298.000000	62.041414
1299.000000	62.065311
1300.000000	62.075316
1301.000000	62.086869
1302.000000	62.102468
1303.000000	62.113524
1304.000000	62.113770
1305.000000	62.115903
1306.000000	62.108297
1307.000000	62.076182
1308.000000	62.043005
1309.000000	62.006934
1310.000000	61.960607
1311.000000	61.906986
1312.000000	61.847774
1313.000000	61.775757
1314.000000	61.701112
1315.000000	61.619934
1316.000000	61.538442
1317.000000	61.452714
1318.000000	61.356520
1319.000000	61.258399
1320.000000	61.158682
1321.000000	61.049076
1322.000000	60.936194
1323.000000	60.816104
1324.000000	60.682984
1325.000000	60.543577
1326.000000	60.404688
1327.000000	60.255064
1328.000000	60.097650
1329.000000	59.927905
1330.000000	59.751962
1331.000000	59.555345
1332.000000	59.354165
1333.000000	59.134319
1334.000000	58.897586
1335.000000	58.655852
1336.000000	58.403164
1337.000000	58.121471
1338.000000	57.841697
1339.000000	57.550137
1340.000000	57.230022
1341.000000	56.881273
1342.000000	56.523149
1343.000000	56.153001
1344.000000	55.771923
1345.000000	55.351112
1346.000000	54.882336
1347.000000	54.428548
1348.000000	53.930118
1349.000000	53.372643
1350.000000	52.776795
1351.000000	52.116740
1352.000000	51.387826
1353.000000	50.619899
1354.000000	49.908430
1355.000000	49.222346
1356.000000	48.597019
1357.000000	48.150567
1358.000000	47.867080
1359.000000	47.688508
1360.000000	47.588775
1361.000000	47.555343
1362.000000	47.454505
1363.000000	47.248105
1364.000000	47.037024
1365.000000	46.827436
1366.000000	46.560852
1367.000000	46.306938
1368.000000	46.018936
1369.000000	45.635408
1370.000000	45.235125
1371.000000	44.840643
1372.000000	44.373115
1373.000000	43.906116
1374.000000	43.491596
1375.000000	43.131740
1376.000000	42.871662
1377.000000	42.694735
1378.000000	42.578909
1379.000000	42.521510
1380.000000	42.425809
1381.000000	42.350366
1382.000000	42.162663
1383.000000	41.841863
1384.000000	41.445421
1385.000000	41.004613
1386.000000	40.541330
1387.000000	40.156048
1388.000000	39.849655
1389.000000	39.531785
1390.000000	39.236449
1391.000000	39.039560
1392.000000	38.868374
1393.000000	38.682940
1394.000000	38.536201
1395.000000	38.450197
1396.000000	38.300332
1397.000000	38.045246
1398.000000	37.770731
1399.000000	37.555988
1400.000000	37.345001
1401.000000	36.979418
1402.000000	36.544433
1403.000000	36.116170
1404.000000	35.694443
1405.000000	35.286344
1406.000000	34.880576
1407.000000	34.450693
1408.000000	34.077147
1409.000000	33.685236
1410.000000	33.318229
1411.000000	32.971996
1412.000000	32.669998
1413.000000	32.433419
1414.000000	32.227144
1415.000000	32.001465
1416.000000	31.718459
1417.000000	31.461122
1418.000000	31.250602
1419.000000	31.031083
1420.000000	30.768620
1421.000000	30.502026
1422.000000	30.240916
1423.000000	29.972893
1424.000000	29.755512
1425.000000	29.497374
1426.000000	29.233033
1427.000000	28.991546
1428.000000	28.792437
1429.000000	28.581388
1430.000000	28.375946
1431.000000	28.221010
1432.000000	28.069601
1433.000000	27.922743
1434.000000	27.767982
1435.000000	27.608377
1436.000000	27.450856
1437.000000	27.318571
1438.000000	27.184513
1439.000000	27.048104
1440.000000	26.907148
1441.000000	26.757046
1442.000000	26.592186
1443.000000	26.436137
1444.000000	26.313528
1445.000000	26.171626
1446.000000	26.034316
1447.000000	25.882788
1448.000000	25.725040
1449.000000	25.566426
1450.000000	25.466824
1451.000000	25.360396
1452.000000	25.226962
1453.000000	25.079361
1454.000000	24.975187
1455.000000	24.853016
1456.000000	24.754961
1457.000000	24.638190
1458.000000	24.524669
1459.000000	24.431044
1460.000000	24.335993
1461.000000	24.246340
1462.000000	24.151645
1463.000000	24.066036
1464.000000	23.973665
1465.000000	23.902361
1466.000000	23.858600
1467.000000	23.799621
1468.000000	23.738034
1469.000000	23.680631
1470.000000	23.628846
1471.000000	23.586631
1472.000000	23.540069
1473.000000	23.499079
1474.000000	23.416218
1475.000000	23.359837
1476.000000	23.297999
1477.000000	23.266962
1478.000000	23.215778
1479.000000	23.159869
1480.000000	23.112528
1481.000000	23.090225
1482.000000	23.040051
1483.000000	23.004377
1484.000000	22.974959
1485.000000	22.951318
1486.000000	22.921428
1487.000000	22.903129
1488.000000	22.877722
1489.000000	22.850044
1490.000000	22.818935
1491.000000	22.801095
1492.000000	22.786441
1493.000000	22.766739
1494.000000	22.764540
1495.000000	22.750319
1496.000000	22.731356
1497.000000	22.735004
1498.000000	22.733463
1499.000000	22.724706
1500.000000	22.727719
1501.000000	22.736557
1502.000000	22.746290
1503.000000	22.761286
1504.000000	22.768731
1505.000000	22.790484
1506.000000	22.810096
1507.000000	22.814871
1508.000000	22.839765
1509.000000	22.858310
1510.000000	22.880061
1511.000000	22.893991
1512.000000	22.907662
1513.000000	22.924663
1514.000000	22.945267
1515.000000	22.957112
1516.000000	22.967435
1517.000000	22.990082
1518.000000	23.006578
1519.000000	23.020274
1520.000000	23.033320
1521.000000	23.045655
1522.000000	23.054189
1523.000000	23.071834
1524.000000	23.084755
1525.000000	23.092733
1526.000000	23.091631
1527.000000	23.102309
1528.000000	23.105113
1529.000000	23.110465
1530.000000	23.122941
1531.000000	23.126656
1532.000000	23.120246
1533.000000	23.113094
1534.000000	23.112802
1535.000000	23.108152
1536.000000	23.095181
1537.000000	23.085458
1538.000000	23.074540
1539.000000	23.067536
1540.000000	23.057580
1541.000000	23.036076
1542.000000	23.020855
1543.000000	23.011108
1544.000000	23.002693
1545.000000	22.993186
1546.000000	22.982436
1547.000000	22.977008
1548.000000	22.973837
1549.000000	22.965505
1550.000000	22.956386
1551.000000	22.956258
1552.000000	22.965771
1553.000000	22.960985
1554.000000	22.944987
1555.000000	22.925559
1556.000000	22.905597
1557.000000	22.890158
1558.000000	22.871962
1559.000000	22.852656
1560.000000	22.827273
1561.000000	22.787102
1562.000000	22.748822
1563.000000	22.714598
1564.000000	22.678252
1565.000000	22.638205
1566.000000	22.601017
1567.000000	22.569085
1568.000000	22.524643
1569.000000	22.481968
1570.000000	22.452943
1571.000000	22.424938
1572.000000	22.398401
1573.000000	22.370454
1574.000000	22.342107
1575.000000	22.322070
1576.000000	22.308189
1577.000000	22.305061
1578.000000	22.295595
1579.000000	22.283349
1580.000000	22.287033
1581.000000	22.291714
1582.000000	22.297142
1583.000000	22.307183
1584.000000	22.331983
1585.000000	22.355233
1586.000000	22.380248
1587.000000	22.404092
1588.000000	22.429182
1589.000000	22.463948
1590.000000	22.497789
1591.000000	22.536493
1592.000000	22.579325
1593.000000	22.618892
1594.000000	22.663239
1595.000000	22.710105
1596.000000	22.760531
1597.000000	22.809019
1598.000000	22.872750
1599.000000	22.928379
1600.000000	22.990301
1601.000000	23.050623
1602.000000	23.113346
1603.000000	23.177651
1604.000000	23.244599
1605.000000	23.319589
1606.000000	23.393515
1607.000000	23.468518
1608.000000	23.531671
1609.000000	23.587178
1610.000000	23.664080
1611.000000	23.735422
1612.000000	23.804720
1613.000000	23.874273
1614.000000	23.950114
1615.000000	24.017233
1616.000000	24.090106
1617.000000	24.172024
1618.000000	24.252696
1619.000000	24.320170
1620.000000	24.403404
1621.000000	24.483839
1622.000000	24.565833
1623.000000	24.647361
1624.000000	24.730599
1625.000000	24.809323
1626.000000	24.897543
1627.000000	24.982759
1628.000000	25.057787
1629.000000	25.150757
1630.000000	25.230221
1631.000000	25.311576
1632.000000	25.386260
1633.000000	25.464546
1634.000000	25.532140
1635.000000	25.602697
1636.000000	25.667907
1637.000000	25.745634
1638.000000	25.808092
1639.000000	25.871993
1640.000000	25.931248
1641.000000	25.995945
1642.000000	26.048213
1643.000000	26.099880
1644.000000	26.154904
1645.000000	26.200315
1646.000000	26.248643
1647.000000	26.295012
1648.000000	26.346415
1649.000000	26.380326
1650.000000	26.390988
1651.000000	26.428768
1652.000000	26.441173
1653.000000	26.451901
1654.000000	26.465382
1655.000000	26.449482
1656.000000	26.443394
1657.000000	26.425897
1658.000000	26.392751
1659.000000	26.354559
1660.000000	26.298108
1661.000000	26.233919
1662.000000	26.180209
1663.000000	26.102816
1664.000000	26.012556
1665.000000	25.922627
1666.000000	25.812440
1667.000000	25.683871
1668.000000	25.533669
1669.000000	25.372208
1670.000000	25.177277
1671.000000	24.956637
1672.000000	24.742584
1673.000000	24.462843
1674.000000	24.142653
1675.000000	23.771908
1676.000000	23.367090
1677.000000	22.894608
1678.000000	22.364137
1679.000000	21.818604
1680.000000	21.261052
1681.000000	20.731632
1682.000000	20.237768
1683.000000	19.887824
1684.000000	19.674108
1685.000000	19.549607
1686.000000	19.522262
1687.000000	19.505734
1688.000000	19.494170
1689.000000	19.449825
1690.000000	19.348179
1691.000000	19.213591
1692.000000	19.058928
1693.000000	18.930374
1694.000000	18.811420
1695.000000	18.736814
1696.000000	18.743111
1697.000000	18.789112
1698.000000	18.875398
1699.000000	19.010329
1700.000000	19.150644
1701.000000	19.298856
1702.000000	19.423213
1703.000000	19.533023
1704.000000	19.623422
1705.000000	19.681808
1706.000000	19.733017
1707.000000	19.764665
1708.000000	19.794604
1709.000000	19.835418
1710.000000	19.823849
1711.000000	19.820009
1712.000000	19.803342
1713.000000	19.763285
1714.000000	19.713863
1715.000000	19.667829
1716.000000	19.608985
1717.000000	19.561900
1718.000000	19.523059
1719.000000	19.504418
1720.000000	19.485833
1721.000000	19.475554
1722.000000	19.472013
1723.000000	19.490774
1724.000000	19.449687
1725.000000	19.419015
1726.000000	19.376334
1727.000000	19.290486
1728.000000	19.208921
1729.000000	19.103110
1730.000000	19.005573
1731.000000	18.903678
1732.000000	18.833126
1733.000000	18.780509
1734.000000	18.783429
1735.000000	18.815365
1736.000000	18.885249
1737.000000	19.007559
1738.000000	19.168045
1739.000000	19.360199
1740.000000	19.588147
1741.000000	19.807244
1742.000000	20.041595
1743.000000	20.256012
1744.000000	20.460233
1745.000000	20.621595
1746.000000	20.772247
1747.000000	20.906225
1748.000000	21.017426
1749.000000	21.100060
1750.000000	21.167835
1751.000000	21.216489
1752.000000	21.262847
1753.000000	21.296096
1754.000000	21.315270
1755.000000	21.291370
1756.000000	21.257888
1757.000000	21.226629
1758.000000	21.183524
1759.000000	21.121171
1760.000000	21.041187
1761.000000	20.975944
1762.000000	20.933391
1763.000000	20.910668
1764.000000	20.914427
1765.000000	20.957627
1766.000000	21.019710
1767.000000	21.101965
1768.000000	21.192543
1769.000000	21.319951
1770.000000	21.436681
1771.000000	21.573111
1772.000000	21.703599
1773.000000	21.840266
1774.000000	21.975871
1775.000000	22.099959
1776.000000	22.226040
1777.000000	22.335627
1778.000000	22.433889
1779.000000	22.536107
1780.000000	22.619683
1781.000000	22.699893
1782.000000	22.771280
1783.000000	22.855158
1784.000000	22.934487
1785.000000	23.027769
1786.000000	23.095738
1787.000000	23.171977
1788.000000	23.241824
1789.000000	23.312999
1790.000000	23.365181
1791.000000	23.420346
1792.000000	23.471852
1793.000000	23.533175
1794.000000	23.580336
1795.000000	23.632224
1796.000000	23.671056
1797.000000	23.705792
1798.000000	23.754048
1799.000000	23.793822
1800.000000	23.840154
1801.000000	23.895383
1802.000000	23.949768
1803.000000	23.989380
1804.000000	24.027664
1805.000000	24.067486
1806.000000	24.123833
1807.000000	24.182275
1808.000000	24.218293
1809.000000	24.243551
1810.000000	24.270407
1811.000000	24.323828
1812.000000	24.363211
1813.000000	24.377095
1814.000000	24.390372
1815.000000	24.401912
1816.000000	24.404180
1817.000000	24.397277
1818.000000	24.398393
1819.000000	24.412223
1820.000000	24.451345
1821.000000	24.508965
1822.000000	24.551292
1823.000000	24.559413
1824.000000	24.562423
1825.000000	24.592996
1826.000000	24.658005
1827.000000	24.737928
1828.000000	24.827269
1829.000000	24.932112
1830.000000	25.030853
1831.000000	25.123314
1832.000000	25.198608
1833.000000	25.255969
1834.000000	25.335923
1835.000000	25.433598
1836.000000	25.527292
1837.000000	25.613546
1838.000000	25.684533
1839.000000	25.744993
1840.000000	25.812664
1841.000000	25.894347
1842.000000	25.975442
1843.000000	25.998266
1844.000000	25.994279
1845.000000	26.016272
1846.000000	26.075365
1847.000000	26.191640
1848.000000	26.329135
1849.000000	26.463835
1850.000000	26.550266
1851.000000	26.582510
1852.000000	26.623519
1853.000000	26.708642
1854.000000	26.804467
1855.000000	26.873760
1856.000000	26.932091
1857.000000	26.980921
1858.000000	27.008276
1859.000000	27.043461
1860.000000	27.093074
1861.000000	27.101697
1862.000000	27.085113
1863.000000	27.050438
1864.000000	27.004283
1865.000000	26.952337
1866.000000	26.890865
1867.000000	26.828394
1868.000000	26.740560
1869.000000	26.611804
1870.000000	26.472255
1871.000000	26.321083
1872.000000	26.131656
1873.000000	25.913159
1874.000000	25.666635
1875.000000	25.390744
1876.000000	25.089136
1877.000000	24.766041
1878.000000	24.419490
1879.000000	24.025650
1880.000000	23.626612
1881.000000	23.208326
1882.000000	22.781649
1883.000000	22.369113
1884.000000	21.971836
1885.000000	21.579842
1886.000000	21.223347
1887.000000	20.912280
1888.000000	20.622042
1889.000000	20.355011
1890.000000	20.119703
1891.000000	19.881210
1892.000000	19.637896
1893.000000	19.382534
1894.000000	19.155022
1895.000000	18.925572
1896.000000	18.697759
1897.000000	18.464585
1898.000000	18.210994
1899.000000	17.991640
1900.000000	17.767339
1901.000000	17.528091
1902.000000	17.301702
1903.000000	17.080944
1904.000000	16.869341
1905.000000	16.635632
1906.000000	16.434726
1907.000000	16.227542
1908.000000	16.024771
1909.000000	15.834553
1910.000000	15.642582
1911.000000	15.464246
1912.000000	15.284263
1913.000000	15.105553
1914.000000	14.936449
1915.000000	14.758280
1916.000000	14.595221
1917.000000	14.462169
1918.000000	14.305351
1919.000000	14.163553
1920.000000	14.033094
1921.000000	13.912516
1922.000000	13.770805
1923.000000	13.661399
1924.000000	13.563792
1925.000000	13.465669
1926.000000	13.362908
1927.000000	13.268109
1928.000000	13.188904
1929.000000	13.115388
1930.000000	13.044875
1931.000000	12.984729
1932.000000	12.933503
1933.000000	12.855458
1934.000000	12.827220
1935.000000	12.799616
1936.000000	12.738885
1937.000000	12.722583
1938.000000	12.706881
1939.000000	12.692237
1940.000000	12.682546
1941.000000	12.665845
1942.000000	12.664515
1943.000000	12.666270
1944.000000	12.672539
1945.000000	12.674027
1946.000000	12.695951
1947.000000	12.713786
1948.000000	12.726842
1949.000000	12.757762
1950.000000	12.779271
1951.000000	12.821407
1952.000000	12.841469
1953.000000	12.857908
1954.000000	12.863573
1955.000000	12.912606
1956.000000	12.946360
1957.000000	12.980887
1958.000000	13.023233
1959.000000	13.068161
1960.000000	13.095118
1961.000000	13.140024
1962.000000	13.184386
1963.000000	13.232986
1964.000000	13.269124
1965.000000	13.297116
1966.000000	13.346232
1967.000000	13.389659
1968.000000	13.432908
1969.000000	13.474590
1970.000000	13.512159
1971.000000	13.545794
1972.000000	13.595081
1973.000000	13.640001
1974.000000	13.699694
1975.000000	13.730156
1976.000000	13.780211
1977.000000	13.843563
1978.000000	13.885801
1979.000000	13.941967
1980.000000	13.985707
1981.000000	14.050707
1982.000000	14.091771
1983.000000	14.140964
1984.000000	14.194160
1985.000000	14.241447
1986.000000	14.272565
1987.000000	14.341971
1988.000000	14.384946
1989.000000	14.423051
1990.000000	14.479262
1991.000000	14.502372
1992.000000	14.544833
1993.000000	14.579491
1994.000000	14.624532
1995.000000	14.655396
1996.000000	14.684346
1997.000000	14.717271
1998.000000	14.721940
1999.000000	14.748202
2000.000000	14.772191
2001.000000	14.780247
2002.000000	14.796057
2003.000000	14.797482
2004.000000	14.807539
2005.000000	14.811975
2006.000000	14.814824
2007.000000	14.807218
2008.000000	14.810046
2009.000000	14.801314
2010.000000	14.769081
2011.000000	14.760912
2012.000000	14.726882
2013.000000	14.703073
2014.000000	14.684394
2015.000000	14.644646
2016.000000	14.624358
2017.000000	14.577276
2018.000000	14.540139
2019.000000	14.501865
2020.000000	14.456693
2021.000000	14.402126
2022.000000	14.348288
2023.000000	14.294767
2024.000000	14.251893
2025.000000	14.199108
2026.000000	14.126696
2027.000000	14.071585
2028.000000	14.011316
2029.000000	13.939834
2030.000000	13.877600
2031.000000	13.802678
2032.000000	13.750660
2033.000000	13.667783
2034.000000	13.577298
2035.000000	13.503905
2036.000000	13.410955
2037.000000	13.336030
2038.000000	13.238344
2039.000000	13.151043
2040.000000	13.043216
2041.000000	12.940364
2042.000000	12.850539
2043.000000	12.748892
2044.000000	12.654060
2045.000000	12.559886
2046.000000	12.465903
2047.000000	12.372696
2048.000000	12.295692
2049.000000	12.211176
2050.000000	12.137164
2051.000000	12.073716
2052.000000	12.012053
2053.000000	11.959945
2054.000000	11.915612
2055.000000	11.888007
2056.000000	11.851187
2057.000000	11.821867
2058.000000	11.813416
2059.000000	11.793831
2060.000000	11.783502
2061.000000	11.777762
2062.000000	11.787092
2063.000000	11.790000
2064.000000	11.782855
2065.000000	11.789228
2066.000000	11.797902
2067.000000	11.819853
2068.000000	11.824240
2069.000000	11.830651
2070.000000	11.830007
2071.000000	11.832550
2072.000000	11.851945
2073.000000	11.857995
2074.000000	11.863096
2075.000000	11.867640
2076.000000	11.871340
2077.000000	11.874362
2078.000000	11.887950
2079.000000	11.893390
2080.000000	11.897542
2081.000000	11.897159
2082.000000	11.891777
2083.000000	11.899828
2084.000000	11.906683
2085.000000	11.905905
2086.000000	11.902370
2087.000000	11.898814
2088.000000	11.892819
2089.000000	11.889207
2090.000000	11.877285
2091.000000	11.872082
2092.000000	11.873974
2093.000000	11.876821
2094.000000	11.880848
2095.000000	11.879927
2096.000000	11.866226
2097.000000	11.867266
2098.000000	11.883828
2099.000000	11.883386
2100.000000	11.876274
2101.000000	11.885484
2102.000000	11.895862
2103.000000	11.902797
2104.000000	11.910575
2105.000000	11.908841
2106.000000	11.913522
2107.000000	11.921916
2108.000000	11.924759
2109.000000	11.935535
2110.000000	11.947226
2111.000000	11.954578
2112.000000	11.954924
2113.000000	11.962182
2114.000000	11.977576
2115.000000	11.982364
2116.000000	11.995885
2117.000000	12.000890
2118.000000	12.000246
2119.000000	12.001919
2120.000000	11.998049
2121.000000	11.996349
2122.000000	11.985042
2123.000000	11.991440
2124.000000	11.995483
2125.000000	11.984765
2126.000000	11.977488
2127.000000	11.969241
2128.000000	11.969547
2129.000000	11.956591
2130.000000	11.943391
2131.000000	11.943901
2132.000000	11.926263
2133.000000	11.892410
2134.000000	11.874296
2135.000000	11.861216
2136.000000	11.853244
2137.000000	11.826146
2138.000000	11.796792
2139.000000	11.776908
2140.000000	11.762353
2141.000000	11.748835
2142.000000	11.731955
2143.000000	11.701688
2144.000000	11.681622
2145.000000	11.659393
2146.000000	11.628044
2147.000000	11.597779
2148.000000	11.570741
2149.000000	11.549959
2150.000000	11.517467
2151.000000	11.479059
2152.000000	11.449175
2153.000000	11.434056
2154.000000	11.414662
2155.000000	11.385304
2156.000000	11.349603
2157.000000	11.330430
2158.000000	11.315424
2159.000000	11.289700
2160.000000	11.277807
2161.000000	11.260486
2162.000000	11.233430
2163.000000	11.217324
2164.000000	11.226664
2165.000000	11.222710
2166.000000	11.190189
2167.000000	11.181925
2168.000000	11.183594
2169.000000	11.181602
2170.000000	11.169904
2171.000000	11.158004
2172.000000	11.149455
2173.000000	11.161657
2174.000000	11.155841
2175.000000	11.154079
2176.000000	11.156673
2177.000000	11.165416
2178.000000	11.169208
2179.000000	11.178364
2180.000000	11.184754
2181.000000	11.197424
2182.000000	11.201641
2183.000000	11.215881
2184.000000	11.223630
2185.000000	11.232227
2186.000000	11.256057
2187.000000	11.271045
2188.000000	11.272694
2189.000000	11.280294
2190.000000	11.293788
2191.000000	11.293123
2192.000000	11.296554
2193.000000	11.302545
2194.000000	11.315490
2195.000000	11.316028
2196.000000	11.317567
2197.000000	11.331587
2198.000000	11.331986
2199.000000	11.332860
2200.000000	11.345264
2201.000000	11.339162
2202.000000	11.359957
2203.000000	11.360479
2204.000000	11.365869
2205.000000	11.368019
2206.000000	11.385011
2207.000000	11.394420
2208.000000	11.383812
2209.000000	11.410577
2210.000000	11.418540
2211.000000	11.443358
2212.000000	11.448424
2213.000000	11.477490
2214.000000	11.478275
2215.000000	11.495680
2216.000000	11.512826
2217.000000	11.538917
2218.000000	11.558205
2219.000000	11.554827
2220.000000	11.576659
2221.000000	11.577434
2222.000000	11.577941
2223.000000	11.584405
2224.000000	11.582602
2225.000000	11.586737
2226.000000	11.594787
2227.000000	11.596096
2228.000000	11.577874
2229.000000	11.562324
2230.000000	11.531574
2231.000000	11.513002
2232.000000	11.474156
2233.000000	11.440233
2234.000000	11.391598
2235.000000	11.346756
2236.000000	11.297106
2237.000000	11.232898
2238.000000	11.166791
2239.000000	11.119687
2240.000000	11.041026
2241.000000	10.963436
2242.000000	10.867712
2243.000000	10.797881
2244.000000	10.707894
2245.000000	10.616276
2246.000000	10.499950
2247.000000	10.389879
2248.000000	10.278968
2249.000000	10.160771
2250.000000	10.035589
2251.000000	9.899530
2252.000000	9.775392
2253.000000	9.611613
2254.000000	9.482447
2255.000000	9.324376
2256.000000	9.175905
2257.000000	9.027076
2258.000000	8.886619
2259.000000	8.730574
2260.000000	8.607522
2261.000000	8.478088
2262.000000	8.360173
2263.000000	8.249546
2264.000000	8.160932
2265.000000	8.064014
2266.000000	8.001224
2267.000000	7.938409
2268.000000	7.885477
2269.000000	7.853061
2270.000000	7.820857
2271.000000	7.797963
2272.000000	7.775027
2273.000000	7.771665
2274.000000	7.772374
2275.000000	7.775733
2276.000000	7.790199
2277.000000	7.793072
2278.000000	7.808969
2279.000000	7.822798
2280.000000	7.840761
2281.000000	7.870680
2282.000000	7.873177
2283.000000	7.901432
2284.000000	7.905448
2285.000000	7.922128
2286.000000	7.929219
2287.000000	7.925444
2288.000000	7.928837
2289.000000	7.914626
2290.000000	7.906276
2291.000000	7.879202
2292.000000	7.865450
2293.000000	7.835963
2294.000000	7.804943
2295.000000	7.763775
2296.000000	7.710609
2297.000000	7.653280
2298.000000	7.603737
2299.000000	7.560161
2300.000000	7.517866
2301.000000	7.461963
2302.000000	7.414055
2303.000000	7.367585
2304.000000	7.348610
2305.000000	7.323729
2306.000000	7.308882
2307.000000	7.310172
2308.000000	7.310649
2309.000000	7.323461
2310.000000	7.348065
2311.000000	7.372208
2312.000000	7.404067
2313.000000	7.449611
2314.000000	7.489145
2315.000000	7.541899
2316.000000	7.590511
2317.000000	7.649052
2318.000000	7.688393
2319.000000	7.740727
2320.000000	7.796713
2321.000000	7.843764
2322.000000	7.878389
2323.000000	7.923130
2324.000000	7.969868
2325.000000	8.001548
2326.000000	8.038722
2327.000000	8.075290
2328.000000	8.101820
2329.000000	8.125534
2330.000000	8.141239
2331.000000	8.149532
2332.000000	8.178915
2333.000000	8.205057
2334.000000	8.214504
2335.000000	8.220636
2336.000000	8.223365
2337.000000	8.225418
2338.000000	8.221390
2339.000000	8.218930
2340.000000	8.216736
2341.000000	8.196309
2342.000000	8.172402
2343.000000	8.161750
2344.000000	8.136661
2345.000000	8.107033
2346.000000	8.085442
2347.000000	8.066567
2348.000000	8.038079
2349.000000	8.016268
2350.000000	8.008210
2351.000000	8.004235
2352.000000	7.994167
2353.000000	7.996263
2354.000000	7.999923
2355.000000	8.011578
2356.000000	8.029241
2357.000000	8.044580
2358.000000	8.082392
2359.000000	8.116728
2360.000000	8.134649
2361.000000	8.170256
2362.000000	8.217308
2363.000000	8.252696
2364.000000	8.278045
2365.000000	8.313423
2366.000000	8.350465
2367.000000	8.382667
2368.000000	8.411474
2369.000000	8.440561
2370.000000	8.470190
2371.000000	8.499552
2372.000000	8.506850
2373.000000	8.513096
2374.000000	8.540093
2375.000000	8.564317
2376.000000	8.572692
2377.000000	8.588237
2378.000000	8.605909
2379.000000	8.615620
2380.000000	8.610885
2381.000000	8.627332
2382.000000	8.640737
2383.000000	8.642261
2384.000000	8.654648
2385.000000	8.662589
2386.000000	8.670650
2387.000000	8.668749
2388.000000	8.669634
2389.000000	8.660452
2390.000000	8.649886
2391.000000	8.656861
2392.000000	8.654816
2393.000000	8.641930
2394.000000	8.642923
2395.000000	8.638230
2396.000000	8.616582
2397.000000	8.597022
2398.000000	8.589997
2399.000000	8.579258
2400.000000	8.585719
2401.000000	8.569667
2402.000000	8.552136
2403.000000	8.550861
2404.000000	8.532941
2405.000000	8.516509
2406.000000	8.525173
2407.000000	8.540771
2408.000000	8.529958
2409.000000	8.513294
2410.000000	8.509311
2411.000000	8.510606
2412.000000	8.515596
2413.000000	8.508003
2414.000000	8.486559
2415.000000	8.482153
2416.000000	8.483884
2417.000000	8.478467
2418.000000	8.465695
2419.000000	8.452287
2420.000000	8.435637
2421.000000	8.432552
2422.000000	8.449519
2423.000000	8.467174
2424.000000	8.464314
2425.000000	8.443634
2426.000000	8.421909
2427.000000	8.396236
2428.000000	8.374399
2429.000000	8.351103
2430.000000	8.314741
2431.000000	8.277547
2432.000000	8.250749
2433.000000	8.221452
2434.000000	8.188829
2435.000000	8.149531
2436.000000	8.137489
2437.000000	8.092866
2438.000000	8.049366
2439.000000	8.011155
2440.000000	7.969134
2441.000000	7.932946
2442.000000	7.879665
2443.000000	7.841940
2444.000000	7.802496
2445.000000	7.744403
2446.000000	7.724210
2447.000000	7.676074
2448.000000	7.616370
2449.000000	7.575330
2450.000000	7.537115
2451.000000	7.491903
2452.000000	7.454047
2453.000000	7.419453
2454.000000	7.377313
2455.000000	7.339567
2456.000000	7.320723
2457.000000	7.275196
2458.000000	7.232083
2459.000000	7.186518
2460.000000	7.177137
2461.000000	7.170191
2462.000000	7.114619
2463.000000	7.086221
2464.000000	7.087027
2465.000000	7.089216
2466.000000	7.039246
2467.000000	7.037337
2468.000000	7.028780
2469.000000	7.018164
2470.000000	6.983615
2471.000000	7.004668
2472.000000	7.025919
2473.000000	7.009376
2474.000000	6.983987
2475.000000	6.960172
2476.000000	7.027167
2477.000000	7.003036
2478.000000	7.009451
2479.000000	7.002953
2480.000000	6.979704
2481.000000	7.012359
2482.000000	7.025120
2483.000000	7.030862
2484.000000	7.013824
2485.000000	7.070632
2486.000000	6.996399
2487.000000	7.006847
2488.000000	7.048994
2489.000000	7.060554
2490.000000	7.064477
2491.000000	7.119354
2492.000000	7.095687
2493.000000	7.161021
2494.000000	7.107509
2495.000000	7.267715
2496.000000	7.179832
2497.000000	7.211851
2498.000000	7.251719
2499.000000	7.325540
2500.000000	7.304678
