PE UV       SUBTECH     SPECTRUM    ASCII       PEDS        4.00        
   -1
CICIMAUCR0001-5.Sample.ASC
24/04/23
10:47:46.00
24/04/23
10:47:46.00
Vinicio Soto Monge
C. kalinini
250,000000
1
Lambda 1050
1050L1511233
PerkinElmer UV WinLab 6.3.2.0749 / 2.02.05 Lambda 900 UV/VIS/NIR, Aug  7 2015 09:38:08

0
0
3350/servo 860,8/2
0
0
UV/VIS
1
1
1
DoubleDePol,CommonBeamDepol,RBeamAtt,SBeamAtt,60mm sphere, WB InGaAs Detector
0
0
0
0
Program
Program
3350/servo 860,8/2
3350/0,2 860,8/0,2
3350/0,2 860,8/0,2
0
15.00
 
 
 
0
 
860,8
319,2
860,8
Front
100
on
S:100 R:100
0
0
0
0
 
0
 
 
 
0
 
 
0
0
0
0
0
 
 
 
 
0
0


0
0
#HDR
-1
-1
#GR
nm
%R
1.0
0.0
2500,000000
-1,000000
2251
8
101,472100
5,465400
#DATA
250.000000	5.702700
251.000000	5.706900
252.000000	5.700400
253.000000	5.654850
254.000000	5.641550
255.000000	5.646625
256.000000	5.628450
257.000000	5.605825
258.000000	5.592475
259.000000	5.580350
260.000000	5.544200
261.000000	5.529025
262.000000	5.499250
263.000000	5.483450
264.000000	5.446925
265.000000	5.423225
266.000000	5.417375
267.000000	5.382275
268.000000	5.397950
269.000000	5.369925
270.000000	5.328125
271.000000	5.313975
272.000000	5.334325
273.000000	5.292100
274.000000	5.296750
275.000000	5.283000
276.000000	5.249725
277.000000	5.256250
278.000000	5.258650
279.000000	5.256750
280.000000	5.256500
281.000000	5.246425
282.000000	5.228050
283.000000	5.227925
284.000000	5.203525
285.000000	5.229100
286.000000	5.198825
287.000000	5.204300
288.000000	5.214775
289.000000	5.225975
290.000000	5.220425
291.000000	5.216650
292.000000	5.216650
293.000000	5.202900
294.000000	5.195650
295.000000	5.209750
296.000000	5.219200
297.000000	5.231150
298.000000	5.242950
299.000000	5.194025
300.000000	5.198125
301.000000	5.197500
302.000000	5.191750
303.000000	5.177950
304.000000	5.175700
305.000000	5.183950
306.000000	5.187100
307.000000	5.167550
308.000000	5.186675
309.000000	5.167475
310.000000	5.188425
311.000000	5.190900
312.000000	5.163350
313.000000	5.162725
314.000000	5.168450
315.000000	5.143550
316.000000	5.293150
317.000000	5.446775
318.000000	5.375125
319.000000	5.336800
320.000000	5.401375
321.000000	5.413275
322.000000	5.420800
323.000000	5.367425
324.000000	5.385050
325.000000	5.446425
326.000000	5.385425
327.000000	5.361000
328.000000	5.364275
329.000000	5.366200
330.000000	5.355800
331.000000	5.321400
332.000000	5.352350
333.000000	5.365325
334.000000	5.280050
335.000000	5.297225
336.000000	5.307600
337.000000	5.327350
338.000000	5.349350
339.000000	5.338950
340.000000	5.306550
341.000000	5.281100
342.000000	5.354625
343.000000	5.357925
344.000000	5.370125
345.000000	5.368450
346.000000	5.320200
347.000000	5.316700
348.000000	5.358150
349.000000	5.384175
350.000000	5.416150
351.000000	5.432125
352.000000	5.480250
353.000000	5.485975
354.000000	5.499325
355.000000	5.494300
356.000000	5.513000
357.000000	5.560275
358.000000	5.588125
359.000000	5.605100
360.000000	5.619325
361.000000	5.671200
362.000000	5.685850
363.000000	5.728225
364.000000	5.739275
365.000000	5.745500
366.000000	5.746900
367.000000	5.797325
368.000000	5.834500
369.000000	5.803725
370.000000	5.817500
371.000000	5.881225
372.000000	5.868400
373.000000	5.818875
374.000000	5.875550
375.000000	6.005225
376.000000	6.088850
377.000000	6.147600
378.000000	6.170600
379.000000	6.199250
380.000000	6.225400
381.000000	6.257250
382.000000	6.285100
383.000000	6.327525
384.000000	6.365525
385.000000	6.398900
386.000000	6.435650
387.000000	6.469425
388.000000	6.511675
389.000000	6.550950
390.000000	6.583525
391.000000	6.626725
392.000000	6.669175
393.000000	6.711025
394.000000	6.755025
395.000000	6.794750
396.000000	6.845150
397.000000	6.893975
398.000000	6.940275
399.000000	6.999200
400.000000	7.064600
401.000000	7.129825
402.000000	7.190600
403.000000	7.267050
404.000000	7.345875
405.000000	7.433500
406.000000	7.529200
407.000000	7.631825
408.000000	7.742450
409.000000	7.853925
410.000000	7.977275
411.000000	8.111900
412.000000	8.260050
413.000000	8.406650
414.000000	8.563500
415.000000	8.740800
416.000000	8.929600
417.000000	9.129975
418.000000	9.338125
419.000000	9.556050
420.000000	9.794450
421.000000	10.045350
422.000000	10.304075
423.000000	10.580725
424.000000	10.864550
425.000000	11.168850
426.000000	11.488100
427.000000	11.818725
428.000000	12.164875
429.000000	12.524150
430.000000	12.897075
431.000000	13.274675
432.000000	13.673525
433.000000	14.084750
434.000000	14.496875
435.000000	14.920825
436.000000	15.354325
437.000000	15.791125
438.000000	16.214050
439.000000	16.656750
440.000000	17.104575
441.000000	17.555075
442.000000	18.013275
443.000000	18.454400
444.000000	18.892650
445.000000	19.316575
446.000000	19.742550
447.000000	20.154300
448.000000	20.565075
449.000000	20.968000
450.000000	21.350950
451.000000	21.732250
452.000000	22.102975
453.000000	22.459925
454.000000	22.810900
455.000000	23.156725
456.000000	23.493400
457.000000	23.805550
458.000000	24.115050
459.000000	24.400650
460.000000	24.692000
461.000000	24.986225
462.000000	25.269675
463.000000	25.529550
464.000000	25.796875
465.000000	26.050675
466.000000	26.303950
467.000000	26.545575
468.000000	26.782675
469.000000	27.030150
470.000000	27.265825
471.000000	27.508300
472.000000	27.751300
473.000000	27.994500
474.000000	28.226875
475.000000	28.464125
476.000000	28.704100
477.000000	28.951175
478.000000	29.190500
479.000000	29.444425
480.000000	29.707975
481.000000	29.984825
482.000000	30.271325
483.000000	30.516650
484.000000	30.753700
485.000000	31.002725
486.000000	31.239175
487.000000	31.479350
488.000000	31.726150
489.000000	31.986400
490.000000	32.240075
491.000000	32.515575
492.000000	32.810375
493.000000	33.119750
494.000000	33.440900
495.000000	33.769650
496.000000	34.102450
497.000000	34.441400
498.000000	34.815725
499.000000	35.206925
500.000000	35.591150
501.000000	36.022200
502.000000	36.461125
503.000000	36.909225
504.000000	37.391525
505.000000	37.854875
506.000000	38.339625
507.000000	38.841325
508.000000	39.367325
509.000000	39.918575
510.000000	40.470250
511.000000	41.049250
512.000000	41.666425
513.000000	42.306200
514.000000	42.979150
515.000000	43.654500
516.000000	44.358650
517.000000	45.074225
518.000000	45.833275
519.000000	46.611025
520.000000	47.402325
521.000000	48.211475
522.000000	49.048800
523.000000	49.901325
524.000000	50.752225
525.000000	51.608825
526.000000	52.474300
527.000000	53.326375
528.000000	54.176850
529.000000	55.023550
530.000000	55.848625
531.000000	56.672850
532.000000	57.456325
533.000000	58.227525
534.000000	58.968575
535.000000	59.687350
536.000000	60.347850
537.000000	60.989750
538.000000	61.570625
539.000000	62.126575
540.000000	62.656500
541.000000	63.153825
542.000000	63.609725
543.000000	64.053250
544.000000	64.450950
545.000000	64.841200
546.000000	65.199500
547.000000	65.507025
548.000000	65.803500
549.000000	66.074400
550.000000	66.332625
551.000000	66.570175
552.000000	66.778525
553.000000	66.994125
554.000000	67.189100
555.000000	67.366450
556.000000	67.530975
557.000000	67.653075
558.000000	67.775500
559.000000	67.901875
560.000000	67.975050
561.000000	68.071350
562.000000	68.151575
563.000000	68.195925
564.000000	68.243900
565.000000	68.291825
566.000000	68.316775
567.000000	68.327250
568.000000	68.295125
569.000000	68.256050
570.000000	68.216300
571.000000	68.142700
572.000000	68.049475
573.000000	67.925875
574.000000	67.813575
575.000000	67.692000
576.000000	67.560075
577.000000	67.383075
578.000000	67.191100
579.000000	66.973000
580.000000	66.747500
581.000000	66.501875
582.000000	66.193400
583.000000	65.906775
584.000000	65.580275
585.000000	65.245450
586.000000	64.877975
587.000000	64.474350
588.000000	64.051425
589.000000	63.612225
590.000000	63.146000
591.000000	62.653025
592.000000	62.155725
593.000000	61.649900
594.000000	61.133550
595.000000	60.607475
596.000000	60.079650
597.000000	59.567850
598.000000	59.036925
599.000000	58.511575
600.000000	58.001825
601.000000	57.501050
602.000000	57.014975
603.000000	56.543525
604.000000	56.088575
605.000000	55.680400
606.000000	55.301275
607.000000	54.933500
608.000000	54.610025
609.000000	54.325050
610.000000	54.046875
611.000000	53.809550
612.000000	53.595100
613.000000	53.441800
614.000000	53.312425
615.000000	53.207950
616.000000	53.102150
617.000000	53.038075
618.000000	52.989150
619.000000	52.969100
620.000000	52.975250
621.000000	53.002125
622.000000	53.051900
623.000000	53.121575
624.000000	53.214850
625.000000	53.366475
626.000000	53.528450
627.000000	53.720700
628.000000	53.935550
629.000000	54.147850
630.000000	54.394050
631.000000	54.643500
632.000000	54.922825
633.000000	55.200600
634.000000	55.481950
635.000000	55.740925
636.000000	55.999500
637.000000	56.219575
638.000000	56.442325
639.000000	56.623425
640.000000	56.828950
641.000000	56.983125
642.000000	57.084925
643.000000	57.182700
644.000000	57.263325
645.000000	57.331325
646.000000	57.399700
647.000000	57.460500
648.000000	57.535000
649.000000	57.639625
650.000000	57.740350
651.000000	57.861400
652.000000	58.021675
653.000000	58.196100
654.000000	58.415800
655.000000	58.668175
656.000000	58.935750
657.000000	59.218125
658.000000	59.513675
659.000000	59.838500
660.000000	60.210650
661.000000	60.551175
662.000000	60.912800
663.000000	61.271850
664.000000	61.634675
665.000000	62.005125
666.000000	62.365100
667.000000	62.727600
668.000000	63.109825
669.000000	63.460600
670.000000	63.866250
671.000000	64.252925
672.000000	64.659150
673.000000	65.064925
674.000000	65.488775
675.000000	65.903025
676.000000	66.345900
677.000000	66.819850
678.000000	67.308100
679.000000	67.797575
680.000000	68.244550
681.000000	68.747200
682.000000	69.271425
683.000000	69.760400
684.000000	70.248925
685.000000	70.746275
686.000000	71.208650
687.000000	71.651750
688.000000	72.077000
689.000000	72.499100
690.000000	72.947025
691.000000	73.370975
692.000000	73.774575
693.000000	74.173375
694.000000	74.546650
695.000000	74.908625
696.000000	75.293200
697.000000	75.695775
698.000000	76.087150
699.000000	76.508000
700.000000	76.922950
701.000000	77.339300
702.000000	77.794100
703.000000	78.254475
704.000000	78.702875
705.000000	79.172750
706.000000	79.650275
707.000000	80.141175
708.000000	80.617950
709.000000	81.105875
710.000000	81.566350
711.000000	82.006275
712.000000	82.453575
713.000000	82.889950
714.000000	83.271800
715.000000	83.661350
716.000000	84.055375
717.000000	84.389375
718.000000	84.710575
719.000000	85.047125
720.000000	85.388500
721.000000	85.704325
722.000000	85.974100
723.000000	86.272400
724.000000	86.557525
725.000000	86.807400
726.000000	87.078950
727.000000	87.304350
728.000000	87.588300
729.000000	87.878450
730.000000	88.071475
731.000000	88.318375
732.000000	88.556975
733.000000	88.806575
734.000000	89.006550
735.000000	89.241850
736.000000	89.424675
737.000000	89.593875
738.000000	89.759925
739.000000	89.991550
740.000000	90.127650
741.000000	90.268775
742.000000	90.440250
743.000000	90.577050
744.000000	90.683525
745.000000	90.824900
746.000000	90.877475
747.000000	91.005850
748.000000	91.126375
749.000000	91.245975
750.000000	91.272775
751.000000	91.356325
752.000000	91.471050
753.000000	91.507875
754.000000	91.605400
755.000000	91.698500
756.000000	91.727700
757.000000	91.849825
758.000000	91.841800
759.000000	91.940575
760.000000	91.950300
761.000000	91.977700
762.000000	91.997350
763.000000	91.987900
764.000000	92.029500
765.000000	92.041525
766.000000	91.988575
767.000000	91.956650
768.000000	91.957700
769.000000	91.873075
770.000000	91.765750
771.000000	91.745775
772.000000	91.667925
773.000000	91.603825
774.000000	91.529850
775.000000	91.354925
776.000000	91.278725
777.000000	91.179325
778.000000	90.997175
779.000000	90.928900
780.000000	90.772350
781.000000	90.622675
782.000000	90.470175
783.000000	90.274025
784.000000	90.092175
785.000000	89.958500
786.000000	89.857200
787.000000	89.649750
788.000000	89.540875
789.000000	89.299225
790.000000	89.050050
791.000000	88.857100
792.000000	88.713175
793.000000	88.422100
794.000000	88.142825
795.000000	87.871150
796.000000	87.714225
797.000000	87.437900
798.000000	87.186725
799.000000	86.884275
800.000000	86.520475
801.000000	86.298725
802.000000	85.953400
803.000000	85.508550
804.000000	85.273400
805.000000	84.974125
806.000000	84.673275
807.000000	84.375575
808.000000	84.038725
809.000000	83.767075
810.000000	83.349075
811.000000	83.007600
812.000000	82.616125
813.000000	82.341775
814.000000	82.049625
815.000000	81.591650
816.000000	81.229850
817.000000	80.962275
818.000000	80.675275
819.000000	80.224800
820.000000	79.802850
821.000000	79.432900
822.000000	79.047375
823.000000	78.669675
824.000000	78.371075
825.000000	77.924775
826.000000	77.628500
827.000000	77.308000
828.000000	76.827075
829.000000	76.578500
830.000000	76.225175
831.000000	75.897150
832.000000	75.455775
833.000000	75.145225
834.000000	74.843075
835.000000	74.538250
836.000000	74.282425
837.000000	74.040675
838.000000	73.782850
839.000000	73.457775
840.000000	73.249875
841.000000	72.998025
842.000000	72.758800
843.000000	72.680500
844.000000	72.285075
845.000000	72.088600
846.000000	71.983875
847.000000	71.675925
848.000000	71.533925
849.000000	71.288550
850.000000	71.367625
851.000000	71.111625
852.000000	70.878975
853.000000	70.750950
854.000000	70.620950
855.000000	70.409250
856.000000	70.315425
857.000000	70.205300
858.000000	70.309992
859.000000	71.045266
860.000000	71.359023
861.000000	71.745179
862.000000	71.639445
863.000000	71.603964
864.000000	71.542233
865.000000	71.732889
866.000000	72.044172
867.000000	72.111339
868.000000	71.883654
869.000000	72.068418
870.000000	72.116726
871.000000	72.099524
872.000000	72.017070
873.000000	71.966995
874.000000	71.994840
875.000000	71.975815
876.000000	72.075615
877.000000	71.918467
878.000000	71.797915
879.000000	71.726000
880.000000	71.755146
881.000000	71.716967
882.000000	71.643903
883.000000	71.520569
884.000000	71.454674
885.000000	71.495465
886.000000	71.355227
887.000000	71.178186
888.000000	71.070753
889.000000	71.069449
890.000000	70.951251
891.000000	70.781921
892.000000	70.747129
893.000000	70.740620
894.000000	70.790995
895.000000	70.737556
896.000000	70.562373
897.000000	70.482480
898.000000	70.481974
899.000000	70.366202
900.000000	70.230006
901.000000	70.221902
902.000000	70.195067
903.000000	70.161798
904.000000	70.077867
905.000000	69.989982
906.000000	69.963386
907.000000	69.914814
908.000000	69.842871
909.000000	69.741474
910.000000	69.732287
911.000000	69.728560
912.000000	69.616548
913.000000	69.624536
914.000000	69.581543
915.000000	69.493529
916.000000	69.414598
917.000000	69.444536
918.000000	69.363412
919.000000	69.325500
920.000000	69.300378
921.000000	69.218457
922.000000	69.210552
923.000000	69.232835
924.000000	69.196606
925.000000	69.179568
926.000000	69.106436
927.000000	69.085286
928.000000	69.101696
929.000000	69.133544
930.000000	69.134570
931.000000	69.118741
932.000000	69.117974
933.000000	69.100871
934.000000	69.090058
935.000000	69.047869
936.000000	68.999468
937.000000	69.022244
938.000000	69.014659
939.000000	68.995035
940.000000	68.975816
941.000000	68.956202
942.000000	69.003188
943.000000	68.986641
944.000000	68.973075
945.000000	68.943797
946.000000	68.897446
947.000000	68.845049
948.000000	68.859835
949.000000	68.881276
950.000000	68.874649
951.000000	68.851811
952.000000	68.842844
953.000000	68.830701
954.000000	68.804375
955.000000	68.794455
956.000000	68.779592
957.000000	68.776700
958.000000	68.767579
959.000000	68.773320
960.000000	68.747080
961.000000	68.728725
962.000000	68.727928
963.000000	68.705255
964.000000	68.709778
965.000000	68.689026
966.000000	68.668283
967.000000	68.662120
968.000000	68.632669
969.000000	68.652358
970.000000	68.617497
971.000000	68.617344
972.000000	68.622298
973.000000	68.648007
974.000000	68.618952
975.000000	68.621156
976.000000	68.615433
977.000000	68.613699
978.000000	68.602796
979.000000	68.600878
980.000000	68.600348
981.000000	68.588226
982.000000	68.594484
983.000000	68.562910
984.000000	68.570620
985.000000	68.583259
986.000000	68.576425
987.000000	68.552477
988.000000	68.552277
989.000000	68.564418
990.000000	68.576875
991.000000	68.581723
992.000000	68.591226
993.000000	68.574114
994.000000	68.577984
995.000000	68.574904
996.000000	68.573455
997.000000	68.577606
998.000000	68.612392
999.000000	68.612285
1000.000000	68.609627
1001.000000	68.627242
1002.000000	68.645091
1003.000000	68.631202
1004.000000	68.640482
1005.000000	68.653082
1006.000000	68.667658
1007.000000	68.691742
1008.000000	68.715715
1009.000000	68.702394
1010.000000	68.692694
1011.000000	68.716254
1012.000000	68.722107
1013.000000	68.742888
1014.000000	68.751796
1015.000000	68.751889
1016.000000	68.763768
1017.000000	68.779212
1018.000000	68.781274
1019.000000	68.806234
1020.000000	68.826811
1021.000000	68.836185
1022.000000	68.858787
1023.000000	68.869356
1024.000000	68.884380
1025.000000	68.917513
1026.000000	68.921436
1027.000000	68.940693
1028.000000	68.954716
1029.000000	68.991183
1030.000000	69.028448
1031.000000	69.045625
1032.000000	69.067464
1033.000000	69.087868
1034.000000	69.107855
1035.000000	69.117749
1036.000000	69.162681
1037.000000	69.195584
1038.000000	69.205800
1039.000000	69.224316
1040.000000	69.262724
1041.000000	69.270152
1042.000000	69.287857
1043.000000	69.307426
1044.000000	69.351433
1045.000000	69.375501
1046.000000	69.381601
1047.000000	69.427622
1048.000000	69.438916
1049.000000	69.494086
1050.000000	69.493174
1051.000000	69.536364
1052.000000	69.570231
1053.000000	69.599331
1054.000000	69.650062
1055.000000	69.677249
1056.000000	69.708641
1057.000000	69.754135
1058.000000	69.788444
1059.000000	69.830506
1060.000000	69.858289
1061.000000	69.898787
1062.000000	69.937095
1063.000000	69.983035
1064.000000	70.010802
1065.000000	70.046129
1066.000000	70.072546
1067.000000	70.111418
1068.000000	70.161330
1069.000000	70.190435
1070.000000	70.232471
1071.000000	70.261448
1072.000000	70.314103
1073.000000	70.332968
1074.000000	70.360982
1075.000000	70.392437
1076.000000	70.444086
1077.000000	70.468858
1078.000000	70.502747
1079.000000	70.531651
1080.000000	70.572560
1081.000000	70.619041
1082.000000	70.639354
1083.000000	70.661146
1084.000000	70.698399
1085.000000	70.754158
1086.000000	70.768761
1087.000000	70.806605
1088.000000	70.851648
1089.000000	70.889903
1090.000000	70.928536
1091.000000	70.959328
1092.000000	70.996651
1093.000000	71.038868
1094.000000	71.076957
1095.000000	71.096841
1096.000000	71.130258
1097.000000	71.152852
1098.000000	71.186324
1099.000000	71.225067
1100.000000	71.243363
1101.000000	71.269524
1102.000000	71.316264
1103.000000	71.342562
1104.000000	71.363427
1105.000000	71.391873
1106.000000	71.409543
1107.000000	71.431928
1108.000000	71.450793
1109.000000	71.473575
1110.000000	71.502991
1111.000000	71.532249
1112.000000	71.560064
1113.000000	71.577776
1114.000000	71.600662
1115.000000	71.621925
1116.000000	71.648199
1117.000000	71.668051
1118.000000	71.672987
1119.000000	71.707722
1120.000000	71.716377
1121.000000	71.732142
1122.000000	71.767581
1123.000000	71.769504
1124.000000	71.752507
1125.000000	71.734562
1126.000000	71.727808
1127.000000	71.704178
1128.000000	71.677239
1129.000000	71.651583
1130.000000	71.617039
1131.000000	71.542512
1132.000000	71.489540
1133.000000	71.441760
1134.000000	71.438901
1135.000000	71.381512
1136.000000	71.267472
1137.000000	71.168423
1138.000000	71.066207
1139.000000	70.993733
1140.000000	70.928432
1141.000000	70.864387
1142.000000	70.801907
1143.000000	70.750187
1144.000000	70.707350
1145.000000	70.682446
1146.000000	70.653451
1147.000000	70.607702
1148.000000	70.562085
1149.000000	70.516055
1150.000000	70.471699
1151.000000	70.424227
1152.000000	70.386749
1153.000000	70.327538
1154.000000	70.263724
1155.000000	70.198397
1156.000000	70.111230
1157.000000	70.026692
1158.000000	69.939219
1159.000000	69.843966
1160.000000	69.741597
1161.000000	69.632105
1162.000000	69.531087
1163.000000	69.429533
1164.000000	69.303050
1165.000000	69.190570
1166.000000	69.089785
1167.000000	68.988494
1168.000000	68.897024
1169.000000	68.797805
1170.000000	68.697539
1171.000000	68.614405
1172.000000	68.546258
1173.000000	68.478469
1174.000000	68.417468
1175.000000	68.354376
1176.000000	68.301395
1177.000000	68.247496
1178.000000	68.195753
1179.000000	68.142560
1180.000000	68.096519
1181.000000	68.040945
1182.000000	68.006281
1183.000000	67.968423
1184.000000	67.938520
1185.000000	67.936215
1186.000000	67.932766
1187.000000	67.946967
1188.000000	67.957578
1189.000000	67.996678
1190.000000	68.048427
1191.000000	68.105224
1192.000000	68.177371
1193.000000	68.242142
1194.000000	68.319906
1195.000000	68.402208
1196.000000	68.481930
1197.000000	68.560357
1198.000000	68.637392
1199.000000	68.705477
1200.000000	68.774907
1201.000000	68.846232
1202.000000	68.904952
1203.000000	68.969214
1204.000000	69.038460
1205.000000	69.104958
1206.000000	69.168002
1207.000000	69.239214
1208.000000	69.300632
1209.000000	69.363825
1210.000000	69.437053
1211.000000	69.499201
1212.000000	69.562326
1213.000000	69.614205
1214.000000	69.672391
1215.000000	69.718644
1216.000000	69.759006
1217.000000	69.792535
1218.000000	69.839348
1219.000000	69.885982
1220.000000	69.930073
1221.000000	69.979052
1222.000000	70.023719
1223.000000	70.059658
1224.000000	70.092259
1225.000000	70.137545
1226.000000	70.181024
1227.000000	70.216803
1228.000000	70.261106
1229.000000	70.302430
1230.000000	70.336912
1231.000000	70.376886
1232.000000	70.414564
1233.000000	70.461602
1234.000000	70.501191
1235.000000	70.536114
1236.000000	70.568216
1237.000000	70.599603
1238.000000	70.638863
1239.000000	70.682018
1240.000000	70.729278
1241.000000	70.774599
1242.000000	70.816473
1243.000000	70.864607
1244.000000	70.920665
1245.000000	70.977406
1246.000000	71.018978
1247.000000	71.063934
1248.000000	71.105020
1249.000000	71.163667
1250.000000	71.200438
1251.000000	71.228909
1252.000000	71.268569
1253.000000	71.297163
1254.000000	71.310085
1255.000000	71.325243
1256.000000	71.344997
1257.000000	71.348422
1258.000000	71.359355
1259.000000	71.356888
1260.000000	71.367834
1261.000000	71.371099
1262.000000	71.365668
1263.000000	71.366423
1264.000000	71.370721
1265.000000	71.368642
1266.000000	71.379327
1267.000000	71.378574
1268.000000	71.383734
1269.000000	71.380096
1270.000000	71.379665
1271.000000	71.372752
1272.000000	71.358074
1273.000000	71.359193
1274.000000	71.356131
1275.000000	71.359978
1276.000000	71.374075
1277.000000	71.390412
1278.000000	71.407905
1279.000000	71.428854
1280.000000	71.448933
1281.000000	71.474108
1282.000000	71.498385
1283.000000	71.527148
1284.000000	71.562825
1285.000000	71.584562
1286.000000	71.618992
1287.000000	71.646437
1288.000000	71.668605
1289.000000	71.694421
1290.000000	71.716361
1291.000000	71.744574
1292.000000	71.761526
1293.000000	71.778148
1294.000000	71.790775
1295.000000	71.796323
1296.000000	71.806467
1297.000000	71.817166
1298.000000	71.807969
1299.000000	71.819444
1300.000000	71.821936
1301.000000	71.817666
1302.000000	71.815195
1303.000000	71.810607
1304.000000	71.801190
1305.000000	71.791109
1306.000000	71.772526
1307.000000	71.768135
1308.000000	71.758227
1309.000000	71.728067
1310.000000	71.713925
1311.000000	71.685597
1312.000000	71.663738
1313.000000	71.624216
1314.000000	71.592658
1315.000000	71.554859
1316.000000	71.518902
1317.000000	71.484470
1318.000000	71.441103
1319.000000	71.402380
1320.000000	71.362009
1321.000000	71.310611
1322.000000	71.264871
1323.000000	71.199487
1324.000000	71.161623
1325.000000	71.111441
1326.000000	71.040477
1327.000000	70.974352
1328.000000	70.915266
1329.000000	70.847781
1330.000000	70.765862
1331.000000	70.689485
1332.000000	70.596587
1333.000000	70.509504
1334.000000	70.427948
1335.000000	70.330270
1336.000000	70.222971
1337.000000	70.104950
1338.000000	69.993674
1339.000000	69.860967
1340.000000	69.745529
1341.000000	69.611098
1342.000000	69.459742
1343.000000	69.317847
1344.000000	69.174880
1345.000000	69.013440
1346.000000	68.826990
1347.000000	68.700910
1348.000000	68.553381
1349.000000	68.364499
1350.000000	68.185158
1351.000000	68.004105
1352.000000	67.846966
1353.000000	67.672905
1354.000000	67.583499
1355.000000	67.495317
1356.000000	67.366334
1357.000000	67.269921
1358.000000	67.182975
1359.000000	67.095334
1360.000000	67.038539
1361.000000	67.105051
1362.000000	67.080226
1363.000000	66.848051
1364.000000	66.761367
1365.000000	66.726850
1366.000000	66.562613
1367.000000	66.471873
1368.000000	66.423603
1369.000000	66.253974
1370.000000	66.124687
1371.000000	66.067308
1372.000000	65.946238
1373.000000	65.766214
1374.000000	65.611227
1375.000000	65.483683
1376.000000	65.397601
1377.000000	65.289445
1378.000000	65.151927
1379.000000	65.038817
1380.000000	64.970614
1381.000000	64.863708
1382.000000	64.755495
1383.000000	64.562784
1384.000000	64.294256
1385.000000	64.026243
1386.000000	63.689796
1387.000000	63.439704
1388.000000	63.220497
1389.000000	62.854530
1390.000000	62.468346
1391.000000	62.205069
1392.000000	61.954755
1393.000000	61.588610
1394.000000	61.300308
1395.000000	61.107846
1396.000000	60.797014
1397.000000	60.321631
1398.000000	59.866836
1399.000000	59.561610
1400.000000	59.362617
1401.000000	59.021649
1402.000000	58.474275
1403.000000	58.012033
1404.000000	57.661965
1405.000000	57.268038
1406.000000	56.843360
1407.000000	56.447096
1408.000000	56.034714
1409.000000	55.642013
1410.000000	55.237122
1411.000000	54.768636
1412.000000	54.339436
1413.000000	54.017216
1414.000000	53.730247
1415.000000	53.365988
1416.000000	52.938997
1417.000000	52.586984
1418.000000	52.337539
1419.000000	52.073782
1420.000000	51.771836
1421.000000	51.447276
1422.000000	51.137531
1423.000000	50.919055
1424.000000	50.690781
1425.000000	50.420294
1426.000000	50.178059
1427.000000	49.951367
1428.000000	49.768639
1429.000000	49.577747
1430.000000	49.378772
1431.000000	49.198235
1432.000000	49.052172
1433.000000	48.903021
1434.000000	48.734040
1435.000000	48.577636
1436.000000	48.418733
1437.000000	48.304199
1438.000000	48.204531
1439.000000	48.056673
1440.000000	47.941337
1441.000000	47.821886
1442.000000	47.724307
1443.000000	47.613250
1444.000000	47.497028
1445.000000	47.436869
1446.000000	47.375286
1447.000000	47.220364
1448.000000	47.101331
1449.000000	46.994972
1450.000000	46.945556
1451.000000	46.881478
1452.000000	46.776491
1453.000000	46.663303
1454.000000	46.567773
1455.000000	46.474859
1456.000000	46.386921
1457.000000	46.288846
1458.000000	46.187942
1459.000000	46.092017
1460.000000	46.010032
1461.000000	45.920111
1462.000000	45.822793
1463.000000	45.729885
1464.000000	45.658845
1465.000000	45.572444
1466.000000	45.496139
1467.000000	45.423566
1468.000000	45.342703
1469.000000	45.271769
1470.000000	45.223680
1471.000000	45.169047
1472.000000	45.098507
1473.000000	45.041138
1474.000000	44.961745
1475.000000	44.896963
1476.000000	44.845252
1477.000000	44.816164
1478.000000	44.788254
1479.000000	44.744861
1480.000000	44.713128
1481.000000	44.688780
1482.000000	44.668366
1483.000000	44.628063
1484.000000	44.600672
1485.000000	44.575808
1486.000000	44.566272
1487.000000	44.540134
1488.000000	44.518178
1489.000000	44.488767
1490.000000	44.463469
1491.000000	44.446687
1492.000000	44.431235
1493.000000	44.412398
1494.000000	44.405001
1495.000000	44.405507
1496.000000	44.413227
1497.000000	44.426223
1498.000000	44.440748
1499.000000	44.470495
1500.000000	44.504385
1501.000000	44.536477
1502.000000	44.576467
1503.000000	44.623533
1504.000000	44.677718
1505.000000	44.730959
1506.000000	44.785086
1507.000000	44.851292
1508.000000	44.923233
1509.000000	44.979836
1510.000000	45.042339
1511.000000	45.098807
1512.000000	45.162661
1513.000000	45.235003
1514.000000	45.303590
1515.000000	45.363419
1516.000000	45.428511
1517.000000	45.487306
1518.000000	45.544955
1519.000000	45.606469
1520.000000	45.662343
1521.000000	45.723616
1522.000000	45.781509
1523.000000	45.840587
1524.000000	45.904496
1525.000000	45.961588
1526.000000	46.015521
1527.000000	46.068033
1528.000000	46.123465
1529.000000	46.171357
1530.000000	46.236873
1531.000000	46.285537
1532.000000	46.338813
1533.000000	46.382795
1534.000000	46.428442
1535.000000	46.476185
1536.000000	46.527618
1537.000000	46.558170
1538.000000	46.587563
1539.000000	46.622443
1540.000000	46.660645
1541.000000	46.708136
1542.000000	46.752570
1543.000000	46.793217
1544.000000	46.844860
1545.000000	46.899873
1546.000000	46.964033
1547.000000	47.036457
1548.000000	47.114489
1549.000000	47.190313
1550.000000	47.280873
1551.000000	47.358135
1552.000000	47.441769
1553.000000	47.518331
1554.000000	47.584167
1555.000000	47.644935
1556.000000	47.698092
1557.000000	47.743139
1558.000000	47.783567
1559.000000	47.816185
1560.000000	47.839051
1561.000000	47.848980
1562.000000	47.861716
1563.000000	47.863686
1564.000000	47.861065
1565.000000	47.846213
1566.000000	47.829934
1567.000000	47.814441
1568.000000	47.792896
1569.000000	47.771700
1570.000000	47.756963
1571.000000	47.744972
1572.000000	47.734944
1573.000000	47.738448
1574.000000	47.736086
1575.000000	47.741127
1576.000000	47.736193
1577.000000	47.737926
1578.000000	47.761124
1579.000000	47.778694
1580.000000	47.799369
1581.000000	47.825855
1582.000000	47.839619
1583.000000	47.874067
1584.000000	47.919727
1585.000000	47.955488
1586.000000	47.994686
1587.000000	48.033293
1588.000000	48.077108
1589.000000	48.113860
1590.000000	48.160162
1591.000000	48.207254
1592.000000	48.240792
1593.000000	48.290494
1594.000000	48.326790
1595.000000	48.369139
1596.000000	48.420134
1597.000000	48.479229
1598.000000	48.535370
1599.000000	48.609748
1600.000000	48.667784
1601.000000	48.736451
1602.000000	48.800337
1603.000000	48.866865
1604.000000	48.940527
1605.000000	49.006951
1606.000000	49.066710
1607.000000	49.129919
1608.000000	49.183996
1609.000000	49.238585
1610.000000	49.294998
1611.000000	49.344714
1612.000000	49.371619
1613.000000	49.428878
1614.000000	49.465886
1615.000000	49.491081
1616.000000	49.528868
1617.000000	49.558780
1618.000000	49.585781
1619.000000	49.618078
1620.000000	49.663180
1621.000000	49.682628
1622.000000	49.715406
1623.000000	49.758820
1624.000000	49.791697
1625.000000	49.836240
1626.000000	49.867180
1627.000000	49.900826
1628.000000	49.944468
1629.000000	49.980681
1630.000000	50.008486
1631.000000	50.068143
1632.000000	50.110668
1633.000000	50.149223
1634.000000	50.172748
1635.000000	50.209813
1636.000000	50.221576
1637.000000	50.245596
1638.000000	50.254515
1639.000000	50.277688
1640.000000	50.282840
1641.000000	50.296253
1642.000000	50.291722
1643.000000	50.304186
1644.000000	50.322765
1645.000000	50.338937
1646.000000	50.346033
1647.000000	50.366995
1648.000000	50.389356
1649.000000	50.400157
1650.000000	50.393774
1651.000000	50.372239
1652.000000	50.368524
1653.000000	50.353236
1654.000000	50.323073
1655.000000	50.265052
1656.000000	50.223292
1657.000000	50.168208
1658.000000	50.093135
1659.000000	50.001551
1660.000000	49.909294
1661.000000	49.808903
1662.000000	49.700681
1663.000000	49.567441
1664.000000	49.448830
1665.000000	49.321218
1666.000000	49.172194
1667.000000	49.028351
1668.000000	48.857902
1669.000000	48.691638
1670.000000	48.510031
1671.000000	48.329593
1672.000000	48.153857
1673.000000	47.984899
1674.000000	47.807519
1675.000000	47.630477
1676.000000	47.482969
1677.000000	47.316136
1678.000000	47.111955
1679.000000	46.910728
1680.000000	46.713640
1681.000000	46.501285
1682.000000	46.267552
1683.000000	46.051358
1684.000000	45.846989
1685.000000	45.668717
1686.000000	45.506204
1687.000000	45.386018
1688.000000	45.296723
1689.000000	45.272294
1690.000000	45.285679
1691.000000	45.344677
1692.000000	45.402858
1693.000000	45.458387
1694.000000	45.512199
1695.000000	45.582280
1696.000000	45.619473
1697.000000	45.636837
1698.000000	45.639326
1699.000000	45.653774
1700.000000	45.651513
1701.000000	45.627933
1702.000000	45.607176
1703.000000	45.592286
1704.000000	45.556003
1705.000000	45.515208
1706.000000	45.453733
1707.000000	45.378827
1708.000000	45.285568
1709.000000	45.186858
1710.000000	45.079598
1711.000000	44.939234
1712.000000	44.799816
1713.000000	44.634972
1714.000000	44.445811
1715.000000	44.251684
1716.000000	44.036441
1717.000000	43.818128
1718.000000	43.608425
1719.000000	43.392074
1720.000000	43.196039
1721.000000	43.026695
1722.000000	42.895113
1723.000000	42.815588
1724.000000	42.775285
1725.000000	42.763113
1726.000000	42.773668
1727.000000	42.791755
1728.000000	42.810635
1729.000000	42.842869
1730.000000	42.878255
1731.000000	42.915349
1732.000000	42.959176
1733.000000	42.997072
1734.000000	43.034819
1735.000000	43.071055
1736.000000	43.120988
1737.000000	43.169951
1738.000000	43.221141
1739.000000	43.282395
1740.000000	43.353009
1741.000000	43.426167
1742.000000	43.496330
1743.000000	43.572433
1744.000000	43.636732
1745.000000	43.698196
1746.000000	43.757982
1747.000000	43.808736
1748.000000	43.867252
1749.000000	43.910340
1750.000000	43.938978
1751.000000	43.973481
1752.000000	44.000919
1753.000000	44.006921
1754.000000	44.010611
1755.000000	44.026163
1756.000000	44.039557
1757.000000	44.042602
1758.000000	44.035548
1759.000000	44.041139
1760.000000	44.061578
1761.000000	44.074135
1762.000000	44.102195
1763.000000	44.123949
1764.000000	44.137179
1765.000000	44.169216
1766.000000	44.214961
1767.000000	44.249510
1768.000000	44.291535
1769.000000	44.337498
1770.000000	44.368349
1771.000000	44.421382
1772.000000	44.467995
1773.000000	44.509580
1774.000000	44.557423
1775.000000	44.609222
1776.000000	44.661292
1777.000000	44.700294
1778.000000	44.735489
1779.000000	44.781639
1780.000000	44.794111
1781.000000	44.813743
1782.000000	44.834615
1783.000000	44.840609
1784.000000	44.866019
1785.000000	44.881490
1786.000000	44.883029
1787.000000	44.876389
1788.000000	44.870211
1789.000000	44.862122
1790.000000	44.871979
1791.000000	44.885025
1792.000000	44.905002
1793.000000	44.932084
1794.000000	44.944939
1795.000000	44.976465
1796.000000	45.007643
1797.000000	45.022470
1798.000000	45.041927
1799.000000	45.067464
1800.000000	45.109703
1801.000000	45.167288
1802.000000	45.190507
1803.000000	45.212742
1804.000000	45.193274
1805.000000	45.220800
1806.000000	45.287590
1807.000000	45.332209
1808.000000	45.322166
1809.000000	45.335839
1810.000000	45.387973
1811.000000	45.441505
1812.000000	45.480877
1813.000000	45.464220
1814.000000	45.476084
1815.000000	45.554329
1816.000000	45.554469
1817.000000	45.534579
1818.000000	45.514736
1819.000000	45.551548
1820.000000	45.677083
1821.000000	45.700335
1822.000000	45.656312
1823.000000	45.575541
1824.000000	45.479799
1825.000000	45.518496
1826.000000	45.623956
1827.000000	45.615902
1828.000000	45.647033
1829.000000	45.682045
1830.000000	45.717909
1831.000000	45.778970
1832.000000	45.789144
1833.000000	45.747514
1834.000000	45.786931
1835.000000	45.888448
1836.000000	46.057810
1837.000000	46.121147
1838.000000	46.061921
1839.000000	46.054158
1840.000000	46.101576
1841.000000	46.211953
1842.000000	46.256273
1843.000000	46.139182
1844.000000	46.035362
1845.000000	46.000988
1846.000000	46.094350
1847.000000	46.330789
1848.000000	46.391220
1849.000000	46.238008
1850.000000	46.148346
1851.000000	46.018187
1852.000000	45.984531
1853.000000	46.083131
1854.000000	46.032784
1855.000000	45.934929
1856.000000	45.930478
1857.000000	45.888860
1858.000000	45.747835
1859.000000	45.766604
1860.000000	45.780107
1861.000000	45.571850
1862.000000	45.344223
1863.000000	45.274536
1864.000000	45.230049
1865.000000	45.049129
1866.000000	44.919989
1867.000000	44.921831
1868.000000	44.881457
1869.000000	44.709075
1870.000000	44.538749
1871.000000	44.327459
1872.000000	44.089452
1873.000000	43.925102
1874.000000	43.587676
1875.000000	43.241631
1876.000000	42.973867
1877.000000	42.696199
1878.000000	42.248576
1879.000000	41.883519
1880.000000	41.548476
1881.000000	41.161588
1882.000000	40.740867
1883.000000	40.325657
1884.000000	39.925880
1885.000000	39.379438
1886.000000	38.835116
1887.000000	38.293745
1888.000000	37.720996
1889.000000	37.209254
1890.000000	36.652146
1891.000000	36.064619
1892.000000	35.437822
1893.000000	34.794747
1894.000000	34.128058
1895.000000	33.514401
1896.000000	32.907239
1897.000000	32.378696
1898.000000	31.841821
1899.000000	31.338633
1900.000000	30.620794
1901.000000	30.003791
1902.000000	29.412029
1903.000000	28.928971
1904.000000	28.440160
1905.000000	28.039575
1906.000000	27.529441
1907.000000	26.940293
1908.000000	26.470068
1909.000000	26.085935
1910.000000	25.753251
1911.000000	25.411770
1912.000000	25.083143
1913.000000	24.799370
1914.000000	24.483262
1915.000000	24.123919
1916.000000	23.886992
1917.000000	23.599912
1918.000000	23.318594
1919.000000	23.129941
1920.000000	23.061985
1921.000000	22.828960
1922.000000	22.532242
1923.000000	22.414450
1924.000000	22.254884
1925.000000	22.119282
1926.000000	22.012050
1927.000000	21.937566
1928.000000	21.810493
1929.000000	21.715518
1930.000000	21.645767
1931.000000	21.563323
1932.000000	21.496681
1933.000000	21.469768
1934.000000	21.410343
1935.000000	21.374390
1936.000000	21.373854
1937.000000	21.408602
1938.000000	21.438754
1939.000000	21.449194
1940.000000	21.472442
1941.000000	21.509334
1942.000000	21.519405
1943.000000	21.551940
1944.000000	21.611024
1945.000000	21.705248
1946.000000	21.765462
1947.000000	21.847694
1948.000000	21.909154
1949.000000	21.981752
1950.000000	22.087244
1951.000000	22.169757
1952.000000	22.267599
1953.000000	22.390618
1954.000000	22.506062
1955.000000	22.591344
1956.000000	22.672085
1957.000000	22.757026
1958.000000	22.861037
1959.000000	22.955460
1960.000000	23.074102
1961.000000	23.193161
1962.000000	23.272063
1963.000000	23.365830
1964.000000	23.457933
1965.000000	23.574393
1966.000000	23.676128
1967.000000	23.773840
1968.000000	23.864162
1969.000000	23.978488
1970.000000	24.059404
1971.000000	24.163353
1972.000000	24.269136
1973.000000	24.376644
1974.000000	24.470418
1975.000000	24.566873
1976.000000	24.670296
1977.000000	24.770240
1978.000000	24.881035
1979.000000	24.982171
1980.000000	25.092492
1981.000000	25.212031
1982.000000	25.315657
1983.000000	25.413805
1984.000000	25.520288
1985.000000	25.636596
1986.000000	25.782207
1987.000000	25.857128
1988.000000	25.929859
1989.000000	26.074084
1990.000000	26.183836
1991.000000	26.276374
1992.000000	26.387688
1993.000000	26.509625
1994.000000	26.591589
1995.000000	26.643802
1996.000000	26.747612
1997.000000	26.857658
1998.000000	26.933957
1999.000000	26.996144
2000.000000	27.044445
2001.000000	27.113545
2002.000000	27.207642
2003.000000	27.272102
2004.000000	27.287412
2005.000000	27.346647
2006.000000	27.406571
2007.000000	27.448551
2008.000000	27.466293
2009.000000	27.493740
2010.000000	27.503322
2011.000000	27.534336
2012.000000	27.563336
2013.000000	27.544545
2014.000000	27.514709
2015.000000	27.524068
2016.000000	27.527184
2017.000000	27.515497
2018.000000	27.510846
2019.000000	27.451953
2020.000000	27.425971
2021.000000	27.370423
2022.000000	27.325779
2023.000000	27.288874
2024.000000	27.224308
2025.000000	27.142640
2026.000000	27.111384
2027.000000	27.067114
2028.000000	27.011453
2029.000000	26.894776
2030.000000	26.789700
2031.000000	26.756722
2032.000000	26.655987
2033.000000	26.522293
2034.000000	26.389572
2035.000000	26.275016
2036.000000	26.187984
2037.000000	26.024824
2038.000000	25.924259
2039.000000	25.795955
2040.000000	25.665243
2041.000000	25.491872
2042.000000	25.379108
2043.000000	25.270128
2044.000000	25.072786
2045.000000	24.879991
2046.000000	24.745985
2047.000000	24.654431
2048.000000	24.514620
2049.000000	24.450911
2050.000000	24.376130
2051.000000	24.215892
2052.000000	24.151131
2053.000000	24.163506
2054.000000	24.164987
2055.000000	24.126120
2056.000000	24.171869
2057.000000	24.204194
2058.000000	24.255956
2059.000000	24.336970
2060.000000	24.471055
2061.000000	24.540225
2062.000000	24.598459
2063.000000	24.728068
2064.000000	24.771679
2065.000000	24.886883
2066.000000	25.096705
2067.000000	25.196734
2068.000000	25.259254
2069.000000	25.431389
2070.000000	25.578453
2071.000000	25.645947
2072.000000	25.747755
2073.000000	25.825328
2074.000000	25.949478
2075.000000	26.015977
2076.000000	26.043702
2077.000000	26.112581
2078.000000	26.192587
2079.000000	26.239396
2080.000000	26.302950
2081.000000	26.323577
2082.000000	26.326901
2083.000000	26.403075
2084.000000	26.419217
2085.000000	26.503817
2086.000000	26.436526
2087.000000	26.533012
2088.000000	26.461917
2089.000000	26.449896
2090.000000	26.448030
2091.000000	26.455701
2092.000000	26.461824
2093.000000	26.378566
2094.000000	26.257411
2095.000000	26.350934
2096.000000	26.335195
2097.000000	26.528307
2098.000000	26.410088
2099.000000	26.454784
2100.000000	26.444932
2101.000000	26.478417
2102.000000	26.466283
2103.000000	26.458912
2104.000000	26.459200
2105.000000	26.491344
2106.000000	26.374355
2107.000000	26.303746
2108.000000	26.430861
2109.000000	26.486959
2110.000000	26.412319
2111.000000	26.470157
2112.000000	26.408332
2113.000000	26.345554
2114.000000	26.350810
2115.000000	26.390856
2116.000000	26.401159
2117.000000	26.262361
2118.000000	26.346660
2119.000000	26.400059
2120.000000	26.200795
2121.000000	26.282642
2122.000000	26.213884
2123.000000	26.074195
2124.000000	26.235698
2125.000000	26.090790
2126.000000	25.978134
2127.000000	25.951235
2128.000000	26.001229
2129.000000	25.927285
2130.000000	25.830865
2131.000000	25.739376
2132.000000	25.541722
2133.000000	25.574112
2134.000000	25.582830
2135.000000	25.404070
2136.000000	25.314214
2137.000000	25.377373
2138.000000	25.153107
2139.000000	24.878974
2140.000000	25.052942
2141.000000	24.967612
2142.000000	24.942079
2143.000000	24.638491
2144.000000	24.604219
2145.000000	24.402232
2146.000000	24.426830
2147.000000	24.377883
2148.000000	24.267486
2149.000000	24.204302
2150.000000	23.846339
2151.000000	23.724805
2152.000000	23.705876
2153.000000	23.681881
2154.000000	23.441531
2155.000000	23.566735
2156.000000	23.268383
2157.000000	23.187859
2158.000000	23.140263
2159.000000	23.061822
2160.000000	22.923752
2161.000000	22.835384
2162.000000	22.867787
2163.000000	22.842624
2164.000000	22.767506
2165.000000	22.630615
2166.000000	22.555561
2167.000000	22.510728
2168.000000	22.489701
2169.000000	22.597580
2170.000000	22.606778
2171.000000	22.534022
2172.000000	22.418281
2173.000000	22.336143
2174.000000	22.394395
2175.000000	22.477737
2176.000000	22.366203
2177.000000	22.526087
2178.000000	22.490632
2179.000000	22.462772
2180.000000	22.353321
2181.000000	22.472432
2182.000000	22.497057
2183.000000	22.544803
2184.000000	22.456226
2185.000000	22.484395
2186.000000	22.407948
2187.000000	22.525275
2188.000000	22.382117
2189.000000	22.471158
2190.000000	22.591934
2191.000000	22.549521
2192.000000	22.540232
2193.000000	22.667956
2194.000000	22.712237
2195.000000	22.734416
2196.000000	22.647849
2197.000000	22.691077
2198.000000	22.649442
2199.000000	22.705969
2200.000000	22.768127
2201.000000	22.679948
2202.000000	22.830981
2203.000000	22.922585
2204.000000	22.896393
2205.000000	22.892319
2206.000000	22.974944
2207.000000	22.974942
2208.000000	23.089174
2209.000000	23.166711
2210.000000	23.115450
2211.000000	23.200512
2212.000000	23.328008
2213.000000	23.334067
2214.000000	23.400906
2215.000000	23.569731
2216.000000	23.609338
2217.000000	23.756951
2218.000000	23.887540
2219.000000	23.849717
2220.000000	23.931314
2221.000000	24.029257
2222.000000	24.073007
2223.000000	24.045863
2224.000000	24.118386
2225.000000	24.216011
2226.000000	24.345125
2227.000000	24.425196
2228.000000	24.499157
2229.000000	24.581006
2230.000000	24.660290
2231.000000	24.636347
2232.000000	24.498980
2233.000000	24.510750
2234.000000	24.499887
2235.000000	24.442774
2236.000000	24.425149
2237.000000	24.488307
2238.000000	24.482771
2239.000000	24.351482
2240.000000	24.265014
2241.000000	24.149683
2242.000000	24.120128
2243.000000	24.057748
2244.000000	23.986707
2245.000000	23.896846
2246.000000	23.762510
2247.000000	23.697354
2248.000000	23.554062
2249.000000	23.381919
2250.000000	23.264147
2251.000000	23.079704
2252.000000	22.905490
2253.000000	22.720872
2254.000000	22.604484
2255.000000	22.474724
2256.000000	22.303565
2257.000000	22.109051
2258.000000	21.990510
2259.000000	21.894798
2260.000000	21.684723
2261.000000	21.434436
2262.000000	21.457631
2263.000000	21.493861
2264.000000	21.441404
2265.000000	21.314809
2266.000000	21.164863
2267.000000	21.117546
2268.000000	21.076547
2269.000000	21.057456
2270.000000	20.997107
2271.000000	20.909717
2272.000000	20.930599
2273.000000	20.857957
2274.000000	20.762456
2275.000000	20.858551
2276.000000	20.879513
2277.000000	20.911022
2278.000000	20.881178
2279.000000	20.822283
2280.000000	20.848979
2281.000000	20.758755
2282.000000	20.658189
2283.000000	20.588132
2284.000000	20.489679
2285.000000	20.503569
2286.000000	20.546422
2287.000000	20.477400
2288.000000	20.410699
2289.000000	20.461805
2290.000000	20.401737
2291.000000	20.419515
2292.000000	20.423952
2293.000000	20.394489
2294.000000	20.364506
2295.000000	20.408178
2296.000000	20.508484
2297.000000	20.451376
2298.000000	20.343666
2299.000000	20.347502
2300.000000	20.347493
2301.000000	20.394822
2302.000000	20.419698
2303.000000	20.474165
2304.000000	20.305087
2305.000000	20.349845
2306.000000	20.530205
2307.000000	20.636109
2308.000000	20.696285
2309.000000	20.752318
2310.000000	20.553040
2311.000000	20.647050
2312.000000	20.653301
2313.000000	20.704072
2314.000000	20.868715
2315.000000	20.841189
2316.000000	20.843819
2317.000000	20.987625
2318.000000	21.102489
2319.000000	21.072241
2320.000000	20.970504
2321.000000	20.946598
2322.000000	21.042752
2323.000000	21.007507
2324.000000	20.909112
2325.000000	20.865721
2326.000000	20.916633
2327.000000	20.779542
2328.000000	20.757043
2329.000000	20.842890
2330.000000	20.823927
2331.000000	20.726095
2332.000000	20.691351
2333.000000	20.780285
2334.000000	20.805620
2335.000000	20.805743
2336.000000	20.776673
2337.000000	20.803804
2338.000000	20.835546
2339.000000	20.838293
2340.000000	20.902712
2341.000000	20.980544
2342.000000	20.973850
2343.000000	21.013809
2344.000000	21.003210
2345.000000	20.924614
2346.000000	21.004378
2347.000000	20.969621
2348.000000	21.156291
2349.000000	21.168354
2350.000000	21.146169
2351.000000	20.872822
2352.000000	20.919552
2353.000000	21.116982
2354.000000	21.095368
2355.000000	21.041090
2356.000000	21.162407
2357.000000	20.967861
2358.000000	21.143110
2359.000000	21.349364
2360.000000	21.000778
2361.000000	21.025896
2362.000000	20.982850
2363.000000	21.223751
2364.000000	21.185657
2365.000000	21.349344
2366.000000	21.337570
2367.000000	21.197203
2368.000000	21.367946
2369.000000	21.168864
2370.000000	21.145968
2371.000000	21.265446
2372.000000	21.020428
2373.000000	21.211133
2374.000000	20.924270
2375.000000	21.308753
2376.000000	21.367938
2377.000000	21.307776
2378.000000	21.393897
2379.000000	21.261167
2380.000000	20.916937
2381.000000	21.277563
2382.000000	21.719334
2383.000000	21.492020
2384.000000	21.275270
2385.000000	21.634572
2386.000000	21.450485
2387.000000	21.180684
2388.000000	21.693543
2389.000000	21.553377
2390.000000	21.052830
2391.000000	21.433237
2392.000000	21.064437
2393.000000	21.380141
2394.000000	20.981314
2395.000000	21.478001
2396.000000	21.391943
2397.000000	21.421254
2398.000000	21.376639
2399.000000	21.053337
2400.000000	21.140379
2401.000000	21.269227
2402.000000	21.237987
2403.000000	21.201738
2404.000000	21.145957
2405.000000	21.090120
2406.000000	21.045373
2407.000000	21.003721
2408.000000	20.953231
2409.000000	20.893852
2410.000000	20.838974
2411.000000	20.794446
2412.000000	20.721779
2413.000000	20.650914
2414.000000	20.591195
2415.000000	20.530742
2416.000000	20.453854
2417.000000	20.360928
2418.000000	20.267322
2419.000000	20.200846
2420.000000	20.122270
2421.000000	20.044764
2422.000000	19.965005
2423.000000	19.863185
2424.000000	19.743182
2425.000000	19.640687
2426.000000	19.568867
2427.000000	19.479596
2428.000000	19.382447
2429.000000	19.283548
2430.000000	19.184258
2431.000000	19.080914
2432.000000	18.980047
2433.000000	18.871471
2434.000000	18.772685
2435.000000	18.659772
2436.000000	18.541173
2437.000000	18.434510
2438.000000	18.317602
2439.000000	18.217354
2440.000000	18.109168
2441.000000	17.991528
2442.000000	17.867021
2443.000000	17.755405
2444.000000	17.634666
2445.000000	17.521137
2446.000000	17.423590
2447.000000	17.311408
2448.000000	17.204352
2449.000000	17.085584
2450.000000	16.985280
2451.000000	16.874788
2452.000000	16.760975
2453.000000	16.677671
2454.000000	16.569605
2455.000000	16.500366
2456.000000	16.410305
2457.000000	16.325140
2458.000000	16.242229
2459.000000	16.171193
2460.000000	16.088342
2461.000000	16.020906
2462.000000	15.963776
2463.000000	15.886948
2464.000000	15.846644
2465.000000	15.803638
2466.000000	15.724609
2467.000000	15.684424
2468.000000	15.614796
2469.000000	15.571900
2470.000000	15.524736
2471.000000	15.478859
2472.000000	15.424774
2473.000000	15.404171
2474.000000	15.395663
2475.000000	15.343545
2476.000000	15.300597
2477.000000	15.262774
2478.000000	15.247183
2479.000000	15.205754
2480.000000	15.210586
2481.000000	15.189813
2482.000000	15.181726
2483.000000	15.176765
2484.000000	15.175639
2485.000000	15.149648
2486.000000	15.197026
2487.000000	15.111638
2488.000000	15.157910
2489.000000	15.149127
2490.000000	15.166303
2491.000000	15.166418
2492.000000	15.203102
2493.000000	15.150769
2494.000000	15.238955
2495.000000	15.272454
2496.000000	15.239580
2497.000000	15.243862
2498.000000	15.229124
2499.000000	15.327325
2500.000000	15.329971
