PE UV       SUBTECH     SPECTRUM    ASCII       PEDS        4.00        
   -1
CICIMAUCR0113-6.Sample.ASC
24/04/25
11:40:20.00
24/04/25
11:40:20.00
Vinicio Soto Monge
C. kalinini
250,000000
1
Lambda 1050
1050L1511233
PerkinElmer UV WinLab 6.3.2.0749 / 2.02.05 Lambda 900 UV/VIS/NIR, Aug  7 2015 09:38:08

0
0
3350/servo 860,8/2
0
0
UV/VIS
1
1
1
DoubleDePol,CommonBeamDepol,RBeamAtt,SBeamAtt,60mm sphere, WB InGaAs Detector
0
0
0
0
Program
Program
3350/servo 860,8/2
3350/0,2 860,8/0,2
3350/0,2 860,8/0,2
0
15.00
 
 
 
0
 
860,8
319,2
860,8
Front
100
on
S:100 R:100
0
0
0
0
 
0
 
 
 
0
 
 
0
0
0
0
0
 
 
 
 
0
0


0
0
#HDR
-1
-1
#GR
nm
%R
1.0
0.0
2500,000000
-1,000000
2251
8
101,774400
5,807200
#DATA
250.000000	5.112041
251.000000	5.097337
252.000000	5.097221
253.000000	5.070637
254.000000	5.054837
255.000000	5.038284
256.000000	5.026469
257.000000	5.022258
258.000000	5.025378
259.000000	4.992810
260.000000	4.975920
261.000000	4.959826
262.000000	4.942234
263.000000	4.911194
264.000000	4.884223
265.000000	4.899433
266.000000	4.844260
267.000000	4.826161
268.000000	4.797055
269.000000	4.812015
270.000000	4.794094
271.000000	4.780560
272.000000	4.753909
273.000000	4.757175
274.000000	4.725326
275.000000	4.743150
276.000000	4.718524
277.000000	4.706306
278.000000	4.697229
279.000000	4.684931
280.000000	4.671430
281.000000	4.663484
282.000000	4.664004
283.000000	4.638085
284.000000	4.672549
285.000000	4.646793
286.000000	4.667061
287.000000	4.645775
288.000000	4.643709
289.000000	4.633821
290.000000	4.636571
291.000000	4.633222
292.000000	4.643740
293.000000	4.614158
294.000000	4.606056
295.000000	4.626219
296.000000	4.636142
297.000000	4.613510
298.000000	4.591339
299.000000	4.592507
300.000000	4.588516
301.000000	4.608027
302.000000	4.566878
303.000000	4.554422
304.000000	4.589512
305.000000	4.564562
306.000000	4.597226
307.000000	4.580322
308.000000	4.566305
309.000000	4.548230
310.000000	4.562440
311.000000	4.555033
312.000000	4.585159
313.000000	4.560598
314.000000	4.562372
315.000000	4.539638
316.000000	4.580777
317.000000	4.823619
318.000000	4.983209
319.000000	4.843761
320.000000	4.707413
321.000000	4.624626
322.000000	4.799280
323.000000	4.800312
324.000000	4.776011
325.000000	4.670758
326.000000	4.766477
327.000000	4.688899
328.000000	4.738281
329.000000	4.744114
330.000000	4.676276
331.000000	4.692283
332.000000	4.574962
333.000000	4.706374
334.000000	4.724999
335.000000	4.630071
336.000000	4.702473
337.000000	4.698457
338.000000	4.648893
339.000000	4.651586
340.000000	4.666764
341.000000	4.698355
342.000000	4.725402
343.000000	4.737114
344.000000	4.741696
345.000000	4.714742
346.000000	4.731367
347.000000	4.682708
348.000000	4.744496
349.000000	4.704182
350.000000	4.781704
351.000000	4.824748
352.000000	4.804565
353.000000	4.752880
354.000000	4.821450
355.000000	4.863331
356.000000	4.859420
357.000000	4.840098
358.000000	4.913274
359.000000	4.911789
360.000000	4.873571
361.000000	4.912584
362.000000	4.847707
363.000000	4.922679
364.000000	4.978142
365.000000	4.936479
366.000000	4.966481
367.000000	4.996163
368.000000	4.973306
369.000000	5.057895
370.000000	5.065686
371.000000	5.005395
372.000000	5.039141
373.000000	5.054853
374.000000	5.036894
375.000000	5.120954
376.000000	5.270690
377.000000	5.257807
378.000000	5.291403
379.000000	5.312785
380.000000	5.343221
381.000000	5.382095
382.000000	5.409466
383.000000	5.437992
384.000000	5.473826
385.000000	5.515467
386.000000	5.557694
387.000000	5.605944
388.000000	5.653965
389.000000	5.708354
390.000000	5.766397
391.000000	5.823607
392.000000	5.896094
393.000000	5.967730
394.000000	6.037095
395.000000	6.112984
396.000000	6.203730
397.000000	6.297265
398.000000	6.394912
399.000000	6.503629
400.000000	6.619152
401.000000	6.752863
402.000000	6.889659
403.000000	7.039271
404.000000	7.193935
405.000000	7.362971
406.000000	7.548822
407.000000	7.739059
408.000000	7.941190
409.000000	8.152822
410.000000	8.384362
411.000000	8.635223
412.000000	8.893860
413.000000	9.165393
414.000000	9.456136
415.000000	9.763463
416.000000	10.073612
417.000000	10.385458
418.000000	10.709892
419.000000	11.052276
420.000000	11.410942
421.000000	11.782154
422.000000	12.146296
423.000000	12.511763
424.000000	12.900212
425.000000	13.292869
426.000000	13.678525
427.000000	14.061211
428.000000	14.448064
429.000000	14.833835
430.000000	15.223642
431.000000	15.620538
432.000000	16.003342
433.000000	16.377925
434.000000	16.753953
435.000000	17.124758
436.000000	17.478945
437.000000	17.832735
438.000000	18.176195
439.000000	18.497102
440.000000	18.828268
441.000000	19.151158
442.000000	19.457723
443.000000	19.753395
444.000000	20.027304
445.000000	20.285608
446.000000	20.540876
447.000000	20.789457
448.000000	21.023903
449.000000	21.245888
450.000000	21.465430
451.000000	21.669269
452.000000	21.870565
453.000000	22.065222
454.000000	22.233434
455.000000	22.402509
456.000000	22.572165
457.000000	22.718048
458.000000	22.848435
459.000000	22.992144
460.000000	23.125627
461.000000	23.237182
462.000000	23.357364
463.000000	23.470134
464.000000	23.570673
465.000000	23.658291
466.000000	23.739916
467.000000	23.822819
468.000000	23.901734
469.000000	23.971545
470.000000	24.030285
471.000000	24.082405
472.000000	24.134027
473.000000	24.178782
474.000000	24.212700
475.000000	24.244603
476.000000	24.257967
477.000000	24.264307
478.000000	24.266592
479.000000	24.255364
480.000000	24.261291
481.000000	24.275450
482.000000	24.277658
483.000000	24.252916
484.000000	24.192458
485.000000	24.132705
486.000000	24.070819
487.000000	24.000126
488.000000	23.936886
489.000000	23.873469
490.000000	23.815256
491.000000	23.786390
492.000000	23.755369
493.000000	23.758023
494.000000	23.787321
495.000000	23.842667
496.000000	23.921657
497.000000	24.061604
498.000000	24.239484
499.000000	24.469612
500.000000	24.741092
501.000000	25.078131
502.000000	25.460343
503.000000	25.884475
504.000000	26.360064
505.000000	26.869912
506.000000	27.411703
507.000000	27.985474
508.000000	28.589739
509.000000	29.213203
510.000000	29.859722
511.000000	30.523764
512.000000	31.188855
513.000000	31.854083
514.000000	32.517978
515.000000	33.184360
516.000000	33.836259
517.000000	34.492806
518.000000	35.130749
519.000000	35.765891
520.000000	36.406528
521.000000	37.024937
522.000000	37.646773
523.000000	38.254523
524.000000	38.858855
525.000000	39.444956
526.000000	40.033524
527.000000	40.621430
528.000000	41.198478
529.000000	41.778251
530.000000	42.342460
531.000000	42.916577
532.000000	43.493338
533.000000	44.063081
534.000000	44.634760
535.000000	45.195473
536.000000	45.770980
537.000000	46.341626
538.000000	46.906356
539.000000	47.475520
540.000000	48.046713
541.000000	48.600132
542.000000	49.159948
543.000000	49.718718
544.000000	50.284671
545.000000	50.838723
546.000000	51.356460
547.000000	51.881672
548.000000	52.391737
549.000000	52.877484
550.000000	53.374181
551.000000	53.853076
552.000000	54.308801
553.000000	54.762327
554.000000	55.193272
555.000000	55.608857
556.000000	56.032442
557.000000	56.413286
558.000000	56.777490
559.000000	57.133813
560.000000	57.499795
561.000000	57.842895
562.000000	58.140941
563.000000	58.430173
564.000000	58.717942
565.000000	58.980574
566.000000	59.238039
567.000000	59.451583
568.000000	59.655347
569.000000	59.840510
570.000000	60.024394
571.000000	60.191522
572.000000	60.345816
573.000000	60.467728
574.000000	60.624124
575.000000	60.734287
576.000000	60.851440
577.000000	60.941732
578.000000	61.014751
579.000000	61.098260
580.000000	61.213662
581.000000	61.267188
582.000000	61.313261
583.000000	61.385930
584.000000	61.423542
585.000000	61.461397
586.000000	61.481818
587.000000	61.504072
588.000000	61.496559
589.000000	61.474038
590.000000	61.453145
591.000000	61.416860
592.000000	61.349754
593.000000	61.289239
594.000000	61.202592
595.000000	61.097930
596.000000	61.003268
597.000000	60.831094
598.000000	60.681308
599.000000	60.524609
600.000000	60.355305
601.000000	60.151747
602.000000	59.934441
603.000000	59.713913
604.000000	59.458390
605.000000	59.219715
606.000000	58.976135
607.000000	58.713203
608.000000	58.465849
609.000000	58.227678
610.000000	57.931516
611.000000	57.657398
612.000000	57.388811
613.000000	57.116993
614.000000	56.809096
615.000000	56.529021
616.000000	56.226178
617.000000	55.924974
618.000000	55.624398
619.000000	55.325770
620.000000	55.045848
621.000000	54.738136
622.000000	54.421798
623.000000	54.112589
624.000000	53.827335
625.000000	53.528900
626.000000	53.235524
627.000000	52.971324
628.000000	52.690360
629.000000	52.442493
630.000000	52.233224
631.000000	52.007122
632.000000	51.826278
633.000000	51.664235
634.000000	51.524919
635.000000	51.419494
636.000000	51.331231
637.000000	51.234844
638.000000	51.172895
639.000000	51.157008
640.000000	51.112266
641.000000	51.107213
642.000000	51.124812
643.000000	51.142255
644.000000	51.178484
645.000000	51.242813
646.000000	51.287724
647.000000	51.352037
648.000000	51.432924
649.000000	51.535808
650.000000	51.628284
651.000000	51.807263
652.000000	51.958041
653.000000	52.154768
654.000000	52.368079
655.000000	52.619610
656.000000	52.893170
657.000000	53.177742
658.000000	53.492130
659.000000	53.825732
660.000000	54.177819
661.000000	54.561636
662.000000	54.943818
663.000000	55.331678
664.000000	55.710593
665.000000	56.094288
666.000000	56.450180
667.000000	56.817704
668.000000	57.214103
669.000000	57.573807
670.000000	57.907924
671.000000	58.272114
672.000000	58.632507
673.000000	58.994463
674.000000	59.294419
675.000000	59.595360
676.000000	59.919458
677.000000	60.242375
678.000000	60.543235
679.000000	60.838038
680.000000	61.116701
681.000000	61.366143
682.000000	61.640535
683.000000	61.895250
684.000000	62.116783
685.000000	62.356755
686.000000	62.555544
687.000000	62.750907
688.000000	62.921998
689.000000	63.070224
690.000000	63.210887
691.000000	63.360135
692.000000	63.514422
693.000000	63.653983
694.000000	63.783449
695.000000	63.938958
696.000000	64.092974
697.000000	64.254701
698.000000	64.410352
699.000000	64.635918
700.000000	64.848878
701.000000	65.093969
702.000000	65.365566
703.000000	65.633596
704.000000	65.918909
705.000000	66.231845
706.000000	66.553791
707.000000	66.895395
708.000000	67.216442
709.000000	67.547636
710.000000	67.935912
711.000000	68.286622
712.000000	68.622468
713.000000	68.968348
714.000000	69.337208
715.000000	69.720440
716.000000	70.078333
717.000000	70.427768
718.000000	70.812000
719.000000	71.184609
720.000000	71.573273
721.000000	71.946433
722.000000	72.299021
723.000000	72.674090
724.000000	73.052529
725.000000	73.431163
726.000000	73.757592
727.000000	74.099134
728.000000	74.445448
729.000000	74.737698
730.000000	75.054262
731.000000	75.333482
732.000000	75.617438
733.000000	75.904421
734.000000	76.166395
735.000000	76.415639
736.000000	76.656993
737.000000	76.895113
738.000000	77.077355
739.000000	77.267560
740.000000	77.500292
741.000000	77.694133
742.000000	77.902880
743.000000	78.100203
744.000000	78.258407
745.000000	78.373680
746.000000	78.495163
747.000000	78.650247
748.000000	78.765669
749.000000	78.867811
750.000000	78.986929
751.000000	79.116465
752.000000	79.223661
753.000000	79.310610
754.000000	79.393587
755.000000	79.449355
756.000000	79.477610
757.000000	79.537587
758.000000	79.623610
759.000000	79.688667
760.000000	79.734300
761.000000	79.727158
762.000000	79.716404
763.000000	79.736217
764.000000	79.773680
765.000000	79.791321
766.000000	79.786960
767.000000	79.772821
768.000000	79.790826
769.000000	79.835077
770.000000	79.797996
771.000000	79.757325
772.000000	79.696862
773.000000	79.729648
774.000000	79.788107
775.000000	79.744490
776.000000	79.703189
777.000000	79.648300
778.000000	79.628610
779.000000	79.548600
780.000000	79.518813
781.000000	79.534991
782.000000	79.479043
783.000000	79.379123
784.000000	79.347441
785.000000	79.249791
786.000000	79.196079
787.000000	79.132132
788.000000	79.007392
789.000000	78.924532
790.000000	78.857888
791.000000	78.737002
792.000000	78.577136
793.000000	78.464541
794.000000	78.319543
795.000000	78.168446
796.000000	78.036736
797.000000	77.867204
798.000000	77.700798
799.000000	77.565597
800.000000	77.375545
801.000000	77.245298
802.000000	77.027011
803.000000	76.743376
804.000000	76.523340
805.000000	76.366428
806.000000	76.135053
807.000000	75.949805
808.000000	75.731945
809.000000	75.370420
810.000000	75.069767
811.000000	74.860704
812.000000	74.618444
813.000000	74.318275
814.000000	74.056689
815.000000	73.714887
816.000000	73.534267
817.000000	73.281426
818.000000	72.976338
819.000000	72.641188
820.000000	72.330118
821.000000	72.038385
822.000000	71.781458
823.000000	71.465536
824.000000	71.108951
825.000000	70.754866
826.000000	70.432328
827.000000	70.137160
828.000000	69.777902
829.000000	69.404449
830.000000	69.153181
831.000000	68.795923
832.000000	68.484204
833.000000	68.066831
834.000000	67.729103
835.000000	67.399209
836.000000	67.134630
837.000000	66.777012
838.000000	66.412870
839.000000	66.076947
840.000000	65.845654
841.000000	65.592315
842.000000	65.158335
843.000000	64.935207
844.000000	64.496068
845.000000	64.073586
846.000000	63.896998
847.000000	63.475053
848.000000	62.993412
849.000000	62.958061
850.000000	62.747013
851.000000	62.251580
852.000000	62.021897
853.000000	61.861197
854.000000	61.194234
855.000000	61.075949
856.000000	60.771304
857.000000	60.633007
858.000000	62.561633
859.000000	60.318300
860.000000	60.095033
861.000000	59.862433
862.000000	59.648567
863.000000	59.409300
864.000000	59.159833
865.000000	58.926933
866.000000	58.719467
867.000000	58.683200
868.000000	58.843900
869.000000	59.061800
870.000000	59.197467
871.000000	59.419200
872.000000	59.574267
873.000000	59.710633
874.000000	59.775800
875.000000	59.897200
876.000000	59.946600
877.000000	60.044033
878.000000	60.063400
879.000000	60.144900
880.000000	60.164800
881.000000	60.233367
882.000000	60.218700
883.000000	60.273233
884.000000	60.251400
885.000000	60.219533
886.000000	60.162200
887.000000	60.134333
888.000000	60.072267
889.000000	60.044833
890.000000	59.994567
891.000000	59.881567
892.000000	59.761033
893.000000	59.655800
894.000000	59.567600
895.000000	59.469567
896.000000	59.312700
897.000000	59.145133
898.000000	58.980100
899.000000	58.809800
900.000000	58.666733
901.000000	58.488533
902.000000	58.341700
903.000000	58.165067
904.000000	57.983600
905.000000	57.806033
906.000000	57.621533
907.000000	57.445800
908.000000	57.264733
909.000000	57.095233
910.000000	56.931233
911.000000	56.753700
912.000000	56.599700
913.000000	56.445367
914.000000	56.271833
915.000000	56.119967
916.000000	55.943633
917.000000	55.803633
918.000000	55.606333
919.000000	55.439100
920.000000	55.287933
921.000000	55.127700
922.000000	54.959300
923.000000	54.729967
924.000000	54.547500
925.000000	54.388433
926.000000	54.222100
927.000000	54.067233
928.000000	53.880767
929.000000	53.697033
930.000000	53.548733
931.000000	53.387333
932.000000	53.195767
933.000000	53.039400
934.000000	52.858600
935.000000	52.691767
936.000000	52.510600
937.000000	52.348667
938.000000	52.209967
939.000000	52.073467
940.000000	51.957100
941.000000	51.812700
942.000000	51.697167
943.000000	51.595633
944.000000	51.483033
945.000000	51.351133
946.000000	51.251367
947.000000	51.162700
948.000000	51.051000
949.000000	50.961500
950.000000	50.884467
951.000000	50.793933
952.000000	50.708933
953.000000	50.635467
954.000000	50.549933
955.000000	50.476533
956.000000	50.398733
957.000000	50.319233
958.000000	50.244400
959.000000	50.168100
960.000000	50.089767
961.000000	50.031167
962.000000	49.947333
963.000000	49.876167
964.000000	49.821533
965.000000	49.773600
966.000000	49.726200
967.000000	49.662200
968.000000	49.623333
969.000000	49.594367
970.000000	49.541267
971.000000	49.504533
972.000000	49.465133
973.000000	49.441300
974.000000	49.402800
975.000000	49.374600
976.000000	49.341100
977.000000	49.309500
978.000000	49.286067
979.000000	49.264867
980.000000	49.235867
981.000000	49.210100
982.000000	49.187500
983.000000	49.156367
984.000000	49.142333
985.000000	49.125033
986.000000	49.103800
987.000000	49.075733
988.000000	49.067100
989.000000	49.048700
990.000000	49.034200
991.000000	49.035533
992.000000	49.025500
993.000000	49.019033
994.000000	49.014033
995.000000	49.017833
996.000000	49.015567
997.000000	49.006367
998.000000	49.007800
999.000000	49.020200
1000.000000	49.027700
1001.000000	49.024800
1002.000000	49.040600
1003.000000	49.057300
1004.000000	49.069867
1005.000000	49.082167
1006.000000	49.086667
1007.000000	49.088033
1008.000000	49.091600
1009.000000	49.097067
1010.000000	49.108667
1011.000000	49.127567
1012.000000	49.140600
1013.000000	49.170400
1014.000000	49.211533
1015.000000	49.250067
1016.000000	49.302100
1017.000000	49.364467
1018.000000	49.423600
1019.000000	49.488467
1020.000000	49.562200
1021.000000	49.633767
1022.000000	49.708233
1023.000000	49.781000
1024.000000	49.854667
1025.000000	49.929633
1026.000000	50.006767
1027.000000	50.084133
1028.000000	50.164100
1029.000000	50.235033
1030.000000	50.299500
1031.000000	50.378233
1032.000000	50.444400
1033.000000	50.509600
1034.000000	50.575367
1035.000000	50.630667
1036.000000	50.698100
1037.000000	50.768133
1038.000000	50.818733
1039.000000	50.870600
1040.000000	50.926733
1041.000000	50.975700
1042.000000	51.029667
1043.000000	51.086333
1044.000000	51.147900
1045.000000	51.209700
1046.000000	51.262500
1047.000000	51.320433
1048.000000	51.385633
1049.000000	51.452067
1050.000000	51.509833
1051.000000	51.572767
1052.000000	51.640833
1053.000000	51.716100
1054.000000	51.796600
1055.000000	51.880133
1056.000000	51.961633
1057.000000	52.046333
1058.000000	52.128233
1059.000000	52.214000
1060.000000	52.297733
1061.000000	52.382333
1062.000000	52.459767
1063.000000	52.532867
1064.000000	52.609500
1065.000000	52.681833
1066.000000	52.747967
1067.000000	52.826967
1068.000000	52.900667
1069.000000	52.968933
1070.000000	53.038267
1071.000000	53.107067
1072.000000	53.178267
1073.000000	53.241300
1074.000000	53.312667
1075.000000	53.379500
1076.000000	53.445833
1077.000000	53.515433
1078.000000	53.583133
1079.000000	53.640267
1080.000000	53.705733
1081.000000	53.777533
1082.000000	53.838833
1083.000000	53.908667
1084.000000	53.974667
1085.000000	54.050267
1086.000000	54.118233
1087.000000	54.184000
1088.000000	54.252700
1089.000000	54.323133
1090.000000	54.393533
1091.000000	54.460100
1092.000000	54.531967
1093.000000	54.597667
1094.000000	54.664033
1095.000000	54.721267
1096.000000	54.780233
1097.000000	54.837700
1098.000000	54.886367
1099.000000	54.941800
1100.000000	54.998367
1101.000000	55.054533
1102.000000	55.087500
1103.000000	55.126833
1104.000000	55.176333
1105.000000	55.218500
1106.000000	55.259467
1107.000000	55.286967
1108.000000	55.322700
1109.000000	55.360433
1110.000000	55.396200
1111.000000	55.434700
1112.000000	55.449733
1113.000000	55.474400
1114.000000	55.508067
1115.000000	55.534200
1116.000000	55.561833
1117.000000	55.581500
1118.000000	55.593967
1119.000000	55.592033
1120.000000	55.576900
1121.000000	55.566067
1122.000000	55.547100
1123.000000	55.492200
1124.000000	55.435833
1125.000000	55.371133
1126.000000	55.305133
1127.000000	55.205633
1128.000000	55.097033
1129.000000	54.969033
1130.000000	54.789000
1131.000000	54.571567
1132.000000	54.320700
1133.000000	54.051767
1134.000000	53.800867
1135.000000	53.474033
1136.000000	53.084033
1137.000000	52.712833
1138.000000	52.322267
1139.000000	51.949667
1140.000000	51.586767
1141.000000	51.237633
1142.000000	50.893867
1143.000000	50.563167
1144.000000	50.272233
1145.000000	49.984200
1146.000000	49.773967
1147.000000	49.641267
1148.000000	49.593600
1149.000000	49.587567
1150.000000	49.618967
1151.000000	49.654100
1152.000000	49.680167
1153.000000	49.675667
1154.000000	49.624367
1155.000000	49.527700
1156.000000	49.355200
1157.000000	49.130867
1158.000000	48.843333
1159.000000	48.517600
1160.000000	48.182000
1161.000000	47.806500
1162.000000	47.435633
1163.000000	47.052767
1164.000000	46.641833
1165.000000	46.258900
1166.000000	45.842100
1167.000000	45.443267
1168.000000	45.052700
1169.000000	44.667433
1170.000000	44.286367
1171.000000	43.904900
1172.000000	43.520333
1173.000000	43.156033
1174.000000	42.800467
1175.000000	42.480067
1176.000000	42.134067
1177.000000	41.796933
1178.000000	41.416267
1179.000000	40.959700
1180.000000	40.456000
1181.000000	39.901600
1182.000000	39.336667
1183.000000	38.810367
1184.000000	38.383733
1185.000000	38.076833
1186.000000	37.924533
1187.000000	37.905933
1188.000000	38.011700
1189.000000	38.283467
1190.000000	38.664733
1191.000000	39.113567
1192.000000	39.627567
1193.000000	40.120700
1194.000000	40.570533
1195.000000	40.952400
1196.000000	41.263767
1197.000000	41.493200
1198.000000	41.685300
1199.000000	41.817733
1200.000000	41.922100
1201.000000	41.982067
1202.000000	42.021767
1203.000000	42.053700
1204.000000	42.079667
1205.000000	42.112167
1206.000000	42.151233
1207.000000	42.198067
1208.000000	42.275200
1209.000000	42.362200
1210.000000	42.481000
1211.000000	42.587533
1212.000000	42.714000
1213.000000	42.834867
1214.000000	42.970467
1215.000000	43.114633
1216.000000	43.255767
1217.000000	43.397833
1218.000000	43.565667
1219.000000	43.732300
1220.000000	43.912367
1221.000000	44.091533
1222.000000	44.292267
1223.000000	44.492233
1224.000000	44.694233
1225.000000	44.905033
1226.000000	45.115467
1227.000000	45.325833
1228.000000	45.536333
1229.000000	45.739867
1230.000000	45.956933
1231.000000	46.155400
1232.000000	46.358133
1233.000000	46.572400
1234.000000	46.772867
1235.000000	46.961300
1236.000000	47.155233
1237.000000	47.342267
1238.000000	47.520133
1239.000000	47.705467
1240.000000	47.871400
1241.000000	48.048533
1242.000000	48.220467
1243.000000	48.372700
1244.000000	48.528367
1245.000000	48.688167
1246.000000	48.815733
1247.000000	48.949233
1248.000000	49.082467
1249.000000	49.192767
1250.000000	49.296967
1251.000000	49.394433
1252.000000	49.492300
1253.000000	49.567700
1254.000000	49.644400
1255.000000	49.719533
1256.000000	49.793800
1257.000000	49.844933
1258.000000	49.897533
1259.000000	49.957933
1260.000000	50.002667
1261.000000	50.024600
1262.000000	50.071733
1263.000000	50.119033
1264.000000	50.175267
1265.000000	50.224467
1266.000000	50.275367
1267.000000	50.333433
1268.000000	50.386600
1269.000000	50.426967
1270.000000	50.478933
1271.000000	50.522400
1272.000000	50.569267
1273.000000	50.620333
1274.000000	50.670600
1275.000000	50.729033
1276.000000	50.785200
1277.000000	50.845100
1278.000000	50.913933
1279.000000	50.982133
1280.000000	51.060467
1281.000000	51.149767
1282.000000	51.234000
1283.000000	51.318933
1284.000000	51.409767
1285.000000	51.492267
1286.000000	51.570067
1287.000000	51.648067
1288.000000	51.725700
1289.000000	51.796767
1290.000000	51.851867
1291.000000	51.902667
1292.000000	51.949067
1293.000000	51.988667
1294.000000	52.021367
1295.000000	52.042000
1296.000000	52.060767
1297.000000	52.084067
1298.000000	52.108433
1299.000000	52.128633
1300.000000	52.137167
1301.000000	52.147000
1302.000000	52.160300
1303.000000	52.169900
1304.000000	52.170467
1305.000000	52.172333
1306.000000	52.166033
1307.000000	52.139233
1308.000000	52.111633
1309.000000	52.081600
1310.000000	52.043133
1311.000000	51.998333
1312.000000	51.948967
1313.000000	51.889000
1314.000000	51.826733
1315.000000	51.758967
1316.000000	51.690900
1317.000000	51.619267
1318.000000	51.539133
1319.000000	51.457033
1320.000000	51.373733
1321.000000	51.282233
1322.000000	51.187433
1323.000000	51.087100
1324.000000	50.975900
1325.000000	50.859067
1326.000000	50.742867
1327.000000	50.617733
1328.000000	50.485933
1329.000000	50.344033
1330.000000	50.196733
1331.000000	50.032267
1332.000000	49.863967
1333.000000	49.679633
1334.000000	49.481633
1335.000000	49.279500
1336.000000	49.067900
1337.000000	48.832000
1338.000000	48.598067
1339.000000	48.354433
1340.000000	48.086800
1341.000000	47.795467
1342.000000	47.495867
1343.000000	47.185700
1344.000000	46.867333
1345.000000	46.515733
1346.000000	46.123700
1347.000000	45.744767
1348.000000	45.327833
1349.000000	44.861467
1350.000000	44.363267
1351.000000	43.811200
1352.000000	43.201767
1353.000000	42.560367
1354.000000	41.966933
1355.000000	41.394167
1356.000000	40.873367
1357.000000	40.501967
1358.000000	40.266433
1359.000000	40.117400
1360.000000	40.035767
1361.000000	40.007933
1362.000000	39.923867
1363.000000	39.750167
1364.000000	39.573933
1365.000000	39.398433
1366.000000	39.174967
1367.000000	38.962567
1368.000000	38.721733
1369.000000	38.401067
1370.000000	38.066500
1371.000000	37.736600
1372.000000	37.345900
1373.000000	36.956367
1374.000000	36.609700
1375.000000	36.310067
1376.000000	36.093500
1377.000000	35.946233
1378.000000	35.849867
1379.000000	35.801533
1380.000000	35.720533
1381.000000	35.657267
1382.000000	35.499800
1383.000000	35.230433
1384.000000	34.898633
1385.000000	34.528433
1386.000000	34.140700
1387.000000	33.818800
1388.000000	33.562567
1389.000000	33.296033
1390.000000	33.048800
1391.000000	32.884100
1392.000000	32.740600
1393.000000	32.585033
1394.000000	32.462033
1395.000000	32.390500
1396.000000	32.263533
1397.000000	32.048400
1398.000000	31.817633
1399.000000	31.637133
1400.000000	31.460067
1401.000000	31.153300
1402.000000	30.787200
1403.000000	30.427933
1404.000000	30.073500
1405.000000	29.731567
1406.000000	29.390867
1407.000000	29.030300
1408.000000	28.717133
1409.000000	28.387900
1410.000000	28.079733
1411.000000	27.789233
1412.000000	27.535667
1413.000000	27.336633
1414.000000	27.163267
1415.000000	26.972367
1416.000000	26.734033
1417.000000	26.518200
1418.000000	26.340967
1419.000000	26.156267
1420.000000	25.935133
1421.000000	25.710500
1422.000000	25.490633
1423.000000	25.266000
1424.000000	25.082767
1425.000000	24.865433
1426.000000	24.643133
1427.000000	24.440333
1428.000000	24.272800
1429.000000	24.095333
1430.000000	23.922833
1431.000000	23.792633
1432.000000	23.665333
1433.000000	23.541167
1434.000000	23.411133
1435.000000	23.277100
1436.000000	23.144367
1437.000000	23.033000
1438.000000	22.920033
1439.000000	22.805500
1440.000000	22.686900
1441.000000	22.560767
1442.000000	22.422167
1443.000000	22.291067
1444.000000	22.187867
1445.000000	22.069067
1446.000000	21.954433
1447.000000	21.826800
1448.000000	21.694100
1449.000000	21.561267
1450.000000	21.478067
1451.000000	21.388667
1452.000000	21.277367
1453.000000	21.153033
1454.000000	21.065967
1455.000000	20.963667
1456.000000	20.881667
1457.000000	20.783100
1458.000000	20.688600
1459.000000	20.610567
1460.000000	20.531267
1461.000000	20.456100
1462.000000	20.376800
1463.000000	20.305600
1464.000000	20.227700
1465.000000	20.168567
1466.000000	20.131667
1467.000000	20.082933
1468.000000	20.031667
1469.000000	19.983933
1470.000000	19.940100
1471.000000	19.905067
1472.000000	19.866133
1473.000000	19.831867
1474.000000	19.762533
1475.000000	19.715567
1476.000000	19.664000
1477.000000	19.638000
1478.000000	19.595533
1479.000000	19.548900
1480.000000	19.508867
1481.000000	19.490367
1482.000000	19.448333
1483.000000	19.418467
1484.000000	19.393967
1485.000000	19.374167
1486.000000	19.349333
1487.000000	19.334033
1488.000000	19.312700
1489.000000	19.289733
1490.000000	19.263667
1491.000000	19.248567
1492.000000	19.236200
1493.000000	19.219867
1494.000000	19.217800
1495.000000	19.205467
1496.000000	19.189733
1497.000000	19.192767
1498.000000	19.191267
1499.000000	19.183400
1500.000000	19.186033
1501.000000	19.193333
1502.000000	19.201400
1503.000000	19.214100
1504.000000	19.220167
1505.000000	19.238167
1506.000000	19.254400
1507.000000	19.258367
1508.000000	19.279433
1509.000000	19.295067
1510.000000	19.313000
1511.000000	19.324300
1512.000000	19.335900
1513.000000	19.350100
1514.000000	19.367233
1515.000000	19.376900
1516.000000	19.385500
1517.000000	19.403900
1518.000000	19.417500
1519.000000	19.428667
1520.000000	19.439133
1521.000000	19.449633
1522.000000	19.456700
1523.000000	19.471567
1524.000000	19.482267
1525.000000	19.488900
1526.000000	19.487267
1527.000000	19.496033
1528.000000	19.498333
1529.000000	19.502800
1530.000000	19.513200
1531.000000	19.516300
1532.000000	19.510533
1533.000000	19.504467
1534.000000	19.504133
1535.000000	19.500400
1536.000000	19.489533
1537.000000	19.481267
1538.000000	19.471767
1539.000000	19.466133
1540.000000	19.457967
1541.000000	19.439867
1542.000000	19.427267
1543.000000	19.419600
1544.000000	19.412667
1545.000000	19.404900
1546.000000	19.396167
1547.000000	19.391800
1548.000000	19.389633
1549.000000	19.382867
1550.000000	19.374967
1551.000000	19.375233
1552.000000	19.383500
1553.000000	19.379867
1554.000000	19.366567
1555.000000	19.350633
1556.000000	19.334400
1557.000000	19.321433
1558.000000	19.306467
1559.000000	19.290800
1560.000000	19.269733
1561.000000	19.236367
1562.000000	19.204433
1563.000000	19.175800
1564.000000	19.145467
1565.000000	19.112100
1566.000000	19.081367
1567.000000	19.055133
1568.000000	19.018133
1569.000000	18.982767
1570.000000	18.958833
1571.000000	18.935433
1572.000000	18.913400
1573.000000	18.890467
1574.000000	18.867200
1575.000000	18.850767
1576.000000	18.839433
1577.000000	18.837433
1578.000000	18.829967
1579.000000	18.819667
1580.000000	18.823133
1581.000000	18.827400
1582.000000	18.832100
1583.000000	18.841233
1584.000000	18.862600
1585.000000	18.882100
1586.000000	18.903200
1587.000000	18.923867
1588.000000	18.945167
1589.000000	18.974400
1590.000000	19.002967
1591.000000	19.035733
1592.000000	19.071967
1593.000000	19.105167
1594.000000	19.142667
1595.000000	19.182133
1596.000000	19.224500
1597.000000	19.265000
1598.000000	19.318867
1599.000000	19.365933
1600.000000	19.417867
1601.000000	19.468467
1602.000000	19.521200
1603.000000	19.575033
1604.000000	19.631233
1605.000000	19.694333
1606.000000	19.756333
1607.000000	19.819200
1608.000000	19.872333
1609.000000	19.918633
1610.000000	19.983233
1611.000000	20.042800
1612.000000	20.100933
1613.000000	20.158967
1614.000000	20.222333
1615.000000	20.278767
1616.000000	20.339700
1617.000000	20.408167
1618.000000	20.476100
1619.000000	20.532467
1620.000000	20.602000
1621.000000	20.669500
1622.000000	20.737867
1623.000000	20.806100
1624.000000	20.875733
1625.000000	20.941733
1626.000000	21.015500
1627.000000	21.086600
1628.000000	21.149467
1629.000000	21.227233
1630.000000	21.293767
1631.000000	21.362033
1632.000000	21.424467
1633.000000	21.489967
1634.000000	21.546733
1635.000000	21.605600
1636.000000	21.660267
1637.000000	21.724967
1638.000000	21.777100
1639.000000	21.830967
1640.000000	21.880833
1641.000000	21.935200
1642.000000	21.978533
1643.000000	22.021800
1644.000000	22.067633
1645.000000	22.105933
1646.000000	22.146433
1647.000000	22.185100
1648.000000	22.228233
1649.000000	22.256500
1650.000000	22.265200
1651.000000	22.297167
1652.000000	22.307167
1653.000000	22.316367
1654.000000	22.327767
1655.000000	22.314167
1656.000000	22.309067
1657.000000	22.294133
1658.000000	22.266467
1659.000000	22.234767
1660.000000	22.187267
1661.000000	22.133400
1662.000000	22.088033
1663.000000	22.022800
1664.000000	21.947167
1665.000000	21.871767
1666.000000	21.778967
1667.000000	21.671200
1668.000000	21.544833
1669.000000	21.409100
1670.000000	21.245200
1671.000000	21.059567
1672.000000	20.880167
1673.000000	20.644733
1674.000000	20.375800
1675.000000	20.063900
1676.000000	19.723167
1677.000000	19.325933
1678.000000	18.879767
1679.000000	18.420300
1680.000000	17.952267
1681.000000	17.506533
1682.000000	17.092200
1683.000000	16.798767
1684.000000	16.620067
1685.000000	16.516633
1686.000000	16.494333
1687.000000	16.480567
1688.000000	16.471100
1689.000000	16.433933
1690.000000	16.347467
1691.000000	16.233400
1692.000000	16.103733
1693.000000	15.995467
1694.000000	15.896067
1695.000000	15.833900
1696.000000	15.840100
1697.000000	15.879967
1698.000000	15.952900
1699.000000	16.066900
1700.000000	16.186000
1701.000000	16.311100
1702.000000	16.415633
1703.000000	16.507533
1704.000000	16.584500
1705.000000	16.633167
1706.000000	16.676133
1707.000000	16.702200
1708.000000	16.728233
1709.000000	16.762100
1710.000000	16.752167
1711.000000	16.748700
1712.000000	16.734500
1713.000000	16.700533
1714.000000	16.658400
1715.000000	16.619333
1716.000000	16.569433
1717.000000	16.529800
1718.000000	16.497200
1719.000000	16.481233
1720.000000	16.465400
1721.000000	16.456567
1722.000000	16.453500
1723.000000	16.468600
1724.000000	16.433700
1725.000000	16.408233
1726.000000	16.371733
1727.000000	16.298733
1728.000000	16.229567
1729.000000	16.140233
1730.000000	16.058000
1731.000000	15.971900
1732.000000	15.912200
1733.000000	15.868333
1734.000000	15.870900
1735.000000	15.898100
1736.000000	15.957567
1737.000000	16.060800
1738.000000	16.196333
1739.000000	16.358867
1740.000000	16.550400
1741.000000	16.735100
1742.000000	16.932000
1743.000000	17.112400
1744.000000	17.283433
1745.000000	17.418867
1746.000000	17.545367
1747.000000	17.657967
1748.000000	17.750500
1749.000000	17.819667
1750.000000	17.876500
1751.000000	17.916867
1752.000000	17.955600
1753.000000	17.983367
1754.000000	17.999133
1755.000000	17.978300
1756.000000	17.949633
1757.000000	17.922967
1758.000000	17.886133
1759.000000	17.833600
1760.000000	17.766333
1761.000000	17.711433
1762.000000	17.675533
1763.000000	17.656200
1764.000000	17.660067
1765.000000	17.696633
1766.000000	17.748700
1767.000000	17.817700
1768.000000	17.894200
1769.000000	18.001567
1770.000000	18.099900
1771.000000	18.214300
1772.000000	18.323667
1773.000000	18.438667
1774.000000	18.552733
1775.000000	18.657467
1776.000000	18.763133
1777.000000	18.855033
1778.000000	18.937567
1779.000000	19.023033
1780.000000	19.093500
1781.000000	19.160900
1782.000000	19.221067
1783.000000	19.291600
1784.000000	19.358067
1785.000000	19.436667
1786.000000	19.493333
1787.000000	19.557100
1788.000000	19.615900
1789.000000	19.675467
1790.000000	19.719600
1791.000000	19.765667
1792.000000	19.809167
1793.000000	19.860800
1794.000000	19.900233
1795.000000	19.944100
1796.000000	19.976900
1797.000000	20.006167
1798.000000	20.046333
1799.000000	20.079667
1800.000000	20.119200
1801.000000	20.166000
1802.000000	20.211833
1803.000000	20.245100
1804.000000	20.277267
1805.000000	20.310900
1806.000000	20.358200
1807.000000	20.407267
1808.000000	20.437867
1809.000000	20.459100
1810.000000	20.481733
1811.000000	20.526867
1812.000000	20.560067
1813.000000	20.571933
1814.000000	20.582800
1815.000000	20.592600
1816.000000	20.594700
1817.000000	20.589067
1818.000000	20.589967
1819.000000	20.601633
1820.000000	20.635167
1821.000000	20.684367
1822.000000	20.719767
1823.000000	20.725967
1824.000000	20.728833
1825.000000	20.754833
1826.000000	20.809500
1827.000000	20.876533
1828.000000	20.951833
1829.000000	21.040100
1830.000000	21.122967
1831.000000	21.200500
1832.000000	21.263433
1833.000000	21.311267
1834.000000	21.378000
1835.000000	21.459833
1836.000000	21.538100
1837.000000	21.610100
1838.000000	21.669400
1839.000000	21.720333
1840.000000	21.777533
1841.000000	21.846500
1842.000000	21.914600
1843.000000	21.933400
1844.000000	21.929767
1845.000000	21.947867
1846.000000	21.997400
1847.000000	22.095200
1848.000000	22.210867
1849.000000	22.324167
1850.000000	22.396167
1851.000000	22.422600
1852.000000	22.456533
1853.000000	22.527933
1854.000000	22.608133
1855.000000	22.665600
1856.000000	22.714000
1857.000000	22.754067
1858.000000	22.776367
1859.000000	22.805900
1860.000000	22.847433
1861.000000	22.854533
1862.000000	22.840133
1863.000000	22.810100
1864.000000	22.770533
1865.000000	22.725633
1866.000000	22.672733
1867.000000	22.619733
1868.000000	22.544733
1869.000000	22.435300
1870.000000	22.317600
1871.000000	22.189767
1872.000000	22.030133
1873.000000	21.846600
1874.000000	21.639333
1875.000000	21.407567
1876.000000	21.154667
1877.000000	20.882833
1878.000000	20.591100
1879.000000	20.259967
1880.000000	19.924133
1881.000000	19.571567
1882.000000	19.212833
1883.000000	18.865367
1884.000000	18.530567
1885.000000	18.200967
1886.000000	17.901333
1887.000000	17.639833
1888.000000	17.394867
1889.000000	17.169333
1890.000000	16.971200
1891.000000	16.770333
1892.000000	16.564867
1893.000000	16.349333
1894.000000	16.157233
1895.000000	15.963367
1896.000000	15.771067
1897.000000	15.574100
1898.000000	15.359967
1899.000000	15.174833
1900.000000	14.984667
1901.000000	14.782700
1902.000000	14.591867
1903.000000	14.405200
1904.000000	14.226600
1905.000000	14.029267
1906.000000	13.859267
1907.000000	13.684533
1908.000000	13.513700
1909.000000	13.353167
1910.000000	13.191567
1911.000000	13.040867
1912.000000	12.888500
1913.000000	12.737600
1914.000000	12.594633
1915.000000	12.444067
1916.000000	12.306800
1917.000000	12.194633
1918.000000	12.062367
1919.000000	11.942300
1920.000000	11.831767
1921.000000	11.729900
1922.000000	11.610633
1923.000000	11.518100
1924.000000	11.435900
1925.000000	11.353000
1926.000000	11.266367
1927.000000	11.186133
1928.000000	11.119433
1929.000000	11.057333
1930.000000	10.997967
1931.000000	10.947533
1932.000000	10.904000
1933.000000	10.838333
1934.000000	10.814867
1935.000000	10.791500
1936.000000	10.740500
1937.000000	10.726967
1938.000000	10.713633
1939.000000	10.701233
1940.000000	10.693100
1941.000000	10.679033
1942.000000	10.677933
1943.000000	10.679100
1944.000000	10.684933
1945.000000	10.686833
1946.000000	10.705500
1947.000000	10.720500
1948.000000	10.731833
1949.000000	10.757700
1950.000000	10.776033
1951.000000	10.811833
1952.000000	10.828800
1953.000000	10.842333
1954.000000	10.845800
1955.000000	10.887600
1956.000000	10.916267
1957.000000	10.945433
1958.000000	10.980833
1959.000000	11.018833
1960.000000	11.041433
1961.000000	11.080133
1962.000000	11.117633
1963.000000	11.159267
1964.000000	11.189167
1965.000000	11.213400
1966.000000	11.255567
1967.000000	11.291667
1968.000000	11.328667
1969.000000	11.364067
1970.000000	11.395700
1971.000000	11.424300
1972.000000	11.466333
1973.000000	11.504100
1974.000000	11.554433
1975.000000	11.580500
1976.000000	11.622867
1977.000000	11.676133
1978.000000	11.712600
1979.000000	11.759533
1980.000000	11.796667
1981.000000	11.851500
1982.000000	11.886167
1983.000000	11.927900
1984.000000	11.972800
1985.000000	12.012467
1986.000000	12.038933
1987.000000	12.097300
1988.000000	12.133833
1989.000000	12.165867
1990.000000	12.212933
1991.000000	12.233000
1992.000000	12.268733
1993.000000	12.298000
1994.000000	12.336167
1995.000000	12.362200
1996.000000	12.386600
1997.000000	12.414400
1998.000000	12.418367
1999.000000	12.440100
2000.000000	12.460433
2001.000000	12.466900
2002.000000	12.480833
2003.000000	12.481933
2004.000000	12.489867
2005.000000	12.493767
2006.000000	12.496200
2007.000000	12.489267
2008.000000	12.492200
2009.000000	12.484667
2010.000000	12.457233
2011.000000	12.450367
2012.000000	12.421633
2013.000000	12.401333
2014.000000	12.385667
2015.000000	12.352100
2016.000000	12.334667
2017.000000	12.295033
2018.000000	12.263633
2019.000000	12.231467
2020.000000	12.193067
2021.000000	12.147133
2022.000000	12.101300
2023.000000	12.056367
2024.000000	12.019600
2025.000000	11.975333
2026.000000	11.914233
2027.000000	11.867900
2028.000000	11.816967
2029.000000	11.756367
2030.000000	11.703833
2031.000000	11.640167
2032.000000	11.596267
2033.000000	11.526200
2034.000000	11.449933
2035.000000	11.387833
2036.000000	11.309233
2037.000000	11.245800
2038.000000	11.163667
2039.000000	11.089800
2040.000000	10.998867
2041.000000	10.911600
2042.000000	10.835733
2043.000000	10.749800
2044.000000	10.670133
2045.000000	10.590200
2046.000000	10.510500
2047.000000	10.432067
2048.000000	10.367200
2049.000000	10.295667
2050.000000	10.233067
2051.000000	10.178967
2052.000000	10.127633
2053.000000	10.083600
2054.000000	10.046400
2055.000000	10.023167
2056.000000	9.992000
2057.000000	9.967400
2058.000000	9.960433
2059.000000	9.944067
2060.000000	9.934467
2061.000000	9.929733
2062.000000	9.937767
2063.000000	9.940333
2064.000000	9.934567
2065.000000	9.939933
2066.000000	9.947300
2067.000000	9.965700
2068.000000	9.969300
2069.000000	9.974600
2070.000000	9.974367
2071.000000	9.976700
2072.000000	9.992600
2073.000000	9.997433
2074.000000	10.001867
2075.000000	10.005333
2076.000000	10.008700
2077.000000	10.011567
2078.000000	10.022700
2079.000000	10.027167
2080.000000	10.030867
2081.000000	10.030767
2082.000000	10.026033
2083.000000	10.032600
2084.000000	10.038633
2085.000000	10.038033
2086.000000	10.034700
2087.000000	10.031367
2088.000000	10.026367
2089.000000	10.023400
2090.000000	10.013533
2091.000000	10.009433
2092.000000	10.010500
2093.000000	10.012833
2094.000000	10.016667
2095.000000	10.015567
2096.000000	10.004067
2097.000000	10.005300
2098.000000	10.019033
2099.000000	10.018467
2100.000000	10.012700
2101.000000	10.020500
2102.000000	10.029200
2103.000000	10.035333
2104.000000	10.041667
2105.000000	10.039967
2106.000000	10.043867
2107.000000	10.051000
2108.000000	10.053600
2109.000000	10.062533
2110.000000	10.072267
2111.000000	10.078600
2112.000000	10.079033
2113.000000	10.085133
2114.000000	10.098067
2115.000000	10.101800
2116.000000	10.113133
2117.000000	10.117567
2118.000000	10.116833
2119.000000	10.117933
2120.000000	10.114867
2121.000000	10.113833
2122.000000	10.104167
2123.000000	10.109500
2124.000000	10.112833
2125.000000	10.103633
2126.000000	10.097433
2127.000000	10.090267
2128.000000	10.090267
2129.000000	10.079667
2130.000000	10.068533
2131.000000	10.068933
2132.000000	10.053700
2133.000000	10.025000
2134.000000	10.009967
2135.000000	9.998900
2136.000000	9.991367
2137.000000	9.968500
2138.000000	9.944433
2139.000000	9.927633
2140.000000	9.914967
2141.000000	9.903600
2142.000000	9.889233
2143.000000	9.863900
2144.000000	9.847267
2145.000000	9.828167
2146.000000	9.801467
2147.000000	9.775867
2148.000000	9.753100
2149.000000	9.735833
2150.000000	9.708233
2151.000000	9.675767
2152.000000	9.650667
2153.000000	9.637733
2154.000000	9.621567
2155.000000	9.596533
2156.000000	9.566333
2157.000000	9.550400
2158.000000	9.538267
2159.000000	9.516500
2160.000000	9.506333
2161.000000	9.492000
2162.000000	9.469167
2163.000000	9.455500
2164.000000	9.463733
2165.000000	9.459967
2166.000000	9.432633
2167.000000	9.425833
2168.000000	9.427700
2169.000000	9.425667
2170.000000	9.416067
2171.000000	9.406000
2172.000000	9.398767
2173.000000	9.409133
2174.000000	9.404267
2175.000000	9.402800
2176.000000	9.405167
2177.000000	9.412533
2178.000000	9.415600
2179.000000	9.423867
2180.000000	9.428933
2181.000000	9.440300
2182.000000	9.443900
2183.000000	9.455300
2184.000000	9.462200
2185.000000	9.469667
2186.000000	9.489933
2187.000000	9.502367
2188.000000	9.504200
2189.000000	9.510667
2190.000000	9.521533
2191.000000	9.521433
2192.000000	9.524433
2193.000000	9.528967
2194.000000	9.539900
2195.000000	9.540900
2196.000000	9.542233
2197.000000	9.553800
2198.000000	9.554033
2199.000000	9.555167
2200.000000	9.565600
2201.000000	9.560533
2202.000000	9.578533
2203.000000	9.578533
2204.000000	9.582400
2205.000000	9.584633
2206.000000	9.598833
2207.000000	9.607200
2208.000000	9.598367
2209.000000	9.620933
2210.000000	9.627533
2211.000000	9.648767
2212.000000	9.652700
2213.000000	9.677867
2214.000000	9.678033
2215.000000	9.692867
2216.000000	9.707367
2217.000000	9.729533
2218.000000	9.745233
2219.000000	9.742967
2220.000000	9.760933
2221.000000	9.762100
2222.000000	9.762567
2223.000000	9.768067
2224.000000	9.766500
2225.000000	9.770300
2226.000000	9.777033
2227.000000	9.778100
2228.000000	9.762500
2229.000000	9.749467
2230.000000	9.723700
2231.000000	9.708033
2232.000000	9.675000
2233.000000	9.646167
2234.000000	9.605133
2235.000000	9.567333
2236.000000	9.526467
2237.000000	9.471167
2238.000000	9.415300
2239.000000	9.375533
2240.000000	9.308967
2241.000000	9.243233
2242.000000	9.162733
2243.000000	9.104167
2244.000000	9.027667
2245.000000	8.950500
2246.000000	8.852833
2247.000000	8.759600
2248.000000	8.666433
2249.000000	8.565867
2250.000000	8.459933
2251.000000	8.345600
2252.000000	8.240100
2253.000000	8.101567
2254.000000	7.992600
2255.000000	7.859767
2256.000000	7.734200
2257.000000	7.608433
2258.000000	7.489700
2259.000000	7.357233
2260.000000	7.253400
2261.000000	7.144200
2262.000000	7.043800
2263.000000	6.950933
2264.000000	6.876067
2265.000000	6.794600
2266.000000	6.741233
2267.000000	6.687900
2268.000000	6.643867
2269.000000	6.616333
2270.000000	6.589400
2271.000000	6.569900
2272.000000	6.550633
2273.000000	6.547767
2274.000000	6.548833
2275.000000	6.551467
2276.000000	6.563500
2277.000000	6.566267
2278.000000	6.580167
2279.000000	6.592067
2280.000000	6.606900
2281.000000	6.632633
2282.000000	6.634533
2283.000000	6.658533
2284.000000	6.662333
2285.000000	6.676300
2286.000000	6.682400
2287.000000	6.678833
2288.000000	6.681967
2289.000000	6.670500
2290.000000	6.663133
2291.000000	6.640567
2292.000000	6.628767
2293.000000	6.603933
2294.000000	6.577667
2295.000000	6.543133
2296.000000	6.497700
2297.000000	6.449167
2298.000000	6.407233
2299.000000	6.370100
2300.000000	6.334700
2301.000000	6.287500
2302.000000	6.247067
2303.000000	6.207967
2304.000000	6.191600
2305.000000	6.170733
2306.000000	6.158133
2307.000000	6.159633
2308.000000	6.160300
2309.000000	6.171167
2310.000000	6.191767
2311.000000	6.212133
2312.000000	6.239433
2313.000000	6.277900
2314.000000	6.311633
2315.000000	6.356433
2316.000000	6.397567
2317.000000	6.447467
2318.000000	6.480933
2319.000000	6.525267
2320.000000	6.572667
2321.000000	6.612400
2322.000000	6.641533
2323.000000	6.679267
2324.000000	6.718867
2325.000000	6.745833
2326.000000	6.777833
2327.000000	6.808533
2328.000000	6.831333
2329.000000	6.851467
2330.000000	6.864767
2331.000000	6.871967
2332.000000	6.896733
2333.000000	6.918800
2334.000000	6.927333
2335.000000	6.932567
2336.000000	6.934967
2337.000000	6.936933
2338.000000	6.934033
2339.000000	6.931900
2340.000000	6.929933
2341.000000	6.912700
2342.000000	6.892700
2343.000000	6.883967
2344.000000	6.862967
2345.000000	6.838233
2346.000000	6.820067
2347.000000	6.804067
2348.000000	6.780167
2349.000000	6.762200
2350.000000	6.755633
2351.000000	6.752400
2352.000000	6.744000
2353.000000	6.745700
2354.000000	6.748900
2355.000000	6.758967
2356.000000	6.774367
2357.000000	6.787667
2358.000000	6.819733
2359.000000	6.849167
2360.000000	6.864367
2361.000000	6.894400
2362.000000	6.934433
2363.000000	6.964667
2364.000000	6.986167
2365.000000	7.016100
2366.000000	7.048067
2367.000000	7.075533
2368.000000	7.099600
2369.000000	7.124100
2370.000000	7.149400
2371.000000	7.174300
2372.000000	7.180700
2373.000000	7.186267
2374.000000	7.209300
2375.000000	7.230233
2376.000000	7.237467
2377.000000	7.250867
2378.000000	7.266000
2379.000000	7.273933
2380.000000	7.270300
2381.000000	7.284767
2382.000000	7.296233
2383.000000	7.297967
2384.000000	7.308467
2385.000000	7.315600
2386.000000	7.322633
2387.000000	7.320767
2388.000000	7.321933
2389.000000	7.314667
2390.000000	7.305833
2391.000000	7.312167
2392.000000	7.310667
2393.000000	7.300133
2394.000000	7.301700
2395.000000	7.297967
2396.000000	7.279833
2397.000000	7.263133
2398.000000	7.257533
2399.000000	7.249000
2400.000000	7.255067
2401.000000	7.241667
2402.000000	7.227300
2403.000000	7.226533
2404.000000	7.211733
2405.000000	7.197967
2406.000000	7.205633
2407.000000	7.219533
2408.000000	7.210767
2409.000000	7.196500
2410.000000	7.193267
2411.000000	7.195167
2412.000000	7.200133
2413.000000	7.193600
2414.000000	7.175567
2415.000000	7.172400
2416.000000	7.174733
2417.000000	7.170300
2418.000000	7.159267
2419.000000	7.148100
2420.000000	7.133967
2421.000000	7.132300
2422.000000	7.147500
2423.000000	7.163533
2424.000000	7.162267
2425.000000	7.144933
2426.000000	7.126767
2427.000000	7.105167
2428.000000	7.086300
2429.000000	7.066367
2430.000000	7.035600
2431.000000	7.004567
2432.000000	6.981800
2433.000000	6.956600
2434.000000	6.928400
2435.000000	6.895067
2436.000000	6.884567
2437.000000	6.846967
2438.000000	6.810600
2439.000000	6.777767
2440.000000	6.742100
2441.000000	6.711133
2442.000000	6.666000
2443.000000	6.633967
2444.000000	6.601000
2445.000000	6.551633
2446.000000	6.534167
2447.000000	6.493133
2448.000000	6.442833
2449.000000	6.407833
2450.000000	6.375600
2451.000000	6.337000
2452.000000	6.305233
2453.000000	6.275733
2454.000000	6.239700
2455.000000	6.207700
2456.000000	6.191200
2457.000000	6.152967
2458.000000	6.115967
2459.000000	6.077200
2460.000000	6.069100
2461.000000	6.062200
2462.000000	6.015667
2463.000000	5.991867
2464.000000	5.992533
2465.000000	5.994233
2466.000000	5.951900
2467.000000	5.949433
2468.000000	5.941900
2469.000000	5.933667
2470.000000	5.902800
2471.000000	5.920633
2472.000000	5.939100
2473.000000	5.924867
2474.000000	5.903333
2475.000000	5.883733
2476.000000	5.939433
2477.000000	5.920767
2478.000000	5.925333
2479.000000	5.918300
2480.000000	5.899000
2481.000000	5.927700
2482.000000	5.937000
2483.000000	5.942467
2484.000000	5.927867
2485.000000	5.976600
2486.000000	5.911700
2487.000000	5.921700
2488.000000	5.958867
2489.000000	5.967500
2490.000000	5.972000
2491.000000	6.016367
2492.000000	5.995667
2493.000000	6.051200
2494.000000	6.006433
2495.000000	6.141800
2496.000000	6.066233
2497.000000	6.091733
2498.000000	6.127467
2499.000000	6.191067
2500.000000	6.172767
