PE UV       SUBTECH     SPECTRUM    ASCII       PEDS        4.00        
   -1
CICIMAUCR0012-3.Sample.ASC
24/04/12
09:39:08.00
24/04/12
09:39:08.00
Vinicio Soto Monge
C. cupreomarginata
250,000000
1
Lambda 1050
1050L1511233
PerkinElmer UV WinLab 6.3.2.0749 / 2.02.05 Lambda 900 UV/VIS/NIR, Aug  7 2015 09:38:08

0
0
3350/servo 860,8/2
0
0
UV/VIS
1
1
1
DoubleDePol,CommonBeamDepol,RBeamAtt,SBeamAtt,60mm sphere, WB InGaAs Detector
0
0
0
0
Program
Program
3350/servo 860,8/2
3350/0,2 860,8/0,2
3350/0,2 860,8/0,2
0
15.00
 
 
 
0
 
860,8
319,2
860,8
Front
100
on
S:100 R:100
0
0
0
0
 
0
 
 
 
0
 
 
0
0
0
0
0
 
 
 
 
0
0


0
0
#HDR
-1
-1
#GR
nm
%R
1.0
0.0
2500,000000
-1,000000
2251
8
59,329800
5,000400
#DATA
250.000000	4.707333
251.000000	4.727667
252.000000	4.693633
253.000000	4.685000
254.000000	4.715367
255.000000	4.668800
256.000000	4.683033
257.000000	4.673467
258.000000	4.673033
259.000000	4.650467
260.000000	4.648633
261.000000	4.632800
262.000000	4.591100
263.000000	4.560767
264.000000	4.522867
265.000000	4.513700
266.000000	4.506333
267.000000	4.496333
268.000000	4.491233
269.000000	4.491633
270.000000	4.484100
271.000000	4.480033
272.000000	4.439567
273.000000	4.444767
274.000000	4.430000
275.000000	4.414200
276.000000	4.395100
277.000000	4.397900
278.000000	4.391033
279.000000	4.384833
280.000000	4.365467
281.000000	4.368267
282.000000	4.365633
283.000000	4.370133
284.000000	4.346367
285.000000	4.355367
286.000000	4.359167
287.000000	4.390633
288.000000	4.370033
289.000000	4.334333
290.000000	4.342333
291.000000	4.372067
292.000000	4.360800
293.000000	4.332900
294.000000	4.351333
295.000000	4.333233
296.000000	4.302733
297.000000	4.306933
298.000000	4.312500
299.000000	4.305100
300.000000	4.326833
301.000000	4.320467
302.000000	4.315133
303.000000	4.295900
304.000000	4.327467
305.000000	4.325533
306.000000	4.293300
307.000000	4.293200
308.000000	4.324533
309.000000	4.313600
310.000000	4.294933
311.000000	4.310333
312.000000	4.288033
313.000000	4.295200
314.000000	4.309333
315.000000	4.301800
316.000000	4.407333
317.000000	4.621667
318.000000	4.413900
319.000000	4.430800
320.000000	4.500733
321.000000	4.496967
322.000000	4.482400
323.000000	4.504467
324.000000	4.400367
325.000000	4.445300
326.000000	4.528467
327.000000	4.457700
328.000000	4.389167
329.000000	4.421233
330.000000	4.446833
331.000000	4.359900
332.000000	4.353133
333.000000	4.371067
334.000000	4.322233
335.000000	4.339000
336.000000	4.369733
337.000000	4.327000
338.000000	4.293067
339.000000	4.327867
340.000000	4.309467
341.000000	4.340233
342.000000	4.338633
343.000000	4.325167
344.000000	4.308500
345.000000	4.299333
346.000000	4.318233
347.000000	4.325200
348.000000	4.315367
349.000000	4.305733
350.000000	4.358100
351.000000	4.332967
352.000000	4.388133
353.000000	4.394567
354.000000	4.414500
355.000000	4.398033
356.000000	4.429133
357.000000	4.433300
358.000000	4.452333
359.000000	4.452667
360.000000	4.449600
361.000000	4.495900
362.000000	4.530133
363.000000	4.494500
364.000000	4.528000
365.000000	4.552633
366.000000	4.597700
367.000000	4.660867
368.000000	4.633000
369.000000	4.624967
370.000000	4.679133
371.000000	4.731067
372.000000	4.765433
373.000000	4.783267
374.000000	4.837300
375.000000	4.982733
376.000000	5.048733
377.000000	5.089700
378.000000	5.146267
379.000000	5.226467
380.000000	5.316767
381.000000	5.399800
382.000000	5.481367
383.000000	5.574367
384.000000	5.674300
385.000000	5.775233
386.000000	5.889467
387.000000	5.995167
388.000000	6.109833
389.000000	6.237467
390.000000	6.361933
391.000000	6.485600
392.000000	6.628100
393.000000	6.774500
394.000000	6.901167
395.000000	7.039633
396.000000	7.188733
397.000000	7.334100
398.000000	7.474533
399.000000	7.629133
400.000000	7.779967
401.000000	7.933567
402.000000	8.081733
403.000000	8.224167
404.000000	8.378033
405.000000	8.520533
406.000000	8.664333
407.000000	8.804867
408.000000	8.949367
409.000000	9.094533
410.000000	9.233133
411.000000	9.368267
412.000000	9.493633
413.000000	9.626767
414.000000	9.749533
415.000000	9.869000
416.000000	9.988267
417.000000	10.096200
418.000000	10.211200
419.000000	10.308100
420.000000	10.410667
421.000000	10.514233
422.000000	10.612333
423.000000	10.706900
424.000000	10.795733
425.000000	10.890667
426.000000	10.974500
427.000000	11.052967
428.000000	11.135033
429.000000	11.207067
430.000000	11.287167
431.000000	11.370967
432.000000	11.453667
433.000000	11.532533
434.000000	11.610767
435.000000	11.697967
436.000000	11.782067
437.000000	11.853633
438.000000	11.945233
439.000000	12.038400
440.000000	12.125567
441.000000	12.220700
442.000000	12.300300
443.000000	12.388800
444.000000	12.492733
445.000000	12.567900
446.000000	12.626567
447.000000	12.712067
448.000000	12.795833
449.000000	12.872133
450.000000	12.951800
451.000000	13.033733
452.000000	13.119400
453.000000	13.211267
454.000000	13.300067
455.000000	13.401833
456.000000	13.503400
457.000000	13.611100
458.000000	13.715500
459.000000	13.832933
460.000000	13.960433
461.000000	14.091500
462.000000	14.237400
463.000000	14.394900
464.000000	14.567933
465.000000	14.749367
466.000000	14.941233
467.000000	15.139967
468.000000	15.348800
469.000000	15.574900
470.000000	15.815967
471.000000	16.062333
472.000000	16.322200
473.000000	16.603667
474.000000	16.896400
475.000000	17.186600
476.000000	17.507800
477.000000	17.825567
478.000000	18.161333
479.000000	18.487200
480.000000	18.867533
481.000000	19.278167
482.000000	19.689867
483.000000	20.077000
484.000000	20.438200
485.000000	20.805767
486.000000	21.168633
487.000000	21.543367
488.000000	21.912867
489.000000	22.278567
490.000000	22.671367
491.000000	23.069100
492.000000	23.464800
493.000000	23.849733
494.000000	24.252633
495.000000	24.686333
496.000000	25.110600
497.000000	25.530567
498.000000	25.964767
499.000000	26.421733
500.000000	26.885267
501.000000	27.354967
502.000000	27.832933
503.000000	28.341500
504.000000	28.859633
505.000000	29.371300
506.000000	29.891033
507.000000	30.428067
508.000000	30.981100
509.000000	31.546100
510.000000	32.135800
511.000000	32.722767
512.000000	33.325100
513.000000	33.926467
514.000000	34.536033
515.000000	35.129100
516.000000	35.740967
517.000000	36.350900
518.000000	36.932633
519.000000	37.531133
520.000000	38.124667
521.000000	38.723700
522.000000	39.326767
523.000000	39.894400
524.000000	40.449267
525.000000	41.005667
526.000000	41.531067
527.000000	42.013967
528.000000	42.499433
529.000000	42.943533
530.000000	43.386733
531.000000	43.795967
532.000000	44.188633
533.000000	44.560633
534.000000	44.891667
535.000000	45.195667
536.000000	45.447500
537.000000	45.673133
538.000000	45.896533
539.000000	46.084967
540.000000	46.255033
541.000000	46.389067
542.000000	46.505967
543.000000	46.604367
544.000000	46.683100
545.000000	46.745633
546.000000	46.767033
547.000000	46.761333
548.000000	46.757400
549.000000	46.763400
550.000000	46.738733
551.000000	46.671333
552.000000	46.621300
553.000000	46.556433
554.000000	46.461500
555.000000	46.373167
556.000000	46.282900
557.000000	46.138167
558.000000	45.998700
559.000000	45.833900
560.000000	45.571733
561.000000	45.429833
562.000000	45.282567
563.000000	45.141300
564.000000	44.964100
565.000000	44.804700
566.000000	44.640467
567.000000	44.450767
568.000000	44.263233
569.000000	44.074333
570.000000	43.874467
571.000000	43.684500
572.000000	43.500700
573.000000	43.302967
574.000000	43.086133
575.000000	42.879733
576.000000	42.666667
577.000000	42.456533
578.000000	42.236300
579.000000	42.024600
580.000000	41.787300
581.000000	41.565967
582.000000	41.353533
583.000000	41.129133
584.000000	40.901567
585.000000	40.683867
586.000000	40.488067
587.000000	40.274133
588.000000	40.089167
589.000000	39.914633
590.000000	39.742567
591.000000	39.559867
592.000000	39.390733
593.000000	39.211233
594.000000	39.042467
595.000000	38.897233
596.000000	38.737133
597.000000	38.596767
598.000000	38.455000
599.000000	38.302567
600.000000	38.149567
601.000000	37.981000
602.000000	37.830533
603.000000	37.665967
604.000000	37.485467
605.000000	37.323200
606.000000	37.181733
607.000000	37.042667
608.000000	36.881567
609.000000	36.753967
610.000000	36.637433
611.000000	36.522067
612.000000	36.429500
613.000000	36.338967
614.000000	36.266933
615.000000	36.220833
616.000000	36.191433
617.000000	36.148833
618.000000	36.133267
619.000000	36.131700
620.000000	36.143967
621.000000	36.130300
622.000000	36.132933
623.000000	36.151933
624.000000	36.191700
625.000000	36.240600
626.000000	36.300267
627.000000	36.355400
628.000000	36.434700
629.000000	36.535400
630.000000	36.631000
631.000000	36.750833
632.000000	36.869033
633.000000	37.007100
634.000000	37.148433
635.000000	37.293933
636.000000	37.454367
637.000000	37.628700
638.000000	37.828000
639.000000	38.001667
640.000000	38.156500
641.000000	38.344633
642.000000	38.515267
643.000000	38.682867
644.000000	38.861967
645.000000	39.040767
646.000000	39.192667
647.000000	39.331067
648.000000	39.472900
649.000000	39.619067
650.000000	39.760167
651.000000	39.898400
652.000000	40.036600
653.000000	40.159433
654.000000	40.246667
655.000000	40.370467
656.000000	40.488400
657.000000	40.595500
658.000000	40.693367
659.000000	40.792367
660.000000	40.873567
661.000000	40.990600
662.000000	41.095100
663.000000	41.185400
664.000000	41.263200
665.000000	41.345733
666.000000	41.420633
667.000000	41.504000
668.000000	41.578600
669.000000	41.662700
670.000000	41.742433
671.000000	41.782667
672.000000	41.859100
673.000000	41.955767
674.000000	42.029067
675.000000	42.093267
676.000000	42.137100
677.000000	42.195400
678.000000	42.251400
679.000000	42.320133
680.000000	42.393833
681.000000	42.472667
682.000000	42.552400
683.000000	42.637167
684.000000	42.712700
685.000000	42.783633
686.000000	42.886767
687.000000	42.953700
688.000000	42.989800
689.000000	43.059900
690.000000	43.143467
691.000000	43.222333
692.000000	43.308600
693.000000	43.383067
694.000000	43.462800
695.000000	43.536500
696.000000	43.610233
697.000000	43.679500
698.000000	43.744600
699.000000	43.805867
700.000000	43.861633
701.000000	43.939700
702.000000	44.023767
703.000000	44.098567
704.000000	44.163067
705.000000	44.217867
706.000000	44.250000
707.000000	44.344300
708.000000	44.405467
709.000000	44.475067
710.000000	44.546533
711.000000	44.600333
712.000000	44.670867
713.000000	44.725700
714.000000	44.787500
715.000000	44.832367
716.000000	44.888033
717.000000	44.940533
718.000000	44.981267
719.000000	45.041700
720.000000	45.090133
721.000000	45.120467
722.000000	45.216433
723.000000	45.290100
724.000000	45.349200
725.000000	45.404333
726.000000	45.481967
727.000000	45.537500
728.000000	45.603300
729.000000	45.669467
730.000000	45.743100
731.000000	45.815833
732.000000	45.919100
733.000000	45.968367
734.000000	46.036733
735.000000	46.090600
736.000000	46.181033
737.000000	46.247800
738.000000	46.305800
739.000000	46.347833
740.000000	46.422467
741.000000	46.518700
742.000000	46.606667
743.000000	46.638800
744.000000	46.742900
745.000000	46.812333
746.000000	46.901167
747.000000	46.936833
748.000000	47.024900
749.000000	47.070567
750.000000	47.132500
751.000000	47.252933
752.000000	47.291933
753.000000	47.378167
754.000000	47.409533
755.000000	47.490600
756.000000	47.570800
757.000000	47.614533
758.000000	47.719700
759.000000	47.789700
760.000000	47.837633
761.000000	47.851033
762.000000	47.948100
763.000000	47.972233
764.000000	47.980367
765.000000	48.106967
766.000000	48.166733
767.000000	48.229667
768.000000	48.276233
769.000000	48.344400
770.000000	48.427900
771.000000	48.480967
772.000000	48.537300
773.000000	48.621867
774.000000	48.657567
775.000000	48.760133
776.000000	48.815733
777.000000	48.845767
778.000000	48.952200
779.000000	48.945767
780.000000	49.059167
781.000000	49.075267
782.000000	49.078867
783.000000	49.204367
784.000000	49.260300
785.000000	49.270033
786.000000	49.312300
787.000000	49.408533
788.000000	49.374267
789.000000	49.420500
790.000000	49.461467
791.000000	49.473733
792.000000	49.536900
793.000000	49.577533
794.000000	49.606600
795.000000	49.680967
796.000000	49.694067
797.000000	49.681800
798.000000	49.694133
799.000000	49.698833
800.000000	49.680233
801.000000	49.696500
802.000000	49.660733
803.000000	49.714767
804.000000	49.726467
805.000000	49.690500
806.000000	49.696167
807.000000	49.633133
808.000000	49.548400
809.000000	49.542000
810.000000	49.602533
811.000000	49.599633
812.000000	49.545767
813.000000	49.534667
814.000000	49.516500
815.000000	49.522133
816.000000	49.551600
817.000000	49.398667
818.000000	49.428567
819.000000	49.366633
820.000000	49.284500
821.000000	49.232200
822.000000	49.231433
823.000000	49.192200
824.000000	49.145100
825.000000	49.161167
826.000000	49.072600
827.000000	48.998633
828.000000	48.926833
829.000000	48.923467
830.000000	48.860433
831.000000	48.760700
832.000000	48.695967
833.000000	48.615433
834.000000	48.536267
835.000000	48.503800
836.000000	48.544767
837.000000	48.376200
838.000000	48.284700
839.000000	48.275633
840.000000	48.216700
841.000000	47.989367
842.000000	48.011400
843.000000	47.890200
844.000000	47.876133
845.000000	47.666700
846.000000	47.607100
847.000000	47.453200
848.000000	47.375600
849.000000	47.383667
850.000000	47.215700
851.000000	47.150133
852.000000	47.040867
853.000000	46.932933
854.000000	46.898567
855.000000	46.881367
856.000000	46.790933
857.000000	46.652633
858.000000	46.774978
859.000000	47.058458
860.000000	46.545757
861.000000	46.747473
862.000000	47.092023
863.000000	46.814277
864.000000	46.460031
865.000000	46.499264
866.000000	46.769163
867.000000	46.787876
868.000000	46.827819
869.000000	46.915521
870.000000	46.704339
871.000000	46.707140
872.000000	46.712796
873.000000	47.012857
874.000000	46.578780
875.000000	46.784661
876.000000	47.049532
877.000000	46.803204
878.000000	46.330739
879.000000	46.242745
880.000000	46.658990
881.000000	46.520770
882.000000	46.456433
883.000000	46.295946
884.000000	46.383343
885.000000	46.450773
886.000000	46.477813
887.000000	46.623292
888.000000	46.764420
889.000000	46.519388
890.000000	46.417832
891.000000	46.447549
892.000000	46.372634
893.000000	46.466262
894.000000	46.425311
895.000000	46.437507
896.000000	46.362263
897.000000	46.379473
898.000000	46.337293
899.000000	46.521753
900.000000	46.486290
901.000000	46.361646
902.000000	46.332613
903.000000	46.279573
904.000000	46.274638
905.000000	46.401987
906.000000	46.341310
907.000000	46.311591
908.000000	46.301586
909.000000	46.389339
910.000000	46.479391
911.000000	46.520522
912.000000	46.583402
913.000000	46.612989
914.000000	46.703052
915.000000	46.714917
916.000000	46.747231
917.000000	46.781328
918.000000	46.829337
919.000000	46.929942
920.000000	47.030008
921.000000	46.992042
922.000000	47.030854
923.000000	47.160556
924.000000	47.134617
925.000000	47.190162
926.000000	47.304514
927.000000	47.327775
928.000000	47.370912
929.000000	47.388607
930.000000	47.411233
931.000000	47.503456
932.000000	47.598465
933.000000	47.623946
934.000000	47.656209
935.000000	47.727118
936.000000	47.764677
937.000000	47.769372
938.000000	47.773848
939.000000	47.814602
940.000000	47.912063
941.000000	47.974426
942.000000	48.058102
943.000000	48.108616
944.000000	48.175590
945.000000	48.249252
946.000000	48.252566
947.000000	48.273399
948.000000	48.320122
949.000000	48.377817
950.000000	48.416402
951.000000	48.467666
952.000000	48.583832
953.000000	48.627743
954.000000	48.640556
955.000000	48.727993
956.000000	48.777217
957.000000	48.796551
958.000000	48.824582
959.000000	48.845686
960.000000	48.948008
961.000000	48.958206
962.000000	49.003614
963.000000	49.015611
964.000000	49.008112
965.000000	49.081367
966.000000	49.145011
967.000000	49.196615
968.000000	49.240260
969.000000	49.272113
970.000000	49.318163
971.000000	49.340809
972.000000	49.392115
973.000000	49.472117
974.000000	49.549610
975.000000	49.595068
976.000000	49.635798
977.000000	49.683047
978.000000	49.733131
979.000000	49.738845
980.000000	49.808883
981.000000	49.849716
982.000000	49.891112
983.000000	49.932061
984.000000	49.984492
985.000000	50.024908
986.000000	50.054362
987.000000	50.081556
988.000000	50.140789
989.000000	50.176193
990.000000	50.226399
991.000000	50.269754
992.000000	50.332888
993.000000	50.362187
994.000000	50.444377
995.000000	50.448888
996.000000	50.496634
997.000000	50.549337
998.000000	50.582398
999.000000	50.649235
1000.000000	50.704623
1001.000000	50.757059
1002.000000	50.771846
1003.000000	50.800138
1004.000000	50.875061
1005.000000	50.902257
1006.000000	50.972684
1007.000000	51.005440
1008.000000	51.008657
1009.000000	51.024378
1010.000000	51.094380
1011.000000	51.168070
1012.000000	51.215584
1013.000000	51.242005
1014.000000	51.311159
1015.000000	51.366825
1016.000000	51.431108
1017.000000	51.490518
1018.000000	51.551706
1019.000000	51.610436
1020.000000	51.668934
1021.000000	51.713948
1022.000000	51.797258
1023.000000	51.875213
1024.000000	51.961612
1025.000000	52.009474
1026.000000	52.093487
1027.000000	52.166425
1028.000000	52.223182
1029.000000	52.271377
1030.000000	52.325510
1031.000000	52.411979
1032.000000	52.491206
1033.000000	52.534470
1034.000000	52.616463
1035.000000	52.650315
1036.000000	52.696132
1037.000000	52.764757
1038.000000	52.814878
1039.000000	52.872548
1040.000000	52.935005
1041.000000	52.971455
1042.000000	52.990453
1043.000000	53.039724
1044.000000	53.108536
1045.000000	53.160765
1046.000000	53.197029
1047.000000	53.230355
1048.000000	53.279725
1049.000000	53.327358
1050.000000	53.375757
1051.000000	53.438993
1052.000000	53.476710
1053.000000	53.535356
1054.000000	53.606929
1055.000000	53.665898
1056.000000	53.731575
1057.000000	53.799056
1058.000000	53.828813
1059.000000	53.903680
1060.000000	53.953069
1061.000000	54.003316
1062.000000	54.065595
1063.000000	54.105841
1064.000000	54.151985
1065.000000	54.192762
1066.000000	54.267906
1067.000000	54.324597
1068.000000	54.407316
1069.000000	54.444801
1070.000000	54.497023
1071.000000	54.556391
1072.000000	54.596783
1073.000000	54.643705
1074.000000	54.719506
1075.000000	54.768586
1076.000000	54.805362
1077.000000	54.881095
1078.000000	54.932037
1079.000000	54.976819
1080.000000	55.024366
1081.000000	55.096622
1082.000000	55.114613
1083.000000	55.173865
1084.000000	55.215781
1085.000000	55.286932
1086.000000	55.323951
1087.000000	55.379787
1088.000000	55.425039
1089.000000	55.491070
1090.000000	55.523683
1091.000000	55.580949
1092.000000	55.612404
1093.000000	55.636537
1094.000000	55.687947
1095.000000	55.729756
1096.000000	55.768249
1097.000000	55.817718
1098.000000	55.846792
1099.000000	55.888792
1100.000000	55.918306
1101.000000	55.944640
1102.000000	55.984852
1103.000000	56.014877
1104.000000	56.021673
1105.000000	56.051161
1106.000000	56.075963
1107.000000	56.107368
1108.000000	56.123563
1109.000000	56.140166
1110.000000	56.156096
1111.000000	56.182062
1112.000000	56.209998
1113.000000	56.219947
1114.000000	56.234569
1115.000000	56.240720
1116.000000	56.265920
1117.000000	56.278214
1118.000000	56.280205
1119.000000	56.289009
1120.000000	56.282672
1121.000000	56.264217
1122.000000	56.274450
1123.000000	56.261021
1124.000000	56.210612
1125.000000	56.149495
1126.000000	56.085149
1127.000000	56.019891
1128.000000	55.969591
1129.000000	55.865216
1130.000000	55.712835
1131.000000	55.572812
1132.000000	55.399175
1133.000000	55.198362
1134.000000	55.022941
1135.000000	54.795852
1136.000000	54.499749
1137.000000	54.224724
1138.000000	53.957030
1139.000000	53.718635
1140.000000	53.480327
1141.000000	53.233809
1142.000000	52.979853
1143.000000	52.758266
1144.000000	52.552221
1145.000000	52.375867
1146.000000	52.235593
1147.000000	52.143523
1148.000000	52.109152
1149.000000	52.089816
1150.000000	52.079252
1151.000000	52.059673
1152.000000	52.044395
1153.000000	52.025018
1154.000000	51.942038
1155.000000	51.816995
1156.000000	51.664887
1157.000000	51.478784
1158.000000	51.242321
1159.000000	50.989981
1160.000000	50.737367
1161.000000	50.474666
1162.000000	50.183254
1163.000000	49.889325
1164.000000	49.587961
1165.000000	49.308496
1166.000000	49.018210
1167.000000	48.719404
1168.000000	48.424419
1169.000000	48.150822
1170.000000	47.871665
1171.000000	47.598256
1172.000000	47.314727
1173.000000	47.044627
1174.000000	46.794649
1175.000000	46.544354
1176.000000	46.295756
1177.000000	46.021909
1178.000000	45.692146
1179.000000	45.323242
1180.000000	44.917053
1181.000000	44.486507
1182.000000	44.040124
1183.000000	43.641499
1184.000000	43.341509
1185.000000	43.140133
1186.000000	43.063311
1187.000000	43.114972
1188.000000	43.279776
1189.000000	43.540397
1190.000000	43.879891
1191.000000	44.276670
1192.000000	44.684067
1193.000000	45.072200
1194.000000	45.401933
1195.000000	45.681524
1196.000000	45.887565
1197.000000	46.042258
1198.000000	46.158561
1199.000000	46.257116
1200.000000	46.323250
1201.000000	46.381169
1202.000000	46.412806
1203.000000	46.431364
1204.000000	46.464746
1205.000000	46.494506
1206.000000	46.530897
1207.000000	46.582382
1208.000000	46.662316
1209.000000	46.732532
1210.000000	46.821187
1211.000000	46.923089
1212.000000	47.025981
1213.000000	47.129931
1214.000000	47.228218
1215.000000	47.339304
1216.000000	47.453008
1217.000000	47.589568
1218.000000	47.710532
1219.000000	47.840602
1220.000000	47.980391
1221.000000	48.125464
1222.000000	48.269878
1223.000000	48.425653
1224.000000	48.585135
1225.000000	48.740325
1226.000000	48.883442
1227.000000	49.043362
1228.000000	49.199671
1229.000000	49.349457
1230.000000	49.499848
1231.000000	49.643557
1232.000000	49.790886
1233.000000	49.925925
1234.000000	50.060027
1235.000000	50.205752
1236.000000	50.332258
1237.000000	50.463310
1238.000000	50.603724
1239.000000	50.737468
1240.000000	50.857425
1241.000000	50.976440
1242.000000	51.080564
1243.000000	51.197619
1244.000000	51.307148
1245.000000	51.410911
1246.000000	51.503344
1247.000000	51.588349
1248.000000	51.670281
1249.000000	51.745842
1250.000000	51.826065
1251.000000	51.895002
1252.000000	51.952464
1253.000000	52.000295
1254.000000	52.056856
1255.000000	52.098461
1256.000000	52.145846
1257.000000	52.204677
1258.000000	52.237573
1259.000000	52.267505
1260.000000	52.303249
1261.000000	52.352097
1262.000000	52.375577
1263.000000	52.406465
1264.000000	52.451756
1265.000000	52.477641
1266.000000	52.507561
1267.000000	52.537848
1268.000000	52.580095
1269.000000	52.616146
1270.000000	52.654988
1271.000000	52.687677
1272.000000	52.708907
1273.000000	52.732339
1274.000000	52.757139
1275.000000	52.789559
1276.000000	52.828394
1277.000000	52.867029
1278.000000	52.900314
1279.000000	52.944183
1280.000000	52.990866
1281.000000	53.035642
1282.000000	53.085927
1283.000000	53.142677
1284.000000	53.198178
1285.000000	53.245250
1286.000000	53.293287
1287.000000	53.343947
1288.000000	53.389849
1289.000000	53.416268
1290.000000	53.444255
1291.000000	53.481840
1292.000000	53.495547
1293.000000	53.510270
1294.000000	53.532910
1295.000000	53.547004
1296.000000	53.557904
1297.000000	53.566515
1298.000000	53.567865
1299.000000	53.560467
1300.000000	53.551280
1301.000000	53.549944
1302.000000	53.546894
1303.000000	53.539932
1304.000000	53.521738
1305.000000	53.511776
1306.000000	53.504377
1307.000000	53.466435
1308.000000	53.441982
1309.000000	53.407427
1310.000000	53.365647
1311.000000	53.322516
1312.000000	53.272128
1313.000000	53.205998
1314.000000	53.162797
1315.000000	53.101634
1316.000000	53.023307
1317.000000	52.953066
1318.000000	52.880241
1319.000000	52.807042
1320.000000	52.732103
1321.000000	52.630624
1322.000000	52.544706
1323.000000	52.470754
1324.000000	52.373238
1325.000000	52.280496
1326.000000	52.163037
1327.000000	52.032226
1328.000000	51.937622
1329.000000	51.796534
1330.000000	51.669713
1331.000000	51.535745
1332.000000	51.378783
1333.000000	51.211160
1334.000000	51.057107
1335.000000	50.862766
1336.000000	50.700370
1337.000000	50.508575
1338.000000	50.302132
1339.000000	50.089331
1340.000000	49.870725
1341.000000	49.637311
1342.000000	49.381951
1343.000000	49.155576
1344.000000	48.892550
1345.000000	48.604542
1346.000000	48.296150
1347.000000	48.029303
1348.000000	47.698106
1349.000000	47.298450
1350.000000	46.940715
1351.000000	46.492819
1352.000000	46.021386
1353.000000	45.543360
1354.000000	45.129397
1355.000000	44.697865
1356.000000	44.330298
1357.000000	44.073285
1358.000000	43.901257
1359.000000	43.769409
1360.000000	43.706491
1361.000000	43.746642
1362.000000	43.608601
1363.000000	43.368859
1364.000000	43.270166
1365.000000	43.070966
1366.000000	42.835596
1367.000000	42.680860
1368.000000	42.438672
1369.000000	42.115327
1370.000000	41.854477
1371.000000	41.566062
1372.000000	41.215941
1373.000000	40.847243
1374.000000	40.532551
1375.000000	40.279554
1376.000000	40.106012
1377.000000	39.946659
1378.000000	39.795087
1379.000000	39.697866
1380.000000	39.576038
1381.000000	39.407933
1382.000000	39.178776
1383.000000	38.819357
1384.000000	38.414230
1385.000000	38.009394
1386.000000	37.529255
1387.000000	37.219272
1388.000000	36.904569
1389.000000	36.538084
1390.000000	36.230836
1391.000000	36.015459
1392.000000	35.802084
1393.000000	35.548275
1394.000000	35.378884
1395.000000	35.255649
1396.000000	35.051476
1397.000000	34.741996
1398.000000	34.434456
1399.000000	34.197761
1400.000000	33.974018
1401.000000	33.634989
1402.000000	33.188955
1403.000000	32.802575
1404.000000	32.458391
1405.000000	32.076675
1406.000000	31.667055
1407.000000	31.286784
1408.000000	30.890846
1409.000000	30.572607
1410.000000	30.238927
1411.000000	29.884039
1412.000000	29.578312
1413.000000	29.359438
1414.000000	29.149520
1415.000000	28.894205
1416.000000	28.616632
1417.000000	28.364689
1418.000000	28.146190
1419.000000	27.934147
1420.000000	27.676368
1421.000000	27.419120
1422.000000	27.157000
1423.000000	26.942787
1424.000000	26.708383
1425.000000	26.472490
1426.000000	26.256734
1427.000000	26.041857
1428.000000	25.842693
1429.000000	25.652228
1430.000000	25.474392
1431.000000	25.311949
1432.000000	25.184543
1433.000000	25.037759
1434.000000	24.877172
1435.000000	24.744308
1436.000000	24.601564
1437.000000	24.480794
1438.000000	24.362655
1439.000000	24.213664
1440.000000	24.068114
1441.000000	23.951558
1442.000000	23.816153
1443.000000	23.679958
1444.000000	23.551426
1445.000000	23.442482
1446.000000	23.342497
1447.000000	23.201458
1448.000000	23.074854
1449.000000	22.962386
1450.000000	22.855446
1451.000000	22.764366
1452.000000	22.645401
1453.000000	22.538021
1454.000000	22.440544
1455.000000	22.343529
1456.000000	22.249452
1457.000000	22.158666
1458.000000	22.078590
1459.000000	22.008917
1460.000000	21.927943
1461.000000	21.859959
1462.000000	21.794957
1463.000000	21.731039
1464.000000	21.669197
1465.000000	21.613067
1466.000000	21.574059
1467.000000	21.543442
1468.000000	21.475275
1469.000000	21.415123
1470.000000	21.382022
1471.000000	21.351736
1472.000000	21.301262
1473.000000	21.267489
1474.000000	21.238443
1475.000000	21.213393
1476.000000	21.183864
1477.000000	21.145244
1478.000000	21.125584
1479.000000	21.107065
1480.000000	21.073166
1481.000000	21.053419
1482.000000	21.033826
1483.000000	21.023762
1484.000000	21.009253
1485.000000	20.997634
1486.000000	20.992009
1487.000000	20.981294
1488.000000	20.988690
1489.000000	20.993574
1490.000000	20.976322
1491.000000	20.967701
1492.000000	20.968376
1493.000000	20.968782
1494.000000	20.975172
1495.000000	20.966845
1496.000000	20.979812
1497.000000	20.997959
1498.000000	21.010679
1499.000000	21.025411
1500.000000	21.052256
1501.000000	21.083711
1502.000000	21.116144
1503.000000	21.142109
1504.000000	21.175816
1505.000000	21.204126
1506.000000	21.239155
1507.000000	21.271527
1508.000000	21.301375
1509.000000	21.344440
1510.000000	21.378385
1511.000000	21.413384
1512.000000	21.455125
1513.000000	21.491051
1514.000000	21.532814
1515.000000	21.559810
1516.000000	21.590573
1517.000000	21.624231
1518.000000	21.659183
1519.000000	21.690032
1520.000000	21.723666
1521.000000	21.757141
1522.000000	21.784424
1523.000000	21.807589
1524.000000	21.834596
1525.000000	21.845636
1526.000000	21.891369
1527.000000	21.918686
1528.000000	21.947789
1529.000000	21.974795
1530.000000	21.987224
1531.000000	22.014482
1532.000000	22.033103
1533.000000	22.049977
1534.000000	22.057211
1535.000000	22.065888
1536.000000	22.091200
1537.000000	22.111049
1538.000000	22.111218
1539.000000	22.109073
1540.000000	22.124218
1541.000000	22.118553
1542.000000	22.121011
1543.000000	22.111458
1544.000000	22.124995
1545.000000	22.137213
1546.000000	22.149779
1547.000000	22.165246
1548.000000	22.162673
1549.000000	22.192687
1550.000000	22.197971
1551.000000	22.195765
1552.000000	22.221145
1553.000000	22.228714
1554.000000	22.231722
1555.000000	22.224656
1556.000000	22.226212
1557.000000	22.226104
1558.000000	22.206971
1559.000000	22.187371
1560.000000	22.170757
1561.000000	22.173855
1562.000000	22.154021
1563.000000	22.141019
1564.000000	22.122511
1565.000000	22.091778
1566.000000	22.077285
1567.000000	22.049050
1568.000000	22.026981
1569.000000	22.001347
1570.000000	21.985150
1571.000000	21.975316
1572.000000	21.958463
1573.000000	21.954528
1574.000000	21.935768
1575.000000	21.959717
1576.000000	21.968388
1577.000000	21.965552
1578.000000	21.970380
1579.000000	21.976331
1580.000000	21.982633
1581.000000	22.018678
1582.000000	22.042045
1583.000000	22.069073
1584.000000	22.102430
1585.000000	22.131592
1586.000000	22.167077
1587.000000	22.204065
1588.000000	22.235417
1589.000000	22.275749
1590.000000	22.331647
1591.000000	22.395008
1592.000000	22.431329
1593.000000	22.480705
1594.000000	22.544691
1595.000000	22.592346
1596.000000	22.648886
1597.000000	22.709495
1598.000000	22.791892
1599.000000	22.871256
1600.000000	22.917426
1601.000000	23.017918
1602.000000	23.077979
1603.000000	23.172873
1604.000000	23.252000
1605.000000	23.345163
1606.000000	23.416758
1607.000000	23.483386
1608.000000	23.573810
1609.000000	23.618729
1610.000000	23.707282
1611.000000	23.788262
1612.000000	23.869703
1613.000000	23.960652
1614.000000	24.026545
1615.000000	24.128130
1616.000000	24.212947
1617.000000	24.294416
1618.000000	24.390860
1619.000000	24.450430
1620.000000	24.556617
1621.000000	24.634731
1622.000000	24.726311
1623.000000	24.815548
1624.000000	24.911513
1625.000000	25.006679
1626.000000	25.092905
1627.000000	25.190180
1628.000000	25.281230
1629.000000	25.366942
1630.000000	25.470361
1631.000000	25.573714
1632.000000	25.644451
1633.000000	25.732596
1634.000000	25.811304
1635.000000	25.900570
1636.000000	25.977815
1637.000000	26.058635
1638.000000	26.148024
1639.000000	26.194514
1640.000000	26.282283
1641.000000	26.368344
1642.000000	26.409563
1643.000000	26.481045
1644.000000	26.540839
1645.000000	26.599380
1646.000000	26.656872
1647.000000	26.720170
1648.000000	26.782219
1649.000000	26.822357
1650.000000	26.857052
1651.000000	26.899531
1652.000000	26.910997
1653.000000	26.944944
1654.000000	26.968717
1655.000000	26.965106
1656.000000	26.973268
1657.000000	26.958296
1658.000000	26.973879
1659.000000	26.932324
1660.000000	26.896372
1661.000000	26.824386
1662.000000	26.778871
1663.000000	26.725823
1664.000000	26.634743
1665.000000	26.558505
1666.000000	26.460840
1667.000000	26.339342
1668.000000	26.195364
1669.000000	26.033454
1670.000000	25.842693
1671.000000	25.624633
1672.000000	25.374781
1673.000000	25.135810
1674.000000	24.789943
1675.000000	24.436899
1676.000000	23.999112
1677.000000	23.495306
1678.000000	22.952877
1679.000000	22.376808
1680.000000	21.782054
1681.000000	21.232929
1682.000000	20.740154
1683.000000	20.387574
1684.000000	20.207653
1685.000000	20.112141
1686.000000	20.093997
1687.000000	20.075668
1688.000000	20.067778
1689.000000	20.013916
1690.000000	19.888377
1691.000000	19.715244
1692.000000	19.527710
1693.000000	19.371793
1694.000000	19.249839
1695.000000	19.188222
1696.000000	19.188706
1697.000000	19.269361
1698.000000	19.391499
1699.000000	19.548136
1700.000000	19.732685
1701.000000	19.888637
1702.000000	20.004450
1703.000000	20.128917
1704.000000	20.201017
1705.000000	20.261625
1706.000000	20.314606
1707.000000	20.362181
1708.000000	20.385626
1709.000000	20.384055
1710.000000	20.390484
1711.000000	20.373414
1712.000000	20.346097
1713.000000	20.281632
1714.000000	20.234830
1715.000000	20.161632
1716.000000	20.079829
1717.000000	20.029062
1718.000000	19.988195
1719.000000	19.956737
1720.000000	19.929178
1721.000000	19.917162
1722.000000	19.928264
1723.000000	19.897937
1724.000000	19.843538
1725.000000	19.780182
1726.000000	19.693507
1727.000000	19.603725
1728.000000	19.486207
1729.000000	19.363919
1730.000000	19.230346
1731.000000	19.126291
1732.000000	19.050072
1733.000000	18.988465
1734.000000	18.983955
1735.000000	19.050355
1736.000000	19.131629
1737.000000	19.282206
1738.000000	19.469583
1739.000000	19.685369
1740.000000	19.934496
1741.000000	20.190287
1742.000000	20.429526
1743.000000	20.645659
1744.000000	20.845587
1745.000000	21.008977
1746.000000	21.158836
1747.000000	21.278978
1748.000000	21.365332
1749.000000	21.448803
1750.000000	21.513616
1751.000000	21.566810
1752.000000	21.599855
1753.000000	21.601461
1754.000000	21.595085
1755.000000	21.579150
1756.000000	21.547928
1757.000000	21.490202
1758.000000	21.412580
1759.000000	21.358043
1760.000000	21.283482
1761.000000	21.199054
1762.000000	21.142216
1763.000000	21.133158
1764.000000	21.149700
1765.000000	21.196552
1766.000000	21.287601
1767.000000	21.383676
1768.000000	21.502575
1769.000000	21.623657
1770.000000	21.751255
1771.000000	21.880744
1772.000000	22.030693
1773.000000	22.183745
1774.000000	22.322064
1775.000000	22.443618
1776.000000	22.567331
1777.000000	22.688335
1778.000000	22.827353
1779.000000	22.939291
1780.000000	23.031952
1781.000000	23.097224
1782.000000	23.170431
1783.000000	23.294985
1784.000000	23.374240
1785.000000	23.445317
1786.000000	23.517533
1787.000000	23.607428
1788.000000	23.681604
1789.000000	23.725355
1790.000000	23.810688
1791.000000	23.868481
1792.000000	23.921454
1793.000000	23.998446
1794.000000	24.056082
1795.000000	24.105767
1796.000000	24.159108
1797.000000	24.192184
1798.000000	24.226619
1799.000000	24.301010
1800.000000	24.374713
1801.000000	24.422763
1802.000000	24.478185
1803.000000	24.530137
1804.000000	24.569897
1805.000000	24.637755
1806.000000	24.698465
1807.000000	24.754009
1808.000000	24.797573
1809.000000	24.835921
1810.000000	24.868531
1811.000000	24.913566
1812.000000	24.968960
1813.000000	24.956144
1814.000000	24.976073
1815.000000	25.039314
1816.000000	25.011562
1817.000000	25.029356
1818.000000	24.983181
1819.000000	25.019508
1820.000000	25.149243
1821.000000	25.176178
1822.000000	25.195553
1823.000000	25.209217
1824.000000	25.194370
1825.000000	25.268475
1826.000000	25.411209
1827.000000	25.430619
1828.000000	25.507470
1829.000000	25.572802
1830.000000	25.690870
1831.000000	25.769786
1832.000000	25.849658
1833.000000	25.887950
1834.000000	25.941902
1835.000000	26.068654
1836.000000	26.246914
1837.000000	26.291220
1838.000000	26.269866
1839.000000	26.291018
1840.000000	26.362340
1841.000000	26.466995
1842.000000	26.528288
1843.000000	26.527680
1844.000000	26.482146
1845.000000	26.457746
1846.000000	26.593590
1847.000000	26.825888
1848.000000	26.918206
1849.000000	26.859260
1850.000000	26.874024
1851.000000	26.903401
1852.000000	26.945639
1853.000000	27.076460
1854.000000	27.107215
1855.000000	27.098273
1856.000000	27.177483
1857.000000	27.133768
1858.000000	27.069945
1859.000000	27.158823
1860.000000	27.216966
1861.000000	27.056121
1862.000000	26.932449
1863.000000	26.877475
1864.000000	26.853599
1865.000000	26.651814
1866.000000	26.558257
1867.000000	26.566476
1868.000000	26.340834
1869.000000	26.223266
1870.000000	26.060992
1871.000000	25.890411
1872.000000	25.536516
1873.000000	25.351021
1874.000000	24.924302
1875.000000	24.593411
1876.000000	24.284883
1877.000000	23.877779
1878.000000	23.397176
1879.000000	22.979677
1880.000000	22.540934
1881.000000	22.086370
1882.000000	21.505189
1883.000000	21.160596
1884.000000	20.669677
1885.000000	20.165421
1886.000000	19.848263
1887.000000	19.432763
1888.000000	19.115649
1889.000000	18.823424
1890.000000	18.538812
1891.000000	18.236476
1892.000000	18.056537
1893.000000	17.743295
1894.000000	17.473150
1895.000000	17.165858
1896.000000	16.931108
1897.000000	16.700456
1898.000000	16.531788
1899.000000	16.379600
1900.000000	16.041732
1901.000000	15.801379
1902.000000	15.570751
1903.000000	15.342114
1904.000000	15.166613
1905.000000	15.010006
1906.000000	14.776820
1907.000000	14.538745
1908.000000	14.311930
1909.000000	14.150693
1910.000000	13.967807
1911.000000	13.851614
1912.000000	13.720591
1913.000000	13.551739
1914.000000	13.405504
1915.000000	13.161955
1916.000000	13.063681
1917.000000	12.909839
1918.000000	12.793339
1919.000000	12.634275
1920.000000	12.677675
1921.000000	12.521119
1922.000000	12.329878
1923.000000	12.241488
1924.000000	12.121157
1925.000000	12.049831
1926.000000	12.010319
1927.000000	11.950297
1928.000000	11.849721
1929.000000	11.788502
1930.000000	11.730331
1931.000000	11.735146
1932.000000	11.602471
1933.000000	11.552171
1934.000000	11.592525
1935.000000	11.553538
1936.000000	11.499046
1937.000000	11.483411
1938.000000	11.492848
1939.000000	11.511440
1940.000000	11.514431
1941.000000	11.504490
1942.000000	11.498356
1943.000000	11.487383
1944.000000	11.507918
1945.000000	11.502946
1946.000000	11.546336
1947.000000	11.574200
1948.000000	11.625807
1949.000000	11.623922
1950.000000	11.669264
1951.000000	11.724454
1952.000000	11.751439
1953.000000	11.802371
1954.000000	11.879795
1955.000000	11.901426
1956.000000	11.922771
1957.000000	11.952828
1958.000000	11.993958
1959.000000	12.066569
1960.000000	12.126977
1961.000000	12.162600
1962.000000	12.233084
1963.000000	12.223922
1964.000000	12.273750
1965.000000	12.320887
1966.000000	12.349173
1967.000000	12.384864
1968.000000	12.443726
1969.000000	12.522300
1970.000000	12.596073
1971.000000	12.613634
1972.000000	12.638820
1973.000000	12.690880
1974.000000	12.757443
1975.000000	12.810749
1976.000000	12.905046
1977.000000	12.952830
1978.000000	12.951667
1979.000000	12.991088
1980.000000	13.106890
1981.000000	13.148802
1982.000000	13.200243
1983.000000	13.259401
1984.000000	13.352512
1985.000000	13.396639
1986.000000	13.448153
1987.000000	13.473805
1988.000000	13.519636
1989.000000	13.598193
1990.000000	13.632245
1991.000000	13.662710
1992.000000	13.676496
1993.000000	13.714458
1994.000000	13.762287
1995.000000	13.829563
1996.000000	13.893894
1997.000000	13.916141
1998.000000	13.920316
1999.000000	13.955846
2000.000000	13.949993
2001.000000	13.971012
2002.000000	14.068937
2003.000000	14.103057
2004.000000	14.105032
2005.000000	14.075735
2006.000000	14.074477
2007.000000	14.058002
2008.000000	14.076662
2009.000000	14.078023
2010.000000	14.059741
2011.000000	14.057423
2012.000000	14.079710
2013.000000	14.075755
2014.000000	14.006931
2015.000000	13.955419
2016.000000	13.929191
2017.000000	13.924340
2018.000000	13.939276
2019.000000	13.931716
2020.000000	13.824102
2021.000000	13.766754
2022.000000	13.757529
2023.000000	13.689736
2024.000000	13.624901
2025.000000	13.631349
2026.000000	13.589983
2027.000000	13.592734
2028.000000	13.527609
2029.000000	13.388420
2030.000000	13.308018
2031.000000	13.234071
2032.000000	13.222387
2033.000000	13.184276
2034.000000	13.131918
2035.000000	13.033146
2036.000000	12.961549
2037.000000	12.877285
2038.000000	12.765315
2039.000000	12.679617
2040.000000	12.604678
2041.000000	12.464498
2042.000000	12.304379
2043.000000	12.255001
2044.000000	12.206114
2045.000000	12.083162
2046.000000	11.984996
2047.000000	11.919118
2048.000000	11.846049
2049.000000	11.922884
2050.000000	11.820896
2051.000000	11.703783
2052.000000	11.551314
2053.000000	11.526427
2054.000000	11.580116
2055.000000	11.496466
2056.000000	11.526340
2057.000000	11.493015
2058.000000	11.502984
2059.000000	11.594009
2060.000000	11.519120
2061.000000	11.478515
2062.000000	11.495814
2063.000000	11.545754
2064.000000	11.508802
2065.000000	11.577686
2066.000000	11.535454
2067.000000	11.593198
2068.000000	11.674128
2069.000000	11.646560
2070.000000	11.574815
2071.000000	11.666611
2072.000000	11.611980
2073.000000	11.668051
2074.000000	11.705784
2075.000000	11.772580
2076.000000	11.680328
2077.000000	11.714946
2078.000000	11.741252
2079.000000	11.676655
2080.000000	11.842029
2081.000000	11.870661
2082.000000	11.899530
2083.000000	11.867495
2084.000000	11.865785
2085.000000	11.863146
2086.000000	11.900054
2087.000000	11.891480
2088.000000	11.929551
2089.000000	11.932374
2090.000000	11.968645
2091.000000	11.824035
2092.000000	11.926557
2093.000000	11.878858
2094.000000	11.800806
2095.000000	11.925591
2096.000000	11.997175
2097.000000	11.960383
2098.000000	11.937537
2099.000000	12.036825
2100.000000	12.002252
2101.000000	12.029798
2102.000000	12.144056
2103.000000	12.335623
2104.000000	12.169704
2105.000000	12.204105
2106.000000	12.262751
2107.000000	12.189700
2108.000000	12.219607
2109.000000	12.218168
2110.000000	12.409894
2111.000000	12.288121
2112.000000	12.429692
2113.000000	12.253561
2114.000000	12.463212
2115.000000	12.595290
2116.000000	12.451928
2117.000000	12.472127
2118.000000	12.412727
2119.000000	12.423543
2120.000000	12.548733
2121.000000	12.539324
2122.000000	12.558899
2123.000000	12.655934
2124.000000	12.687936
2125.000000	12.586253
2126.000000	12.607337
2127.000000	12.563441
2128.000000	12.695864
2129.000000	12.862937
2130.000000	12.604084
2131.000000	12.684643
2132.000000	12.742575
2133.000000	12.801884
2134.000000	12.691940
2135.000000	12.701623
2136.000000	12.591366
2137.000000	12.662613
2138.000000	12.811108
2139.000000	12.827189
2140.000000	12.638276
2141.000000	12.688568
2142.000000	12.660451
2143.000000	12.585198
2144.000000	12.627506
2145.000000	12.669408
2146.000000	12.711201
2147.000000	12.595248
2148.000000	12.694302
2149.000000	12.352695
2150.000000	12.322817
2151.000000	12.357092
2152.000000	12.222003
2153.000000	12.398291
2154.000000	12.333541
2155.000000	12.328432
2156.000000	12.533497
2157.000000	12.218247
2158.000000	12.049636
2159.000000	11.983488
2160.000000	12.257564
2161.000000	12.306024
2162.000000	12.267427
2163.000000	12.336537
2164.000000	12.036779
2165.000000	12.119900
2166.000000	12.031743
2167.000000	12.056112
2168.000000	12.233670
2169.000000	12.279507
2170.000000	12.198918
2171.000000	12.145971
2172.000000	12.266259
2173.000000	12.183000
2174.000000	12.137733
2175.000000	12.223724
2176.000000	12.213416
2177.000000	12.209399
2178.000000	12.182503
2179.000000	12.118895
2180.000000	12.231274
2181.000000	12.251906
2182.000000	12.319666
2183.000000	12.354976
2184.000000	12.293729
2185.000000	12.201971
2186.000000	12.318216
2187.000000	12.414086
2188.000000	12.357571
2189.000000	12.286885
2190.000000	12.200715
2191.000000	12.395376
2192.000000	12.383383
2193.000000	12.365014
2194.000000	12.332191
2195.000000	12.446380
2196.000000	12.430921
2197.000000	12.393259
2198.000000	12.403709
2199.000000	12.386909
2200.000000	12.369380
2201.000000	12.446932
2202.000000	12.383264
2203.000000	12.216958
2204.000000	12.406916
2205.000000	12.472353
2206.000000	12.489710
2207.000000	12.747440
2208.000000	12.571670
2209.000000	12.503619
2210.000000	12.581603
2211.000000	12.689335
2212.000000	12.598806
2213.000000	12.596957
2214.000000	12.478160
2215.000000	12.607333
2216.000000	12.501699
2217.000000	12.463745
2218.000000	12.603880
2219.000000	12.656620
2220.000000	12.686340
2221.000000	12.717686
2222.000000	12.789758
2223.000000	12.824183
2224.000000	12.806546
2225.000000	12.741154
2226.000000	12.743511
2227.000000	12.599268
2228.000000	12.606412
2229.000000	12.533764
2230.000000	12.592001
2231.000000	12.707607
2232.000000	12.709375
2233.000000	12.755299
2234.000000	12.562515
2235.000000	12.591348
2236.000000	12.477564
2237.000000	12.402597
2238.000000	12.373621
2239.000000	12.158434
2240.000000	12.080706
2241.000000	12.045181
2242.000000	11.988319
2243.000000	11.834793
2244.000000	11.754570
2245.000000	11.619618
2246.000000	11.561604
2247.000000	11.556677
2248.000000	11.450175
2249.000000	11.216489
2250.000000	10.998903
2251.000000	10.793499
2252.000000	10.681670
2253.000000	10.622525
2254.000000	10.489671
2255.000000	10.295790
2256.000000	10.262080
2257.000000	10.035692
2258.000000	9.810630
2259.000000	9.753730
2260.000000	9.567385
2261.000000	9.318104
2262.000000	9.177923
2263.000000	9.153513
2264.000000	9.078090
2265.000000	8.960721
2266.000000	8.861284
2267.000000	8.918039
2268.000000	8.992733
2269.000000	8.831951
2270.000000	8.735165
2271.000000	8.663296
2272.000000	8.545554
2273.000000	8.683401
2274.000000	8.721631
2275.000000	8.842314
2276.000000	9.052815
2277.000000	9.046068
2278.000000	8.889937
2279.000000	8.993336
2280.000000	9.252435
2281.000000	9.119390
2282.000000	8.926349
2283.000000	9.094295
2284.000000	9.085072
2285.000000	8.978769
2286.000000	9.083388
2287.000000	9.177098
2288.000000	9.139405
2289.000000	9.226992
2290.000000	9.369225
2291.000000	9.300790
2292.000000	9.309344
2293.000000	9.070122
2294.000000	8.962524
2295.000000	8.987674
2296.000000	9.150502
2297.000000	9.227002
2298.000000	8.905283
2299.000000	8.855925
2300.000000	8.944688
2301.000000	8.708451
2302.000000	8.778766
2303.000000	8.921521
2304.000000	8.788284
2305.000000	8.854638
2306.000000	8.831679
2307.000000	8.811027
2308.000000	8.768823
2309.000000	8.749532
2310.000000	8.935009
2311.000000	8.985229
2312.000000	8.839355
2313.000000	8.983578
2314.000000	9.189124
2315.000000	8.999707
2316.000000	8.972290
2317.000000	9.206431
2318.000000	9.350993
2319.000000	9.329680
2320.000000	9.351167
2321.000000	9.485872
2322.000000	9.795416
2323.000000	9.822854
2324.000000	9.608888
2325.000000	9.799797
2326.000000	9.783200
2327.000000	9.785346
2328.000000	9.936292
2329.000000	10.080272
2330.000000	10.139028
2331.000000	9.987974
2332.000000	9.992746
2333.000000	9.710920
2334.000000	9.970339
2335.000000	10.256195
2336.000000	9.971603
2337.000000	10.053485
2338.000000	9.998625
2339.000000	10.071701
2340.000000	10.053305
2341.000000	9.974104
2342.000000	9.968326
2343.000000	10.146695
2344.000000	10.161934
2345.000000	10.038018
2346.000000	9.824844
2347.000000	9.767059
2348.000000	10.081650
2349.000000	10.108700
2350.000000	9.867690
2351.000000	9.859933
2352.000000	9.806133
2353.000000	9.716949
2354.000000	9.634718
2355.000000	10.322588
2356.000000	9.843142
2357.000000	9.692051
2358.000000	10.266397
2359.000000	10.477267
2360.000000	10.347067
2361.000000	10.083569
2362.000000	10.041134
2363.000000	10.032499
2364.000000	10.342350
2365.000000	10.784962
2366.000000	10.382258
2367.000000	10.655985
2368.000000	10.698892
2369.000000	10.697444
2370.000000	10.670364
2371.000000	10.773753
2372.000000	10.749095
2373.000000	10.607477
2374.000000	10.605590
2375.000000	10.919420
2376.000000	10.887168
2377.000000	10.270288
2378.000000	10.640208
2379.000000	10.808171
2380.000000	10.916758
2381.000000	10.952257
2382.000000	10.897691
2383.000000	11.016729
2384.000000	10.756781
2385.000000	10.976335
2386.000000	10.936890
2387.000000	11.398440
2388.000000	10.617236
2389.000000	10.689757
2390.000000	10.692106
2391.000000	11.100935
2392.000000	10.656132
2393.000000	10.980238
2394.000000	10.940419
2395.000000	11.442011
2396.000000	10.956595
2397.000000	10.302258
2398.000000	10.744406
2399.000000	11.076012
2400.000000	10.655431
2401.000000	8.950152
2402.000000	8.910407
2403.000000	8.876869
2404.000000	8.849657
2405.000000	8.832350
2406.000000	8.780671
2407.000000	8.769452
2408.000000	8.757994
2409.000000	8.721591
2410.000000	8.696288
2411.000000	8.689008
2412.000000	8.679221
2413.000000	8.662631
2414.000000	8.624438
2415.000000	8.579919
2416.000000	8.556645
2417.000000	8.535759
2418.000000	8.532775
2419.000000	8.487779
2420.000000	8.445647
2421.000000	8.446483
2422.000000	8.411632
2423.000000	8.402800
2424.000000	8.380958
2425.000000	8.336917
2426.000000	8.291085
2427.000000	8.218280
2428.000000	8.164333
2429.000000	8.098808
2430.000000	8.072192
2431.000000	8.036625
2432.000000	8.036028
2433.000000	7.999864
2434.000000	7.958688
2435.000000	7.928491
2436.000000	7.908321
2437.000000	7.879676
2438.000000	7.835635
2439.000000	7.827519
2440.000000	7.787297
2441.000000	7.744927
2442.000000	7.716282
2443.000000	7.667825
2444.000000	7.656009
2445.000000	7.601822
2446.000000	7.551814
2447.000000	7.506221
2448.000000	7.504669
2449.000000	7.449648
2450.000000	7.422316
2451.000000	7.398206
2452.000000	7.382929
2453.000000	7.322656
2454.000000	7.293295
2455.000000	7.259757
2456.000000	7.212374
2457.000000	7.199484
2458.000000	7.211419
2459.000000	7.172033
2460.000000	7.153652
2461.000000	7.149236
2462.000000	7.155443
2463.000000	7.141359
2464.000000	7.116772
2465.000000	7.076670
2466.000000	7.067480
2467.000000	7.077267
2468.000000	7.061751
2469.000000	7.095528
2470.000000	7.097318
2471.000000	7.036209
2472.000000	7.120830
2473.000000	7.083234
2474.000000	7.048025
2475.000000	7.072373
2476.000000	7.088366
2477.000000	7.058051
2478.000000	7.060677
2479.000000	7.095647
2480.000000	7.108895
2481.000000	7.153652
2482.000000	7.149594
2483.000000	7.142314
2484.000000	7.123337
2485.000000	7.162962
2486.000000	7.170601
2487.000000	7.159262
2488.000000	7.106508
2489.000000	7.155801
2490.000000	7.187549
2491.000000	7.125605
2492.000000	7.249254
2493.000000	7.206645
2494.000000	7.242928
2495.000000	7.210226
2496.000000	7.260115
2497.000000	7.223951
2498.000000	7.435683
2499.000000	7.296876
2500.000000	7.468505
