PE UV       SUBTECH     SPECTRUM    ASCII       PEDS        4.00        
   -1
CICIMAUCR0104-3.Sample.ASC
24/04/22
09:54:19.00
24/04/22
09:54:19.00
Vinicio Soto Monge
C. resplendens
250,000000
1
Lambda 1050
1050L1511233
PerkinElmer UV WinLab 6.3.2.0749 / 2.02.05 Lambda 900 UV/VIS/NIR, Aug  7 2015 09:38:08

0
0
3350/servo 860,8/2
0
0
UV/VIS
1
1
1
DoubleDePol,CommonBeamDepol,RBeamAtt,SBeamAtt,60mm sphere, WB InGaAs Detector
0
0
0
0
Program
Program
3350/servo 860,8/2
3350/0,2 860,8/0,2
3350/0,2 860,8/0,2
0
15.00
 
 
 
0
 
860,8
319,2
860,8
Front
100
on
S:100 R:100
0
0
0
0
 
0
 
 
 
0
 
 
0
0
0
0
0
 
 
 
 
0
0


0
0
#HDR
-1
-1
#GR
nm
%R
1.0
0.0
2500,000000
-1,000000
2251
8
90,434600
6,014800
#DATA
250.000000	6.735933
251.000000	6.753967
252.000000	6.719933
253.000000	6.718033
254.000000	6.693367
255.000000	6.674067
256.000000	6.668700
257.000000	6.669867
258.000000	6.644867
259.000000	6.643733
260.000000	6.639700
261.000000	6.610167
262.000000	6.537400
263.000000	6.537433
264.000000	6.498867
265.000000	6.476467
266.000000	6.460600
267.000000	6.446333
268.000000	6.458933
269.000000	6.453800
270.000000	6.381767
271.000000	6.392433
272.000000	6.341000
273.000000	6.370467
274.000000	6.342500
275.000000	6.339167
276.000000	6.345567
277.000000	6.326500
278.000000	6.342767
279.000000	6.297800
280.000000	6.294400
281.000000	6.325100
282.000000	6.316333
283.000000	6.313567
284.000000	6.306800
285.000000	6.264133
286.000000	6.262900
287.000000	6.264133
288.000000	6.258367
289.000000	6.231400
290.000000	6.267600
291.000000	6.236033
292.000000	6.241633
293.000000	6.231100
294.000000	6.204367
295.000000	6.211933
296.000000	6.219567
297.000000	6.156100
298.000000	6.158533
299.000000	6.173367
300.000000	6.154467
301.000000	6.180367
302.000000	6.190100
303.000000	6.168267
304.000000	6.175667
305.000000	6.137400
306.000000	6.116133
307.000000	6.080067
308.000000	6.126400
309.000000	6.127233
310.000000	6.149867
311.000000	6.101900
312.000000	6.085333
313.000000	6.078833
314.000000	6.075567
315.000000	6.060333
316.000000	6.079500
317.000000	6.290067
318.000000	6.254133
319.000000	6.301033
320.000000	6.325133
321.000000	6.251000
322.000000	6.323533
323.000000	6.294300
324.000000	6.194700
325.000000	6.246867
326.000000	6.299533
327.000000	6.207000
328.000000	6.203067
329.000000	6.185533
330.000000	6.130867
331.000000	6.249933
332.000000	6.216633
333.000000	6.169467
334.000000	6.135700
335.000000	6.219300
336.000000	6.235033
337.000000	6.272700
338.000000	6.236933
339.000000	6.205733
340.000000	6.295000
341.000000	6.276900
342.000000	6.280633
343.000000	6.323200
344.000000	6.320600
345.000000	6.346667
346.000000	6.326300
347.000000	6.358300
348.000000	6.333233
349.000000	6.397067
350.000000	6.350233
351.000000	6.430533
352.000000	6.470233
353.000000	6.549600
354.000000	6.586533
355.000000	6.620467
356.000000	6.633567
357.000000	6.740067
358.000000	6.747800
359.000000	6.816100
360.000000	6.837133
361.000000	6.872067
362.000000	6.965367
363.000000	6.983100
364.000000	6.999100
365.000000	7.105667
366.000000	7.166433
367.000000	7.216300
368.000000	7.252967
369.000000	7.276200
370.000000	7.343967
371.000000	7.500700
372.000000	7.521167
373.000000	7.602467
374.000000	7.669867
375.000000	7.733767
376.000000	7.952700
377.000000	8.107900
378.000000	8.239433
379.000000	8.389400
380.000000	8.543633
381.000000	8.715933
382.000000	8.900967
383.000000	9.108433
384.000000	9.333067
385.000000	9.555567
386.000000	9.783567
387.000000	10.044300
388.000000	10.326167
389.000000	10.613633
390.000000	10.925900
391.000000	11.260333
392.000000	11.614167
393.000000	11.981333
394.000000	12.360300
395.000000	12.768833
396.000000	13.187233
397.000000	13.611833
398.000000	14.061733
399.000000	14.519900
400.000000	14.989533
401.000000	15.469000
402.000000	15.960033
403.000000	16.466400
404.000000	16.963500
405.000000	17.477667
406.000000	18.005400
407.000000	18.502000
408.000000	18.987167
409.000000	19.499000
410.000000	19.998200
411.000000	20.494067
412.000000	20.997400
413.000000	21.473733
414.000000	21.939167
415.000000	22.399633
416.000000	22.844333
417.000000	23.268367
418.000000	23.670033
419.000000	24.067933
420.000000	24.457033
421.000000	24.830667
422.000000	25.192900
423.000000	25.536167
424.000000	25.863067
425.000000	26.168033
426.000000	26.459900
427.000000	26.729100
428.000000	26.977900
429.000000	27.210800
430.000000	27.437800
431.000000	27.650767
432.000000	27.838533
433.000000	28.005500
434.000000	28.150967
435.000000	28.279467
436.000000	28.394867
437.000000	28.481267
438.000000	28.542500
439.000000	28.593633
440.000000	28.615233
441.000000	28.601367
442.000000	28.573067
443.000000	28.527200
444.000000	28.444800
445.000000	28.314733
446.000000	28.145600
447.000000	27.963767
448.000000	27.773600
449.000000	27.561033
450.000000	27.321733
451.000000	27.064667
452.000000	26.797667
453.000000	26.520800
454.000000	26.244567
455.000000	25.964933
456.000000	25.686767
457.000000	25.436433
458.000000	25.226733
459.000000	25.047767
460.000000	24.901200
461.000000	24.812367
462.000000	24.783967
463.000000	24.823400
464.000000	24.939300
465.000000	25.127567
466.000000	25.396033
467.000000	25.731967
468.000000	26.148467
469.000000	26.652333
470.000000	27.196700
471.000000	27.800100
472.000000	28.467900
473.000000	29.165100
474.000000	29.883767
475.000000	30.619133
476.000000	31.358933
477.000000	32.087633
478.000000	32.791733
479.000000	33.471800
480.000000	34.130833
481.000000	34.759033
482.000000	35.337400
483.000000	35.872067
484.000000	36.357167
485.000000	36.785267
486.000000	37.160633
487.000000	37.496767
488.000000	37.771167
489.000000	37.984567
490.000000	38.160367
491.000000	38.280133
492.000000	38.327033
493.000000	38.340033
494.000000	38.300033
495.000000	38.256933
496.000000	38.183500
497.000000	38.079533
498.000000	37.966333
499.000000	37.864633
500.000000	37.800567
501.000000	37.751833
502.000000	37.747167
503.000000	37.822767
504.000000	37.938933
505.000000	38.139767
506.000000	38.423500
507.000000	38.774567
508.000000	39.219267
509.000000	39.762100
510.000000	40.394700
511.000000	41.138567
512.000000	41.960000
513.000000	42.873967
514.000000	43.874500
515.000000	44.957000
516.000000	46.115633
517.000000	47.320367
518.000000	48.572833
519.000000	49.891067
520.000000	51.264000
521.000000	52.665333
522.000000	54.092633
523.000000	55.548233
524.000000	57.007400
525.000000	58.466533
526.000000	59.927000
527.000000	61.358167
528.000000	62.780633
529.000000	64.183967
530.000000	65.564067
531.000000	66.904000
532.000000	68.205200
533.000000	69.463300
534.000000	70.667267
535.000000	71.799867
536.000000	72.885633
537.000000	73.916000
538.000000	74.881400
539.000000	75.832900
540.000000	76.747500
541.000000	77.638833
542.000000	78.468600
543.000000	79.290100
544.000000	80.111100
545.000000	80.853267
546.000000	81.599100
547.000000	82.328067
548.000000	83.003433
549.000000	83.673000
550.000000	84.320200
551.000000	84.942400
552.000000	85.533233
553.000000	86.087900
554.000000	86.626933
555.000000	87.114967
556.000000	87.571000
557.000000	87.954767
558.000000	88.394267
559.000000	88.745000
560.000000	89.086433
561.000000	89.423700
562.000000	89.715067
563.000000	90.013167
564.000000	90.296700
565.000000	90.568067
566.000000	90.824367
567.000000	91.063000
568.000000	91.299467
569.000000	91.540700
570.000000	91.731933
571.000000	91.930100
572.000000	92.113667
573.000000	92.294700
574.000000	92.484600
575.000000	92.640233
576.000000	92.780700
577.000000	92.936467
578.000000	93.026867
579.000000	93.137967
580.000000	93.187533
581.000000	93.311133
582.000000	93.332967
583.000000	93.366633
584.000000	93.412467
585.000000	93.389167
586.000000	93.416433
587.000000	93.409933
588.000000	93.337200
589.000000	93.300700
590.000000	93.213133
591.000000	93.087867
592.000000	92.987567
593.000000	92.877400
594.000000	92.709933
595.000000	92.529267
596.000000	92.300333
597.000000	92.084733
598.000000	91.837600
599.000000	91.550000
600.000000	91.274567
601.000000	90.928933
602.000000	90.599000
603.000000	90.221900
604.000000	89.792633
605.000000	89.371600
606.000000	88.918500
607.000000	88.442933
608.000000	87.957200
609.000000	87.396367
610.000000	86.870600
611.000000	86.225800
612.000000	85.588733
613.000000	84.900767
614.000000	84.229400
615.000000	83.492833
616.000000	82.743500
617.000000	81.978667
618.000000	81.235400
619.000000	80.426333
620.000000	79.614600
621.000000	78.807733
622.000000	77.989167
623.000000	77.140567
624.000000	76.258333
625.000000	75.409600
626.000000	74.506000
627.000000	73.623900
628.000000	72.702800
629.000000	71.741967
630.000000	70.807167
631.000000	69.849467
632.000000	68.885067
633.000000	67.932200
634.000000	66.931167
635.000000	65.998033
636.000000	65.070033
637.000000	64.173467
638.000000	63.314600
639.000000	62.487200
640.000000	61.732133
641.000000	61.052033
642.000000	60.424867
643.000000	59.856400
644.000000	59.426333
645.000000	59.149100
646.000000	58.939267
647.000000	58.897433
648.000000	58.955833
649.000000	59.123900
650.000000	59.410667
651.000000	59.842000
652.000000	60.372200
653.000000	60.974033
654.000000	61.655333
655.000000	62.401800
656.000000	63.193867
657.000000	64.011500
658.000000	64.851067
659.000000	65.756133
660.000000	66.657867
661.000000	67.582700
662.000000	68.479200
663.000000	69.388533
664.000000	70.253733
665.000000	71.128700
666.000000	71.903633
667.000000	72.673300
668.000000	73.394800
669.000000	74.090333
670.000000	74.759767
671.000000	75.343633
672.000000	75.907900
673.000000	76.424267
674.000000	76.875567
675.000000	77.282000
676.000000	77.655067
677.000000	78.014500
678.000000	78.312000
679.000000	78.570467
680.000000	78.822367
681.000000	79.009167
682.000000	79.198767
683.000000	79.393367
684.000000	79.536300
685.000000	79.664333
686.000000	79.783567
687.000000	79.941267
688.000000	80.037567
689.000000	80.130533
690.000000	80.218900
691.000000	80.339200
692.000000	80.426567
693.000000	80.520200
694.000000	80.601000
695.000000	80.666000
696.000000	80.760700
697.000000	80.883600
698.000000	80.964667
699.000000	81.056433
700.000000	81.156833
701.000000	81.291633
702.000000	81.401433
703.000000	81.480667
704.000000	81.545200
705.000000	81.670200
706.000000	81.844000
707.000000	81.966400
708.000000	82.105167
709.000000	82.257667
710.000000	82.440400
711.000000	82.613033
712.000000	82.794867
713.000000	82.980933
714.000000	83.197800
715.000000	83.449733
716.000000	83.680867
717.000000	83.944433
718.000000	84.215200
719.000000	84.497400
720.000000	84.833133
721.000000	85.136533
722.000000	85.450967
723.000000	85.829400
724.000000	86.205300
725.000000	86.528733
726.000000	86.820500
727.000000	87.155233
728.000000	87.496867
729.000000	87.828433
730.000000	88.098767
731.000000	88.449100
732.000000	88.773767
733.000000	89.038900
734.000000	89.334933
735.000000	89.624567
736.000000	89.947367
737.000000	90.197700
738.000000	90.391533
739.000000	90.602133
740.000000	90.817333
741.000000	91.024633
742.000000	91.240567
743.000000	91.431600
744.000000	91.590200
745.000000	91.742700
746.000000	91.877467
747.000000	92.021533
748.000000	92.181100
749.000000	92.254300
750.000000	92.360000
751.000000	92.480333
752.000000	92.528067
753.000000	92.566167
754.000000	92.606600
755.000000	92.636533
756.000000	92.672367
757.000000	92.666267
758.000000	92.631267
759.000000	92.607067
760.000000	92.577500
761.000000	92.538500
762.000000	92.506833
763.000000	92.439333
764.000000	92.297467
765.000000	92.177667
766.000000	92.058767
767.000000	91.929633
768.000000	91.802067
769.000000	91.671067
770.000000	91.519200
771.000000	91.379367
772.000000	91.264900
773.000000	91.094367
774.000000	90.976733
775.000000	90.835900
776.000000	90.679867
777.000000	90.562100
778.000000	90.475200
779.000000	90.426900
780.000000	90.329300
781.000000	90.189267
782.000000	90.037800
783.000000	89.919100
784.000000	89.842700
785.000000	89.836300
786.000000	89.706433
787.000000	89.579833
788.000000	89.572900
789.000000	89.449067
790.000000	89.358000
791.000000	89.334667
792.000000	89.242700
793.000000	89.174433
794.000000	89.141800
795.000000	89.004267
796.000000	88.887767
797.000000	88.846800
798.000000	88.687700
799.000000	88.535800
800.000000	88.449000
801.000000	88.298933
802.000000	88.136800
803.000000	87.939433
804.000000	87.767533
805.000000	87.683500
806.000000	87.419267
807.000000	87.309500
808.000000	87.192833
809.000000	86.889933
810.000000	86.703600
811.000000	86.638233
812.000000	86.408367
813.000000	86.119100
814.000000	85.971067
815.000000	85.728433
816.000000	85.554033
817.000000	85.442867
818.000000	85.236533
819.000000	85.013300
820.000000	84.776167
821.000000	84.640700
822.000000	84.449267
823.000000	84.220867
824.000000	83.993633
825.000000	83.793767
826.000000	83.587933
827.000000	83.314100
828.000000	83.109333
829.000000	82.763033
830.000000	82.485467
831.000000	82.285233
832.000000	82.024133
833.000000	81.738733
834.000000	81.477200
835.000000	80.986700
836.000000	80.774067
837.000000	80.580533
838.000000	80.215100
839.000000	79.931367
840.000000	79.652367
841.000000	79.174033
842.000000	78.809267
843.000000	78.612833
844.000000	78.546867
845.000000	78.239000
846.000000	77.811500
847.000000	77.619600
848.000000	77.490733
849.000000	77.325200
850.000000	76.999333
851.000000	76.919567
852.000000	76.674567
853.000000	76.740000
854.000000	76.389467
855.000000	76.465133
856.000000	76.410500
857.000000	76.282767
858.000000	76.386133
859.000000	75.167092
860.000000	75.487933
861.000000	75.914175
862.000000	76.347569
863.000000	76.666878
864.000000	76.965242
865.000000	77.264346
866.000000	77.548686
867.000000	77.765896
868.000000	78.000361
869.000000	78.174984
870.000000	78.376090
871.000000	78.481666
872.000000	78.661179
873.000000	78.775921
874.000000	78.832093
875.000000	78.948543
876.000000	79.008275
877.000000	79.099016
878.000000	79.129179
879.000000	79.118229
880.000000	79.150468
881.000000	79.160728
882.000000	79.129706
883.000000	79.136444
884.000000	79.119541
885.000000	79.068697
886.000000	78.978013
887.000000	78.932298
888.000000	78.856124
889.000000	78.784176
890.000000	78.705902
891.000000	78.600370
892.000000	78.492137
893.000000	78.403712
894.000000	78.307753
895.000000	78.193626
896.000000	78.075032
897.000000	77.980974
898.000000	77.876113
899.000000	77.787282
900.000000	77.689091
901.000000	77.558452
902.000000	77.409573
903.000000	77.322100
904.000000	77.222838
905.000000	77.132056
906.000000	77.065447
907.000000	76.960615
908.000000	76.900051
909.000000	76.753266
910.000000	76.680857
911.000000	76.632106
912.000000	76.562222
913.000000	76.530087
914.000000	76.445119
915.000000	76.357072
916.000000	76.295078
917.000000	76.238972
918.000000	76.166178
919.000000	76.109864
920.000000	76.047211
921.000000	75.990106
922.000000	75.914284
923.000000	75.846718
924.000000	75.758193
925.000000	75.676107
926.000000	75.594847
927.000000	75.533447
928.000000	75.437062
929.000000	75.344532
930.000000	75.272425
931.000000	75.164628
932.000000	75.044734
933.000000	74.956876
934.000000	74.850389
935.000000	74.727989
936.000000	74.602109
937.000000	74.483228
938.000000	74.370567
939.000000	74.273715
940.000000	74.147775
941.000000	74.026307
942.000000	73.934048
943.000000	73.810662
944.000000	73.692492
945.000000	73.598563
946.000000	73.486207
947.000000	73.372109
948.000000	73.265758
949.000000	73.155270
950.000000	73.053742
951.000000	72.972393
952.000000	72.869528
953.000000	72.755731
954.000000	72.640969
955.000000	72.556552
956.000000	72.458585
957.000000	72.354161
958.000000	72.259480
959.000000	72.167448
960.000000	72.078731
961.000000	71.996081
962.000000	71.907367
963.000000	71.828660
964.000000	71.766963
965.000000	71.698893
966.000000	71.619876
967.000000	71.550994
968.000000	71.497734
969.000000	71.444977
970.000000	71.380966
971.000000	71.321207
972.000000	71.257749
973.000000	71.204844
974.000000	71.144529
975.000000	71.098397
976.000000	71.032975
977.000000	70.979841
978.000000	70.935434
979.000000	70.887379
980.000000	70.837064
981.000000	70.790289
982.000000	70.735322
983.000000	70.693439
984.000000	70.650761
985.000000	70.596963
986.000000	70.554703
987.000000	70.517277
988.000000	70.477306
989.000000	70.441967
990.000000	70.401006
991.000000	70.363113
992.000000	70.318697
993.000000	70.285788
994.000000	70.253366
995.000000	70.224020
996.000000	70.182065
997.000000	70.147581
998.000000	70.119531
999.000000	70.087434
1000.000000	70.065700
1001.000000	70.030200
1002.000000	70.000775
1003.000000	69.984638
1004.000000	69.956552
1005.000000	69.924759
1006.000000	69.890215
1007.000000	69.855569
1008.000000	69.826629
1009.000000	69.802481
1010.000000	69.767716
1011.000000	69.743538
1012.000000	69.726003
1013.000000	69.700011
1014.000000	69.688095
1015.000000	69.691536
1016.000000	69.689581
1017.000000	69.696822
1018.000000	69.707765
1019.000000	69.719014
1020.000000	69.740609
1021.000000	69.765514
1022.000000	69.781516
1023.000000	69.811459
1024.000000	69.838782
1025.000000	69.871219
1026.000000	69.914649
1027.000000	69.955478
1028.000000	69.995528
1029.000000	70.042974
1030.000000	70.088579
1031.000000	70.132971
1032.000000	70.181359
1033.000000	70.229250
1034.000000	70.273563
1035.000000	70.322414
1036.000000	70.377294
1037.000000	70.424906
1038.000000	70.478475
1039.000000	70.534024
1040.000000	70.590665
1041.000000	70.642974
1042.000000	70.696702
1043.000000	70.761574
1044.000000	70.827542
1045.000000	70.881255
1046.000000	70.944585
1047.000000	71.015789
1048.000000	71.082641
1049.000000	71.153269
1050.000000	71.218801
1051.000000	71.289034
1052.000000	71.368865
1053.000000	71.443555
1054.000000	71.519739
1055.000000	71.601254
1056.000000	71.680538
1057.000000	71.760003
1058.000000	71.835747
1059.000000	71.910098
1060.000000	71.989416
1061.000000	72.067581
1062.000000	72.145650
1063.000000	72.213371
1064.000000	72.287271
1065.000000	72.353513
1066.000000	72.416363
1067.000000	72.487709
1068.000000	72.550094
1069.000000	72.603669
1070.000000	72.669176
1071.000000	72.735826
1072.000000	72.795244
1073.000000	72.854643
1074.000000	72.913206
1075.000000	72.968561
1076.000000	73.034440
1077.000000	73.087504
1078.000000	73.135600
1079.000000	73.194335
1080.000000	73.247891
1081.000000	73.308023
1082.000000	73.362881
1083.000000	73.421985
1084.000000	73.486874
1085.000000	73.544165
1086.000000	73.602421
1087.000000	73.663001
1088.000000	73.727287
1089.000000	73.784171
1090.000000	73.838331
1091.000000	73.888058
1092.000000	73.947977
1093.000000	74.005965
1094.000000	74.060441
1095.000000	74.116320
1096.000000	74.173602
1097.000000	74.225569
1098.000000	74.272810
1099.000000	74.326659
1100.000000	74.368962
1101.000000	74.418887
1102.000000	74.470281
1103.000000	74.509379
1104.000000	74.557520
1105.000000	74.594717
1106.000000	74.643532
1107.000000	74.677548
1108.000000	74.724018
1109.000000	74.758002
1110.000000	74.792034
1111.000000	74.840624
1112.000000	74.884723
1113.000000	74.921728
1114.000000	74.964752
1115.000000	75.016463
1116.000000	75.065590
1117.000000	75.101882
1118.000000	75.135693
1119.000000	75.166499
1120.000000	75.176323
1121.000000	75.186726
1122.000000	75.194042
1123.000000	75.196279
1124.000000	75.176323
1125.000000	75.147104
1126.000000	75.116671
1127.000000	75.059358
1128.000000	75.004689
1129.000000	74.920127
1130.000000	74.812638
1131.000000	74.645612
1132.000000	74.464342
1133.000000	74.272545
1134.000000	74.114122
1135.000000	73.902775
1136.000000	73.636754
1137.000000	73.344912
1138.000000	73.038876
1139.000000	72.769075
1140.000000	72.500610
1141.000000	72.252324
1142.000000	72.009564
1143.000000	71.765329
1144.000000	71.539952
1145.000000	71.355039
1146.000000	71.205238
1147.000000	71.125266
1148.000000	71.075567
1149.000000	71.074640
1150.000000	71.089755
1151.000000	71.110655
1152.000000	71.120711
1153.000000	71.110750
1154.000000	71.046837
1155.000000	70.954464
1156.000000	70.809513
1157.000000	70.620052
1158.000000	70.386332
1159.000000	70.118412
1160.000000	69.854906
1161.000000	69.562681
1162.000000	69.246091
1163.000000	68.943622
1164.000000	68.616176
1165.000000	68.290870
1166.000000	67.960038
1167.000000	67.657082
1168.000000	67.352432
1169.000000	67.039266
1170.000000	66.716807
1171.000000	66.428939
1172.000000	66.120263
1173.000000	65.838144
1174.000000	65.571927
1175.000000	65.313954
1176.000000	65.051269
1177.000000	64.791046
1178.000000	64.464053
1179.000000	64.116306
1180.000000	63.725175
1181.000000	63.270130
1182.000000	62.850445
1183.000000	62.453846
1184.000000	62.139223
1185.000000	61.906305
1186.000000	61.807723
1187.000000	61.821806
1188.000000	61.928017
1189.000000	62.166439
1190.000000	62.479445
1191.000000	62.868681
1192.000000	63.279685
1193.000000	63.700257
1194.000000	64.062164
1195.000000	64.365981
1196.000000	64.622324
1197.000000	64.807241
1198.000000	64.982392
1199.000000	65.103670
1200.000000	65.209589
1201.000000	65.277007
1202.000000	65.339733
1203.000000	65.392387
1204.000000	65.442296
1205.000000	65.485485
1206.000000	65.545628
1207.000000	65.620854
1208.000000	65.701345
1209.000000	65.794412
1210.000000	65.894104
1211.000000	66.017715
1212.000000	66.139042
1213.000000	66.251214
1214.000000	66.370763
1215.000000	66.494191
1216.000000	66.623684
1217.000000	66.759848
1218.000000	66.893674
1219.000000	67.046333
1220.000000	67.193825
1221.000000	67.343002
1222.000000	67.503239
1223.000000	67.663816
1224.000000	67.835125
1225.000000	67.997112
1226.000000	68.166309
1227.000000	68.330916
1228.000000	68.513854
1229.000000	68.672102
1230.000000	68.833934
1231.000000	68.993191
1232.000000	69.160250
1233.000000	69.325216
1234.000000	69.480547
1235.000000	69.628838
1236.000000	69.792176
1237.000000	69.938792
1238.000000	70.074040
1239.000000	70.220678
1240.000000	70.357721
1241.000000	70.496087
1242.000000	70.637675
1243.000000	70.761751
1244.000000	70.897196
1245.000000	71.009487
1246.000000	71.131348
1247.000000	71.244894
1248.000000	71.346702
1249.000000	71.448780
1250.000000	71.537935
1251.000000	71.609190
1252.000000	71.684210
1253.000000	71.761554
1254.000000	71.816497
1255.000000	71.884678
1256.000000	71.955098
1257.000000	72.005055
1258.000000	72.045119
1259.000000	72.106948
1260.000000	72.161561
1261.000000	72.208939
1262.000000	72.249257
1263.000000	72.286808
1264.000000	72.334754
1265.000000	72.384064
1266.000000	72.426078
1267.000000	72.466274
1268.000000	72.514134
1269.000000	72.550084
1270.000000	72.592746
1271.000000	72.643726
1272.000000	72.688722
1273.000000	72.728840
1274.000000	72.783803
1275.000000	72.829440
1276.000000	72.884523
1277.000000	72.944029
1278.000000	73.005086
1279.000000	73.081395
1280.000000	73.152319
1281.000000	73.219492
1282.000000	73.296569
1283.000000	73.363432
1284.000000	73.438353
1285.000000	73.525881
1286.000000	73.588652
1287.000000	73.654538
1288.000000	73.725594
1289.000000	73.787171
1290.000000	73.839523
1291.000000	73.878381
1292.000000	73.919812
1293.000000	73.961105
1294.000000	73.996873
1295.000000	74.029204
1296.000000	74.054432
1297.000000	74.073253
1298.000000	74.092865
1299.000000	74.114200
1300.000000	74.121639
1301.000000	74.129136
1302.000000	74.141351
1303.000000	74.144726
1304.000000	74.144717
1305.000000	74.145899
1306.000000	74.136326
1307.000000	74.119316
1308.000000	74.097895
1309.000000	74.060998
1310.000000	74.025136
1311.000000	73.989622
1312.000000	73.932002
1313.000000	73.879438
1314.000000	73.832832
1315.000000	73.770593
1316.000000	73.705442
1317.000000	73.634943
1318.000000	73.554016
1319.000000	73.481317
1320.000000	73.411836
1321.000000	73.329996
1322.000000	73.230671
1323.000000	73.135042
1324.000000	73.043063
1325.000000	72.941092
1326.000000	72.831064
1327.000000	72.715680
1328.000000	72.589606
1329.000000	72.464087
1330.000000	72.332492
1331.000000	72.192801
1332.000000	72.035003
1333.000000	71.869514
1334.000000	71.690109
1335.000000	71.505369
1336.000000	71.324967
1337.000000	71.116627
1338.000000	70.905039
1339.000000	70.684466
1340.000000	70.446958
1341.000000	70.199779
1342.000000	69.938358
1343.000000	69.680770
1344.000000	69.416287
1345.000000	69.108201
1346.000000	68.768216
1347.000000	68.464058
1348.000000	68.134401
1349.000000	67.746959
1350.000000	67.333518
1351.000000	66.883727
1352.000000	66.392587
1353.000000	65.868090
1354.000000	65.409048
1355.000000	64.961003
1356.000000	64.577344
1357.000000	64.270512
1358.000000	64.085553
1359.000000	63.983507
1360.000000	63.910864
1361.000000	63.912538
1362.000000	63.864412
1363.000000	63.703896
1364.000000	63.518667
1365.000000	63.373907
1366.000000	63.167625
1367.000000	62.968358
1368.000000	62.759624
1369.000000	62.493352
1370.000000	62.181992
1371.000000	61.893131
1372.000000	61.576268
1373.000000	61.243975
1374.000000	60.879862
1375.000000	60.603264
1376.000000	60.416232
1377.000000	60.280589
1378.000000	60.185198
1379.000000	60.118263
1380.000000	60.007664
1381.000000	59.950169
1382.000000	59.782530
1383.000000	59.504386
1384.000000	59.144203
1385.000000	58.748149
1386.000000	58.296701
1387.000000	57.941966
1388.000000	57.647251
1389.000000	57.348005
1390.000000	57.015466
1391.000000	56.762306
1392.000000	56.563687
1393.000000	56.327602
1394.000000	56.122876
1395.000000	55.981601
1396.000000	55.802346
1397.000000	55.445637
1398.000000	55.079052
1399.000000	54.808664
1400.000000	54.555347
1401.000000	54.229801
1402.000000	53.691041
1403.000000	53.200059
1404.000000	52.759982
1405.000000	52.369493
1406.000000	51.914140
1407.000000	51.464037
1408.000000	51.047419
1409.000000	50.619372
1410.000000	50.244586
1411.000000	49.824380
1412.000000	49.426679
1413.000000	49.151737
1414.000000	48.915785
1415.000000	48.625021
1416.000000	48.262952
1417.000000	47.918574
1418.000000	47.679374
1419.000000	47.418850
1420.000000	47.120763
1421.000000	46.798283
1422.000000	46.468326
1423.000000	46.200758
1424.000000	45.964879
1425.000000	45.672756
1426.000000	45.387345
1427.000000	45.110436
1428.000000	44.905190
1429.000000	44.680894
1430.000000	44.452197
1431.000000	44.256193
1432.000000	44.098216
1433.000000	43.922921
1434.000000	43.746847
1435.000000	43.588741
1436.000000	43.408129
1437.000000	43.274280
1438.000000	43.138768
1439.000000	42.992397
1440.000000	42.828488
1441.000000	42.682549
1442.000000	42.541453
1443.000000	42.377458
1444.000000	42.226147
1445.000000	42.113922
1446.000000	42.002188
1447.000000	41.842752
1448.000000	41.684419
1449.000000	41.538835
1450.000000	41.443393
1451.000000	41.348738
1452.000000	41.218958
1453.000000	41.083546
1454.000000	40.949796
1455.000000	40.852127
1456.000000	40.744062
1457.000000	40.643482
1458.000000	40.534312
1459.000000	40.423539
1460.000000	40.333726
1461.000000	40.257667
1462.000000	40.167095
1463.000000	40.097021
1464.000000	40.014098
1465.000000	39.935035
1466.000000	39.889532
1467.000000	39.831371
1468.000000	39.762801
1469.000000	39.705692
1470.000000	39.660796
1471.000000	39.625208
1472.000000	39.574853
1473.000000	39.517343
1474.000000	39.445922
1475.000000	39.379527
1476.000000	39.317206
1477.000000	39.278877
1478.000000	39.235475
1479.000000	39.187149
1480.000000	39.145927
1481.000000	39.113480
1482.000000	39.061019
1483.000000	39.019101
1484.000000	38.974251
1485.000000	38.947339
1486.000000	38.915745
1487.000000	38.887035
1488.000000	38.857951
1489.000000	38.816201
1490.000000	38.786519
1491.000000	38.753255
1492.000000	38.727902
1493.000000	38.708353
1494.000000	38.682858
1495.000000	38.668619
1496.000000	38.656469
1497.000000	38.643075
1498.000000	38.633794
1499.000000	38.652285
1500.000000	38.654524
1501.000000	38.660198
1502.000000	38.675395
1503.000000	38.685670
1504.000000	38.706792
1505.000000	38.736192
1506.000000	38.759623
1507.000000	38.793608
1508.000000	38.820772
1509.000000	38.851322
1510.000000	38.875257
1511.000000	38.904014
1512.000000	38.937743
1513.000000	38.969701
1514.000000	38.999988
1515.000000	39.031758
1516.000000	39.069882
1517.000000	39.095029
1518.000000	39.114327
1519.000000	39.144263
1520.000000	39.176764
1521.000000	39.204490
1522.000000	39.239493
1523.000000	39.276810
1524.000000	39.300749
1525.000000	39.324738
1526.000000	39.359428
1527.000000	39.396538
1528.000000	39.424543
1529.000000	39.443526
1530.000000	39.464685
1531.000000	39.494889
1532.000000	39.520425
1533.000000	39.537396
1534.000000	39.551035
1535.000000	39.562590
1536.000000	39.585339
1537.000000	39.602203
1538.000000	39.606507
1539.000000	39.614202
1540.000000	39.628843
1541.000000	39.655331
1542.000000	39.664416
1543.000000	39.668416
1544.000000	39.687392
1545.000000	39.712561
1546.000000	39.739662
1547.000000	39.772189
1548.000000	39.807522
1549.000000	39.839535
1550.000000	39.876416
1551.000000	39.918263
1552.000000	39.949325
1553.000000	39.975859
1554.000000	40.008460
1555.000000	40.047094
1556.000000	40.065730
1557.000000	40.066585
1558.000000	40.077946
1559.000000	40.087261
1560.000000	40.091642
1561.000000	40.090838
1562.000000	40.078977
1563.000000	40.067572
1564.000000	40.045805
1565.000000	40.018533
1566.000000	40.001312
1567.000000	39.978409
1568.000000	39.956405
1569.000000	39.940535
1570.000000	39.927842
1571.000000	39.907955
1572.000000	39.886916
1573.000000	39.875233
1574.000000	39.861520
1575.000000	39.847628
1576.000000	39.851861
1577.000000	39.862881
1578.000000	39.873267
1579.000000	39.892897
1580.000000	39.913137
1581.000000	39.926632
1582.000000	39.949106
1583.000000	39.968073
1584.000000	39.995368
1585.000000	40.031724
1586.000000	40.074482
1587.000000	40.107747
1588.000000	40.144364
1589.000000	40.195157
1590.000000	40.245072
1591.000000	40.293798
1592.000000	40.341323
1593.000000	40.398038
1594.000000	40.452495
1595.000000	40.508038
1596.000000	40.565535
1597.000000	40.632627
1598.000000	40.695807
1599.000000	40.752317
1600.000000	40.824568
1601.000000	40.896348
1602.000000	40.970799
1603.000000	41.052058
1604.000000	41.118231
1605.000000	41.184769
1606.000000	41.269577
1607.000000	41.343153
1608.000000	41.406952
1609.000000	41.475764
1610.000000	41.549015
1611.000000	41.617011
1612.000000	41.678935
1613.000000	41.746152
1614.000000	41.814918
1615.000000	41.882278
1616.000000	41.944853
1617.000000	42.008238
1618.000000	42.079011
1619.000000	42.158556
1620.000000	42.227416
1621.000000	42.289767
1622.000000	42.358051
1623.000000	42.433174
1624.000000	42.517830
1625.000000	42.583153
1626.000000	42.664512
1627.000000	42.750469
1628.000000	42.822410
1629.000000	42.903002
1630.000000	42.987840
1631.000000	43.065105
1632.000000	43.135257
1633.000000	43.218857
1634.000000	43.293353
1635.000000	43.357982
1636.000000	43.422832
1637.000000	43.492455
1638.000000	43.552056
1639.000000	43.612237
1640.000000	43.670652
1641.000000	43.718840
1642.000000	43.780425
1643.000000	43.839610
1644.000000	43.890859
1645.000000	43.937015
1646.000000	43.989124
1647.000000	44.037000
1648.000000	44.087772
1649.000000	44.130620
1650.000000	44.161857
1651.000000	44.185743
1652.000000	44.195622
1653.000000	44.214403
1654.000000	44.225596
1655.000000	44.215867
1656.000000	44.208912
1657.000000	44.197262
1658.000000	44.163984
1659.000000	44.115788
1660.000000	44.080555
1661.000000	44.014210
1662.000000	43.936599
1663.000000	43.841503
1664.000000	43.775033
1665.000000	43.655448
1666.000000	43.532500
1667.000000	43.398409
1668.000000	43.236317
1669.000000	43.050320
1670.000000	42.854133
1671.000000	42.632468
1672.000000	42.393612
1673.000000	42.117727
1674.000000	41.810113
1675.000000	41.439578
1676.000000	41.036998
1677.000000	40.567695
1678.000000	40.048358
1679.000000	39.506451
1680.000000	38.912537
1681.000000	38.358668
1682.000000	37.875764
1683.000000	37.494305
1684.000000	37.223496
1685.000000	37.079412
1686.000000	36.994438
1687.000000	36.955658
1688.000000	36.905459
1689.000000	36.841645
1690.000000	36.746265
1691.000000	36.615609
1692.000000	36.465485
1693.000000	36.360637
1694.000000	36.253340
1695.000000	36.217504
1696.000000	36.228578
1697.000000	36.293978
1698.000000	36.403274
1699.000000	36.545144
1700.000000	36.704816
1701.000000	36.846794
1702.000000	36.982456
1703.000000	37.084919
1704.000000	37.170893
1705.000000	37.218695
1706.000000	37.249819
1707.000000	37.281235
1708.000000	37.286102
1709.000000	37.285180
1710.000000	37.268962
1711.000000	37.216433
1712.000000	37.167807
1713.000000	37.078146
1714.000000	36.994691
1715.000000	36.883687
1716.000000	36.772609
1717.000000	36.650593
1718.000000	36.541367
1719.000000	36.464897
1720.000000	36.393314
1721.000000	36.330136
1722.000000	36.275903
1723.000000	36.222373
1724.000000	36.162285
1725.000000	36.112290
1726.000000	36.031732
1727.000000	35.935667
1728.000000	35.835339
1729.000000	35.735429
1730.000000	35.618532
1731.000000	35.527139
1732.000000	35.444388
1733.000000	35.405295
1734.000000	35.379269
1735.000000	35.410919
1736.000000	35.494625
1737.000000	35.619784
1738.000000	35.782230
1739.000000	35.985067
1740.000000	36.205459
1741.000000	36.428679
1742.000000	36.658322
1743.000000	36.863693
1744.000000	37.072209
1745.000000	37.243342
1746.000000	37.385007
1747.000000	37.512215
1748.000000	37.611955
1749.000000	37.697226
1750.000000	37.762795
1751.000000	37.819973
1752.000000	37.861589
1753.000000	37.881537
1754.000000	37.892422
1755.000000	37.888548
1756.000000	37.855878
1757.000000	37.807057
1758.000000	37.760683
1759.000000	37.692702
1760.000000	37.629768
1761.000000	37.571709
1762.000000	37.530400
1763.000000	37.515764
1764.000000	37.525561
1765.000000	37.561370
1766.000000	37.631227
1767.000000	37.718482
1768.000000	37.829168
1769.000000	37.939813
1770.000000	38.063684
1771.000000	38.191355
1772.000000	38.318754
1773.000000	38.455184
1774.000000	38.585867
1775.000000	38.718249
1776.000000	38.845745
1777.000000	38.957874
1778.000000	39.059660
1779.000000	39.161578
1780.000000	39.258695
1781.000000	39.332195
1782.000000	39.405618
1783.000000	39.480006
1784.000000	39.562635
1785.000000	39.644619
1786.000000	39.723648
1787.000000	39.792847
1788.000000	39.849009
1789.000000	39.903747
1790.000000	39.961130
1791.000000	40.029667
1792.000000	40.081891
1793.000000	40.139162
1794.000000	40.194675
1795.000000	40.248617
1796.000000	40.304605
1797.000000	40.360241
1798.000000	40.408335
1799.000000	40.457502
1800.000000	40.513678
1801.000000	40.592075
1802.000000	40.667980
1803.000000	40.721964
1804.000000	40.762441
1805.000000	40.809863
1806.000000	40.882458
1807.000000	40.955190
1808.000000	40.996093
1809.000000	41.029913
1810.000000	41.077553
1811.000000	41.149604
1812.000000	41.217195
1813.000000	41.249195
1814.000000	41.260646
1815.000000	41.275499
1816.000000	41.307243
1817.000000	41.321845
1818.000000	41.327558
1819.000000	41.365079
1820.000000	41.431834
1821.000000	41.509093
1822.000000	41.563165
1823.000000	41.551925
1824.000000	41.531384
1825.000000	41.578686
1826.000000	41.659523
1827.000000	41.745099
1828.000000	41.841343
1829.000000	41.950693
1830.000000	42.053518
1831.000000	42.150205
1832.000000	42.228467
1833.000000	42.298943
1834.000000	42.387077
1835.000000	42.494923
1836.000000	42.604394
1837.000000	42.706338
1838.000000	42.784979
1839.000000	42.833143
1840.000000	42.898675
1841.000000	42.973414
1842.000000	43.045499
1843.000000	43.051566
1844.000000	43.020172
1845.000000	43.046699
1846.000000	43.110458
1847.000000	43.229821
1848.000000	43.370193
1849.000000	43.467197
1850.000000	43.494301
1851.000000	43.487080
1852.000000	43.490866
1853.000000	43.549407
1854.000000	43.629309
1855.000000	43.673973
1856.000000	43.697459
1857.000000	43.713928
1858.000000	43.704876
1859.000000	43.707442
1860.000000	43.697622
1861.000000	43.655098
1862.000000	43.585779
1863.000000	43.490122
1864.000000	43.405721
1865.000000	43.330200
1866.000000	43.240854
1867.000000	43.156112
1868.000000	43.056792
1869.000000	42.908517
1870.000000	42.715258
1871.000000	42.520256
1872.000000	42.269632
1873.000000	41.977273
1874.000000	41.643057
1875.000000	41.280565
1876.000000	40.884124
1877.000000	40.472692
1878.000000	40.026672
1879.000000	39.541329
1880.000000	39.047180
1881.000000	38.556833
1882.000000	38.019071
1883.000000	37.501608
1884.000000	36.984689
1885.000000	36.448552
1886.000000	35.938486
1887.000000	35.456633
1888.000000	35.016771
1889.000000	34.586820
1890.000000	34.182137
1891.000000	33.757076
1892.000000	33.294868
1893.000000	32.820989
1894.000000	32.361262
1895.000000	31.924150
1896.000000	31.516947
1897.000000	31.129411
1898.000000	30.702018
1899.000000	30.243779
1900.000000	29.806178
1901.000000	29.335847
1902.000000	28.898096
1903.000000	28.498108
1904.000000	28.104611
1905.000000	27.715893
1906.000000	27.296419
1907.000000	26.867762
1908.000000	26.484753
1909.000000	26.150363
1910.000000	25.850663
1911.000000	25.549429
1912.000000	25.249479
1913.000000	24.935537
1914.000000	24.605048
1915.000000	24.283744
1916.000000	24.017886
1917.000000	23.773244
1918.000000	23.550851
1919.000000	23.297439
1920.000000	23.099076
1921.000000	22.881812
1922.000000	22.644695
1923.000000	22.434311
1924.000000	22.266714
1925.000000	22.110825
1926.000000	21.954392
1927.000000	21.816402
1928.000000	21.681598
1929.000000	21.554571
1930.000000	21.446385
1931.000000	21.349003
1932.000000	21.260889
1933.000000	21.172084
1934.000000	21.122807
1935.000000	21.077836
1936.000000	21.036305
1937.000000	21.005250
1938.000000	20.992153
1939.000000	20.999480
1940.000000	20.983335
1941.000000	20.997813
1942.000000	21.008799
1943.000000	21.027038
1944.000000	21.049145
1945.000000	21.104526
1946.000000	21.157578
1947.000000	21.203828
1948.000000	21.264086
1949.000000	21.321975
1950.000000	21.398412
1951.000000	21.447318
1952.000000	21.540794
1953.000000	21.612250
1954.000000	21.705853
1955.000000	21.788500
1956.000000	21.872689
1957.000000	21.948986
1958.000000	22.050203
1959.000000	22.130423
1960.000000	22.217130
1961.000000	22.295544
1962.000000	22.408852
1963.000000	22.500236
1964.000000	22.572181
1965.000000	22.661491
1966.000000	22.755421
1967.000000	22.843751
1968.000000	22.926545
1969.000000	23.023554
1970.000000	23.107701
1971.000000	23.193348
1972.000000	23.286979
1973.000000	23.385402
1974.000000	23.483281
1975.000000	23.573087
1976.000000	23.663753
1977.000000	23.770231
1978.000000	23.867559
1979.000000	23.966654
1980.000000	24.076525
1981.000000	24.178997
1982.000000	24.277833
1983.000000	24.388578
1984.000000	24.474680
1985.000000	24.569315
1986.000000	24.665517
1987.000000	24.766190
1988.000000	24.862028
1989.000000	24.952940
1990.000000	25.062861
1991.000000	25.136090
1992.000000	25.221610
1993.000000	25.311243
1994.000000	25.386571
1995.000000	25.450630
1996.000000	25.529126
1997.000000	25.583074
1998.000000	25.643778
1999.000000	25.706195
2000.000000	25.774112
2001.000000	25.813044
2002.000000	25.856176
2003.000000	25.891370
2004.000000	25.923854
2005.000000	25.963353
2006.000000	25.978207
2007.000000	25.989386
2008.000000	26.001211
2009.000000	26.023193
2010.000000	26.008525
2011.000000	25.988478
2012.000000	25.982056
2013.000000	25.970256
2014.000000	25.947218
2015.000000	25.927126
2016.000000	25.872015
2017.000000	25.848172
2018.000000	25.797753
2019.000000	25.750392
2020.000000	25.693031
2021.000000	25.627983
2022.000000	25.566922
2023.000000	25.494084
2024.000000	25.439462
2025.000000	25.360620
2026.000000	25.274120
2027.000000	25.180273
2028.000000	25.101046
2029.000000	25.021596
2030.000000	24.917329
2031.000000	24.800474
2032.000000	24.690447
2033.000000	24.584972
2034.000000	24.462665
2035.000000	24.333800
2036.000000	24.204932
2037.000000	24.060083
2038.000000	23.926720
2039.000000	23.769478
2040.000000	23.618951
2041.000000	23.463896
2042.000000	23.295106
2043.000000	23.126646
2044.000000	22.976391
2045.000000	22.818772
2046.000000	22.674442
2047.000000	22.524222
2048.000000	22.383933
2049.000000	22.252227
2050.000000	22.133942
2051.000000	22.020034
2052.000000	21.922201
2053.000000	21.844174
2054.000000	21.779935
2055.000000	21.726729
2056.000000	21.695042
2057.000000	21.668680
2058.000000	21.646378
2059.000000	21.646952
2060.000000	21.655645
2061.000000	21.678376
2062.000000	21.698196
2063.000000	21.739655
2064.000000	21.784576
2065.000000	21.827020
2066.000000	21.858204
2067.000000	21.897661
2068.000000	21.942494
2069.000000	21.991607
2070.000000	22.045916
2071.000000	22.089549
2072.000000	22.127934
2073.000000	22.184802
2074.000000	22.221439
2075.000000	22.253614
2076.000000	22.297181
2077.000000	22.334062
2078.000000	22.371009
2079.000000	22.401650
2080.000000	22.424598
2081.000000	22.448898
2082.000000	22.468909
2083.000000	22.492926
2084.000000	22.504347
2085.000000	22.512988
2086.000000	22.523246
2087.000000	22.537569
2088.000000	22.549178
2089.000000	22.548694
2090.000000	22.539415
2091.000000	22.541931
2092.000000	22.545635
2093.000000	22.542245
2094.000000	22.551500
2095.000000	22.555770
2096.000000	22.556085
2097.000000	22.568987
2098.000000	22.585698
2099.000000	22.599279
2100.000000	22.609030
2101.000000	22.625617
2102.000000	22.643823
2103.000000	22.658681
2104.000000	22.673276
2105.000000	22.684357
2106.000000	22.705504
2107.000000	22.730598
2108.000000	22.748517
2109.000000	22.752086
2110.000000	22.759324
2111.000000	22.781307
2112.000000	22.795102
2113.000000	22.803910
2114.000000	22.821645
2115.000000	22.836109
2116.000000	22.843769
2117.000000	22.845832
2118.000000	22.856379
2119.000000	22.863121
2120.000000	22.866527
2121.000000	22.867651
2122.000000	22.872990
2123.000000	22.869231
2124.000000	22.857981
2125.000000	22.844699
2126.000000	22.828599
2127.000000	22.814826
2128.000000	22.797794
2129.000000	22.775083
2130.000000	22.747001
2131.000000	22.719133
2132.000000	22.685744
2133.000000	22.650234
2134.000000	22.615373
2135.000000	22.573943
2136.000000	22.524194
2137.000000	22.478406
2138.000000	22.432591
2139.000000	22.385406
2140.000000	22.330345
2141.000000	22.272096
2142.000000	22.209026
2143.000000	22.151867
2144.000000	22.098192
2145.000000	22.046341
2146.000000	21.993419
2147.000000	21.914428
2148.000000	21.845986
2149.000000	21.790788
2150.000000	21.731777
2151.000000	21.665222
2152.000000	21.601961
2153.000000	21.535310
2154.000000	21.471946
2155.000000	21.424047
2156.000000	21.358533
2157.000000	21.288934
2158.000000	21.236299
2159.000000	21.198385
2160.000000	21.147632
2161.000000	21.101795
2162.000000	21.060730
2163.000000	21.033373
2164.000000	20.994980
2165.000000	20.961190
2166.000000	20.932965
2167.000000	20.921068
2168.000000	20.894535
2169.000000	20.867387
2170.000000	20.852981
2171.000000	20.849694
2172.000000	20.843326
2173.000000	20.835221
2174.000000	20.832686
2175.000000	20.830629
2176.000000	20.838689
2177.000000	20.839957
2178.000000	20.847053
2179.000000	20.875393
2180.000000	20.887301
2181.000000	20.904915
2182.000000	20.926485
2183.000000	20.955127
2184.000000	20.970076
2185.000000	20.988064
2186.000000	20.997354
2187.000000	21.029687
2188.000000	21.055432
2189.000000	21.072348
2190.000000	21.090593
2191.000000	21.101821
2192.000000	21.119958
2193.000000	21.142834
2194.000000	21.152971
2195.000000	21.165914
2196.000000	21.186574
2197.000000	21.210046
2198.000000	21.233546
2199.000000	21.231622
2200.000000	21.257544
2201.000000	21.274504
2202.000000	21.299088
2203.000000	21.316353
2204.000000	21.349523
2205.000000	21.382441
2206.000000	21.393625
2207.000000	21.420157
2208.000000	21.455355
2209.000000	21.476316
2210.000000	21.514286
2211.000000	21.555461
2212.000000	21.604112
2213.000000	21.635776
2214.000000	21.684938
2215.000000	21.725184
2216.000000	21.765833
2217.000000	21.805293
2218.000000	21.854584
2219.000000	21.906140
2220.000000	21.939707
2221.000000	21.974440
2222.000000	22.019951
2223.000000	22.055047
2224.000000	22.072539
2225.000000	22.083563
2226.000000	22.102512
2227.000000	22.119558
2228.000000	22.104698
2229.000000	22.088598
2230.000000	22.070801
2231.000000	22.054803
2232.000000	22.011142
2233.000000	21.982197
2234.000000	21.947063
2235.000000	21.861902
2236.000000	21.796668
2237.000000	21.720272
2238.000000	21.615937
2239.000000	21.538573
2240.000000	21.433407
2241.000000	21.315092
2242.000000	21.193750
2243.000000	21.050653
2244.000000	20.926245
2245.000000	20.771212
2246.000000	20.601671
2247.000000	20.427398
2248.000000	20.224137
2249.000000	20.034755
2250.000000	19.807294
2251.000000	19.607113
2252.000000	19.346274
2253.000000	19.121872
2254.000000	18.883117
2255.000000	18.618729
2256.000000	18.374718
2257.000000	18.098873
2258.000000	17.841227
2259.000000	17.614612
2260.000000	17.370595
2261.000000	17.132377
2262.000000	16.928048
2263.000000	16.740264
2264.000000	16.588866
2265.000000	16.426065
2266.000000	16.278471
2267.000000	16.166889
2268.000000	16.066973
2269.000000	15.989782
2270.000000	15.930680
2271.000000	15.883228
2272.000000	15.866762
2273.000000	15.842832
2274.000000	15.820099
2275.000000	15.820038
2276.000000	15.820448
2277.000000	15.828168
2278.000000	15.841906
2279.000000	15.854978
2280.000000	15.876023
2281.000000	15.900530
2282.000000	15.925565
2283.000000	15.936556
2284.000000	15.956142
2285.000000	15.950763
2286.000000	15.959851
2287.000000	15.964384
2288.000000	15.963524
2289.000000	15.952588
2290.000000	15.927171
2291.000000	15.905974
2292.000000	15.863360
2293.000000	15.808477
2294.000000	15.751948
2295.000000	15.685724
2296.000000	15.613080
2297.000000	15.529490
2298.000000	15.455813
2299.000000	15.384526
2300.000000	15.297010
2301.000000	15.222225
2302.000000	15.154384
2303.000000	15.098446
2304.000000	15.053045
2305.000000	15.024174
2306.000000	15.007028
2307.000000	15.008791
2308.000000	15.030890
2309.000000	15.047075
2310.000000	15.076493
2311.000000	15.142750
2312.000000	15.215150
2313.000000	15.291690
2314.000000	15.376526
2315.000000	15.464763
2316.000000	15.568070
2317.000000	15.662409
2318.000000	15.749556
2319.000000	15.830654
2320.000000	15.911097
2321.000000	15.993018
2322.000000	16.065526
2323.000000	16.134837
2324.000000	16.206687
2325.000000	16.260337
2326.000000	16.313255
2327.000000	16.371864
2328.000000	16.423759
2329.000000	16.454607
2330.000000	16.478497
2331.000000	16.516467
2332.000000	16.550760
2333.000000	16.566699
2334.000000	16.572583
2335.000000	16.579229
2336.000000	16.594455
2337.000000	16.602284
2338.000000	16.596947
2339.000000	16.572383
2340.000000	16.550205
2341.000000	16.525774
2342.000000	16.502757
2343.000000	16.455111
2344.000000	16.401741
2345.000000	16.374676
2346.000000	16.328167
2347.000000	16.284063
2348.000000	16.249989
2349.000000	16.218346
2350.000000	16.176431
2351.000000	16.158550
2352.000000	16.156984
2353.000000	16.147269
2354.000000	16.154042
2355.000000	16.169964
2356.000000	16.189484
2357.000000	16.224947
2358.000000	16.263859
2359.000000	16.308362
2360.000000	16.359162
2361.000000	16.401223
2362.000000	16.460644
2363.000000	16.528669
2364.000000	16.583295
2365.000000	16.628831
2366.000000	16.678828
2367.000000	16.731292
2368.000000	16.764510
2369.000000	16.789396
2370.000000	16.829854
2371.000000	16.858158
2372.000000	16.878823
2373.000000	16.903880
2374.000000	16.937035
2375.000000	16.955044
2376.000000	16.966055
2377.000000	16.985199
2378.000000	17.006366
2379.000000	17.015102
2380.000000	17.022823
2381.000000	17.040744
2382.000000	17.042680
2383.000000	17.044093
2384.000000	17.046707
2385.000000	17.043043
2386.000000	17.040257
2387.000000	17.028581
2388.000000	17.013762
2389.000000	16.986781
2390.000000	16.964083
2391.000000	16.951100
2392.000000	16.941844
2393.000000	16.904961
2394.000000	16.871494
2395.000000	16.847003
2396.000000	16.814108
2397.000000	16.780436
2398.000000	16.749590
2399.000000	16.711172
2400.000000	16.670657
2401.000000	16.637115
2402.000000	16.613700
2403.000000	16.585840
2404.000000	16.544068
2405.000000	16.505301
2406.000000	16.471287
2407.000000	16.441358
2408.000000	16.403780
2409.000000	16.357012
2410.000000	16.321402
2411.000000	16.284776
2412.000000	16.239377
2413.000000	16.201563
2414.000000	16.162820
2415.000000	16.105977
2416.000000	16.060007
2417.000000	16.021348
2418.000000	15.981624
2419.000000	15.938611
2420.000000	15.894549
2421.000000	15.837628
2422.000000	15.769086
2423.000000	15.683215
2424.000000	15.594777
2425.000000	15.518347
2426.000000	15.463658
2427.000000	15.408374
2428.000000	15.352202
2429.000000	15.285931
2430.000000	15.234549
2431.000000	15.170596
2432.000000	15.111122
2433.000000	15.040698
2434.000000	14.961914
2435.000000	14.893559
2436.000000	14.816606
2437.000000	14.732609
2438.000000	14.663381
2439.000000	14.577406
2440.000000	14.499833
2441.000000	14.424815
2442.000000	14.335097
2443.000000	14.241940
2444.000000	14.157784
2445.000000	14.073500
2446.000000	13.967458
2447.000000	13.883589
2448.000000	13.805535
2449.000000	13.723216
2450.000000	13.624849
2451.000000	13.543636
2452.000000	13.453461
2453.000000	13.364292
2454.000000	13.288738
2455.000000	13.208310
2456.000000	13.124951
2457.000000	13.053905
2458.000000	13.002463
2459.000000	12.944976
2460.000000	12.897653
2461.000000	12.835445
2462.000000	12.781505
2463.000000	12.746005
2464.000000	12.691343
2465.000000	12.669815
2466.000000	12.618110
2467.000000	12.601618
2468.000000	12.570645
2469.000000	12.543535
2470.000000	12.545853
2471.000000	12.519190
2472.000000	12.470375
2473.000000	12.507424
2474.000000	12.459126
2475.000000	12.438616
2476.000000	12.445175
2477.000000	12.442528
2478.000000	12.430479
2479.000000	12.423373
2480.000000	12.421400
2481.000000	12.418197
2482.000000	12.441169
2483.000000	12.399807
2484.000000	12.421293
2485.000000	12.419409
2486.000000	12.402392
2487.000000	12.409398
2488.000000	12.423783
2489.000000	12.415904
2490.000000	12.440313
2491.000000	12.430170
2492.000000	12.483645
2493.000000	12.439052
2494.000000	12.478742
2495.000000	12.560670
2496.000000	12.552329
2497.000000	12.596611
2498.000000	12.582234
2499.000000	12.627290
2500.000000	12.613872
