PE UV       SUBTECH     SPECTRUM    ASCII       PEDS        4.00        
   -1
CICIMAUCR0008-5.Sample.ASC
24/04/25
10:02:58.00
24/04/25
10:02:58.00
Vinicio Soto Monge
C. kalinini
250,000000
1
Lambda 1050
1050L1511233
PerkinElmer UV WinLab 6.3.2.0749 / 2.02.05 Lambda 900 UV/VIS/NIR, Aug  7 2015 09:38:08

0
0
3350/servo 860,8/2
0
0
UV/VIS
1
1
1
DoubleDePol,CommonBeamDepol,RBeamAtt,SBeamAtt,60mm sphere, WB InGaAs Detector
0
0
0
0
Program
Program
3350/servo 860,8/2
3350/0,2 860,8/0,2
3350/0,2 860,8/0,2
0
15.00
 
 
 
0
 
860,8
319,2
860,8
Front
100
on
S:100 R:100
0
0
0
0
 
0
 
 
 
0
 
 
0
0
0
0
0
 
 
 
 
0
0


0
0
#HDR
-1
-1
#GR
nm
%R
1.0
0.0
2500,000000
-1,000000
2251
8
95,184700
4,916500
#DATA
250.000000	5.152933
251.000000	5.116800
252.000000	5.088767
253.000000	5.104833
254.000000	5.092867
255.000000	5.100600
256.000000	5.083700
257.000000	5.094733
258.000000	5.060667
259.000000	5.041667
260.000000	5.015367
261.000000	5.047800
262.000000	5.016800
263.000000	5.005500
264.000000	4.964167
265.000000	4.948033
266.000000	4.937600
267.000000	4.933767
268.000000	4.920400
269.000000	4.912633
270.000000	4.871433
271.000000	4.860433
272.000000	4.862267
273.000000	4.864233
274.000000	4.828533
275.000000	4.822000
276.000000	4.809067
277.000000	4.825500
278.000000	4.799233
279.000000	4.849667
280.000000	4.812867
281.000000	4.788767
282.000000	4.776033
283.000000	4.782400
284.000000	4.773767
285.000000	4.758767
286.000000	4.741067
287.000000	4.765833
288.000000	4.731833
289.000000	4.770167
290.000000	4.757267
291.000000	4.714367
292.000000	4.776867
293.000000	4.745233
294.000000	4.740567
295.000000	4.713733
296.000000	4.731967
297.000000	4.741000
298.000000	4.734567
299.000000	4.729267
300.000000	4.687033
301.000000	4.707500
302.000000	4.719467
303.000000	4.694833
304.000000	4.712000
305.000000	4.714833
306.000000	4.709667
307.000000	4.716567
308.000000	4.707067
309.000000	4.696367
310.000000	4.679567
311.000000	4.691967
312.000000	4.675133
313.000000	4.678733
314.000000	4.674867
315.000000	4.663100
316.000000	4.759267
317.000000	5.351700
318.000000	5.105767
319.000000	5.109733
320.000000	5.003267
321.000000	5.091667
322.000000	5.109400
323.000000	5.161500
324.000000	5.137033
325.000000	5.035533
326.000000	4.974467
327.000000	4.966667
328.000000	4.932233
329.000000	5.000833
330.000000	4.948967
331.000000	4.944433
332.000000	4.968033
333.000000	5.007300
334.000000	4.975133
335.000000	4.897633
336.000000	4.929333
337.000000	4.988533
338.000000	4.962400
339.000000	4.923733
340.000000	5.024167
341.000000	5.031667
342.000000	4.916833
343.000000	5.003067
344.000000	5.068467
345.000000	5.055267
346.000000	5.020233
347.000000	5.044700
348.000000	5.083400
349.000000	5.072933
350.000000	5.110800
351.000000	5.160900
352.000000	5.132633
353.000000	5.172500
354.000000	5.260667
355.000000	5.241133
356.000000	5.260733
357.000000	5.292333
358.000000	5.357133
359.000000	5.390900
360.000000	5.350500
361.000000	5.417267
362.000000	5.494233
363.000000	5.483900
364.000000	5.526867
365.000000	5.511467
366.000000	5.597667
367.000000	5.574267
368.000000	5.608333
369.000000	5.674600
370.000000	5.671333
371.000000	5.713167
372.000000	5.808533
373.000000	5.887733
374.000000	5.888900
375.000000	6.019067
376.000000	6.257167
377.000000	6.272000
378.000000	6.366333
379.000000	6.475333
380.000000	6.576700
381.000000	6.701900
382.000000	6.813233
383.000000	6.931867
384.000000	7.069900
385.000000	7.221067
386.000000	7.374100
387.000000	7.541467
388.000000	7.710900
389.000000	7.888800
390.000000	8.088633
391.000000	8.290700
392.000000	8.502633
393.000000	8.736100
394.000000	8.983467
395.000000	9.226100
396.000000	9.472267
397.000000	9.741767
398.000000	10.018400
399.000000	10.302833
400.000000	10.602433
401.000000	10.920500
402.000000	11.233200
403.000000	11.561300
404.000000	11.910233
405.000000	12.257367
406.000000	12.602500
407.000000	12.960000
408.000000	13.323667
409.000000	13.691033
410.000000	14.057633
411.000000	14.431500
412.000000	14.818900
413.000000	15.209100
414.000000	15.591667
415.000000	15.969967
416.000000	16.333933
417.000000	16.705700
418.000000	17.072700
419.000000	17.425267
420.000000	17.781100
421.000000	18.124967
422.000000	18.462633
423.000000	18.788533
424.000000	19.102067
425.000000	19.397000
426.000000	19.679933
427.000000	19.957400
428.000000	20.201867
429.000000	20.445433
430.000000	20.697133
431.000000	20.925000
432.000000	21.141367
433.000000	21.353033
434.000000	21.551833
435.000000	21.753100
436.000000	21.937267
437.000000	22.095333
438.000000	22.262567
439.000000	22.420800
440.000000	22.567833
441.000000	22.714333
442.000000	22.846167
443.000000	22.976500
444.000000	23.091333
445.000000	23.177033
446.000000	23.257933
447.000000	23.335533
448.000000	23.394433
449.000000	23.459433
450.000000	23.529600
451.000000	23.591233
452.000000	23.642000
453.000000	23.681000
454.000000	23.717800
455.000000	23.750567
456.000000	23.786267
457.000000	23.814567
458.000000	23.849567
459.000000	23.882200
460.000000	23.908400
461.000000	23.940533
462.000000	23.972400
463.000000	24.014567
464.000000	24.063067
465.000000	24.118933
466.000000	24.186800
467.000000	24.282600
468.000000	24.378333
469.000000	24.483367
470.000000	24.622633
471.000000	24.777500
472.000000	24.948567
473.000000	25.152200
474.000000	25.373167
475.000000	25.617767
476.000000	25.885500
477.000000	26.176067
478.000000	26.501833
479.000000	26.836500
480.000000	27.212967
481.000000	27.625500
482.000000	28.037067
483.000000	28.460167
484.000000	28.881800
485.000000	29.300200
486.000000	29.712200
487.000000	30.143900
488.000000	30.570600
489.000000	30.989600
490.000000	31.402267
491.000000	31.819933
492.000000	32.221367
493.000000	32.615667
494.000000	32.984500
495.000000	33.343067
496.000000	33.709333
497.000000	34.065567
498.000000	34.418200
499.000000	34.754733
500.000000	35.096333
501.000000	35.458133
502.000000	35.830200
503.000000	36.199600
504.000000	36.599500
505.000000	37.004533
506.000000	37.415500
507.000000	37.841433
508.000000	38.283233
509.000000	38.765300
510.000000	39.262067
511.000000	39.786400
512.000000	40.327933
513.000000	40.901833
514.000000	41.497900
515.000000	42.113500
516.000000	42.756900
517.000000	43.393833
518.000000	44.052033
519.000000	44.709600
520.000000	45.382567
521.000000	46.071000
522.000000	46.750767
523.000000	47.421167
524.000000	48.082900
525.000000	48.751667
526.000000	49.404367
527.000000	50.063500
528.000000	50.718200
529.000000	51.358200
530.000000	51.984733
531.000000	52.570033
532.000000	53.165933
533.000000	53.756833
534.000000	54.336833
535.000000	54.880800
536.000000	55.426633
537.000000	55.940633
538.000000	56.443567
539.000000	56.933467
540.000000	57.401233
541.000000	57.845033
542.000000	58.283900
543.000000	58.680633
544.000000	59.099267
545.000000	59.464000
546.000000	59.806500
547.000000	60.147767
548.000000	60.477900
549.000000	60.815433
550.000000	61.134400
551.000000	61.444500
552.000000	61.709433
553.000000	61.975167
554.000000	62.223767
555.000000	62.442500
556.000000	62.650833
557.000000	62.847467
558.000000	63.041733
559.000000	63.195767
560.000000	63.192267
561.000000	63.324200
562.000000	63.473667
563.000000	63.607567
564.000000	63.730333
565.000000	63.827633
566.000000	63.890200
567.000000	63.950167
568.000000	63.991933
569.000000	64.060100
570.000000	64.102400
571.000000	64.133600
572.000000	64.183300
573.000000	64.217533
574.000000	64.209367
575.000000	64.166967
576.000000	64.154467
577.000000	64.078267
578.000000	63.988933
579.000000	63.904633
580.000000	63.811567
581.000000	63.691367
582.000000	63.537067
583.000000	63.395633
584.000000	63.241300
585.000000	63.044700
586.000000	62.830167
587.000000	62.593600
588.000000	62.345000
589.000000	62.085133
590.000000	61.835300
591.000000	61.570533
592.000000	61.319300
593.000000	61.008000
594.000000	60.770633
595.000000	60.515433
596.000000	60.250767
597.000000	59.954533
598.000000	59.671933
599.000000	59.358333
600.000000	59.033267
601.000000	58.736900
602.000000	58.400167
603.000000	58.071933
604.000000	57.732467
605.000000	57.411967
606.000000	57.074367
607.000000	56.806233
608.000000	56.516433
609.000000	56.248400
610.000000	55.996833
611.000000	55.759733
612.000000	55.525167
613.000000	55.289767
614.000000	55.078700
615.000000	54.845000
616.000000	54.683600
617.000000	54.504567
618.000000	54.358800
619.000000	54.213867
620.000000	54.105467
621.000000	53.999667
622.000000	53.916633
623.000000	53.846400
624.000000	53.789433
625.000000	53.789567
626.000000	53.814133
627.000000	53.884200
628.000000	53.986167
629.000000	54.123967
630.000000	54.305967
631.000000	54.508233
632.000000	54.769433
633.000000	55.037767
634.000000	55.325700
635.000000	55.635167
636.000000	55.974100
637.000000	56.288667
638.000000	56.650467
639.000000	57.037500
640.000000	57.401233
641.000000	57.782633
642.000000	58.144367
643.000000	58.550700
644.000000	58.928133
645.000000	59.306400
646.000000	59.672033
647.000000	59.998400
648.000000	60.360867
649.000000	60.674600
650.000000	60.987900
651.000000	61.297433
652.000000	61.611100
653.000000	61.937200
654.000000	62.214467
655.000000	62.504200
656.000000	62.746167
657.000000	63.027600
658.000000	63.286767
659.000000	63.519033
660.000000	63.765000
661.000000	64.007567
662.000000	64.264600
663.000000	64.527933
664.000000	64.789367
665.000000	65.049700
666.000000	65.326767
667.000000	65.629200
668.000000	65.966533
669.000000	66.313933
670.000000	66.685467
671.000000	67.080867
672.000000	67.454700
673.000000	67.879167
674.000000	68.299500
675.000000	68.756000
676.000000	69.205033
677.000000	69.677300
678.000000	70.148767
679.000000	70.613267
680.000000	71.105233
681.000000	71.590733
682.000000	72.049933
683.000000	72.555600
684.000000	73.051733
685.000000	73.555900
686.000000	74.033933
687.000000	74.458900
688.000000	74.844200
689.000000	75.255500
690.000000	75.634533
691.000000	76.017133
692.000000	76.410600
693.000000	76.761567
694.000000	77.071267
695.000000	77.381933
696.000000	77.684833
697.000000	77.917833
698.000000	78.164133
699.000000	78.396533
700.000000	78.627367
701.000000	78.840200
702.000000	79.048767
703.000000	79.241733
704.000000	79.439300
705.000000	79.635767
706.000000	79.812067
707.000000	79.951700
708.000000	80.084967
709.000000	80.239767
710.000000	80.353367
711.000000	80.483933
712.000000	80.598233
713.000000	80.762800
714.000000	80.896233
715.000000	80.999233
716.000000	81.130567
717.000000	81.239933
718.000000	81.323967
719.000000	81.431067
720.000000	81.562967
721.000000	81.704967
722.000000	81.817567
723.000000	81.918967
724.000000	82.015700
725.000000	82.064400
726.000000	82.179567
727.000000	82.292467
728.000000	82.311033
729.000000	82.359367
730.000000	82.474167
731.000000	82.549267
732.000000	82.623600
733.000000	82.664933
734.000000	82.708467
735.000000	82.747567
736.000000	82.780033
737.000000	82.824300
738.000000	82.861700
739.000000	82.861833
740.000000	82.894900
741.000000	82.940367
742.000000	82.966433
743.000000	82.963500
744.000000	82.927300
745.000000	82.910467
746.000000	82.920933
747.000000	82.938200
748.000000	82.909067
749.000000	82.850933
750.000000	82.804533
751.000000	82.734233
752.000000	82.648300
753.000000	82.567500
754.000000	82.479867
755.000000	82.408967
756.000000	82.285833
757.000000	82.190467
758.000000	82.145133
759.000000	82.053733
760.000000	81.919600
761.000000	81.779833
762.000000	81.637333
763.000000	81.476100
764.000000	81.316467
765.000000	81.127100
766.000000	80.908267
767.000000	80.698800
768.000000	80.501100
769.000000	80.346900
770.000000	80.144800
771.000000	79.885600
772.000000	79.605533
773.000000	79.347800
774.000000	79.074067
775.000000	78.818533
776.000000	78.525400
777.000000	78.273700
778.000000	78.003867
779.000000	77.684433
780.000000	77.325633
781.000000	76.988267
782.000000	76.636167
783.000000	76.273267
784.000000	75.909633
785.000000	75.459033
786.000000	75.114500
787.000000	74.808967
788.000000	74.404033
789.000000	74.032233
790.000000	73.619267
791.000000	73.227600
792.000000	72.775367
793.000000	72.340233
794.000000	71.973100
795.000000	71.631233
796.000000	71.203267
797.000000	70.770167
798.000000	70.404733
799.000000	69.984700
800.000000	69.608500
801.000000	69.205567
802.000000	68.714167
803.000000	68.352967
804.000000	67.991300
805.000000	67.573067
806.000000	67.181033
807.000000	66.831467
808.000000	66.428300
809.000000	66.057700
810.000000	65.672333
811.000000	65.338900
812.000000	64.991367
813.000000	64.670600
814.000000	64.348933
815.000000	64.003667
816.000000	63.690033
817.000000	63.402200
818.000000	63.130900
819.000000	62.837600
820.000000	62.630533
821.000000	62.398667
822.000000	62.164733
823.000000	61.897867
824.000000	61.826233
825.000000	61.627767
826.000000	61.320633
827.000000	61.177133
828.000000	61.068333
829.000000	60.951200
830.000000	60.853533
831.000000	60.790267
832.000000	60.584633
833.000000	60.409867
834.000000	60.369000
835.000000	60.270467
836.000000	60.224000
837.000000	60.113867
838.000000	59.923600
839.000000	59.825367
840.000000	59.806033
841.000000	59.659033
842.000000	59.549600
843.000000	59.384400
844.000000	59.116500
845.000000	59.075100
846.000000	59.061367
847.000000	58.795333
848.000000	58.779133
849.000000	58.771500
850.000000	58.404867
851.000000	58.362167
852.000000	58.181267
853.000000	57.938433
854.000000	57.650900
855.000000	57.539200
856.000000	57.511167
857.000000	57.576967
858.000000	57.542444
859.000000	56.404949
860.000000	56.231386
861.000000	56.044295
862.000000	55.864860
863.000000	55.681320
864.000000	55.516425
865.000000	55.328347
866.000000	55.120440
867.000000	54.946501
868.000000	54.857628
869.000000	54.913681
870.000000	55.051995
871.000000	55.167310
872.000000	55.294399
873.000000	55.404612
874.000000	55.473920
875.000000	55.492849
876.000000	55.520421
877.000000	55.516371
878.000000	55.519265
879.000000	55.524632
880.000000	55.508218
881.000000	55.495916
882.000000	55.475364
883.000000	55.456999
884.000000	55.446322
885.000000	55.411561
886.000000	55.318136
887.000000	55.237150
888.000000	55.223994
889.000000	55.148032
890.000000	55.091593
891.000000	55.031906
892.000000	54.960057
893.000000	54.830372
894.000000	54.718305
895.000000	54.614626
896.000000	54.533631
897.000000	54.434805
898.000000	54.314326
899.000000	54.177111
900.000000	54.053992
901.000000	53.925463
902.000000	53.792859
903.000000	53.657195
904.000000	53.536374
905.000000	53.433830
906.000000	53.321505
907.000000	53.182108
908.000000	53.064714
909.000000	52.960928
910.000000	52.874703
911.000000	52.780588
912.000000	52.686746
913.000000	52.599076
914.000000	52.525796
915.000000	52.461528
916.000000	52.399896
917.000000	52.330083
918.000000	52.234226
919.000000	52.157538
920.000000	52.096981
921.000000	52.022171
922.000000	51.954570
923.000000	51.864895
924.000000	51.796888
925.000000	51.726777
926.000000	51.675301
927.000000	51.634672
928.000000	51.568103
929.000000	51.514220
930.000000	51.466332
931.000000	51.412078
932.000000	51.360967
933.000000	51.294418
934.000000	51.242705
935.000000	51.178414
936.000000	51.110304
937.000000	51.070485
938.000000	51.022638
939.000000	50.987695
940.000000	50.940364
941.000000	50.900502
942.000000	50.859756
943.000000	50.829669
944.000000	50.805752
945.000000	50.780405
946.000000	50.777314
947.000000	50.760959
948.000000	50.731106
949.000000	50.699929
950.000000	50.688010
951.000000	50.672028
952.000000	50.638476
953.000000	50.621954
954.000000	50.590586
955.000000	50.573777
956.000000	50.535138
957.000000	50.515652
958.000000	50.485425
959.000000	50.466294
960.000000	50.438070
961.000000	50.403827
962.000000	50.378753
963.000000	50.369145
964.000000	50.353593
965.000000	50.347048
966.000000	50.344342
967.000000	50.331838
968.000000	50.327678
969.000000	50.335457
970.000000	50.342860
971.000000	50.350950
972.000000	50.337849
973.000000	50.337688
974.000000	50.351052
975.000000	50.345585
976.000000	50.349283
977.000000	50.353557
978.000000	50.352831
979.000000	50.359083
980.000000	50.369192
981.000000	50.369344
982.000000	50.372040
983.000000	50.377126
984.000000	50.377239
985.000000	50.387660
986.000000	50.398871
987.000000	50.390925
988.000000	50.392729
989.000000	50.398778
990.000000	50.399922
991.000000	50.407978
992.000000	50.415276
993.000000	50.437231
994.000000	50.449112
995.000000	50.450647
996.000000	50.470489
997.000000	50.488926
998.000000	50.502754
999.000000	50.512416
1000.000000	50.535658
1001.000000	50.560897
1002.000000	50.579687
1003.000000	50.596455
1004.000000	50.602186
1005.000000	50.618098
1006.000000	50.635840
1007.000000	50.650779
1008.000000	50.659698
1009.000000	50.673621
1010.000000	50.690095
1011.000000	50.711238
1012.000000	50.736685
1013.000000	50.770218
1014.000000	50.809524
1015.000000	50.856615
1016.000000	50.911752
1017.000000	50.970400
1018.000000	51.036038
1019.000000	51.099447
1020.000000	51.186051
1021.000000	51.270982
1022.000000	51.345945
1023.000000	51.430340
1024.000000	51.501103
1025.000000	51.582958
1026.000000	51.673170
1027.000000	51.759824
1028.000000	51.847271
1029.000000	51.922638
1030.000000	51.996900
1031.000000	52.077900
1032.000000	52.157448
1033.000000	52.230822
1034.000000	52.312961
1035.000000	52.379769
1036.000000	52.439207
1037.000000	52.515445
1038.000000	52.590932
1039.000000	52.650845
1040.000000	52.715818
1041.000000	52.784707
1042.000000	52.838754
1043.000000	52.900350
1044.000000	52.970637
1045.000000	53.041456
1046.000000	53.106902
1047.000000	53.174869
1048.000000	53.251335
1049.000000	53.309580
1050.000000	53.379663
1051.000000	53.457597
1052.000000	53.520687
1053.000000	53.595457
1054.000000	53.675873
1055.000000	53.760810
1056.000000	53.846187
1057.000000	53.921246
1058.000000	54.000973
1059.000000	54.091929
1060.000000	54.175709
1061.000000	54.249767
1062.000000	54.326639
1063.000000	54.405541
1064.000000	54.482287
1065.000000	54.557108
1066.000000	54.629909
1067.000000	54.698004
1068.000000	54.762875
1069.000000	54.840852
1070.000000	54.907672
1071.000000	54.975318
1072.000000	55.049778
1073.000000	55.124084
1074.000000	55.184756
1075.000000	55.250155
1076.000000	55.326270
1077.000000	55.389429
1078.000000	55.453803
1079.000000	55.524593
1080.000000	55.589739
1081.000000	55.662291
1082.000000	55.732521
1083.000000	55.803925
1084.000000	55.875549
1085.000000	55.956473
1086.000000	56.033202
1087.000000	56.110825
1088.000000	56.190984
1089.000000	56.268409
1090.000000	56.347081
1091.000000	56.416759
1092.000000	56.489652
1093.000000	56.557514
1094.000000	56.631012
1095.000000	56.695476
1096.000000	56.758796
1097.000000	56.828604
1098.000000	56.889686
1099.000000	56.951844
1100.000000	57.015469
1101.000000	57.062604
1102.000000	57.102016
1103.000000	57.146197
1104.000000	57.192612
1105.000000	57.233966
1106.000000	57.270791
1107.000000	57.309137
1108.000000	57.344967
1109.000000	57.376380
1110.000000	57.404629
1111.000000	57.437057
1112.000000	57.460370
1113.000000	57.486357
1114.000000	57.514492
1115.000000	57.549090
1116.000000	57.585518
1117.000000	57.607089
1118.000000	57.612689
1119.000000	57.606413
1120.000000	57.590494
1121.000000	57.572292
1122.000000	57.547649
1123.000000	57.505841
1124.000000	57.448750
1125.000000	57.387716
1126.000000	57.323865
1127.000000	57.230964
1128.000000	57.118228
1129.000000	56.982393
1130.000000	56.805722
1131.000000	56.578871
1132.000000	56.321816
1133.000000	56.059672
1134.000000	55.773007
1135.000000	55.450733
1136.000000	55.071418
1137.000000	54.663347
1138.000000	54.258350
1139.000000	53.858744
1140.000000	53.475942
1141.000000	53.105864
1142.000000	52.732510
1143.000000	52.383424
1144.000000	52.051031
1145.000000	51.754965
1146.000000	51.508911
1147.000000	51.346811
1148.000000	51.266266
1149.000000	51.250787
1150.000000	51.289753
1151.000000	51.308777
1152.000000	51.358741
1153.000000	51.355430
1154.000000	51.303812
1155.000000	51.224608
1156.000000	51.048817
1157.000000	50.832455
1158.000000	50.524811
1159.000000	50.198909
1160.000000	49.817741
1161.000000	49.434880
1162.000000	49.022412
1163.000000	48.615381
1164.000000	48.172645
1165.000000	47.741732
1166.000000	47.290416
1167.000000	46.851254
1168.000000	46.446581
1169.000000	46.023042
1170.000000	45.605722
1171.000000	45.180537
1172.000000	44.774379
1173.000000	44.371144
1174.000000	43.996588
1175.000000	43.623099
1176.000000	43.266577
1177.000000	42.902113
1178.000000	42.479521
1179.000000	42.008759
1180.000000	41.450915
1181.000000	40.869910
1182.000000	40.271934
1183.000000	39.684644
1184.000000	39.204391
1185.000000	38.840846
1186.000000	38.635808
1187.000000	38.580875
1188.000000	38.652180
1189.000000	38.916173
1190.000000	39.295776
1191.000000	39.784145
1192.000000	40.324597
1193.000000	40.872097
1194.000000	41.370951
1195.000000	41.790281
1196.000000	42.138524
1197.000000	42.410547
1198.000000	42.638717
1199.000000	42.792686
1200.000000	42.902652
1201.000000	42.986254
1202.000000	43.033488
1203.000000	43.066502
1204.000000	43.110562
1205.000000	43.134289
1206.000000	43.170506
1207.000000	43.224851
1208.000000	43.300175
1209.000000	43.386412
1210.000000	43.491397
1211.000000	43.610777
1212.000000	43.750238
1213.000000	43.892915
1214.000000	44.037187
1215.000000	44.176903
1216.000000	44.334291
1217.000000	44.495240
1218.000000	44.661960
1219.000000	44.834471
1220.000000	45.042918
1221.000000	45.227492
1222.000000	45.432150
1223.000000	45.651037
1224.000000	45.862830
1225.000000	46.083947
1226.000000	46.292914
1227.000000	46.525312
1228.000000	46.756415
1229.000000	46.965273
1230.000000	47.184978
1231.000000	47.408548
1232.000000	47.629155
1233.000000	47.834679
1234.000000	48.047440
1235.000000	48.246860
1236.000000	48.448099
1237.000000	48.647550
1238.000000	48.830521
1239.000000	49.021493
1240.000000	49.204805
1241.000000	49.380981
1242.000000	49.556994
1243.000000	49.725784
1244.000000	49.889766
1245.000000	50.051631
1246.000000	50.203448
1247.000000	50.336973
1248.000000	50.461276
1249.000000	50.585268
1250.000000	50.701558
1251.000000	50.802189
1252.000000	50.898408
1253.000000	50.995970
1254.000000	51.080923
1255.000000	51.157316
1256.000000	51.239615
1257.000000	51.319986
1258.000000	51.387085
1259.000000	51.460850
1260.000000	51.511490
1261.000000	51.564549
1262.000000	51.627366
1263.000000	51.680681
1264.000000	51.735608
1265.000000	51.792564
1266.000000	51.862151
1267.000000	51.923668
1268.000000	51.972754
1269.000000	52.032925
1270.000000	52.095248
1271.000000	52.141674
1272.000000	52.191108
1273.000000	52.246306
1274.000000	52.296475
1275.000000	52.351651
1276.000000	52.421620
1277.000000	52.493135
1278.000000	52.570110
1279.000000	52.647181
1280.000000	52.722195
1281.000000	52.796124
1282.000000	52.875541
1283.000000	52.968836
1284.000000	53.052805
1285.000000	53.141267
1286.000000	53.228480
1287.000000	53.301777
1288.000000	53.376272
1289.000000	53.438669
1290.000000	53.480877
1291.000000	53.527455
1292.000000	53.566488
1293.000000	53.599083
1294.000000	53.628655
1295.000000	53.638896
1296.000000	53.638040
1297.000000	53.648088
1298.000000	53.659233
1299.000000	53.665685
1300.000000	53.677947
1301.000000	53.688960
1302.000000	53.692158
1303.000000	53.693111
1304.000000	53.696475
1305.000000	53.686010
1306.000000	53.666435
1307.000000	53.649812
1308.000000	53.622543
1309.000000	53.585399
1310.000000	53.543171
1311.000000	53.493154
1312.000000	53.427947
1313.000000	53.365216
1314.000000	53.307274
1315.000000	53.241236
1316.000000	53.163785
1317.000000	53.070843
1318.000000	52.987913
1319.000000	52.900507
1320.000000	52.804884
1321.000000	52.710010
1322.000000	52.600060
1323.000000	52.485749
1324.000000	52.369732
1325.000000	52.250776
1326.000000	52.128573
1327.000000	51.993159
1328.000000	51.851475
1329.000000	51.701848
1330.000000	51.537332
1331.000000	51.368198
1332.000000	51.187477
1333.000000	50.986438
1334.000000	50.769477
1335.000000	50.551849
1336.000000	50.329227
1337.000000	50.095639
1338.000000	49.851211
1339.000000	49.580439
1340.000000	49.293702
1341.000000	49.011966
1342.000000	48.689671
1343.000000	48.347116
1344.000000	48.006678
1345.000000	47.644591
1346.000000	47.235039
1347.000000	46.822965
1348.000000	46.396382
1349.000000	45.921468
1350.000000	45.404987
1351.000000	44.830854
1352.000000	44.187841
1353.000000	43.508803
1354.000000	42.851970
1355.000000	42.218755
1356.000000	41.628282
1357.000000	41.186907
1358.000000	40.901964
1359.000000	40.722238
1360.000000	40.609039
1361.000000	40.555086
1362.000000	40.473204
1363.000000	40.315714
1364.000000	40.129119
1365.000000	39.934312
1366.000000	39.697150
1367.000000	39.443242
1368.000000	39.194789
1369.000000	38.871208
1370.000000	38.508485
1371.000000	38.136073
1372.000000	37.732929
1373.000000	37.297659
1374.000000	36.895900
1375.000000	36.549443
1376.000000	36.288944
1377.000000	36.106329
1378.000000	35.989549
1379.000000	35.912283
1380.000000	35.855760
1381.000000	35.738687
1382.000000	35.612120
1383.000000	35.357146
1384.000000	35.012284
1385.000000	34.598143
1386.000000	34.190116
1387.000000	33.845195
1388.000000	33.547048
1389.000000	33.292451
1390.000000	33.002851
1391.000000	32.797264
1392.000000	32.648076
1393.000000	32.490703
1394.000000	32.341691
1395.000000	32.245904
1396.000000	32.145765
1397.000000	31.945701
1398.000000	31.724398
1399.000000	31.483875
1400.000000	31.309656
1401.000000	31.038266
1402.000000	30.700612
1403.000000	30.275046
1404.000000	29.907533
1405.000000	29.543166
1406.000000	29.187608
1407.000000	28.799723
1408.000000	28.449122
1409.000000	28.113781
1410.000000	27.785930
1411.000000	27.462714
1412.000000	27.189367
1413.000000	26.957373
1414.000000	26.790192
1415.000000	26.598802
1416.000000	26.358630
1417.000000	26.120969
1418.000000	25.896049
1419.000000	25.713438
1420.000000	25.507550
1421.000000	25.248077
1422.000000	25.007126
1423.000000	24.787207
1424.000000	24.585702
1425.000000	24.348545
1426.000000	24.132453
1427.000000	23.915668
1428.000000	23.726984
1429.000000	23.531615
1430.000000	23.352326
1431.000000	23.197465
1432.000000	23.056604
1433.000000	22.917001
1434.000000	22.790900
1435.000000	22.635499
1436.000000	22.505505
1437.000000	22.391139
1438.000000	22.257481
1439.000000	22.139722
1440.000000	22.010466
1441.000000	21.862947
1442.000000	21.736663
1443.000000	21.577553
1444.000000	21.452212
1445.000000	21.327195
1446.000000	21.215076
1447.000000	21.083044
1448.000000	20.947241
1449.000000	20.789437
1450.000000	20.700161
1451.000000	20.598880
1452.000000	20.494589
1453.000000	20.371974
1454.000000	20.255326
1455.000000	20.135330
1456.000000	20.031723
1457.000000	19.934958
1458.000000	19.841980
1459.000000	19.746728
1460.000000	19.644153
1461.000000	19.573930
1462.000000	19.483210
1463.000000	19.417470
1464.000000	19.345645
1465.000000	19.274452
1466.000000	19.223784
1467.000000	19.167719
1468.000000	19.117111
1469.000000	19.052684
1470.000000	19.007190
1471.000000	18.969630
1472.000000	18.934980
1473.000000	18.880996
1474.000000	18.835903
1475.000000	18.782769
1476.000000	18.728990
1477.000000	18.682270
1478.000000	18.645929
1479.000000	18.605865
1480.000000	18.576086
1481.000000	18.528895
1482.000000	18.488266
1483.000000	18.459972
1484.000000	18.431366
1485.000000	18.402234
1486.000000	18.379113
1487.000000	18.362421
1488.000000	18.348656
1489.000000	18.333970
1490.000000	18.311819
1491.000000	18.295676
1492.000000	18.287560
1493.000000	18.270928
1494.000000	18.256854
1495.000000	18.250310
1496.000000	18.252628
1497.000000	18.250633
1498.000000	18.240810
1499.000000	18.244060
1500.000000	18.251905
1501.000000	18.251902
1502.000000	18.262130
1503.000000	18.273575
1504.000000	18.285480
1505.000000	18.303608
1506.000000	18.324266
1507.000000	18.332790
1508.000000	18.347950
1509.000000	18.364638
1510.000000	18.387870
1511.000000	18.400511
1512.000000	18.417599
1513.000000	18.438401
1514.000000	18.452246
1515.000000	18.473316
1516.000000	18.489047
1517.000000	18.500915
1518.000000	18.516194
1519.000000	18.531678
1520.000000	18.552710
1521.000000	18.567889
1522.000000	18.572408
1523.000000	18.585066
1524.000000	18.599118
1525.000000	18.609564
1526.000000	18.615010
1527.000000	18.630853
1528.000000	18.628104
1529.000000	18.625404
1530.000000	18.643038
1531.000000	18.647096
1532.000000	18.645873
1533.000000	18.648286
1534.000000	18.645632
1535.000000	18.643682
1536.000000	18.630505
1537.000000	18.620500
1538.000000	18.617909
1539.000000	18.610298
1540.000000	18.597427
1541.000000	18.588963
1542.000000	18.578088
1543.000000	18.565270
1544.000000	18.550085
1545.000000	18.538264
1546.000000	18.522160
1547.000000	18.517203
1548.000000	18.515870
1549.000000	18.513142
1550.000000	18.513876
1551.000000	18.508053
1552.000000	18.498570
1553.000000	18.487150
1554.000000	18.474396
1555.000000	18.463711
1556.000000	18.454171
1557.000000	18.429005
1558.000000	18.403681
1559.000000	18.378236
1560.000000	18.353060
1561.000000	18.330049
1562.000000	18.299602
1563.000000	18.264290
1564.000000	18.229548
1565.000000	18.197467
1566.000000	18.164156
1567.000000	18.123625
1568.000000	18.091316
1569.000000	18.057775
1570.000000	18.025462
1571.000000	18.001263
1572.000000	17.973908
1573.000000	17.949501
1574.000000	17.927571
1575.000000	17.909898
1576.000000	17.892441
1577.000000	17.881480
1578.000000	17.871163
1579.000000	17.857204
1580.000000	17.852184
1581.000000	17.856025
1582.000000	17.870521
1583.000000	17.885055
1584.000000	17.898765
1585.000000	17.911281
1586.000000	17.926804
1587.000000	17.954173
1588.000000	17.975758
1589.000000	18.005919
1590.000000	18.042541
1591.000000	18.065740
1592.000000	18.097117
1593.000000	18.149079
1594.000000	18.202619
1595.000000	18.239795
1596.000000	18.278271
1597.000000	18.318749
1598.000000	18.371369
1599.000000	18.431456
1600.000000	18.489900
1601.000000	18.545506
1602.000000	18.606420
1603.000000	18.666840
1604.000000	18.726730
1605.000000	18.797233
1606.000000	18.850462
1607.000000	18.915156
1608.000000	18.991667
1609.000000	19.052592
1610.000000	19.120842
1611.000000	19.186388
1612.000000	19.251609
1613.000000	19.316382
1614.000000	19.372772
1615.000000	19.449881
1616.000000	19.520399
1617.000000	19.584780
1618.000000	19.663735
1619.000000	19.730877
1620.000000	19.813090
1621.000000	19.891339
1622.000000	19.970882
1623.000000	20.042150
1624.000000	20.122265
1625.000000	20.195787
1626.000000	20.272448
1627.000000	20.356984
1628.000000	20.434862
1629.000000	20.509980
1630.000000	20.588027
1631.000000	20.664147
1632.000000	20.735655
1633.000000	20.804781
1634.000000	20.875316
1635.000000	20.931107
1636.000000	21.002612
1637.000000	21.076834
1638.000000	21.127272
1639.000000	21.197420
1640.000000	21.256222
1641.000000	21.309431
1642.000000	21.366915
1643.000000	21.418344
1644.000000	21.471698
1645.000000	21.516105
1646.000000	21.566701
1647.000000	21.613553
1648.000000	21.652583
1649.000000	21.687451
1650.000000	21.723615
1651.000000	21.752235
1652.000000	21.775222
1653.000000	21.794723
1654.000000	21.807719
1655.000000	21.814121
1656.000000	21.807866
1657.000000	21.797637
1658.000000	21.773566
1659.000000	21.745893
1660.000000	21.698398
1661.000000	21.677795
1662.000000	21.630234
1663.000000	21.562084
1664.000000	21.497385
1665.000000	21.417206
1666.000000	21.328176
1667.000000	21.230012
1668.000000	21.102377
1669.000000	20.956403
1670.000000	20.809165
1671.000000	20.631372
1672.000000	20.413576
1673.000000	20.168387
1674.000000	19.894240
1675.000000	19.592362
1676.000000	19.230690
1677.000000	18.821620
1678.000000	18.352250
1679.000000	17.848006
1680.000000	17.335003
1681.000000	16.820243
1682.000000	16.356886
1683.000000	16.009706
1684.000000	15.773153
1685.000000	15.633224
1686.000000	15.574514
1687.000000	15.577055
1688.000000	15.562626
1689.000000	15.537273
1690.000000	15.462286
1691.000000	15.333325
1692.000000	15.200711
1693.000000	15.056502
1694.000000	14.933054
1695.000000	14.849501
1696.000000	14.813215
1697.000000	14.853517
1698.000000	14.910385
1699.000000	15.030379
1700.000000	15.155100
1701.000000	15.294094
1702.000000	15.420651
1703.000000	15.530593
1704.000000	15.606241
1705.000000	15.660518
1706.000000	15.723666
1707.000000	15.751659
1708.000000	15.778462
1709.000000	15.808106
1710.000000	15.826192
1711.000000	15.826055
1712.000000	15.814969
1713.000000	15.803543
1714.000000	15.754574
1715.000000	15.715877
1716.000000	15.680726
1717.000000	15.637314
1718.000000	15.606398
1719.000000	15.594218
1720.000000	15.586764
1721.000000	15.589114
1722.000000	15.597805
1723.000000	15.586980
1724.000000	15.572004
1725.000000	15.553457
1726.000000	15.496365
1727.000000	15.440369
1728.000000	15.354426
1729.000000	15.257133
1730.000000	15.158484
1731.000000	15.063779
1732.000000	14.992956
1733.000000	14.944287
1734.000000	14.901943
1735.000000	14.926077
1736.000000	14.973171
1737.000000	15.061651
1738.000000	15.195162
1739.000000	15.377677
1740.000000	15.570955
1741.000000	15.772759
1742.000000	15.987247
1743.000000	16.184338
1744.000000	16.370153
1745.000000	16.541367
1746.000000	16.678592
1747.000000	16.790309
1748.000000	16.906693
1749.000000	16.995344
1750.000000	17.057599
1751.000000	17.108011
1752.000000	17.153715
1753.000000	17.174001
1754.000000	17.176846
1755.000000	17.182306
1756.000000	17.180223
1757.000000	17.153223
1758.000000	17.106761
1759.000000	17.045109
1760.000000	16.985421
1761.000000	16.937799
1762.000000	16.876613
1763.000000	16.842989
1764.000000	16.843440
1765.000000	16.863895
1766.000000	16.912791
1767.000000	16.975346
1768.000000	17.068010
1769.000000	17.171579
1770.000000	17.276363
1771.000000	17.400911
1772.000000	17.526082
1773.000000	17.637738
1774.000000	17.769064
1775.000000	17.879164
1776.000000	17.994741
1777.000000	18.110992
1778.000000	18.213182
1779.000000	18.302668
1780.000000	18.389920
1781.000000	18.468806
1782.000000	18.546039
1783.000000	18.617634
1784.000000	18.687431
1785.000000	18.769528
1786.000000	18.838731
1787.000000	18.896465
1788.000000	18.963797
1789.000000	19.034023
1790.000000	19.086515
1791.000000	19.146677
1792.000000	19.193833
1793.000000	19.241492
1794.000000	19.285966
1795.000000	19.337197
1796.000000	19.387821
1797.000000	19.423886
1798.000000	19.451257
1799.000000	19.482523
1800.000000	19.519813
1801.000000	19.574066
1802.000000	19.634307
1803.000000	19.667874
1804.000000	19.701503
1805.000000	19.735339
1806.000000	19.771573
1807.000000	19.815769
1808.000000	19.852489
1809.000000	19.872690
1810.000000	19.905394
1811.000000	19.950235
1812.000000	19.986750
1813.000000	20.006488
1814.000000	20.013793
1815.000000	20.019928
1816.000000	20.028371
1817.000000	20.033381
1818.000000	20.029782
1819.000000	20.028511
1820.000000	20.062408
1821.000000	20.118948
1822.000000	20.168094
1823.000000	20.182418
1824.000000	20.173969
1825.000000	20.198143
1826.000000	20.255556
1827.000000	20.336209
1828.000000	20.419554
1829.000000	20.511586
1830.000000	20.604952
1831.000000	20.694957
1832.000000	20.779640
1833.000000	20.842761
1834.000000	20.909046
1835.000000	20.992782
1836.000000	21.089836
1837.000000	21.182575
1838.000000	21.258120
1839.000000	21.312181
1840.000000	21.359386
1841.000000	21.420800
1842.000000	21.497441
1843.000000	21.543154
1844.000000	21.547985
1845.000000	21.557646
1846.000000	21.610171
1847.000000	21.715353
1848.000000	21.845163
1849.000000	21.962347
1850.000000	22.027415
1851.000000	22.067048
1852.000000	22.117331
1853.000000	22.182563
1854.000000	22.267215
1855.000000	22.356805
1856.000000	22.418419
1857.000000	22.468317
1858.000000	22.509660
1859.000000	22.539301
1860.000000	22.571971
1861.000000	22.589049
1862.000000	22.585569
1863.000000	22.552966
1864.000000	22.508336
1865.000000	22.475157
1866.000000	22.437711
1867.000000	22.383178
1868.000000	22.334049
1869.000000	22.253242
1870.000000	22.136574
1871.000000	22.005777
1872.000000	21.851760
1873.000000	21.655890
1874.000000	21.439042
1875.000000	21.193053
1876.000000	20.913714
1877.000000	20.613130
1878.000000	20.304504
1879.000000	19.955576
1880.000000	19.587909
1881.000000	19.218761
1882.000000	18.846011
1883.000000	18.467820
1884.000000	18.106230
1885.000000	17.752905
1886.000000	17.420061
1887.000000	17.138520
1888.000000	16.869439
1889.000000	16.634044
1890.000000	16.408517
1891.000000	16.223428
1892.000000	16.018796
1893.000000	15.811043
1894.000000	15.597649
1895.000000	15.383812
1896.000000	15.176707
1897.000000	14.992543
1898.000000	14.803557
1899.000000	14.609873
1900.000000	14.425904
1901.000000	14.223655
1902.000000	14.020787
1903.000000	13.827773
1904.000000	13.661437
1905.000000	13.486430
1906.000000	13.288088
1907.000000	13.102981
1908.000000	12.921534
1909.000000	12.746991
1910.000000	12.581765
1911.000000	12.419985
1912.000000	12.288288
1913.000000	12.149933
1914.000000	12.001559
1915.000000	11.840059
1916.000000	11.696427
1917.000000	11.561967
1918.000000	11.438564
1919.000000	11.314635
1920.000000	11.219405
1921.000000	11.119986
1922.000000	11.011701
1923.000000	10.895641
1924.000000	10.789526
1925.000000	10.703042
1926.000000	10.621243
1927.000000	10.552051
1928.000000	10.486447
1929.000000	10.412977
1930.000000	10.340898
1931.000000	10.278716
1932.000000	10.225591
1933.000000	10.176736
1934.000000	10.126130
1935.000000	10.104512
1936.000000	10.067760
1937.000000	10.038244
1938.000000	10.030283
1939.000000	10.020225
1940.000000	10.008874
1941.000000	9.994881
1942.000000	9.992940
1943.000000	9.976837
1944.000000	9.999115
1945.000000	9.997187
1946.000000	10.012212
1947.000000	10.026064
1948.000000	10.040326
1949.000000	10.070332
1950.000000	10.084631
1951.000000	10.100985
1952.000000	10.125567
1953.000000	10.155521
1954.000000	10.190308
1955.000000	10.223927
1956.000000	10.263628
1957.000000	10.292274
1958.000000	10.317627
1959.000000	10.347674
1960.000000	10.379717
1961.000000	10.424437
1962.000000	10.470738
1963.000000	10.498864
1964.000000	10.522263
1965.000000	10.562784
1966.000000	10.593933
1967.000000	10.637655
1968.000000	10.675630
1969.000000	10.698847
1970.000000	10.753569
1971.000000	10.783910
1972.000000	10.827613
1973.000000	10.871130
1974.000000	10.911594
1975.000000	10.948580
1976.000000	10.987262
1977.000000	11.034482
1978.000000	11.087195
1979.000000	11.122149
1980.000000	11.179166
1981.000000	11.222760
1982.000000	11.259903
1983.000000	11.312714
1984.000000	11.366139
1985.000000	11.402060
1986.000000	11.442303
1987.000000	11.485187
1988.000000	11.528478
1989.000000	11.578789
1990.000000	11.610975
1991.000000	11.653931
1992.000000	11.696778
1993.000000	11.727644
1994.000000	11.763937
1995.000000	11.785268
1996.000000	11.824504
1997.000000	11.845610
1998.000000	11.871023
1999.000000	11.889327
2000.000000	11.893385
2001.000000	11.915454
2002.000000	11.928005
2003.000000	11.941148
2004.000000	11.958504
2005.000000	11.964597
2006.000000	11.978718
2007.000000	11.967695
2008.000000	11.968643
2009.000000	11.964061
2010.000000	11.956307
2011.000000	11.939222
2012.000000	11.921284
2013.000000	11.908219
2014.000000	11.889978
2015.000000	11.864963
2016.000000	11.828771
2017.000000	11.806456
2018.000000	11.782669
2019.000000	11.755916
2020.000000	11.720898
2021.000000	11.679842
2022.000000	11.643461
2023.000000	11.599019
2024.000000	11.547572
2025.000000	11.509151
2026.000000	11.471952
2027.000000	11.413997
2028.000000	11.374091
2029.000000	11.320288
2030.000000	11.276157
2031.000000	11.223222
2032.000000	11.165483
2033.000000	11.095646
2034.000000	11.035292
2035.000000	10.976576
2036.000000	10.907842
2037.000000	10.843872
2038.000000	10.762997
2039.000000	10.683286
2040.000000	10.616337
2041.000000	10.532108
2042.000000	10.448589
2043.000000	10.376730
2044.000000	10.292928
2045.000000	10.219323
2046.000000	10.145009
2047.000000	10.067893
2048.000000	9.994249
2049.000000	9.943504
2050.000000	9.879070
2051.000000	9.816647
2052.000000	9.771728
2053.000000	9.724590
2054.000000	9.686115
2055.000000	9.657666
2056.000000	9.635647
2057.000000	9.609734
2058.000000	9.597178
2059.000000	9.589320
2060.000000	9.576425
2061.000000	9.568126
2062.000000	9.566417
2063.000000	9.566109
2064.000000	9.572699
2065.000000	9.568772
2066.000000	9.574320
2067.000000	9.574992
2068.000000	9.575421
2069.000000	9.586225
2070.000000	9.594824
2071.000000	9.599989
2072.000000	9.612959
2073.000000	9.618608
2074.000000	9.624612
2075.000000	9.627764
2076.000000	9.631770
2077.000000	9.641114
2078.000000	9.652950
2079.000000	9.661984
2080.000000	9.665320
2081.000000	9.665099
2082.000000	9.666823
2083.000000	9.676359
2084.000000	9.676514
2085.000000	9.681415
2086.000000	9.683902
2087.000000	9.685048
2088.000000	9.693786
2089.000000	9.693748
2090.000000	9.691834
2091.000000	9.696894
2092.000000	9.703536
2093.000000	9.704771
2094.000000	9.709801
2095.000000	9.708156
2096.000000	9.712368
2097.000000	9.732510
2098.000000	9.737852
2099.000000	9.752816
2100.000000	9.756424
2101.000000	9.756777
2102.000000	9.765241
2103.000000	9.773686
2104.000000	9.786064
2105.000000	9.804929
2106.000000	9.821046
2107.000000	9.823697
2108.000000	9.830502
2109.000000	9.854013
2110.000000	9.866546
2111.000000	9.883738
2112.000000	9.896277
2113.000000	9.898471
2114.000000	9.907515
2115.000000	9.928632
2116.000000	9.940815
2117.000000	9.952325
2118.000000	9.970934
2119.000000	9.980821
2120.000000	9.995944
2121.000000	10.007218
2122.000000	10.007585
2123.000000	10.019025
2124.000000	10.034854
2125.000000	10.042512
2126.000000	10.038062
2127.000000	10.039835
2128.000000	10.044250
2129.000000	10.051128
2130.000000	10.055473
2131.000000	10.047867
2132.000000	10.044266
2133.000000	10.036894
2134.000000	10.026691
2135.000000	10.032789
2136.000000	10.030695
2137.000000	10.014896
2138.000000	9.993653
2139.000000	9.981519
2140.000000	9.969458
2141.000000	9.961748
2142.000000	9.951447
2143.000000	9.932249
2144.000000	9.916197
2145.000000	9.907739
2146.000000	9.891100
2147.000000	9.879757
2148.000000	9.861414
2149.000000	9.837845
2150.000000	9.825428
2151.000000	9.801850
2152.000000	9.786667
2153.000000	9.774796
2154.000000	9.763925
2155.000000	9.740647
2156.000000	9.726304
2157.000000	9.702559
2158.000000	9.682712
2159.000000	9.672422
2160.000000	9.652333
2161.000000	9.640069
2162.000000	9.631652
2163.000000	9.622148
2164.000000	9.611136
2165.000000	9.606974
2166.000000	9.581040
2167.000000	9.576164
2168.000000	9.568446
2169.000000	9.562925
2170.000000	9.560798
2171.000000	9.552222
2172.000000	9.542397
2173.000000	9.546197
2174.000000	9.534618
2175.000000	9.537029
2176.000000	9.542065
2177.000000	9.538961
2178.000000	9.551630
2179.000000	9.562125
2180.000000	9.564240
2181.000000	9.558872
2182.000000	9.574653
2183.000000	9.575416
2184.000000	9.584557
2185.000000	9.599082
2186.000000	9.613685
2187.000000	9.617361
2188.000000	9.630478
2189.000000	9.639744
2190.000000	9.642900
2191.000000	9.638120
2192.000000	9.652440
2193.000000	9.660199
2194.000000	9.665431
2195.000000	9.670202
2196.000000	9.672039
2197.000000	9.690152
2198.000000	9.685129
2199.000000	9.693145
2200.000000	9.698829
2201.000000	9.709101
2202.000000	9.713705
2203.000000	9.730939
2204.000000	9.734603
2205.000000	9.739324
2206.000000	9.758830
2207.000000	9.757861
2208.000000	9.782728
2209.000000	9.784271
2210.000000	9.794554
2211.000000	9.806827
2212.000000	9.828289
2213.000000	9.835681
2214.000000	9.831822
2215.000000	9.856313
2216.000000	9.863868
2217.000000	9.877288
2218.000000	9.877551
2219.000000	9.913244
2220.000000	9.905273
2221.000000	9.916877
2222.000000	9.922225
2223.000000	9.927493
2224.000000	9.915384
2225.000000	9.930413
2226.000000	9.920532
2227.000000	9.913436
2228.000000	9.892368
2229.000000	9.868917
2230.000000	9.860472
2231.000000	9.842784
2232.000000	9.813151
2233.000000	9.778346
2234.000000	9.732305
2235.000000	9.695514
2236.000000	9.657757
2237.000000	9.612954
2238.000000	9.565124
2239.000000	9.509582
2240.000000	9.447601
2241.000000	9.400465
2242.000000	9.327506
2243.000000	9.255289
2244.000000	9.177182
2245.000000	9.083768
2246.000000	9.000963
2247.000000	8.926569
2248.000000	8.829346
2249.000000	8.719459
2250.000000	8.633450
2251.000000	8.527076
2252.000000	8.399381
2253.000000	8.297843
2254.000000	8.174214
2255.000000	8.044310
2256.000000	7.913818
2257.000000	7.802443
2258.000000	7.686069
2259.000000	7.563703
2260.000000	7.438932
2261.000000	7.327891
2262.000000	7.237807
2263.000000	7.146196
2264.000000	7.061304
2265.000000	6.987326
2266.000000	6.938361
2267.000000	6.885872
2268.000000	6.839967
2269.000000	6.817783
2270.000000	6.789279
2271.000000	6.770854
2272.000000	6.767092
2273.000000	6.753781
2274.000000	6.774264
2275.000000	6.792698
2276.000000	6.790339
2277.000000	6.793246
2278.000000	6.824148
2279.000000	6.831169
2280.000000	6.849328
2281.000000	6.871790
2282.000000	6.897292
2283.000000	6.918976
2284.000000	6.926831
2285.000000	6.943225
2286.000000	6.962372
2287.000000	6.966341
2288.000000	6.964818
2289.000000	6.967369
2290.000000	6.982407
2291.000000	6.966821
2292.000000	6.950523
2293.000000	6.934879
2294.000000	6.907186
2295.000000	6.886868
2296.000000	6.865080
2297.000000	6.813079
2298.000000	6.772671
2299.000000	6.728735
2300.000000	6.701850
2301.000000	6.664810
2302.000000	6.630091
2303.000000	6.598019
2304.000000	6.568771
2305.000000	6.542770
2306.000000	6.530684
2307.000000	6.528702
2308.000000	6.521730
2309.000000	6.531635
2310.000000	6.543877
2311.000000	6.573291
2312.000000	6.600073
2313.000000	6.627003
2314.000000	6.668024
2315.000000	6.697780
2316.000000	6.736142
2317.000000	6.773489
2318.000000	6.819967
2319.000000	6.873512
2320.000000	6.916288
2321.000000	6.957183
2322.000000	6.985324
2323.000000	7.009048
2324.000000	7.060324
2325.000000	7.099688
2326.000000	7.138680
2327.000000	7.162073
2328.000000	7.194287
2329.000000	7.222599
2330.000000	7.243656
2331.000000	7.253765
2332.000000	7.285771
2333.000000	7.320219
2334.000000	7.334199
2335.000000	7.338084
2336.000000	7.348442
2337.000000	7.353803
2338.000000	7.363661
2339.000000	7.368389
2340.000000	7.359961
2341.000000	7.346693
2342.000000	7.340835
2343.000000	7.327836
2344.000000	7.308689
2345.000000	7.292173
2346.000000	7.283375
2347.000000	7.266694
2348.000000	7.249004
2349.000000	7.232621
2350.000000	7.221049
2351.000000	7.200700
2352.000000	7.202158
2353.000000	7.196334
2354.000000	7.203522
2355.000000	7.228546
2356.000000	7.245122
2357.000000	7.259956
2358.000000	7.272148
2359.000000	7.294369
2360.000000	7.332951
2361.000000	7.356978
2362.000000	7.382867
2363.000000	7.419098
2364.000000	7.451590
2365.000000	7.481087
2366.000000	7.511607
2367.000000	7.549314
2368.000000	7.579549
2369.000000	7.591698
2370.000000	7.625165
2371.000000	7.651672
2372.000000	7.663205
2373.000000	7.676172
2374.000000	7.699349
2375.000000	7.718076
2376.000000	7.729523
2377.000000	7.752152
2378.000000	7.762634
2379.000000	7.762116
2380.000000	7.775800
2381.000000	7.785738
2382.000000	7.793022
2383.000000	7.811436
2384.000000	7.813844
2385.000000	7.811956
2386.000000	7.823397
2387.000000	7.825884
2388.000000	7.819787
2389.000000	7.827255
2390.000000	7.831592
2391.000000	7.820529
2392.000000	7.814980
2393.000000	7.822544
2394.000000	7.814264
2395.000000	7.807968
2396.000000	7.801203
2397.000000	7.787186
2398.000000	7.787226
2399.000000	7.779095
2400.000000	7.774475
2401.000000	7.761636
2402.000000	7.762186
2403.000000	7.749725
2404.000000	7.744159
2405.000000	7.738256
2406.000000	7.724417
2407.000000	7.728867
2408.000000	7.719392
2409.000000	7.702792
2410.000000	7.688727
2411.000000	7.678129
2412.000000	7.672184
2413.000000	7.668876
2414.000000	7.693044
2415.000000	7.688433
2416.000000	7.694887
2417.000000	7.679216
2418.000000	7.660105
2419.000000	7.656865
2420.000000	7.654687
2421.000000	7.628921
2422.000000	7.610196
2423.000000	7.594365
2424.000000	7.588562
2425.000000	7.567727
2426.000000	7.562420
2427.000000	7.544594
2428.000000	7.527292
2429.000000	7.516144
2430.000000	7.492451
2431.000000	7.461058
2432.000000	7.425060
2433.000000	7.398054
2434.000000	7.370311
2435.000000	7.339452
2436.000000	7.314131
2437.000000	7.281585
2438.000000	7.252846
2439.000000	7.214848
2440.000000	7.177958
2441.000000	7.147850
2442.000000	7.101163
2443.000000	7.067381
2444.000000	7.036816
2445.000000	6.994588
2446.000000	6.953054
2447.000000	6.922609
2448.000000	6.879092
2449.000000	6.860884
2450.000000	6.816504
2451.000000	6.770482
2452.000000	6.734171
2453.000000	6.707475
2454.000000	6.686554
2455.000000	6.656535
2456.000000	6.612368
2457.000000	6.589986
2458.000000	6.543382
2459.000000	6.518455
2460.000000	6.478902
2461.000000	6.457881
2462.000000	6.423111
2463.000000	6.410515
2464.000000	6.395247
2465.000000	6.387862
2466.000000	6.383010
2467.000000	6.349099
2468.000000	6.352489
2469.000000	6.346815
2470.000000	6.350101
2471.000000	6.307801
2472.000000	6.313463
2473.000000	6.317839
2474.000000	6.320938
2475.000000	6.315746
2476.000000	6.307011
2477.000000	6.293109
2478.000000	6.322559
2479.000000	6.278638
2480.000000	6.294727
2481.000000	6.297674
2482.000000	6.314983
2483.000000	6.312350
2484.000000	6.342433
2485.000000	6.326484
2486.000000	6.310283
2487.000000	6.347775
2488.000000	6.387905
2489.000000	6.417492
2490.000000	6.345916
2491.000000	6.401576
2492.000000	6.389109
2493.000000	6.423512
2494.000000	6.426646
2495.000000	6.428868
2496.000000	6.393698
2497.000000	6.463540
2498.000000	6.524689
2499.000000	6.489145
2500.000000	6.550287
