PE UV       SUBTECH     SPECTRUM    ASCII       PEDS        4.00        
   -1
CICIMAUCR0101-3.Sample.ASC
24/04/11
14:27:02.00
24/04/11
14:27:02.00
Vinicio Soto Monge
C. resplendens
250,000000
1
Lambda 1050
1050L1511233
PerkinElmer UV WinLab 6.3.2.0749 / 2.02.05 Lambda 900 UV/VIS/NIR, Aug  7 2015 09:38:08

0
0
3350/2 860,8/2
0
0
UV/VIS
1
1
1
DoubleDePol,CommonBeamDepol,RBeamAtt,SBeamAtt,60mm sphere, WB InGaAs Detector
0
0
0
0
Program
Program
3350/2 860,8/2
3350/0,2 860,8/0,2
3350/0,2 860,8/0,2
0
15.00
 
 
 
0
 
860,8
319,2
860,8
Front
100
on
S:100 R:100
0
0
0
0
 
0
 
 
 
0
 
 
0
0
0
0
0
 
 
 
 
0
0


0
0
#HDR
-1
-1
#GR
nm
%R
1.0
0.0
2400,000000
-1,000000
2151
8
92,537900
5,932000
#DATA
250.000000	6.822967
251.000000	6.775467
252.000000	6.775167
253.000000	6.801867
254.000000	6.749833
255.000000	6.771567
256.000000	6.749733
257.000000	6.706900
258.000000	6.669733
259.000000	6.657933
260.000000	6.644933
261.000000	6.610100
262.000000	6.585667
263.000000	6.576700
264.000000	6.522733
265.000000	6.493800
266.000000	6.470000
267.000000	6.413267
268.000000	6.421967
269.000000	6.385500
270.000000	6.344133
271.000000	6.351033
272.000000	6.294533
273.000000	6.289033
274.000000	6.291433
275.000000	6.263100
276.000000	6.260533
277.000000	6.274333
278.000000	6.220433
279.000000	6.201967
280.000000	6.207567
281.000000	6.204667
282.000000	6.174500
283.000000	6.185333
284.000000	6.170067
285.000000	6.165633
286.000000	6.183567
287.000000	6.191900
288.000000	6.151333
289.000000	6.133333
290.000000	6.138167
291.000000	6.110667
292.000000	6.109233
293.000000	6.109567
294.000000	6.108700
295.000000	6.106800
296.000000	6.106833
297.000000	6.102400
298.000000	6.093533
299.000000	6.060267
300.000000	6.081900
301.000000	6.094867
302.000000	6.076833
303.000000	6.089300
304.000000	6.068167
305.000000	6.068000
306.000000	6.034933
307.000000	6.015967
308.000000	6.030500
309.000000	6.013667
310.000000	6.006200
311.000000	6.015900
312.000000	6.027233
313.000000	6.001100
314.000000	5.988433
315.000000	5.986833
316.000000	6.126733
317.000000	6.400200
318.000000	6.282800
319.000000	6.285233
320.000000	6.210700
321.000000	6.142400
322.000000	6.160533
323.000000	6.039000
324.000000	6.099533
325.000000	6.179133
326.000000	6.152267
327.000000	6.088700
328.000000	6.099900
329.000000	6.022933
330.000000	6.065733
331.000000	6.041933
332.000000	5.969900
333.000000	5.935733
334.000000	5.951533
335.000000	5.955500
336.000000	6.012400
337.000000	6.032000
338.000000	6.002033
339.000000	5.982800
340.000000	5.935533
341.000000	5.902400
342.000000	5.982233
343.000000	5.975700
344.000000	5.932333
345.000000	5.968933
346.000000	6.017067
347.000000	5.946633
348.000000	5.965000
349.000000	5.956133
350.000000	5.929467
351.000000	5.965900
352.000000	6.057800
353.000000	6.065000
354.000000	6.064500
355.000000	6.070433
356.000000	6.082433
357.000000	6.129433
358.000000	6.143267
359.000000	6.141100
360.000000	6.172433
361.000000	6.144033
362.000000	6.149333
363.000000	6.200867
364.000000	6.259433
365.000000	6.238767
366.000000	6.257533
367.000000	6.292367
368.000000	6.303600
369.000000	6.306933
370.000000	6.330367
371.000000	6.303200
372.000000	6.315667
373.000000	6.355067
374.000000	6.331533
375.000000	6.378300
376.000000	6.568033
377.000000	6.644700
378.000000	6.694233
379.000000	6.751900
380.000000	6.800800
381.000000	6.862667
382.000000	6.931133
383.000000	6.993933
384.000000	7.070333
385.000000	7.152600
386.000000	7.239667
387.000000	7.341067
388.000000	7.431633
389.000000	7.530567
390.000000	7.646367
391.000000	7.778433
392.000000	7.900633
393.000000	8.033367
394.000000	8.180267
395.000000	8.331267
396.000000	8.498400
397.000000	8.676833
398.000000	8.857133
399.000000	9.042567
400.000000	9.232100
401.000000	9.449167
402.000000	9.679033
403.000000	9.914067
404.000000	10.172967
405.000000	10.424600
406.000000	10.711300
407.000000	10.993367
408.000000	11.285700
409.000000	11.596800
410.000000	11.911967
411.000000	12.251067
412.000000	12.587267
413.000000	12.951667
414.000000	13.315767
415.000000	13.688567
416.000000	14.065367
417.000000	14.452000
418.000000	14.820067
419.000000	15.218267
420.000000	15.622267
421.000000	16.018367
422.000000	16.425500
423.000000	16.828533
424.000000	17.216700
425.000000	17.620200
426.000000	18.007600
427.000000	18.382933
428.000000	18.760700
429.000000	19.131833
430.000000	19.479967
431.000000	19.842067
432.000000	20.186267
433.000000	20.545067
434.000000	20.882733
435.000000	21.208733
436.000000	21.504633
437.000000	21.814700
438.000000	22.106967
439.000000	22.389967
440.000000	22.652400
441.000000	22.913767
442.000000	23.179700
443.000000	23.432067
444.000000	23.638400
445.000000	23.854633
446.000000	24.054567
447.000000	24.245133
448.000000	24.414900
449.000000	24.578100
450.000000	24.718833
451.000000	24.870467
452.000000	25.007733
453.000000	25.126700
454.000000	25.232800
455.000000	25.309200
456.000000	25.399333
457.000000	25.488633
458.000000	25.550600
459.000000	25.604633
460.000000	25.651233
461.000000	25.690300
462.000000	25.712900
463.000000	25.751833
464.000000	25.759700
465.000000	25.755367
466.000000	25.770967
467.000000	25.773167
468.000000	25.773167
469.000000	25.783233
470.000000	25.784333
471.000000	25.815067
472.000000	25.859167
473.000000	25.931400
474.000000	26.014733
475.000000	26.121333
476.000000	26.264900
477.000000	26.428567
478.000000	26.633433
479.000000	26.876167
480.000000	27.142133
481.000000	27.433300
482.000000	27.764633
483.000000	28.119900
484.000000	28.524067
485.000000	28.975900
486.000000	29.420400
487.000000	29.868567
488.000000	30.353433
489.000000	30.842767
490.000000	31.348233
491.000000	31.829533
492.000000	32.335267
493.000000	32.813267
494.000000	33.261667
495.000000	33.701500
496.000000	34.131667
497.000000	34.538700
498.000000	34.925767
499.000000	35.302167
500.000000	35.681367
501.000000	36.049567
502.000000	36.410133
503.000000	36.758067
504.000000	37.101933
505.000000	37.450100
506.000000	37.794100
507.000000	38.162800
508.000000	38.550167
509.000000	38.974200
510.000000	39.428167
511.000000	39.938100
512.000000	40.488700
513.000000	41.098133
514.000000	41.783000
515.000000	42.521000
516.000000	43.313367
517.000000	44.170033
518.000000	45.109067
519.000000	46.110900
520.000000	47.166800
521.000000	48.288233
522.000000	49.495100
523.000000	50.756400
524.000000	52.018967
525.000000	53.339600
526.000000	54.656000
527.000000	55.978667
528.000000	57.298100
529.000000	58.640833
530.000000	59.959367
531.000000	61.267100
532.000000	62.548400
533.000000	63.803500
534.000000	65.025733
535.000000	66.202733
536.000000	67.354467
537.000000	68.466733
538.000000	69.549100
539.000000	70.612400
540.000000	71.662667
541.000000	72.670900
542.000000	73.675500
543.000000	74.607800
544.000000	75.538833
545.000000	76.431900
546.000000	77.281767
547.000000	78.099400
548.000000	78.893533
549.000000	79.648167
550.000000	80.411467
551.000000	81.154600
552.000000	81.848267
553.000000	82.540967
554.000000	83.197833
555.000000	83.824200
556.000000	84.411133
557.000000	84.977800
558.000000	85.493167
559.000000	86.030833
560.000000	86.592767
561.000000	87.041867
562.000000	87.472933
563.000000	87.878533
564.000000	88.260400
565.000000	88.608333
566.000000	88.930633
567.000000	89.222867
568.000000	89.511633
569.000000	89.782433
570.000000	90.047567
571.000000	90.244067
572.000000	90.472133
573.000000	90.676933
574.000000	90.891100
575.000000	91.057933
576.000000	91.209700
577.000000	91.383367
578.000000	91.516433
579.000000	91.647867
580.000000	91.758633
581.000000	91.867733
582.000000	91.925100
583.000000	91.994733
584.000000	92.022867
585.000000	92.031667
586.000000	92.017567
587.000000	91.998033
588.000000	91.941233
589.000000	91.870433
590.000000	91.778600
591.000000	91.660167
592.000000	91.510833
593.000000	91.319400
594.000000	91.137600
595.000000	90.900033
596.000000	90.625800
597.000000	90.362433
598.000000	90.056100
599.000000	89.741467
600.000000	89.367467
601.000000	88.964867
602.000000	88.535633
603.000000	88.089100
604.000000	87.600167
605.000000	87.063033
606.000000	86.531533
607.000000	85.957900
608.000000	85.336667
609.000000	84.717000
610.000000	84.071833
611.000000	83.400633
612.000000	82.694400
613.000000	81.966200
614.000000	81.209767
615.000000	80.449867
616.000000	79.682867
617.000000	78.909567
618.000000	78.132133
619.000000	77.317400
620.000000	76.515467
621.000000	75.662200
622.000000	74.786267
623.000000	73.910000
624.000000	72.997000
625.000000	72.090767
626.000000	71.169400
627.000000	70.227100
628.000000	69.279200
629.000000	68.373300
630.000000	67.470867
631.000000	66.585700
632.000000	65.759367
633.000000	65.012767
634.000000	64.323700
635.000000	63.727333
636.000000	63.274133
637.000000	62.894533
638.000000	62.654967
639.000000	62.535300
640.000000	62.564600
641.000000	62.696533
642.000000	62.974533
643.000000	63.350467
644.000000	63.827533
645.000000	64.398133
646.000000	65.030000
647.000000	65.716300
648.000000	66.482633
649.000000	67.289967
650.000000	68.177133
651.000000	69.027933
652.000000	69.901467
653.000000	70.756600
654.000000	71.598800
655.000000	72.414300
656.000000	73.129500
657.000000	73.866233
658.000000	74.529767
659.000000	75.104633
660.000000	75.630767
661.000000	76.120533
662.000000	76.546800
663.000000	76.913200
664.000000	77.229633
665.000000	77.536300
666.000000	77.804167
667.000000	78.070400
668.000000	78.308367
669.000000	78.507367
670.000000	78.737200
671.000000	78.921400
672.000000	79.097333
673.000000	79.263733
674.000000	79.414467
675.000000	79.566833
676.000000	79.687267
677.000000	79.773067
678.000000	79.801867
679.000000	79.847767
680.000000	79.900400
681.000000	79.897033
682.000000	79.931733
683.000000	79.972433
684.000000	80.041000
685.000000	80.058267
686.000000	80.130100
687.000000	80.184133
688.000000	80.217700
689.000000	80.257367
690.000000	80.291500
691.000000	80.383033
692.000000	80.439567
693.000000	80.470933
694.000000	80.503033
695.000000	80.549133
696.000000	80.642200
697.000000	80.708700
698.000000	80.786933
699.000000	80.915067
700.000000	81.050233
701.000000	81.192767
702.000000	81.385367
703.000000	81.596367
704.000000	81.837233
705.000000	82.130233
706.000000	82.468933
707.000000	82.791633
708.000000	83.105967
709.000000	83.464633
710.000000	83.833400
711.000000	84.155900
712.000000	84.493167
713.000000	84.856967
714.000000	85.144400
715.000000	85.411933
716.000000	85.686433
717.000000	85.953200
718.000000	86.203167
719.000000	86.440200
720.000000	86.631933
721.000000	86.759433
722.000000	86.933567
723.000000	87.069933
724.000000	87.215700
725.000000	87.325333
726.000000	87.427900
727.000000	87.452667
728.000000	87.574867
729.000000	87.669700
730.000000	87.722567
731.000000	87.758567
732.000000	87.837933
733.000000	87.890867
734.000000	87.955867
735.000000	88.024400
736.000000	88.011433
737.000000	88.049933
738.000000	88.086633
739.000000	88.179167
740.000000	88.206767
741.000000	88.234667
742.000000	88.209033
743.000000	88.224867
744.000000	88.149133
745.000000	88.071333
746.000000	88.019267
747.000000	87.911733
748.000000	87.730500
749.000000	87.599667
750.000000	87.414867
751.000000	87.182633
752.000000	86.927567
753.000000	86.751833
754.000000	86.485100
755.000000	86.333467
756.000000	86.034833
757.000000	85.814333
758.000000	85.583533
759.000000	85.403733
760.000000	85.135567
761.000000	85.044167
762.000000	84.826600
763.000000	84.625200
764.000000	84.502667
765.000000	84.363367
766.000000	84.328733
767.000000	84.208767
768.000000	84.131900
769.000000	84.182467
770.000000	84.197367
771.000000	84.150867
772.000000	84.252833
773.000000	84.223933
774.000000	84.196700
775.000000	84.282633
776.000000	84.204267
777.000000	84.176267
778.000000	84.173333
779.000000	84.058000
780.000000	83.872500
781.000000	83.791133
782.000000	83.702733
783.000000	83.525133
784.000000	83.250667
785.000000	83.147433
786.000000	82.933967
787.000000	82.617567
788.000000	82.322800
789.000000	82.099500
790.000000	81.783600
791.000000	81.566600
792.000000	81.224600
793.000000	81.052500
794.000000	80.682633
795.000000	80.418967
796.000000	80.151167
797.000000	79.914333
798.000000	79.663967
799.000000	79.533000
800.000000	79.265633
801.000000	79.098200
802.000000	78.771133
803.000000	78.679933
804.000000	78.587333
805.000000	78.460700
806.000000	78.255333
807.000000	78.109600
808.000000	78.035867
809.000000	77.960267
810.000000	77.770667
811.000000	77.755933
812.000000	77.669100
813.000000	77.596500
814.000000	77.496467
815.000000	77.560133
816.000000	77.389900
817.000000	77.219433
818.000000	77.148867
819.000000	77.176233
820.000000	77.125933
821.000000	77.052033
822.000000	77.000200
823.000000	76.993667
824.000000	76.968700
825.000000	77.032133
826.000000	77.021667
827.000000	76.832400
828.000000	76.869133
829.000000	76.860167
830.000000	76.962833
831.000000	76.881000
832.000000	76.785567
833.000000	76.849767
834.000000	76.684433
835.000000	76.790533
836.000000	76.676633
837.000000	76.508300
838.000000	76.440333
839.000000	76.298633
840.000000	76.243933
841.000000	76.040600
842.000000	75.951767
843.000000	75.930167
844.000000	75.699933
845.000000	75.451367
846.000000	75.415100
847.000000	75.144133
848.000000	75.079167
849.000000	74.743067
850.000000	74.780867
851.000000	74.628633
852.000000	74.375267
853.000000	74.071733
854.000000	73.869533
855.000000	73.810833
856.000000	73.741700
857.000000	73.847567
858.000000	73.800033
859.000000	74.263234
860.000000	73.897374
861.000000	73.914393
862.000000	73.756372
863.000000	73.786871
864.000000	73.568193
865.000000	73.375038
866.000000	73.417007
867.000000	73.069782
868.000000	72.932073
869.000000	72.845580
870.000000	72.748087
871.000000	72.726607
872.000000	72.540063
873.000000	72.294596
874.000000	72.356278
875.000000	72.029373
876.000000	72.005923
877.000000	71.717018
878.000000	71.919655
879.000000	71.636089
880.000000	71.736025
881.000000	71.470869
882.000000	71.210060
883.000000	71.029691
884.000000	70.741163
885.000000	70.699524
886.000000	70.549440
887.000000	70.420047
888.000000	70.246122
889.000000	70.079041
890.000000	69.935037
891.000000	69.620077
892.000000	69.392872
893.000000	69.350683
894.000000	69.145716
895.000000	68.722036
896.000000	68.422720
897.000000	68.276015
898.000000	68.011407
899.000000	67.811922
900.000000	67.618115
901.000000	67.381499
902.000000	67.149115
903.000000	66.841186
904.000000	66.459315
905.000000	66.129901
906.000000	66.009006
907.000000	65.803961
908.000000	65.611215
909.000000	65.495124
910.000000	65.420263
911.000000	65.229674
912.000000	65.099958
913.000000	64.996263
914.000000	64.927039
915.000000	64.968616
916.000000	64.845862
917.000000	64.719827
918.000000	64.608622
919.000000	64.562690
920.000000	64.459634
921.000000	64.332342
922.000000	64.237690
923.000000	64.123713
924.000000	64.061012
925.000000	63.887003
926.000000	63.721487
927.000000	63.605755
928.000000	63.468202
929.000000	63.377976
930.000000	63.261691
931.000000	63.189642
932.000000	63.087907
933.000000	62.903742
934.000000	62.761939
935.000000	62.608320
936.000000	62.461149
937.000000	62.336568
938.000000	62.214490
939.000000	62.048183
940.000000	61.880687
941.000000	61.796784
942.000000	61.663661
943.000000	61.542674
944.000000	61.447196
945.000000	61.270982
946.000000	61.148753
947.000000	61.075201
948.000000	60.985264
949.000000	60.889789
950.000000	60.794738
951.000000	60.685147
952.000000	60.600594
953.000000	60.501395
954.000000	60.392516
955.000000	60.296474
956.000000	60.198046
957.000000	60.095130
958.000000	59.983141
959.000000	59.889579
960.000000	59.788189
961.000000	59.618865
962.000000	59.515116
963.000000	59.457264
964.000000	59.376453
965.000000	59.280661
966.000000	59.187146
967.000000	59.123716
968.000000	59.097035
969.000000	59.049869
970.000000	58.972767
971.000000	58.886586
972.000000	58.817539
973.000000	58.775114
974.000000	58.711154
975.000000	58.622319
976.000000	58.578671
977.000000	58.480870
978.000000	58.386709
979.000000	58.304413
980.000000	58.213726
981.000000	58.149626
982.000000	58.059979
983.000000	57.993852
984.000000	57.926581
985.000000	57.865061
986.000000	57.761540
987.000000	57.688733
988.000000	57.631859
989.000000	57.554607
990.000000	57.454235
991.000000	57.368777
992.000000	57.309028
993.000000	57.264499
994.000000	57.215989
995.000000	57.148457
996.000000	57.089095
997.000000	57.048943
998.000000	56.988689
999.000000	56.908431
1000.000000	56.868278
1001.000000	56.788809
1002.000000	56.767419
1003.000000	56.711939
1004.000000	56.663641
1005.000000	56.614773
1006.000000	56.555440
1007.000000	56.504840
1008.000000	56.454800
1009.000000	56.386602
1010.000000	56.265029
1011.000000	56.243778
1012.000000	56.211562
1013.000000	56.176535
1014.000000	56.171237
1015.000000	56.195291
1016.000000	56.203828
1017.000000	56.248652
1018.000000	56.248335
1019.000000	56.306007
1020.000000	56.350983
1021.000000	56.423797
1022.000000	56.498471
1023.000000	56.556677
1024.000000	56.633901
1025.000000	56.728947
1026.000000	56.789890
1027.000000	56.857297
1028.000000	56.937962
1029.000000	57.031640
1030.000000	57.105566
1031.000000	57.197812
1032.000000	57.258352
1033.000000	57.319883
1034.000000	57.416968
1035.000000	57.454489
1036.000000	57.539263
1037.000000	57.589019
1038.000000	57.644487
1039.000000	57.725117
1040.000000	57.780812
1041.000000	57.820761
1042.000000	57.845005
1043.000000	57.911774
1044.000000	57.966056
1045.000000	58.018503
1046.000000	58.075996
1047.000000	58.141241
1048.000000	58.181303
1049.000000	58.240656
1050.000000	58.303537
1051.000000	58.354440
1052.000000	58.432513
1053.000000	58.463064
1054.000000	58.554706
1055.000000	58.660921
1056.000000	58.736107
1057.000000	58.810299
1058.000000	58.890719
1059.000000	58.957304
1060.000000	59.028522
1061.000000	59.087234
1062.000000	59.153951
1063.000000	59.203302
1064.000000	59.258308
1065.000000	59.322147
1066.000000	59.361577
1067.000000	59.435341
1068.000000	59.475182
1069.000000	59.512638
1070.000000	59.587063
1071.000000	59.625825
1072.000000	59.670620
1073.000000	59.729391
1074.000000	59.785430
1075.000000	59.863587
1076.000000	59.910578
1077.000000	59.969809
1078.000000	60.019025
1079.000000	60.087878
1080.000000	60.117804
1081.000000	60.211491
1082.000000	60.264711
1083.000000	60.355929
1084.000000	60.421133
1085.000000	60.499523
1086.000000	60.577917
1087.000000	60.662989
1088.000000	60.741189
1089.000000	60.827940
1090.000000	60.903688
1091.000000	60.979693
1092.000000	61.041177
1093.000000	61.096864
1094.000000	61.166089
1095.000000	61.239625
1096.000000	61.293582
1097.000000	61.357052
1098.000000	61.417262
1099.000000	61.444190
1100.000000	61.513572
1101.000000	61.552575
1102.000000	61.599132
1103.000000	61.649557
1104.000000	61.667035
1105.000000	61.681992
1106.000000	61.706927
1107.000000	61.725419
1108.000000	61.749174
1109.000000	61.781637
1110.000000	61.791134
1111.000000	61.809923
1112.000000	61.822468
1113.000000	61.836650
1114.000000	61.854527
1115.000000	61.863109
1116.000000	61.882360
1117.000000	61.886034
1118.000000	61.870630
1119.000000	61.836701
1120.000000	61.782705
1121.000000	61.702491
1122.000000	61.642509
1123.000000	61.559093
1124.000000	61.416129
1125.000000	61.292001
1126.000000	61.164008
1127.000000	61.007911
1128.000000	60.793964
1129.000000	60.538961
1130.000000	60.223137
1131.000000	59.843313
1132.000000	59.407270
1133.000000	58.937134
1134.000000	58.484926
1135.000000	57.971824
1136.000000	57.349957
1137.000000	56.709819
1138.000000	56.079272
1139.000000	55.480349
1140.000000	54.912205
1141.000000	54.361992
1142.000000	53.809648
1143.000000	53.281532
1144.000000	52.786613
1145.000000	52.366531
1146.000000	52.065154
1147.000000	51.884281
1148.000000	51.845857
1149.000000	51.872952
1150.000000	51.928344
1151.000000	51.983966
1152.000000	52.009938
1153.000000	52.006720
1154.000000	51.915034
1155.000000	51.733607
1156.000000	51.465236
1157.000000	51.089597
1158.000000	50.655993
1159.000000	50.174858
1160.000000	49.655169
1161.000000	49.121486
1162.000000	48.588195
1163.000000	48.037864
1164.000000	47.475739
1165.000000	46.937676
1166.000000	46.393087
1167.000000	45.879021
1168.000000	45.347774
1169.000000	44.858949
1170.000000	44.361363
1171.000000	43.864306
1172.000000	43.380332
1173.000000	42.942917
1174.000000	42.520908
1175.000000	42.111606
1176.000000	41.698846
1177.000000	41.280370
1178.000000	40.810025
1179.000000	40.251520
1180.000000	39.624828
1181.000000	38.931848
1182.000000	38.253310
1183.000000	37.658607
1184.000000	37.182529
1185.000000	36.875845
1186.000000	36.724675
1187.000000	36.738876
1188.000000	36.932557
1189.000000	37.274001
1190.000000	37.741856
1191.000000	38.315106
1192.000000	38.941178
1193.000000	39.530732
1194.000000	40.055348
1195.000000	40.479705
1196.000000	40.806739
1197.000000	41.061436
1198.000000	41.243977
1199.000000	41.364458
1200.000000	41.443200
1201.000000	41.471045
1202.000000	41.481722
1203.000000	41.473128
1204.000000	41.462883
1205.000000	41.454655
1206.000000	41.458821
1207.000000	41.490287
1208.000000	41.534434
1209.000000	41.601599
1210.000000	41.688397
1211.000000	41.797513
1212.000000	41.916056
1213.000000	42.036756
1214.000000	42.171192
1215.000000	42.311192
1216.000000	42.453622
1217.000000	42.619801
1218.000000	42.796270
1219.000000	42.975553
1220.000000	43.174433
1221.000000	43.392482
1222.000000	43.617807
1223.000000	43.859000
1224.000000	44.109266
1225.000000	44.361269
1226.000000	44.618097
1227.000000	44.886286
1228.000000	45.161294
1229.000000	45.428406
1230.000000	45.700248
1231.000000	45.988084
1232.000000	46.262501
1233.000000	46.522990
1234.000000	46.791799
1235.000000	47.067484
1236.000000	47.325991
1237.000000	47.591707
1238.000000	47.854972
1239.000000	48.109057
1240.000000	48.362818
1241.000000	48.605789
1242.000000	48.839762
1243.000000	49.063338
1244.000000	49.277798
1245.000000	49.490392
1246.000000	49.677749
1247.000000	49.846438
1248.000000	50.000601
1249.000000	50.143830
1250.000000	50.279140
1251.000000	50.411425
1252.000000	50.520256
1253.000000	50.624884
1254.000000	50.731199
1255.000000	50.826065
1256.000000	50.917833
1257.000000	51.004462
1258.000000	51.083432
1259.000000	51.172522
1260.000000	51.258261
1261.000000	51.328457
1262.000000	51.406527
1263.000000	51.491341
1264.000000	51.571178
1265.000000	51.659330
1266.000000	51.747616
1267.000000	51.835558
1268.000000	51.925693
1269.000000	52.009961
1270.000000	52.105255
1271.000000	52.204333
1272.000000	52.287640
1273.000000	52.372653
1274.000000	52.463932
1275.000000	52.553238
1276.000000	52.645296
1277.000000	52.750926
1278.000000	52.859832
1279.000000	52.970699
1280.000000	53.083062
1281.000000	53.203982
1282.000000	53.321672
1283.000000	53.439372
1284.000000	53.557357
1285.000000	53.666988
1286.000000	53.781299
1287.000000	53.893333
1288.000000	53.988455
1289.000000	54.081893
1290.000000	54.167383
1291.000000	54.235914
1292.000000	54.292411
1293.000000	54.344669
1294.000000	54.391557
1295.000000	54.424326
1296.000000	54.477558
1297.000000	54.510590
1298.000000	54.532828
1299.000000	54.562241
1300.000000	54.584228
1301.000000	54.612572
1302.000000	54.628248
1303.000000	54.643507
1304.000000	54.645766
1305.000000	54.642659
1306.000000	54.620762
1307.000000	54.601149
1308.000000	54.568725
1309.000000	54.524132
1310.000000	54.465882
1311.000000	54.412161
1312.000000	54.327697
1313.000000	54.255420
1314.000000	54.178173
1315.000000	54.086564
1316.000000	53.997429
1317.000000	53.887818
1318.000000	53.779778
1319.000000	53.655518
1320.000000	53.543659
1321.000000	53.402221
1322.000000	53.274697
1323.000000	53.127429
1324.000000	52.965257
1325.000000	52.801252
1326.000000	52.613669
1327.000000	52.443283
1328.000000	52.237188
1329.000000	52.042864
1330.000000	51.822303
1331.000000	51.593076
1332.000000	51.333904
1333.000000	51.058567
1334.000000	50.781138
1335.000000	50.485124
1336.000000	50.186512
1337.000000	49.865730
1338.000000	49.518816
1339.000000	49.170545
1340.000000	48.795449
1341.000000	48.405320
1342.000000	48.005632
1343.000000	47.574285
1344.000000	47.147117
1345.000000	46.653553
1346.000000	46.150084
1347.000000	45.659191
1348.000000	45.126020
1349.000000	44.506562
1350.000000	43.847774
1351.000000	43.115123
1352.000000	42.339372
1353.000000	41.524430
1354.000000	40.788623
1355.000000	40.091598
1356.000000	39.505677
1357.000000	39.118869
1358.000000	38.885184
1359.000000	38.763880
1360.000000	38.716301
1361.000000	38.740247
1362.000000	38.686763
1363.000000	38.423391
1364.000000	38.239198
1365.000000	38.086743
1366.000000	37.820268
1367.000000	37.571579
1368.000000	37.308952
1369.000000	36.931633
1370.000000	36.567505
1371.000000	36.213236
1372.000000	35.778757
1373.000000	35.328383
1374.000000	34.947840
1375.000000	34.640662
1376.000000	34.442694
1377.000000	34.321340
1378.000000	34.257889
1379.000000	34.240160
1380.000000	34.232689
1381.000000	34.173987
1382.000000	34.032348
1383.000000	33.773368
1384.000000	33.395714
1385.000000	33.033363
1386.000000	32.630740
1387.000000	32.350058
1388.000000	32.136109
1389.000000	31.901597
1390.000000	31.668638
1391.000000	31.536424
1392.000000	31.464292
1393.000000	31.329564
1394.000000	31.209061
1395.000000	31.170808
1396.000000	31.103578
1397.000000	30.897844
1398.000000	30.626537
1399.000000	30.430339
1400.000000	30.285504
1401.000000	29.986923
1402.000000	29.576657
1403.000000	29.174224
1404.000000	28.860431
1405.000000	28.514030
1406.000000	28.143276
1407.000000	27.787624
1408.000000	27.446940
1409.000000	27.155457
1410.000000	26.897630
1411.000000	26.594148
1412.000000	26.379347
1413.000000	26.201803
1414.000000	26.068540
1415.000000	25.903886
1416.000000	25.652413
1417.000000	25.451200
1418.000000	25.296909
1419.000000	25.114579
1420.000000	24.903900
1421.000000	24.669549
1422.000000	24.455141
1423.000000	24.261955
1424.000000	24.061883
1425.000000	23.849252
1426.000000	23.633010
1427.000000	23.442532
1428.000000	23.274157
1429.000000	23.099851
1430.000000	22.935138
1431.000000	22.795942
1432.000000	22.669277
1433.000000	22.551557
1434.000000	22.415985
1435.000000	22.296021
1436.000000	22.169432
1437.000000	22.061348
1438.000000	21.954806
1439.000000	21.833802
1440.000000	21.705097
1441.000000	21.581682
1442.000000	21.460645
1443.000000	21.343657
1444.000000	21.208833
1445.000000	21.119248
1446.000000	21.006355
1447.000000	20.871390
1448.000000	20.738393
1449.000000	20.613679
1450.000000	20.527936
1451.000000	20.426140
1452.000000	20.312648
1453.000000	20.202302
1454.000000	20.108065
1455.000000	20.015837
1456.000000	19.926228
1457.000000	19.844016
1458.000000	19.756576
1459.000000	19.666738
1460.000000	19.579035
1461.000000	19.523333
1462.000000	19.451388
1463.000000	19.374006
1464.000000	19.309502
1465.000000	19.241615
1466.000000	19.192039
1467.000000	19.138040
1468.000000	19.089459
1469.000000	19.043991
1470.000000	19.008595
1471.000000	18.961293
1472.000000	18.920604
1473.000000	18.865119
1474.000000	18.802355
1475.000000	18.740393
1476.000000	18.683693
1477.000000	18.646022
1478.000000	18.607134
1479.000000	18.554801
1480.000000	18.507720
1481.000000	18.473961
1482.000000	18.433105
1483.000000	18.396232
1484.000000	18.349699
1485.000000	18.318200
1486.000000	18.293648
1487.000000	18.272024
1488.000000	18.254306
1489.000000	18.221260
1490.000000	18.186045
1491.000000	18.149849
1492.000000	18.122012
1493.000000	18.096794
1494.000000	18.078496
1495.000000	18.053293
1496.000000	18.043040
1497.000000	18.030905
1498.000000	18.008391
1499.000000	18.009381
1500.000000	18.008105
1501.000000	17.990084
1502.000000	17.982132
1503.000000	17.994843
1504.000000	18.007558
1505.000000	18.006816
1506.000000	17.997753
1507.000000	18.009147
1508.000000	18.030083
1509.000000	18.031992
1510.000000	18.030922
1511.000000	18.034795
1512.000000	18.056381
1513.000000	18.067843
1514.000000	18.079587
1515.000000	18.077185
1516.000000	18.066578
1517.000000	18.071876
1518.000000	18.067903
1519.000000	18.092172
1520.000000	18.106581
1521.000000	18.123207
1522.000000	18.143484
1523.000000	18.163359
1524.000000	18.169572
1525.000000	18.167653
1526.000000	18.175647
1527.000000	18.197869
1528.000000	18.217957
1529.000000	18.219067
1530.000000	18.227791
1531.000000	18.241345
1532.000000	18.239653
1533.000000	18.228296
1534.000000	18.237329
1535.000000	18.245700
1536.000000	18.229672
1537.000000	18.247139
1538.000000	18.243434
1539.000000	18.235687
1540.000000	18.229597
1541.000000	18.234241
1542.000000	18.241922
1543.000000	18.246631
1544.000000	18.236672
1545.000000	18.244049
1546.000000	18.268947
1547.000000	18.271765
1548.000000	18.262767
1549.000000	18.262668
1550.000000	18.289518
1551.000000	18.289956
1552.000000	18.285210
1553.000000	18.276182
1554.000000	18.269945
1555.000000	18.257289
1556.000000	18.274150
1557.000000	18.259424
1558.000000	18.245528
1559.000000	18.209496
1560.000000	18.199752
1561.000000	18.187263
1562.000000	18.150453
1563.000000	18.118557
1564.000000	18.078233
1565.000000	18.059209
1566.000000	18.040939
1567.000000	17.993860
1568.000000	17.953192
1569.000000	17.934536
1570.000000	17.900014
1571.000000	17.872765
1572.000000	17.849509
1573.000000	17.838407
1574.000000	17.800861
1575.000000	17.784086
1576.000000	17.769538
1577.000000	17.757381
1578.000000	17.751430
1579.000000	17.726280
1580.000000	17.743760
1581.000000	17.735694
1582.000000	17.738170
1583.000000	17.751400
1584.000000	17.754614
1585.000000	17.774593
1586.000000	17.773774
1587.000000	17.791811
1588.000000	17.819802
1589.000000	17.837572
1590.000000	17.853593
1591.000000	17.879781
1592.000000	17.891835
1593.000000	17.919442
1594.000000	17.942502
1595.000000	17.967523
1596.000000	18.007555
1597.000000	18.028799
1598.000000	18.091802
1599.000000	18.134352
1600.000000	18.166833
1601.000000	18.225477
1602.000000	18.247664
1603.000000	18.328167
1604.000000	18.367582
1605.000000	18.411103
1606.000000	18.478158
1607.000000	18.525380
1608.000000	18.581033
1609.000000	18.581552
1610.000000	18.649845
1611.000000	18.691256
1612.000000	18.746389
1613.000000	18.803968
1614.000000	18.859676
1615.000000	18.919041
1616.000000	18.999515
1617.000000	19.063849
1618.000000	19.119777
1619.000000	19.183575
1620.000000	19.280054
1621.000000	19.348393
1622.000000	19.418863
1623.000000	19.485542
1624.000000	19.559295
1625.000000	19.643277
1626.000000	19.728482
1627.000000	19.789724
1628.000000	19.881465
1629.000000	19.952650
1630.000000	20.024329
1631.000000	20.097775
1632.000000	20.183424
1633.000000	20.258236
1634.000000	20.316539
1635.000000	20.400800
1636.000000	20.477558
1637.000000	20.536002
1638.000000	20.616375
1639.000000	20.692163
1640.000000	20.735203
1641.000000	20.813678
1642.000000	20.870997
1643.000000	20.926800
1644.000000	20.970411
1645.000000	21.039755
1646.000000	21.096088
1647.000000	21.132639
1648.000000	21.195292
1649.000000	21.241208
1650.000000	21.286987
1651.000000	21.308508
1652.000000	21.329826
1653.000000	21.348546
1654.000000	21.352497
1655.000000	21.372077
1656.000000	21.394800
1657.000000	21.391265
1658.000000	21.388610
1659.000000	21.351005
1660.000000	21.331564
1661.000000	21.296518
1662.000000	21.264650
1663.000000	21.213003
1664.000000	21.144436
1665.000000	21.077211
1666.000000	20.994533
1667.000000	20.906571
1668.000000	20.780226
1669.000000	20.650281
1670.000000	20.512313
1671.000000	20.349707
1672.000000	20.151938
1673.000000	19.911496
1674.000000	19.660313
1675.000000	19.336056
1676.000000	18.953656
1677.000000	18.535748
1678.000000	18.074915
1679.000000	17.585982
1680.000000	17.106470
1681.000000	16.607446
1682.000000	16.168061
1683.000000	15.893522
1684.000000	15.729474
1685.000000	15.643013
1686.000000	15.622415
1687.000000	15.621113
1688.000000	15.615256
1689.000000	15.575889
1690.000000	15.497403
1691.000000	15.355418
1692.000000	15.204787
1693.000000	15.058512
1694.000000	14.956070
1695.000000	14.882381
1696.000000	14.880211
1697.000000	14.921379
1698.000000	14.986408
1699.000000	15.108026
1700.000000	15.218475
1701.000000	15.320171
1702.000000	15.408375
1703.000000	15.499174
1704.000000	15.562600
1705.000000	15.584046
1706.000000	15.607001
1707.000000	15.629179
1708.000000	15.641869
1709.000000	15.635528
1710.000000	15.631753
1711.000000	15.613349
1712.000000	15.569403
1713.000000	15.516016
1714.000000	15.446563
1715.000000	15.390098
1716.000000	15.329412
1717.000000	15.264797
1718.000000	15.211601
1719.000000	15.182316
1720.000000	15.161859
1721.000000	15.131991
1722.000000	15.105779
1723.000000	15.084314
1724.000000	15.067275
1725.000000	15.021902
1726.000000	14.974022
1727.000000	14.886573
1728.000000	14.775247
1729.000000	14.671577
1730.000000	14.577211
1731.000000	14.496325
1732.000000	14.427513
1733.000000	14.387572
1734.000000	14.372472
1735.000000	14.415236
1736.000000	14.519335
1737.000000	14.638817
1738.000000	14.814113
1739.000000	15.005421
1740.000000	15.219324
1741.000000	15.443968
1742.000000	15.660937
1743.000000	15.861393
1744.000000	16.066136
1745.000000	16.233988
1746.000000	16.384124
1747.000000	16.512040
1748.000000	16.601402
1749.000000	16.676163
1750.000000	16.748819
1751.000000	16.817360
1752.000000	16.833623
1753.000000	16.837010
1754.000000	16.856995
1755.000000	16.876208
1756.000000	16.850016
1757.000000	16.802947
1758.000000	16.746487
1759.000000	16.702348
1760.000000	16.642150
1761.000000	16.589259
1762.000000	16.556186
1763.000000	16.529159
1764.000000	16.546583
1765.000000	16.602925
1766.000000	16.652682
1767.000000	16.748117
1768.000000	16.878956
1769.000000	17.021722
1770.000000	17.160117
1771.000000	17.301204
1772.000000	17.424534
1773.000000	17.559380
1774.000000	17.696780
1775.000000	17.833112
1776.000000	17.965234
1777.000000	18.078716
1778.000000	18.168550
1779.000000	18.264691
1780.000000	18.366246
1781.000000	18.453674
1782.000000	18.534470
1783.000000	18.629434
1784.000000	18.733446
1785.000000	18.816373
1786.000000	18.884513
1787.000000	18.967898
1788.000000	19.027616
1789.000000	19.087877
1790.000000	19.153587
1791.000000	19.211599
1792.000000	19.278939
1793.000000	19.332037
1794.000000	19.372078
1795.000000	19.440616
1796.000000	19.489473
1797.000000	19.536734
1798.000000	19.561331
1799.000000	19.602949
1800.000000	19.649103
1801.000000	19.733288
1802.000000	19.797810
1803.000000	19.827118
1804.000000	19.827017
1805.000000	19.876167
1806.000000	19.970044
1807.000000	20.012359
1808.000000	20.033856
1809.000000	20.081882
1810.000000	20.146212
1811.000000	20.190307
1812.000000	20.215779
1813.000000	20.190155
1814.000000	20.195064
1815.000000	20.226471
1816.000000	20.238702
1817.000000	20.229475
1818.000000	20.223404
1819.000000	20.206485
1820.000000	20.335402
1821.000000	20.383113
1822.000000	20.352355
1823.000000	20.329119
1824.000000	20.298972
1825.000000	20.371696
1826.000000	20.493551
1827.000000	20.529166
1828.000000	20.602312
1829.000000	20.685831
1830.000000	20.776056
1831.000000	20.892131
1832.000000	20.951369
1833.000000	20.970939
1834.000000	21.041227
1835.000000	21.183868
1836.000000	21.302067
1837.000000	21.411769
1838.000000	21.377176
1839.000000	21.403931
1840.000000	21.529976
1841.000000	21.614995
1842.000000	21.661940
1843.000000	21.635702
1844.000000	21.582322
1845.000000	21.618668
1846.000000	21.712461
1847.000000	21.974056
1848.000000	22.123281
1849.000000	22.088790
1850.000000	22.099228
1851.000000	22.134320
1852.000000	22.168611
1853.000000	22.361339
1854.000000	22.469979
1855.000000	22.449722
1856.000000	22.559182
1857.000000	22.630783
1858.000000	22.621224
1859.000000	22.723050
1860.000000	22.838591
1861.000000	22.744127
1862.000000	22.638325
1863.000000	22.721803
1864.000000	22.725848
1865.000000	22.666182
1866.000000	22.608972
1867.000000	22.733650
1868.000000	22.748153
1869.000000	22.627624
1870.000000	22.534546
1871.000000	22.407278
1872.000000	22.172669
1873.000000	22.063300
1874.000000	21.795959
1875.000000	21.481034
1876.000000	21.265428
1877.000000	21.060136
1878.000000	20.635465
1879.000000	20.261525
1880.000000	19.995435
1881.000000	19.639112
1882.000000	19.179975
1883.000000	18.911854
1884.000000	18.677132
1885.000000	18.303079
1886.000000	17.992623
1887.000000	17.767258
1888.000000	17.499732
1889.000000	17.385761
1890.000000	17.250527
1891.000000	17.062249
1892.000000	16.876355
1893.000000	16.692199
1894.000000	16.470065
1895.000000	16.243921
1896.000000	16.097412
1897.000000	15.961726
1898.000000	15.831074
1899.000000	15.738721
1900.000000	15.517582
1901.000000	15.229904
1902.000000	15.078803
1903.000000	14.913753
1904.000000	14.714401
1905.000000	14.680384
1906.000000	14.419134
1907.000000	14.216565
1908.000000	13.985966
1909.000000	13.843236
1910.000000	13.726681
1911.000000	13.631643
1912.000000	13.442710
1913.000000	13.319862
1914.000000	13.200350
1915.000000	13.006953
1916.000000	12.907978
1917.000000	12.683010
1918.000000	12.553541
1919.000000	12.486722
1920.000000	12.509024
1921.000000	12.405523
1922.000000	12.144860
1923.000000	12.075330
1924.000000	12.019330
1925.000000	11.869493
1926.000000	11.796450
1927.000000	11.755217
1928.000000	11.726668
1929.000000	11.605023
1930.000000	11.511847
1931.000000	11.484838
1932.000000	11.412314
1933.000000	11.332902
1934.000000	11.316335
1935.000000	11.248223
1936.000000	11.229931
1937.000000	11.214497
1938.000000	11.225485
1939.000000	11.263263
1940.000000	11.220132
1941.000000	11.205422
1942.000000	11.205809
1943.000000	11.176510
1944.000000	11.211372
1945.000000	11.249355
1946.000000	11.275872
1947.000000	11.283175
1948.000000	11.296390
1949.000000	11.320503
1950.000000	11.355389
1951.000000	11.370071
1952.000000	11.411427
1953.000000	11.424455
1954.000000	11.472774
1955.000000	11.504805
1956.000000	11.526375
1957.000000	11.537337
1958.000000	11.581559
1959.000000	11.613859
1960.000000	11.665324
1961.000000	11.730434
1962.000000	11.721262
1963.000000	11.756009
1964.000000	11.786694
1965.000000	11.846900
1966.000000	11.915475
1967.000000	11.929575
1968.000000	11.967716
1969.000000	11.985478
1970.000000	12.030812
1971.000000	12.047057
1972.000000	12.127663
1973.000000	12.181234
1974.000000	12.177305
1975.000000	12.187222
1976.000000	12.251566
1977.000000	12.313424
1978.000000	12.333908
1979.000000	12.386760
1980.000000	12.434419
1981.000000	12.486257
1982.000000	12.536974
1983.000000	12.592009
1984.000000	12.614341
1985.000000	12.628356
1986.000000	12.675615
1987.000000	12.735234
1988.000000	12.778499
1989.000000	12.783177
1990.000000	12.821426
1991.000000	12.846835
1992.000000	12.861650
1993.000000	12.890033
1994.000000	12.889971
1995.000000	12.911374
1996.000000	12.928366
1997.000000	12.949518
1998.000000	12.973254
1999.000000	12.961911
2000.000000	12.958868
2001.000000	12.971840
2002.000000	12.967762
2003.000000	12.938698
2004.000000	12.935064
2005.000000	12.931203
2006.000000	12.905428
2007.000000	12.909578
2008.000000	12.911103
2009.000000	12.862943
2010.000000	12.796152
2011.000000	12.790778
2012.000000	12.767256
2013.000000	12.680950
2014.000000	12.606448
2015.000000	12.600401
2016.000000	12.613376
2017.000000	12.532080
2018.000000	12.480405
2019.000000	12.437508
2020.000000	12.362973
2021.000000	12.295014
2022.000000	12.202808
2023.000000	12.164779
2024.000000	12.102457
2025.000000	12.023092
2026.000000	11.971553
2027.000000	11.880535
2028.000000	11.844621
2029.000000	11.756635
2030.000000	11.685019
2031.000000	11.619292
2032.000000	11.560724
2033.000000	11.490021
2034.000000	11.392895
2035.000000	11.284001
2036.000000	11.210259
2037.000000	11.104997
2038.000000	10.987343
2039.000000	10.891142
2040.000000	10.829017
2041.000000	10.692697
2042.000000	10.607523
2043.000000	10.559768
2044.000000	10.432988
2045.000000	10.309418
2046.000000	10.164685
2047.000000	10.151281
2048.000000	10.155394
2049.000000	10.078969
2050.000000	10.045993
2051.000000	9.938534
2052.000000	9.973555
2053.000000	9.959412
2054.000000	9.850731
2055.000000	9.837576
2056.000000	9.891772
2057.000000	9.832244
2058.000000	9.800061
2059.000000	9.844506
2060.000000	9.857949
2061.000000	9.829243
2062.000000	9.835627
2063.000000	9.936739
2064.000000	9.979873
2065.000000	9.924100
2066.000000	9.996039
2067.000000	10.044623
2068.000000	9.960951
2069.000000	10.048845
2070.000000	10.016638
2071.000000	9.931878
2072.000000	9.906820
2073.000000	10.023703
2074.000000	10.034395
2075.000000	10.048633
2076.000000	10.024193
2077.000000	10.041291
2078.000000	10.113003
2079.000000	10.118740
2080.000000	10.181110
2081.000000	10.200020
2082.000000	10.181532
2083.000000	10.183907
2084.000000	10.227961
2085.000000	10.329613
2086.000000	10.132378
2087.000000	10.288146
2088.000000	10.315177
2089.000000	10.248527
2090.000000	10.298279
2091.000000	10.334459
2092.000000	10.278272
2093.000000	10.176004
2094.000000	10.361401
2095.000000	10.353087
2096.000000	10.240292
2097.000000	10.347105
2098.000000	10.463923
2099.000000	10.402215
2100.000000	10.384252
2101.000000	10.401782
2102.000000	10.424776
2103.000000	10.389342
2104.000000	10.539692
2105.000000	10.640644
2106.000000	10.580196
2107.000000	10.476038
2108.000000	10.512074
2109.000000	10.595060
2110.000000	10.532020
2111.000000	10.723935
2112.000000	10.727687
2113.000000	10.641473
2114.000000	10.756888
2115.000000	10.925019
2116.000000	10.863831
2117.000000	10.625166
2118.000000	10.897731
2119.000000	10.806732
2120.000000	10.907956
2121.000000	10.885903
2122.000000	11.001483
2123.000000	11.019308
2124.000000	11.075801
2125.000000	10.817992
2126.000000	10.820433
2127.000000	11.125557
2128.000000	11.022027
2129.000000	10.890338
2130.000000	11.113465
2131.000000	10.967582
2132.000000	10.843979
2133.000000	11.039398
2134.000000	10.840869
2135.000000	11.107411
2136.000000	10.840134
2137.000000	11.002968
2138.000000	11.051850
2139.000000	10.928823
2140.000000	10.938026
2141.000000	10.822724
2142.000000	10.721138
2143.000000	10.701275
2144.000000	10.954604
2145.000000	10.664008
2146.000000	10.731523
2147.000000	10.724408
2148.000000	10.569310
2149.000000	10.686231
2150.000000	10.561789
2151.000000	10.594822
2152.000000	10.623661
2153.000000	10.802420
2154.000000	10.566839
2155.000000	10.507069
2156.000000	10.559982
2157.000000	10.312973
2158.000000	10.198032
2159.000000	10.369393
2160.000000	10.331522
2161.000000	10.240706
2162.000000	10.351477
2163.000000	10.304585
2164.000000	10.093830
2165.000000	10.335997
2166.000000	10.173088
2167.000000	10.167698
2168.000000	10.139921
2169.000000	10.087717
2170.000000	9.904538
2171.000000	10.287576
2172.000000	9.991784
2173.000000	10.069946
2174.000000	10.195582
2175.000000	9.992652
2176.000000	9.887507
2177.000000	9.911466
2178.000000	9.907454
2179.000000	10.085897
2180.000000	10.017215
2181.000000	10.115192
2182.000000	9.984375
2183.000000	10.031826
2184.000000	9.994656
2185.000000	10.143518
2186.000000	10.177147
2187.000000	10.019338
2188.000000	10.129857
2189.000000	10.080062
2190.000000	10.033933
2191.000000	10.275403
2192.000000	10.211014
2193.000000	10.099707
2194.000000	10.047874
2195.000000	10.104212
2196.000000	10.216878
2197.000000	10.053494
2198.000000	9.889686
2199.000000	9.949333
2200.000000	10.185207
2201.000000	10.320508
2202.000000	10.306245
2203.000000	10.249255
2204.000000	10.244998
2205.000000	10.148768
2206.000000	10.125682
2207.000000	10.233975
2208.000000	10.233129
2209.000000	10.215884
2210.000000	10.161932
2211.000000	10.255004
2212.000000	10.222839
2213.000000	10.296500
2214.000000	10.377125
2215.000000	10.291472
2216.000000	10.315403
2217.000000	10.298277
2218.000000	10.156938
2219.000000	10.238317
2220.000000	10.333608
2221.000000	10.164702
2222.000000	10.209686
2223.000000	10.381164
2224.000000	10.488572
2225.000000	10.442690
2226.000000	10.383899
2227.000000	10.447253
2228.000000	10.208208
2229.000000	10.284984
2230.000000	10.316439
2231.000000	10.188810
2232.000000	10.250877
2233.000000	10.243442
2234.000000	10.141149
2235.000000	10.168231
2236.000000	10.122808
2237.000000	9.969945
2238.000000	9.914335
2239.000000	9.889470
2240.000000	9.841494
2241.000000	9.878619
2242.000000	9.785126
2243.000000	9.651007
2244.000000	9.672125
2245.000000	9.725395
2246.000000	9.525754
2247.000000	9.359879
2248.000000	9.237242
2249.000000	9.148430
2250.000000	9.137135
2251.000000	8.933559
2252.000000	8.851710
2253.000000	8.811814
2254.000000	8.626892
2255.000000	8.425949
2256.000000	8.261805
2257.000000	8.190846
2258.000000	8.004516
2259.000000	7.974936
2260.000000	8.000110
2261.000000	7.802187
2262.000000	7.665408
2263.000000	7.648044
2264.000000	7.489832
2265.000000	7.435057
2266.000000	7.465560
2267.000000	7.411731
2268.000000	7.390558
2269.000000	7.308453
2270.000000	7.126975
2271.000000	7.112155
2272.000000	7.071200
2273.000000	7.174554
2274.000000	7.284141
2275.000000	7.162905
2276.000000	7.124159
2277.000000	7.344724
2278.000000	7.482585
2279.000000	7.372010
2280.000000	7.272800
2281.000000	7.289222
2282.000000	7.409585
2283.000000	7.553800
2284.000000	7.390695
2285.000000	7.427533
2286.000000	7.478549
2287.000000	7.495444
2288.000000	7.617314
2289.000000	7.540170
2290.000000	7.435307
2291.000000	7.577928
2292.000000	7.694556
2293.000000	7.635005
2294.000000	7.521140
2295.000000	7.488066
2296.000000	7.429360
2297.000000	7.384573
2298.000000	7.174936
2299.000000	7.294818
2300.000000	7.345000
2301.000000	6.997063
2302.000000	7.092146
2303.000000	7.121159
2304.000000	7.174528
2305.000000	7.167965
2306.000000	7.056834
2307.000000	7.042363
2308.000000	6.933752
2309.000000	7.029936
2310.000000	7.250902
2311.000000	7.124729
2312.000000	7.214772
2313.000000	7.502696
2314.000000	7.548061
2315.000000	7.425568
2316.000000	7.501164
2317.000000	7.778975
2318.000000	7.598540
2319.000000	7.780597
2320.000000	7.861383
2321.000000	7.909673
2322.000000	7.746538
2323.000000	7.917749
2324.000000	8.142721
2325.000000	8.322895
2326.000000	8.109924
2327.000000	8.039438
2328.000000	8.087524
2329.000000	8.107707
2330.000000	8.345953
2331.000000	8.515592
2332.000000	8.318430
2333.000000	8.138114
2334.000000	8.495978
2335.000000	8.288641
2336.000000	8.287711
2337.000000	8.350325
2338.000000	8.392803
2339.000000	8.782975
2340.000000	8.528864
2341.000000	8.463646
2342.000000	8.300959
2343.000000	8.486753
2344.000000	8.560752
2345.000000	8.212630
2346.000000	8.290635
2347.000000	8.659731
2348.000000	8.208044
2349.000000	8.103080
2350.000000	8.639409
2351.000000	8.092088
2352.000000	8.527096
2353.000000	8.483189
2354.000000	8.425732
2355.000000	8.282275
2356.000000	8.480377
2357.000000	8.565059
2358.000000	8.606255
2359.000000	8.876979
2360.000000	8.705928
2361.000000	8.712640
2362.000000	8.835501
2363.000000	8.879706
2364.000000	8.533621
2365.000000	8.740895
2366.000000	9.057156
2367.000000	8.301297
2368.000000	8.597373
2369.000000	8.917728
2370.000000	9.115599
2371.000000	8.873233
2372.000000	9.024519
2373.000000	9.294374
2374.000000	9.115208
2375.000000	8.995458
2376.000000	9.042386
2377.000000	9.356916
2378.000000	9.221643
2379.000000	9.159081
2380.000000	9.131178
2381.000000	9.096523
2382.000000	9.459686
2383.000000	9.345990
2384.000000	9.287121
2385.000000	9.642267
2386.000000	9.371713
2387.000000	9.527236
2388.000000	9.814636
2389.000000	9.196106
2390.000000	9.597640
2391.000000	9.168970
2392.000000	9.340063
2393.000000	9.581667
2394.000000	9.284762
2395.000000	9.038828
2396.000000	9.440001
2397.000000	8.988974
2398.000000	9.540934
2399.000000	9.100914
2400.000000	9.315185
2401.000000	8.261784
2402.000000	8.249771
2403.000000	8.241797
2404.000000	8.223882
2405.000000	8.214873
2406.000000	8.219740
2407.000000	8.200892
2408.000000	8.182873
2409.000000	8.156052
2410.000000	8.175314
2411.000000	8.186394
2412.000000	8.165579
2413.000000	8.148907
2414.000000	8.144868
2415.000000	8.133270
2416.000000	8.120532
2417.000000	8.137619
2418.000000	8.126746
2419.000000	8.107691
2420.000000	8.100131
2421.000000	8.090293
2422.000000	8.079731
2423.000000	8.084287
2424.000000	8.076003
2425.000000	8.054670
2426.000000	8.040172
2427.000000	8.008483
2428.000000	7.983526
2429.000000	7.949559
2430.000000	7.923774
2431.000000	7.892707
2432.000000	7.869924
2433.000000	7.835025
2434.000000	7.798987
2435.000000	7.764192
2436.000000	7.745034
2437.000000	7.706822
2438.000000	7.653697
2439.000000	7.614138
2440.000000	7.597776
2441.000000	7.541130
2442.000000	7.485106
2443.000000	7.434259
2444.000000	7.394183
2445.000000	7.335155
2446.000000	7.276749
2447.000000	7.240297
2448.000000	7.222382
2449.000000	7.173088
2450.000000	7.119135
2451.000000	7.064353
2452.000000	7.024795
2453.000000	6.988032
2454.000000	6.939567
2455.000000	6.911089
2456.000000	6.876604
2457.000000	6.831350
2458.000000	6.786303
2459.000000	6.767870
2460.000000	6.754407
2461.000000	6.720440
2462.000000	6.686784
2463.000000	6.660584
2464.000000	6.639252
2465.000000	6.644533
2466.000000	6.635627
2467.000000	6.648468
2468.000000	6.639148
2469.000000	6.639045
2470.000000	6.650643
2471.000000	6.683263
2472.000000	6.634799
2473.000000	6.664416
2474.000000	6.673529
2475.000000	6.653232
2476.000000	6.671044
2477.000000	6.624650
2478.000000	6.670629
2479.000000	6.644119
2480.000000	6.661827
2481.000000	6.728621
2482.000000	6.744776
2483.000000	6.763313
2484.000000	6.700350
2485.000000	6.712466
2486.000000	6.728829
2487.000000	6.679535
2488.000000	6.757514
2489.000000	6.774497
2490.000000	6.762485
2491.000000	6.851337
2492.000000	6.818716
2493.000000	6.849680
2494.000000	6.839738
2495.000000	6.937703
2496.000000	6.942881
2497.000000	6.886339
2498.000000	6.959864
2499.000000	6.973534
2500.000000	6.988343
