PE UV       SUBTECH     SPECTRUM    ASCII       PEDS        4.00        
   -1
CICIMAUCR0018-7.Sample.ASC
24/04/25
15:44:01.00
24/04/25
15:44:01.00
Vinicio Soto Monge
C. cupreomarginata
250,000000
1
Lambda 1050
1050L1511233
PerkinElmer UV WinLab 6.3.2.0749 / 2.02.05 Lambda 900 UV/VIS/NIR, Aug  7 2015 09:38:08

0
0
3350/servo 860,8/2
0
0
UV/VIS
1
1
1
DoubleDePol,CommonBeamDepol,RBeamAtt,SBeamAtt,60mm sphere, WB InGaAs Detector
0
0
0
0
Program
Program
3350/servo 860,8/2
3350/0,2 860,8/0,2
3350/0,2 860,8/0,2
0
15.00
 
 
 
0
 
860,8
319,2
860,8
Front
100
on
S:100 R:100
0
0
0
0
 
0
 
 
 
0
 
 
0
0
0
0
0
 
 
 
 
0
0


0
0
#HDR
-1
-1
#GR
nm
%R
1.0
0.0
2500,000000
-1,000000
2251
8
71,516000
5,467700
#DATA
250.000000	6.522400
251.000000	6.509100
252.000000	6.472900
253.000000	6.470850
254.000000	6.405500
255.000000	6.401075
256.000000	6.396950
257.000000	6.394150
258.000000	6.375200
259.000000	6.313325
260.000000	6.301100
261.000000	6.302200
262.000000	6.276875
263.000000	6.203475
264.000000	6.158950
265.000000	6.152375
266.000000	6.130175
267.000000	6.087175
268.000000	6.062650
269.000000	6.029025
270.000000	6.039425
271.000000	6.007875
272.000000	5.951275
273.000000	5.955450
274.000000	5.970050
275.000000	5.904000
276.000000	5.932200
277.000000	5.911150
278.000000	5.900825
279.000000	5.900200
280.000000	5.878850
281.000000	5.846750
282.000000	5.837750
283.000000	5.834950
284.000000	5.848050
285.000000	5.846700
286.000000	5.820275
287.000000	5.811275
288.000000	5.832825
289.000000	5.815375
290.000000	5.789875
291.000000	5.827625
292.000000	5.783025
293.000000	5.753800
294.000000	5.758875
295.000000	5.800925
296.000000	5.776975
297.000000	5.752350
298.000000	5.748450
299.000000	5.748525
300.000000	5.752050
301.000000	5.721725
302.000000	5.712800
303.000000	5.743850
304.000000	5.733000
305.000000	5.752400
306.000000	5.718850
307.000000	5.708050
308.000000	5.716250
309.000000	5.705500
310.000000	5.691175
311.000000	5.692700
312.000000	5.681100
313.000000	5.688350
314.000000	5.651300
315.000000	5.686575
316.000000	5.769125
317.000000	6.751925
318.000000	6.328775
319.000000	6.481700
320.000000	6.581550
321.000000	6.285400
322.000000	6.225775
323.000000	6.333675
324.000000	6.356675
325.000000	6.085175
326.000000	6.080900
327.000000	5.973000
328.000000	5.852400
329.000000	5.922475
330.000000	5.894725
331.000000	5.750900
332.000000	5.895700
333.000000	5.806575
334.000000	5.875825
335.000000	5.809950
336.000000	5.811325
337.000000	5.795700
338.000000	5.778100
339.000000	5.746575
340.000000	5.787700
341.000000	5.749000
342.000000	5.885000
343.000000	5.750700
344.000000	5.791050
345.000000	5.835975
346.000000	5.737375
347.000000	5.724850
348.000000	5.836300
349.000000	5.717950
350.000000	5.744675
351.000000	5.779725
352.000000	5.821675
353.000000	5.773275
354.000000	5.773800
355.000000	5.763725
356.000000	5.784525
357.000000	5.813225
358.000000	5.807425
359.000000	5.849250
360.000000	5.799125
361.000000	5.818375
362.000000	5.808225
363.000000	5.759950
364.000000	5.827400
365.000000	5.781175
366.000000	5.749500
367.000000	5.890675
368.000000	5.906850
369.000000	5.884400
370.000000	5.799850
371.000000	5.822475
372.000000	5.851850
373.000000	5.761475
374.000000	5.616850
375.000000	5.848975
376.000000	6.259450
377.000000	6.285500
378.000000	6.339525
379.000000	6.397125
380.000000	6.464350
381.000000	6.527575
382.000000	6.603475
383.000000	6.693700
384.000000	6.788625
385.000000	6.892275
386.000000	7.002175
387.000000	7.130675
388.000000	7.258450
389.000000	7.387725
390.000000	7.547825
391.000000	7.698325
392.000000	7.872400
393.000000	8.054975
394.000000	8.254225
395.000000	8.446850
396.000000	8.650225
397.000000	8.857600
398.000000	9.077925
399.000000	9.308250
400.000000	9.536250
401.000000	9.767025
402.000000	10.008550
403.000000	10.247400
404.000000	10.499675
405.000000	10.745825
406.000000	10.981225
407.000000	11.220000
408.000000	11.449525
409.000000	11.687475
410.000000	11.935600
411.000000	12.158000
412.000000	12.377150
413.000000	12.592600
414.000000	12.804250
415.000000	13.012125
416.000000	13.207550
417.000000	13.394525
418.000000	13.577075
419.000000	13.757550
420.000000	13.929900
421.000000	14.098150
422.000000	14.264700
423.000000	14.422600
424.000000	14.566750
425.000000	14.708450
426.000000	14.844825
427.000000	14.988475
428.000000	15.126125
429.000000	15.247375
430.000000	15.370025
431.000000	15.487650
432.000000	15.607150
433.000000	15.717475
434.000000	15.813050
435.000000	15.906575
436.000000	15.991600
437.000000	16.070200
438.000000	16.148500
439.000000	16.225675
440.000000	16.284225
441.000000	16.333850
442.000000	16.371375
443.000000	16.382500
444.000000	16.387475
445.000000	16.383200
446.000000	16.366100
447.000000	16.342525
448.000000	16.301175
449.000000	16.262275
450.000000	16.225925
451.000000	16.174200
452.000000	16.131025
453.000000	16.088400
454.000000	16.060700
455.000000	16.041625
456.000000	16.026275
457.000000	16.031850
458.000000	16.044625
459.000000	16.082000
460.000000	16.136450
461.000000	16.211750
462.000000	16.319800
463.000000	16.440350
464.000000	16.584450
465.000000	16.766000
466.000000	16.965700
467.000000	17.183975
468.000000	17.424725
469.000000	17.695975
470.000000	17.997950
471.000000	18.321925
472.000000	18.667150
473.000000	19.025000
474.000000	19.399400
475.000000	19.778150
476.000000	20.159575
477.000000	20.549225
478.000000	20.930750
479.000000	21.300925
480.000000	21.663950
481.000000	22.018750
482.000000	22.360900
483.000000	22.683950
484.000000	22.995200
485.000000	23.269125
486.000000	23.539150
487.000000	23.807025
488.000000	24.064400
489.000000	24.321275
490.000000	24.591925
491.000000	24.868425
492.000000	25.134575
493.000000	25.413650
494.000000	25.712150
495.000000	26.011525
496.000000	26.334875
497.000000	26.674450
498.000000	27.024425
499.000000	27.395975
500.000000	27.782400
501.000000	28.189975
502.000000	28.620325
503.000000	29.069000
504.000000	29.542550
505.000000	30.036875
506.000000	30.540625
507.000000	31.067550
508.000000	31.596775
509.000000	32.169725
510.000000	32.762650
511.000000	33.366475
512.000000	34.000850
513.000000	34.664425
514.000000	35.361075
515.000000	36.045350
516.000000	36.752325
517.000000	37.472375
518.000000	38.208400
519.000000	38.982025
520.000000	39.778475
521.000000	40.609625
522.000000	41.449350
523.000000	42.311425
524.000000	43.198700
525.000000	44.103300
526.000000	45.025550
527.000000	45.974625
528.000000	46.930625
529.000000	47.940750
530.000000	48.974700
531.000000	50.035375
532.000000	51.129525
533.000000	52.238425
534.000000	53.346325
535.000000	54.445350
536.000000	55.538650
537.000000	56.617750
538.000000	57.682550
539.000000	58.740600
540.000000	59.742850
541.000000	60.724575
542.000000	61.669225
543.000000	62.544275
544.000000	63.368550
545.000000	64.142050
546.000000	64.830925
547.000000	65.477375
548.000000	66.039500
549.000000	66.558125
550.000000	67.020100
551.000000	67.440450
552.000000	67.805000
553.000000	68.144100
554.000000	68.452000
555.000000	68.722625
556.000000	68.975850
557.000000	69.234650
558.000000	69.432875
559.000000	69.625100
560.000000	69.855275
561.000000	70.024175
562.000000	70.187750
563.000000	70.332200
564.000000	70.433675
565.000000	70.529800
566.000000	70.581850
567.000000	70.633525
568.000000	70.653450
569.000000	70.669425
570.000000	70.666375
571.000000	70.629950
572.000000	70.591400
573.000000	70.578550
574.000000	70.534100
575.000000	70.469300
576.000000	70.424575
577.000000	70.376900
578.000000	70.332825
579.000000	70.325475
580.000000	70.283025
581.000000	70.246200
582.000000	70.217400
583.000000	70.159525
584.000000	70.122175
585.000000	70.044425
586.000000	69.981925
587.000000	69.909675
588.000000	69.781775
589.000000	69.633775
590.000000	69.464875
591.000000	69.286450
592.000000	69.061925
593.000000	68.827575
594.000000	68.599700
595.000000	68.316475
596.000000	68.073450
597.000000	67.807500
598.000000	67.523900
599.000000	67.257525
600.000000	66.972250
601.000000	66.660125
602.000000	66.355650
603.000000	66.023875
604.000000	65.711200
605.000000	65.344075
606.000000	65.011275
607.000000	64.606925
608.000000	64.208000
609.000000	63.783975
610.000000	63.290500
611.000000	62.761175
612.000000	62.198775
613.000000	61.587250
614.000000	60.945775
615.000000	60.265025
616.000000	59.581350
617.000000	58.843675
618.000000	58.086875
619.000000	57.315600
620.000000	56.558400
621.000000	55.785275
622.000000	54.989250
623.000000	54.242775
624.000000	53.500475
625.000000	52.797550
626.000000	52.110850
627.000000	51.464675
628.000000	50.847750
629.000000	50.273800
630.000000	49.760650
631.000000	49.276725
632.000000	48.877050
633.000000	48.520675
634.000000	48.212375
635.000000	48.001600
636.000000	47.847100
637.000000	47.744450
638.000000	47.722950
639.000000	47.779300
640.000000	47.878600
641.000000	48.058500
642.000000	48.262975
643.000000	48.543975
644.000000	48.868000
645.000000	49.224250
646.000000	49.621875
647.000000	50.040650
648.000000	50.448900
649.000000	50.880075
650.000000	51.314575
651.000000	51.725525
652.000000	52.115700
653.000000	52.471325
654.000000	52.797125
655.000000	53.104225
656.000000	53.377000
657.000000	53.608700
658.000000	53.827075
659.000000	54.006850
660.000000	54.190050
661.000000	54.283600
662.000000	54.401475
663.000000	54.505650
664.000000	54.589275
665.000000	54.647600
666.000000	54.689600
667.000000	54.734075
668.000000	54.794375
669.000000	54.813250
670.000000	54.818525
671.000000	54.833950
672.000000	54.838825
673.000000	54.820000
674.000000	54.811750
675.000000	54.773225
676.000000	54.765150
677.000000	54.710575
678.000000	54.656275
679.000000	54.617150
680.000000	54.590375
681.000000	54.524150
682.000000	54.497500
683.000000	54.467900
684.000000	54.428625
685.000000	54.405900
686.000000	54.447625
687.000000	54.461450
688.000000	54.504500
689.000000	54.562425
690.000000	54.628275
691.000000	54.702625
692.000000	54.767025
693.000000	54.885300
694.000000	55.001375
695.000000	55.136000
696.000000	55.230975
697.000000	55.347775
698.000000	55.465125
699.000000	55.592225
700.000000	55.737425
701.000000	55.852225
702.000000	55.992025
703.000000	56.119625
704.000000	56.238650
705.000000	56.371725
706.000000	56.518200
707.000000	56.667350
708.000000	56.830925
709.000000	56.960625
710.000000	57.083750
711.000000	57.238100
712.000000	57.404675
713.000000	57.540125
714.000000	57.682275
715.000000	57.839550
716.000000	57.995025
717.000000	58.121950
718.000000	58.228850
719.000000	58.377550
720.000000	58.507650
721.000000	58.627150
722.000000	58.763800
723.000000	58.884675
724.000000	58.988825
725.000000	59.103325
726.000000	59.195225
727.000000	59.277100
728.000000	59.348400
729.000000	59.405575
730.000000	59.493975
731.000000	59.578550
732.000000	59.684225
733.000000	59.776275
734.000000	59.851350
735.000000	59.924900
736.000000	60.021825
737.000000	60.123075
738.000000	60.189075
739.000000	60.237875
740.000000	60.321100
741.000000	60.396225
742.000000	60.433750
743.000000	60.480300
744.000000	60.545575
745.000000	60.595000
746.000000	60.629500
747.000000	60.655800
748.000000	60.705975
749.000000	60.762125
750.000000	60.796625
751.000000	60.815125
752.000000	60.847375
753.000000	60.896525
754.000000	60.962975
755.000000	61.031825
756.000000	61.110250
757.000000	61.165850
758.000000	61.223775
759.000000	61.290275
760.000000	61.350200
761.000000	61.439775
762.000000	61.484925
763.000000	61.537075
764.000000	61.626050
765.000000	61.725125
766.000000	61.803300
767.000000	61.870275
768.000000	61.960125
769.000000	62.080400
770.000000	62.156725
771.000000	62.217675
772.000000	62.333625
773.000000	62.456400
774.000000	62.566925
775.000000	62.668750
776.000000	62.757675
777.000000	62.899300
778.000000	63.028050
779.000000	63.129350
780.000000	63.246300
781.000000	63.363725
782.000000	63.487775
783.000000	63.661300
784.000000	63.782950
785.000000	63.882000
786.000000	63.997125
787.000000	64.135150
788.000000	64.251050
789.000000	64.385000
790.000000	64.520350
791.000000	64.637025
792.000000	64.770150
793.000000	64.960125
794.000000	65.069575
795.000000	65.161575
796.000000	65.266050
797.000000	65.418475
798.000000	65.545425
799.000000	65.683175
800.000000	65.842900
801.000000	65.912575
802.000000	66.012975
803.000000	66.155925
804.000000	66.279225
805.000000	66.322300
806.000000	66.458250
807.000000	66.565100
808.000000	66.643450
809.000000	66.725000
810.000000	66.801500
811.000000	67.001125
812.000000	67.061375
813.000000	67.084350
814.000000	67.151500
815.000000	67.185450
816.000000	67.321975
817.000000	67.463150
818.000000	67.437600
819.000000	67.456250
820.000000	67.571325
821.000000	67.561225
822.000000	67.626725
823.000000	67.647400
824.000000	67.728475
825.000000	67.826625
826.000000	67.820350
827.000000	67.838975
828.000000	67.817925
829.000000	67.844350
830.000000	67.921250
831.000000	67.981375
832.000000	68.043200
833.000000	68.075575
834.000000	68.095825
835.000000	68.100550
836.000000	68.053275
837.000000	68.194475
838.000000	68.085900
839.000000	68.204025
840.000000	68.258900
841.000000	68.196950
842.000000	68.192100
843.000000	68.263600
844.000000	68.285700
845.000000	68.317150
846.000000	68.253650
847.000000	68.221375
848.000000	68.060800
849.000000	68.240875
850.000000	68.049650
851.000000	67.966250
852.000000	68.026075
853.000000	67.775375
854.000000	67.737125
855.000000	67.849900
856.000000	67.816050
857.000000	68.106100
858.000000	67.924017
859.000000	66.201099
860.000000	66.140733
861.000000	66.086945
862.000000	66.037091
863.000000	65.968765
864.000000	65.887799
865.000000	65.818134
866.000000	65.842733
867.000000	66.063596
868.000000	66.425128
869.000000	66.839917
870.000000	67.297781
871.000000	67.746397
872.000000	68.174318
873.000000	68.516554
874.000000	68.818512
875.000000	69.135421
876.000000	69.400688
877.000000	69.626933
878.000000	69.845567
879.000000	70.062899
880.000000	70.255917
881.000000	70.406211
882.000000	70.571650
883.000000	70.713008
884.000000	70.832807
885.000000	70.985999
886.000000	71.108545
887.000000	71.204470
888.000000	71.251334
889.000000	71.302322
890.000000	71.345448
891.000000	71.389948
892.000000	71.384448
893.000000	71.410595
894.000000	71.421432
895.000000	71.382609
896.000000	71.339579
897.000000	71.292654
898.000000	71.243984
899.000000	71.180009
900.000000	71.103061
901.000000	71.067650
902.000000	71.007076
903.000000	70.913476
904.000000	70.821537
905.000000	70.724761
906.000000	70.635665
907.000000	70.544212
908.000000	70.479731
909.000000	70.399827
910.000000	70.352176
911.000000	70.264642
912.000000	70.213680
913.000000	70.147216
914.000000	70.086490
915.000000	70.036628
916.000000	69.990540
917.000000	69.943259
918.000000	69.903920
919.000000	69.848096
920.000000	69.789819
921.000000	69.738723
922.000000	69.691552
923.000000	69.599218
924.000000	69.538834
925.000000	69.478654
926.000000	69.418790
927.000000	69.350213
928.000000	69.304344
929.000000	69.213423
930.000000	69.150257
931.000000	69.077656
932.000000	68.988788
933.000000	68.930613
934.000000	68.867628
935.000000	68.802516
936.000000	68.707690
937.000000	68.632415
938.000000	68.574325
939.000000	68.513034
940.000000	68.454395
941.000000	68.396646
942.000000	68.322772
943.000000	68.263186
944.000000	68.193364
945.000000	68.120390
946.000000	68.057422
947.000000	67.976754
948.000000	67.876663
949.000000	67.805499
950.000000	67.714821
951.000000	67.637459
952.000000	67.535318
953.000000	67.432463
954.000000	67.338808
955.000000	67.243400
956.000000	67.137481
957.000000	67.028703
958.000000	66.915778
959.000000	66.808718
960.000000	66.686348
961.000000	66.558402
962.000000	66.453353
963.000000	66.337758
964.000000	66.224877
965.000000	66.109981
966.000000	65.986048
967.000000	65.890374
968.000000	65.790050
969.000000	65.682054
970.000000	65.583390
971.000000	65.472486
972.000000	65.377361
973.000000	65.279184
974.000000	65.177063
975.000000	65.082528
976.000000	64.997331
977.000000	64.907551
978.000000	64.815646
979.000000	64.741495
980.000000	64.650886
981.000000	64.576057
982.000000	64.502130
983.000000	64.421143
984.000000	64.349256
985.000000	64.280426
986.000000	64.208392
987.000000	64.147944
988.000000	64.087058
989.000000	64.024626
990.000000	63.972018
991.000000	63.917519
992.000000	63.869894
993.000000	63.821660
994.000000	63.780243
995.000000	63.735526
996.000000	63.697062
997.000000	63.653464
998.000000	63.617159
999.000000	63.592152
1000.000000	63.559309
1001.000000	63.514664
1002.000000	63.482950
1003.000000	63.452804
1004.000000	63.420522
1005.000000	63.391240
1006.000000	63.353359
1007.000000	63.313434
1008.000000	63.282848
1009.000000	63.243096
1010.000000	63.206954
1011.000000	63.175110
1012.000000	63.143989
1013.000000	63.115907
1014.000000	63.094197
1015.000000	63.080616
1016.000000	63.071123
1017.000000	63.064667
1018.000000	63.067257
1019.000000	63.074765
1020.000000	63.082284
1021.000000	63.099158
1022.000000	63.108301
1023.000000	63.117339
1024.000000	63.125114
1025.000000	63.134194
1026.000000	63.159841
1027.000000	63.173856
1028.000000	63.175246
1029.000000	63.187064
1030.000000	63.195700
1031.000000	63.194181
1032.000000	63.192625
1033.000000	63.193247
1034.000000	63.203320
1035.000000	63.204729
1036.000000	63.198893
1037.000000	63.198003
1038.000000	63.195143
1039.000000	63.187476
1040.000000	63.180725
1041.000000	63.174457
1042.000000	63.169305
1043.000000	63.158859
1044.000000	63.147864
1045.000000	63.153123
1046.000000	63.149603
1047.000000	63.143440
1048.000000	63.146154
1049.000000	63.152156
1050.000000	63.158788
1051.000000	63.156331
1052.000000	63.165566
1053.000000	63.179319
1054.000000	63.199463
1055.000000	63.226401
1056.000000	63.241887
1057.000000	63.262668
1058.000000	63.293431
1059.000000	63.325454
1060.000000	63.351529
1061.000000	63.384231
1062.000000	63.406960
1063.000000	63.440179
1064.000000	63.472617
1065.000000	63.496363
1066.000000	63.525233
1067.000000	63.548943
1068.000000	63.574842
1069.000000	63.613732
1070.000000	63.636546
1071.000000	63.667212
1072.000000	63.702288
1073.000000	63.736987
1074.000000	63.772038
1075.000000	63.800798
1076.000000	63.837215
1077.000000	63.870450
1078.000000	63.906118
1079.000000	63.936212
1080.000000	63.965375
1081.000000	64.001470
1082.000000	64.046864
1083.000000	64.081302
1084.000000	64.112616
1085.000000	64.157025
1086.000000	64.196262
1087.000000	64.234067
1088.000000	64.270202
1089.000000	64.302681
1090.000000	64.332781
1091.000000	64.366073
1092.000000	64.402684
1093.000000	64.427085
1094.000000	64.456872
1095.000000	64.473802
1096.000000	64.495696
1097.000000	64.519469
1098.000000	64.541346
1099.000000	64.565419
1100.000000	64.575426
1101.000000	64.594262
1102.000000	64.607317
1103.000000	64.609305
1104.000000	64.615557
1105.000000	64.626430
1106.000000	64.625252
1107.000000	64.629457
1108.000000	64.624682
1109.000000	64.632452
1110.000000	64.630817
1111.000000	64.631110
1112.000000	64.633778
1113.000000	64.633700
1114.000000	64.632738
1115.000000	64.633787
1116.000000	64.631790
1117.000000	64.633621
1118.000000	64.620779
1119.000000	64.608531
1120.000000	64.574894
1121.000000	64.546144
1122.000000	64.507479
1123.000000	64.453988
1124.000000	64.388742
1125.000000	64.309426
1126.000000	64.222598
1127.000000	64.129192
1128.000000	64.013408
1129.000000	63.880454
1130.000000	63.698667
1131.000000	63.487089
1132.000000	63.252736
1133.000000	63.013544
1134.000000	62.761834
1135.000000	62.468090
1136.000000	62.123351
1137.000000	61.766616
1138.000000	61.403072
1139.000000	61.059698
1140.000000	60.731549
1141.000000	60.418745
1142.000000	60.097688
1143.000000	59.790209
1144.000000	59.506376
1145.000000	59.241838
1146.000000	59.033106
1147.000000	58.893182
1148.000000	58.796044
1149.000000	58.748379
1150.000000	58.729554
1151.000000	58.711996
1152.000000	58.685908
1153.000000	58.653589
1154.000000	58.572802
1155.000000	58.451608
1156.000000	58.266892
1157.000000	58.058813
1158.000000	57.793566
1159.000000	57.493738
1160.000000	57.162753
1161.000000	56.839229
1162.000000	56.470552
1163.000000	56.120661
1164.000000	55.744526
1165.000000	55.365195
1166.000000	54.994269
1167.000000	54.613737
1168.000000	54.252308
1169.000000	53.897950
1170.000000	53.536099
1171.000000	53.175352
1172.000000	52.821542
1173.000000	52.475830
1174.000000	52.142416
1175.000000	51.833567
1176.000000	51.506668
1177.000000	51.172307
1178.000000	50.815130
1179.000000	50.382505
1180.000000	49.914893
1181.000000	49.397060
1182.000000	48.870999
1183.000000	48.384235
1184.000000	47.957712
1185.000000	47.667896
1186.000000	47.504264
1187.000000	47.472721
1188.000000	47.555811
1189.000000	47.786926
1190.000000	48.118391
1191.000000	48.536414
1192.000000	48.982611
1193.000000	49.433780
1194.000000	49.828761
1195.000000	50.182849
1196.000000	50.451625
1197.000000	50.678260
1198.000000	50.839232
1199.000000	50.964678
1200.000000	51.056009
1201.000000	51.115919
1202.000000	51.159132
1203.000000	51.189242
1204.000000	51.224514
1205.000000	51.252511
1206.000000	51.293878
1207.000000	51.340635
1208.000000	51.418718
1209.000000	51.496795
1210.000000	51.593533
1211.000000	51.702718
1212.000000	51.815222
1213.000000	51.931697
1214.000000	52.046590
1215.000000	52.174673
1216.000000	52.312688
1217.000000	52.440700
1218.000000	52.573343
1219.000000	52.726216
1220.000000	52.878244
1221.000000	53.037721
1222.000000	53.195884
1223.000000	53.366209
1224.000000	53.529173
1225.000000	53.705312
1226.000000	53.889512
1227.000000	54.058583
1228.000000	54.227124
1229.000000	54.408039
1230.000000	54.577719
1231.000000	54.745298
1232.000000	54.911764
1233.000000	55.089391
1234.000000	55.245590
1235.000000	55.400094
1236.000000	55.558136
1237.000000	55.718587
1238.000000	55.861359
1239.000000	55.999691
1240.000000	56.141872
1241.000000	56.272969
1242.000000	56.403402
1243.000000	56.545760
1244.000000	56.671666
1245.000000	56.798583
1246.000000	56.905448
1247.000000	57.014410
1248.000000	57.122666
1249.000000	57.210459
1250.000000	57.293186
1251.000000	57.369990
1252.000000	57.447960
1253.000000	57.513245
1254.000000	57.572668
1255.000000	57.622960
1256.000000	57.672949
1257.000000	57.726660
1258.000000	57.774432
1259.000000	57.811212
1260.000000	57.849599
1261.000000	57.889438
1262.000000	57.919460
1263.000000	57.947556
1264.000000	57.982006
1265.000000	58.014314
1266.000000	58.051238
1267.000000	58.085109
1268.000000	58.107632
1269.000000	58.134096
1270.000000	58.162808
1271.000000	58.184624
1272.000000	58.211272
1273.000000	58.233147
1274.000000	58.257627
1275.000000	58.288210
1276.000000	58.318686
1277.000000	58.353781
1278.000000	58.389403
1279.000000	58.432914
1280.000000	58.481180
1281.000000	58.527620
1282.000000	58.572324
1283.000000	58.624611
1284.000000	58.679628
1285.000000	58.733292
1286.000000	58.784036
1287.000000	58.832169
1288.000000	58.871802
1289.000000	58.906383
1290.000000	58.934922
1291.000000	58.959698
1292.000000	58.988151
1293.000000	59.006680
1294.000000	59.022385
1295.000000	59.033304
1296.000000	59.027933
1297.000000	59.030318
1298.000000	59.033295
1299.000000	59.030461
1300.000000	59.022437
1301.000000	59.010183
1302.000000	59.004248
1303.000000	58.995261
1304.000000	58.976870
1305.000000	58.958435
1306.000000	58.935244
1307.000000	58.905938
1308.000000	58.873400
1309.000000	58.835280
1310.000000	58.785726
1311.000000	58.735468
1312.000000	58.681162
1313.000000	58.619226
1314.000000	58.549979
1315.000000	58.474057
1316.000000	58.397574
1317.000000	58.325752
1318.000000	58.244703
1319.000000	58.154194
1320.000000	58.069756
1321.000000	57.978492
1322.000000	57.880170
1323.000000	57.785317
1324.000000	57.684088
1325.000000	57.568829
1326.000000	57.448166
1327.000000	57.329260
1328.000000	57.205167
1329.000000	57.071517
1330.000000	56.928044
1331.000000	56.778014
1332.000000	56.616222
1333.000000	56.441705
1334.000000	56.262349
1335.000000	56.077781
1336.000000	55.883086
1337.000000	55.679811
1338.000000	55.462327
1339.000000	55.232300
1340.000000	54.999141
1341.000000	54.748527
1342.000000	54.481853
1343.000000	54.212392
1344.000000	53.933276
1345.000000	53.625394
1346.000000	53.304628
1347.000000	52.978293
1348.000000	52.639440
1349.000000	52.262319
1350.000000	51.851677
1351.000000	51.405047
1352.000000	50.905358
1353.000000	50.360627
1354.000000	49.861376
1355.000000	49.405048
1356.000000	48.971213
1357.000000	48.629187
1358.000000	48.416794
1359.000000	48.284825
1360.000000	48.188506
1361.000000	48.162790
1362.000000	48.076662
1363.000000	47.928601
1364.000000	47.750437
1365.000000	47.582683
1366.000000	47.376729
1367.000000	47.167558
1368.000000	46.937033
1369.000000	46.656669
1370.000000	46.338588
1371.000000	46.025075
1372.000000	45.677946
1373.000000	45.296389
1374.000000	44.952371
1375.000000	44.647295
1376.000000	44.421940
1377.000000	44.254758
1378.000000	44.123855
1379.000000	44.019709
1380.000000	43.904252
1381.000000	43.767665
1382.000000	43.545936
1383.000000	43.212956
1384.000000	42.787549
1385.000000	42.332417
1386.000000	41.879106
1387.000000	41.474640
1388.000000	41.122211
1389.000000	40.776837
1390.000000	40.436603
1391.000000	40.186195
1392.000000	39.971069
1393.000000	39.739209
1394.000000	39.531707
1395.000000	39.360621
1396.000000	39.164853
1397.000000	38.877579
1398.000000	38.578035
1399.000000	38.316698
1400.000000	38.094537
1401.000000	37.753861
1402.000000	37.351753
1403.000000	36.912722
1404.000000	36.528199
1405.000000	36.136707
1406.000000	35.736455
1407.000000	35.312650
1408.000000	34.930841
1409.000000	34.534912
1410.000000	34.178752
1411.000000	33.799207
1412.000000	33.452328
1413.000000	33.189492
1414.000000	32.951241
1415.000000	32.702674
1416.000000	32.388461
1417.000000	32.093032
1418.000000	31.848530
1419.000000	31.614075
1420.000000	31.357795
1421.000000	31.076768
1422.000000	30.801296
1423.000000	30.556378
1424.000000	30.326736
1425.000000	30.070946
1426.000000	29.840399
1427.000000	29.594548
1428.000000	29.394934
1429.000000	29.195973
1430.000000	28.988093
1431.000000	28.813394
1432.000000	28.665986
1433.000000	28.524078
1434.000000	28.347829
1435.000000	28.197335
1436.000000	28.040471
1437.000000	27.907435
1438.000000	27.776860
1439.000000	27.638532
1440.000000	27.501716
1441.000000	27.360609
1442.000000	27.229118
1443.000000	27.088131
1444.000000	26.945820
1445.000000	26.829354
1446.000000	26.722565
1447.000000	26.591411
1448.000000	26.454400
1449.000000	26.308930
1450.000000	26.213815
1451.000000	26.116480
1452.000000	26.008747
1453.000000	25.904142
1454.000000	25.786625
1455.000000	25.695816
1456.000000	25.604940
1457.000000	25.504780
1458.000000	25.413640
1459.000000	25.325907
1460.000000	25.253643
1461.000000	25.193759
1462.000000	25.125028
1463.000000	25.044757
1464.000000	24.969818
1465.000000	24.919875
1466.000000	24.896475
1467.000000	24.853605
1468.000000	24.806890
1469.000000	24.774424
1470.000000	24.756932
1471.000000	24.734751
1472.000000	24.721685
1473.000000	24.698531
1474.000000	24.666243
1475.000000	24.635744
1476.000000	24.603341
1477.000000	24.583247
1478.000000	24.572544
1479.000000	24.558241
1480.000000	24.538881
1481.000000	24.524966
1482.000000	24.527969
1483.000000	24.507253
1484.000000	24.503076
1485.000000	24.499321
1486.000000	24.505391
1487.000000	24.514028
1488.000000	24.513755
1489.000000	24.516591
1490.000000	24.530272
1491.000000	24.534493
1492.000000	24.542207
1493.000000	24.540536
1494.000000	24.557150
1495.000000	24.575650
1496.000000	24.591311
1497.000000	24.609319
1498.000000	24.624743
1499.000000	24.654061
1500.000000	24.683990
1501.000000	24.714133
1502.000000	24.741656
1503.000000	24.773020
1504.000000	24.811685
1505.000000	24.842817
1506.000000	24.885758
1507.000000	24.918629
1508.000000	24.963607
1509.000000	25.005029
1510.000000	25.040632
1511.000000	25.078270
1512.000000	25.112852
1513.000000	25.153633
1514.000000	25.188961
1515.000000	25.222717
1516.000000	25.264149
1517.000000	25.288709
1518.000000	25.318601
1519.000000	25.357628
1520.000000	25.386457
1521.000000	25.419627
1522.000000	25.454518
1523.000000	25.482275
1524.000000	25.508282
1525.000000	25.535205
1526.000000	25.560369
1527.000000	25.581995
1528.000000	25.610961
1529.000000	25.636522
1530.000000	25.654160
1531.000000	25.672806
1532.000000	25.683062
1533.000000	25.702754
1534.000000	25.713668
1535.000000	25.722662
1536.000000	25.739060
1537.000000	25.742921
1538.000000	25.736220
1539.000000	25.743756
1540.000000	25.747438
1541.000000	25.746907
1542.000000	25.752839
1543.000000	25.753277
1544.000000	25.754649
1545.000000	25.760953
1546.000000	25.770456
1547.000000	25.774316
1548.000000	25.778642
1549.000000	25.792713
1550.000000	25.804992
1551.000000	25.808876
1552.000000	25.815180
1553.000000	25.824329
1554.000000	25.825013
1555.000000	25.822768
1556.000000	25.817268
1557.000000	25.813495
1558.000000	25.807546
1559.000000	25.790907
1560.000000	25.774691
1561.000000	25.758456
1562.000000	25.730452
1563.000000	25.701410
1564.000000	25.683113
1565.000000	25.654098
1566.000000	25.623306
1567.000000	25.601961
1568.000000	25.573696
1569.000000	25.544722
1570.000000	25.513983
1571.000000	25.494381
1572.000000	25.478260
1573.000000	25.460396
1574.000000	25.446224
1575.000000	25.427251
1576.000000	25.419902
1577.000000	25.414102
1578.000000	25.419276
1579.000000	25.432589
1580.000000	25.431163
1581.000000	25.442662
1582.000000	25.466028
1583.000000	25.486971
1584.000000	25.517824
1585.000000	25.549077
1586.000000	25.574186
1587.000000	25.608857
1588.000000	25.639758
1589.000000	25.675632
1590.000000	25.715812
1591.000000	25.765006
1592.000000	25.808068
1593.000000	25.849568
1594.000000	25.901152
1595.000000	25.952987
1596.000000	26.010058
1597.000000	26.061485
1598.000000	26.125060
1599.000000	26.198359
1600.000000	26.260904
1601.000000	26.331696
1602.000000	26.400587
1603.000000	26.466669
1604.000000	26.543901
1605.000000	26.620146
1606.000000	26.695016
1607.000000	26.771628
1608.000000	26.845905
1609.000000	26.916853
1610.000000	26.996446
1611.000000	27.068155
1612.000000	27.136637
1613.000000	27.209875
1614.000000	27.284801
1615.000000	27.376940
1616.000000	27.458082
1617.000000	27.541391
1618.000000	27.616722
1619.000000	27.714341
1620.000000	27.797933
1621.000000	27.882043
1622.000000	27.962627
1623.000000	28.051673
1624.000000	28.152332
1625.000000	28.228025
1626.000000	28.319823
1627.000000	28.420377
1628.000000	28.509332
1629.000000	28.603002
1630.000000	28.697428
1631.000000	28.785965
1632.000000	28.866703
1633.000000	28.957530
1634.000000	29.051062
1635.000000	29.132344
1636.000000	29.208754
1637.000000	29.292440
1638.000000	29.368157
1639.000000	29.444234
1640.000000	29.521783
1641.000000	29.590392
1642.000000	29.652260
1643.000000	29.729387
1644.000000	29.790868
1645.000000	29.864124
1646.000000	29.918473
1647.000000	29.981929
1648.000000	30.036893
1649.000000	30.097791
1650.000000	30.150654
1651.000000	30.188058
1652.000000	30.219579
1653.000000	30.246823
1654.000000	30.269029
1655.000000	30.290765
1656.000000	30.295335
1657.000000	30.293829
1658.000000	30.284784
1659.000000	30.269713
1660.000000	30.238432
1661.000000	30.202792
1662.000000	30.155058
1663.000000	30.094433
1664.000000	30.028833
1665.000000	29.945865
1666.000000	29.855973
1667.000000	29.755007
1668.000000	29.621280
1669.000000	29.471767
1670.000000	29.299291
1671.000000	29.093108
1672.000000	28.860411
1673.000000	28.601670
1674.000000	28.304835
1675.000000	27.937434
1676.000000	27.535626
1677.000000	27.080133
1678.000000	26.548389
1679.000000	25.990992
1680.000000	25.409471
1681.000000	24.870990
1682.000000	24.374001
1683.000000	23.998280
1684.000000	23.742023
1685.000000	23.595561
1686.000000	23.548351
1687.000000	23.526951
1688.000000	23.497157
1689.000000	23.435440
1690.000000	23.327858
1691.000000	23.179267
1692.000000	23.012179
1693.000000	22.850513
1694.000000	22.731772
1695.000000	22.646589
1696.000000	22.624048
1697.000000	22.671525
1698.000000	22.773022
1699.000000	22.913824
1700.000000	23.059471
1701.000000	23.225353
1702.000000	23.370774
1703.000000	23.493474
1704.000000	23.586415
1705.000000	23.649393
1706.000000	23.716100
1707.000000	23.749193
1708.000000	23.774631
1709.000000	23.788241
1710.000000	23.796462
1711.000000	23.792318
1712.000000	23.755856
1713.000000	23.710891
1714.000000	23.655291
1715.000000	23.584588
1716.000000	23.505070
1717.000000	23.442345
1718.000000	23.382057
1719.000000	23.334768
1720.000000	23.309763
1721.000000	23.268437
1722.000000	23.258486
1723.000000	23.225462
1724.000000	23.194071
1725.000000	23.136380
1726.000000	23.053641
1727.000000	22.966761
1728.000000	22.845216
1729.000000	22.721025
1730.000000	22.598095
1731.000000	22.493416
1732.000000	22.388929
1733.000000	22.329496
1734.000000	22.305446
1735.000000	22.310452
1736.000000	22.386549
1737.000000	22.501775
1738.000000	22.660522
1739.000000	22.866189
1740.000000	23.093704
1741.000000	23.316909
1742.000000	23.539984
1743.000000	23.756602
1744.000000	23.955242
1745.000000	24.114953
1746.000000	24.253591
1747.000000	24.367191
1748.000000	24.472132
1749.000000	24.560101
1750.000000	24.624759
1751.000000	24.664337
1752.000000	24.710268
1753.000000	24.729481
1754.000000	24.730367
1755.000000	24.714375
1756.000000	24.678618
1757.000000	24.624661
1758.000000	24.573041
1759.000000	24.500307
1760.000000	24.423340
1761.000000	24.357743
1762.000000	24.319949
1763.000000	24.288336
1764.000000	24.295215
1765.000000	24.328496
1766.000000	24.384257
1767.000000	24.471883
1768.000000	24.578707
1769.000000	24.694619
1770.000000	24.822066
1771.000000	24.954276
1772.000000	25.091818
1773.000000	25.233314
1774.000000	25.359780
1775.000000	25.487489
1776.000000	25.619493
1777.000000	25.731917
1778.000000	25.835320
1779.000000	25.931549
1780.000000	26.032624
1781.000000	26.128669
1782.000000	26.205007
1783.000000	26.286771
1784.000000	26.369924
1785.000000	26.450449
1786.000000	26.530237
1787.000000	26.614375
1788.000000	26.685799
1789.000000	26.755371
1790.000000	26.819301
1791.000000	26.873330
1792.000000	26.940275
1793.000000	26.999853
1794.000000	27.051971
1795.000000	27.108739
1796.000000	27.165208
1797.000000	27.211272
1798.000000	27.253063
1799.000000	27.294460
1800.000000	27.351422
1801.000000	27.419443
1802.000000	27.491001
1803.000000	27.542320
1804.000000	27.579104
1805.000000	27.623379
1806.000000	27.684303
1807.000000	27.749574
1808.000000	27.798810
1809.000000	27.831203
1810.000000	27.870778
1811.000000	27.927396
1812.000000	27.968681
1813.000000	27.991778
1814.000000	28.003696
1815.000000	28.015805
1816.000000	28.040337
1817.000000	28.045692
1818.000000	28.049920
1819.000000	28.072232
1820.000000	28.114406
1821.000000	28.169190
1822.000000	28.215836
1823.000000	28.232316
1824.000000	28.237120
1825.000000	28.274338
1826.000000	28.341426
1827.000000	28.422873
1828.000000	28.511392
1829.000000	28.613613
1830.000000	28.711837
1831.000000	28.806810
1832.000000	28.891963
1833.000000	28.954460
1834.000000	29.023359
1835.000000	29.109588
1836.000000	29.196813
1837.000000	29.284577
1838.000000	29.358807
1839.000000	29.411542
1840.000000	29.468825
1841.000000	29.534868
1842.000000	29.594851
1843.000000	29.622836
1844.000000	29.615647
1845.000000	29.623606
1846.000000	29.666984
1847.000000	29.763725
1848.000000	29.879558
1849.000000	29.970901
1850.000000	30.026584
1851.000000	30.054662
1852.000000	30.070619
1853.000000	30.108346
1854.000000	30.179119
1855.000000	30.229951
1856.000000	30.248545
1857.000000	30.256483
1858.000000	30.261444
1859.000000	30.249763
1860.000000	30.232178
1861.000000	30.194671
1862.000000	30.130795
1863.000000	30.044215
1864.000000	29.954194
1865.000000	29.861851
1866.000000	29.753547
1867.000000	29.643733
1868.000000	29.524803
1869.000000	29.370940
1870.000000	29.161792
1871.000000	28.939275
1872.000000	28.681362
1873.000000	28.389626
1874.000000	28.062142
1875.000000	27.697533
1876.000000	27.315292
1877.000000	26.923873
1878.000000	26.496655
1879.000000	26.035804
1880.000000	25.551382
1881.000000	25.075738
1882.000000	24.577200
1883.000000	24.083676
1884.000000	23.611835
1885.000000	23.148003
1886.000000	22.691568
1887.000000	22.299231
1888.000000	21.930207
1889.000000	21.582370
1890.000000	21.265645
1891.000000	20.964344
1892.000000	20.672770
1893.000000	20.358117
1894.000000	20.065310
1895.000000	19.787332
1896.000000	19.509385
1897.000000	19.262355
1898.000000	19.009688
1899.000000	18.735978
1900.000000	18.486700
1901.000000	18.221425
1902.000000	17.962389
1903.000000	17.727905
1904.000000	17.502052
1905.000000	17.279795
1906.000000	17.051762
1907.000000	16.823881
1908.000000	16.601084
1909.000000	16.398614
1910.000000	16.208741
1911.000000	16.025380
1912.000000	15.846149
1913.000000	15.666249
1914.000000	15.502187
1915.000000	15.313458
1916.000000	15.144002
1917.000000	15.001823
1918.000000	14.838265
1919.000000	14.682887
1920.000000	14.562680
1921.000000	14.430621
1922.000000	14.295682
1923.000000	14.188103
1924.000000	14.067584
1925.000000	13.980247
1926.000000	13.875161
1927.000000	13.797767
1928.000000	13.717347
1929.000000	13.630612
1930.000000	13.567597
1931.000000	13.506268
1932.000000	13.464183
1933.000000	13.404351
1934.000000	13.357526
1935.000000	13.314926
1936.000000	13.299937
1937.000000	13.272221
1938.000000	13.254504
1939.000000	13.264185
1940.000000	13.267069
1941.000000	13.262695
1942.000000	13.270529
1943.000000	13.270445
1944.000000	13.281831
1945.000000	13.309660
1946.000000	13.332725
1947.000000	13.369167
1948.000000	13.404152
1949.000000	13.421501
1950.000000	13.470272
1951.000000	13.500665
1952.000000	13.540073
1953.000000	13.584645
1954.000000	13.627683
1955.000000	13.679547
1956.000000	13.726843
1957.000000	13.783584
1958.000000	13.824158
1959.000000	13.868991
1960.000000	13.919011
1961.000000	13.964983
1962.000000	14.019895
1963.000000	14.077585
1964.000000	14.119052
1965.000000	14.164699
1966.000000	14.223090
1967.000000	14.275379
1968.000000	14.320516
1969.000000	14.365280
1970.000000	14.432274
1971.000000	14.478871
1972.000000	14.532525
1973.000000	14.590378
1974.000000	14.654615
1975.000000	14.705816
1976.000000	14.760553
1977.000000	14.819178
1978.000000	14.875915
1979.000000	14.941868
1980.000000	15.001100
1981.000000	15.067439
1982.000000	15.123770
1983.000000	15.197251
1984.000000	15.244117
1985.000000	15.301797
1986.000000	15.364413
1987.000000	15.426629
1988.000000	15.477522
1989.000000	15.539921
1990.000000	15.596389
1991.000000	15.652503
1992.000000	15.698564
1993.000000	15.749433
1994.000000	15.800363
1995.000000	15.842243
1996.000000	15.878753
1997.000000	15.918560
1998.000000	15.960838
1999.000000	15.995246
2000.000000	16.022599
2001.000000	16.054826
2002.000000	16.081858
2003.000000	16.108356
2004.000000	16.122896
2005.000000	16.144025
2006.000000	16.149814
2007.000000	16.160646
2008.000000	16.155613
2009.000000	16.168479
2010.000000	16.169218
2011.000000	16.164789
2012.000000	16.157281
2013.000000	16.149533
2014.000000	16.132418
2015.000000	16.115613
2016.000000	16.106153
2017.000000	16.065019
2018.000000	16.043328
2019.000000	16.006131
2020.000000	15.964569
2021.000000	15.934813
2022.000000	15.893790
2023.000000	15.842043
2024.000000	15.799465
2025.000000	15.758649
2026.000000	15.711315
2027.000000	15.662985
2028.000000	15.597610
2029.000000	15.548033
2030.000000	15.483026
2031.000000	15.419665
2032.000000	15.353859
2033.000000	15.281088
2034.000000	15.216240
2035.000000	15.121862
2036.000000	15.040829
2037.000000	14.957008
2038.000000	14.864904
2039.000000	14.764052
2040.000000	14.679550
2041.000000	14.578635
2042.000000	14.471143
2043.000000	14.373606
2044.000000	14.274128
2045.000000	14.182051
2046.000000	14.086346
2047.000000	13.993950
2048.000000	13.894355
2049.000000	13.821739
2050.000000	13.748375
2051.000000	13.689762
2052.000000	13.636323
2053.000000	13.580547
2054.000000	13.540163
2055.000000	13.503082
2056.000000	13.484654
2057.000000	13.469038
2058.000000	13.464021
2059.000000	13.456426
2060.000000	13.450966
2061.000000	13.464507
2062.000000	13.480602
2063.000000	13.500683
2064.000000	13.522335
2065.000000	13.550110
2066.000000	13.572432
2067.000000	13.599075
2068.000000	13.631042
2069.000000	13.650139
2070.000000	13.680306
2071.000000	13.709923
2072.000000	13.741502
2073.000000	13.767487
2074.000000	13.792685
2075.000000	13.823192
2076.000000	13.847870
2077.000000	13.867366
2078.000000	13.902899
2079.000000	13.929788
2080.000000	13.941814
2081.000000	13.966802
2082.000000	13.989463
2083.000000	14.015293
2084.000000	14.043494
2085.000000	14.059146
2086.000000	14.073623
2087.000000	14.098493
2088.000000	14.114275
2089.000000	14.125364
2090.000000	14.148487
2091.000000	14.155205
2092.000000	14.167636
2093.000000	14.192614
2094.000000	14.209331
2095.000000	14.223557
2096.000000	14.251603
2097.000000	14.270841
2098.000000	14.283826
2099.000000	14.317162
2100.000000	14.342630
2101.000000	14.368568
2102.000000	14.395077
2103.000000	14.420311
2104.000000	14.447774
2105.000000	14.472066
2106.000000	14.499401
2107.000000	14.528764
2108.000000	14.552284
2109.000000	14.578161
2110.000000	14.610559
2111.000000	14.641550
2112.000000	14.667540
2113.000000	14.688461
2114.000000	14.715194
2115.000000	14.731530
2116.000000	14.746429
2117.000000	14.781360
2118.000000	14.806431
2119.000000	14.823519
2120.000000	14.852346
2121.000000	14.866435
2122.000000	14.879789
2123.000000	14.897703
2124.000000	14.904488
2125.000000	14.919918
2126.000000	14.928030
2127.000000	14.931576
2128.000000	14.936001
2129.000000	14.942433
2130.000000	14.936546
2131.000000	14.930995
2132.000000	14.933089
2133.000000	14.928793
2134.000000	14.914599
2135.000000	14.898021
2136.000000	14.889956
2137.000000	14.881660
2138.000000	14.862404
2139.000000	14.829909
2140.000000	14.799656
2141.000000	14.783805
2142.000000	14.759606
2143.000000	14.739291
2144.000000	14.713336
2145.000000	14.683928
2146.000000	14.659010
2147.000000	14.628880
2148.000000	14.601111
2149.000000	14.573740
2150.000000	14.545778
2151.000000	14.509697
2152.000000	14.475649
2153.000000	14.443414
2154.000000	14.409585
2155.000000	14.378337
2156.000000	14.346133
2157.000000	14.309957
2158.000000	14.287368
2159.000000	14.267131
2160.000000	14.253193
2161.000000	14.233686
2162.000000	14.202300
2163.000000	14.189512
2164.000000	14.169336
2165.000000	14.151062
2166.000000	14.138772
2167.000000	14.121787
2168.000000	14.113040
2169.000000	14.103769
2170.000000	14.089911
2171.000000	14.079803
2172.000000	14.080656
2173.000000	14.085585
2174.000000	14.083661
2175.000000	14.078658
2176.000000	14.074036
2177.000000	14.083184
2178.000000	14.086481
2179.000000	14.098936
2180.000000	14.110222
2181.000000	14.120355
2182.000000	14.140738
2183.000000	14.144220
2184.000000	14.167553
2185.000000	14.182124
2186.000000	14.191614
2187.000000	14.205674
2188.000000	14.226190
2189.000000	14.230543
2190.000000	14.228749
2191.000000	14.244780
2192.000000	14.254623
2193.000000	14.262343
2194.000000	14.281635
2195.000000	14.281260
2196.000000	14.273766
2197.000000	14.292882
2198.000000	14.297087
2199.000000	14.305428
2200.000000	14.318862
2201.000000	14.332439
2202.000000	14.342700
2203.000000	14.348607
2204.000000	14.358748
2205.000000	14.368139
2206.000000	14.386226
2207.000000	14.404759
2208.000000	14.421249
2209.000000	14.416555
2210.000000	14.439873
2211.000000	14.470373
2212.000000	14.483881
2213.000000	14.510758
2214.000000	14.520852
2215.000000	14.547888
2216.000000	14.564102
2217.000000	14.593257
2218.000000	14.609694
2219.000000	14.624997
2220.000000	14.643045
2221.000000	14.656341
2222.000000	14.666790
2223.000000	14.682046
2224.000000	14.677371
2225.000000	14.682672
2226.000000	14.681909
2227.000000	14.680575
2228.000000	14.659242
2229.000000	14.645204
2230.000000	14.617397
2231.000000	14.582242
2232.000000	14.557227
2233.000000	14.496813
2234.000000	14.454651
2235.000000	14.393838
2236.000000	14.322230
2237.000000	14.248950
2238.000000	14.183053
2239.000000	14.101976
2240.000000	14.014906
2241.000000	13.912039
2242.000000	13.812119
2243.000000	13.701730
2244.000000	13.595685
2245.000000	13.460415
2246.000000	13.323660
2247.000000	13.195444
2248.000000	13.044806
2249.000000	12.884958
2250.000000	12.714574
2251.000000	12.534160
2252.000000	12.351631
2253.000000	12.173351
2254.000000	11.964237
2255.000000	11.756648
2256.000000	11.562582
2257.000000	11.351622
2258.000000	11.144302
2259.000000	10.947121
2260.000000	10.769409
2261.000000	10.586456
2262.000000	10.414528
2263.000000	10.248570
2264.000000	10.124720
2265.000000	10.007843
2266.000000	9.911850
2267.000000	9.824294
2268.000000	9.753893
2269.000000	9.693705
2270.000000	9.655420
2271.000000	9.626832
2272.000000	9.613732
2273.000000	9.606715
2274.000000	9.613749
2275.000000	9.610451
2276.000000	9.626066
2277.000000	9.651827
2278.000000	9.677035
2279.000000	9.710427
2280.000000	9.734593
2281.000000	9.766038
2282.000000	9.798678
2283.000000	9.824250
2284.000000	9.844715
2285.000000	9.870940
2286.000000	9.889848
2287.000000	9.889349
2288.000000	9.887793
2289.000000	9.877959
2290.000000	9.857543
2291.000000	9.833551
2292.000000	9.800447
2293.000000	9.753190
2294.000000	9.700792
2295.000000	9.646762
2296.000000	9.583149
2297.000000	9.502739
2298.000000	9.441106
2299.000000	9.353146
2300.000000	9.285983
2301.000000	9.221348
2302.000000	9.158621
2303.000000	9.099891
2304.000000	9.062943
2305.000000	9.030322
2306.000000	9.020802
2307.000000	9.014770
2308.000000	9.033430
2309.000000	9.056884
2310.000000	9.078599
2311.000000	9.128231
2312.000000	9.171921
2313.000000	9.225687
2314.000000	9.289867
2315.000000	9.368658
2316.000000	9.435861
2317.000000	9.516581
2318.000000	9.596355
2319.000000	9.656629
2320.000000	9.724685
2321.000000	9.802913
2322.000000	9.865512
2323.000000	9.927582
2324.000000	9.978720
2325.000000	10.034404
2326.000000	10.081201
2327.000000	10.117206
2328.000000	10.159401
2329.000000	10.205808
2330.000000	10.234291
2331.000000	10.263645
2332.000000	10.280525
2333.000000	10.298063
2334.000000	10.319821
2335.000000	10.322560
2336.000000	10.309587
2337.000000	10.301957
2338.000000	10.303212
2339.000000	10.288332
2340.000000	10.260968
2341.000000	10.225705
2342.000000	10.187332
2343.000000	10.157905
2344.000000	10.125456
2345.000000	10.076947
2346.000000	10.028675
2347.000000	9.995096
2348.000000	9.959894
2349.000000	9.928994
2350.000000	9.900565
2351.000000	9.877071
2352.000000	9.862367
2353.000000	9.855384
2354.000000	9.860209
2355.000000	9.866808
2356.000000	9.883447
2357.000000	9.909209
2358.000000	9.930121
2359.000000	9.961308
2360.000000	10.003410
2361.000000	10.043968
2362.000000	10.075036
2363.000000	10.119427
2364.000000	10.159324
2365.000000	10.193898
2366.000000	10.234826
2367.000000	10.265087
2368.000000	10.291854
2369.000000	10.317646
2370.000000	10.342123
2371.000000	10.360990
2372.000000	10.383582
2373.000000	10.396729
2374.000000	10.408738
2375.000000	10.416489
2376.000000	10.420288
2377.000000	10.434078
2378.000000	10.442908
2379.000000	10.436764
2380.000000	10.433182
2381.000000	10.443058
2382.000000	10.441431
2383.000000	10.429546
2384.000000	10.431663
2385.000000	10.429559
2386.000000	10.422749
2387.000000	10.405750
2388.000000	10.380470
2389.000000	10.365618
2390.000000	10.343611
2391.000000	10.322253
2392.000000	10.299423
2393.000000	10.277550
2394.000000	10.251016
2395.000000	10.227752
2396.000000	10.195105
2397.000000	10.152801
2398.000000	10.127255
2399.000000	10.094454
2400.000000	10.063749
2401.000000	10.025688
2402.000000	9.991708
2403.000000	9.960883
2404.000000	9.936286
2405.000000	9.911613
2406.000000	9.881960
2407.000000	9.860082
2408.000000	9.819780
2409.000000	9.761942
2410.000000	9.689344
2411.000000	9.631499
2412.000000	9.575040
2413.000000	9.544550
2414.000000	9.522945
2415.000000	9.496522
2416.000000	9.472577
2417.000000	9.449743
2418.000000	9.438111
2419.000000	9.412619
2420.000000	9.391761
2421.000000	9.371914
2422.000000	9.347456
2423.000000	9.324560
2424.000000	9.303738
2425.000000	9.270160
2426.000000	9.239032
2427.000000	9.211146
2428.000000	9.180801
2429.000000	9.142954
2430.000000	9.117701
2431.000000	9.067104
2432.000000	9.043825
2433.000000	9.003371
2434.000000	8.964738
2435.000000	8.913660
2436.000000	8.870266
2437.000000	8.818288
2438.000000	8.784147
2439.000000	8.735671
2440.000000	8.682244
2441.000000	8.634415
2442.000000	8.593042
2443.000000	8.519499
2444.000000	8.476041
2445.000000	8.408883
2446.000000	8.363925
2447.000000	8.321976
2448.000000	8.251674
2449.000000	8.197789
2450.000000	8.154125
2451.000000	8.109014
2452.000000	8.059852
2453.000000	7.997031
2454.000000	7.966751
2455.000000	7.922546
2456.000000	7.872643
2457.000000	7.831120
2458.000000	7.811873
2459.000000	7.759353
2460.000000	7.737116
2461.000000	7.692526
2462.000000	7.678371
2463.000000	7.666708
2464.000000	7.624678
2465.000000	7.606829
2466.000000	7.595405
2467.000000	7.582102
2468.000000	7.587940
2469.000000	7.561767
2470.000000	7.590409
2471.000000	7.573967
2472.000000	7.588336
2473.000000	7.572067
2474.000000	7.596415
2475.000000	7.571078
2476.000000	7.577754
2477.000000	7.574757
2478.000000	7.580916
2479.000000	7.557180
2480.000000	7.577408
2481.000000	7.618833
2482.000000	7.613448
2483.000000	7.597647
2484.000000	7.610251
2485.000000	7.590192
2486.000000	7.613934
2487.000000	7.643860
2488.000000	7.641430
2489.000000	7.684727
2490.000000	7.655880
2491.000000	7.625046
2492.000000	7.696342
2493.000000	7.679220
2494.000000	7.691276
2495.000000	7.797778
2496.000000	7.756103
2497.000000	7.809803
2498.000000	7.853944
2499.000000	7.858154
2500.000000	7.818845
