PE UV       SUBTECH     SPECTRUM    ASCII       PEDS        4.00        
   -1
CICIMAUCR0020-7.Sample.ASC
24/04/25
16:24:51.00
24/04/25
16:24:51.00
Vinicio Soto Monge
C. resplendens
250,000000
1
Lambda 1050
1050L1511233
PerkinElmer UV WinLab 6.3.2.0749 / 2.02.05 Lambda 900 UV/VIS/NIR, Aug  7 2015 09:38:08

0
0
3350/servo 860,8/2
0
0
UV/VIS
1
1
1
DoubleDePol,CommonBeamDepol,RBeamAtt,SBeamAtt,60mm sphere, WB InGaAs Detector
0
0
0
0
Program
Program
3350/servo 860,8/2
3350/0,2 860,8/0,2
3350/0,2 860,8/0,2
0
15.00
 
 
 
0
 
860,8
319,2
860,8
Front
100
on
S:100 R:100
0
0
0
0
 
0
 
 
 
0
 
 
0
0
0
0
0
 
 
 
 
0
0


0
0
#HDR
-1
-1
#GR
nm
%R
1.0
0.0
2500,000000
-1,000000
2251
8
81,082400
5,554700
#DATA
250.000000	4.920326
251.000000	4.893769
252.000000	4.903625
253.000000	4.909103
254.000000	4.881777
255.000000	4.851974
256.000000	4.831474
257.000000	4.836864
258.000000	4.839362
259.000000	4.841424
260.000000	4.803813
261.000000	4.773667
262.000000	4.762374
263.000000	4.747025
264.000000	4.731226
265.000000	4.693226
266.000000	4.698283
267.000000	4.679871
268.000000	4.685092
269.000000	4.647347
270.000000	4.646194
271.000000	4.644037
272.000000	4.643798
273.000000	4.620189
274.000000	4.618254
275.000000	4.624343
276.000000	4.595984
277.000000	4.619005
278.000000	4.591513
279.000000	4.609100
280.000000	4.607238
281.000000	4.604045
282.000000	4.602696
283.000000	4.588683
284.000000	4.599833
285.000000	4.613140
286.000000	4.595204
287.000000	4.606495
288.000000	4.607373
289.000000	4.581324
290.000000	4.605236
291.000000	4.600632
292.000000	4.567360
293.000000	4.597168
294.000000	4.597367
295.000000	4.579038
296.000000	4.600015
297.000000	4.560973
298.000000	4.563445
299.000000	4.576763
300.000000	4.588504
301.000000	4.596474
302.000000	4.571716
303.000000	4.570575
304.000000	4.599424
305.000000	4.559104
306.000000	4.564780
307.000000	4.585460
308.000000	4.568639
309.000000	4.571562
310.000000	4.557407
311.000000	4.568390
312.000000	4.556822
313.000000	4.564262
314.000000	4.522863
315.000000	4.574096
316.000000	4.611479
317.000000	5.178728
318.000000	4.969348
319.000000	4.958267
320.000000	4.972097
321.000000	5.053386
322.000000	4.934050
323.000000	4.927614
324.000000	4.915265
325.000000	4.752140
326.000000	4.777429
327.000000	4.765534
328.000000	4.791982
329.000000	4.628324
330.000000	4.729790
331.000000	4.778287
332.000000	4.697597
333.000000	4.769112
334.000000	4.738078
335.000000	4.781473
336.000000	4.777665
337.000000	4.758973
338.000000	4.735517
339.000000	4.773289
340.000000	4.782378
341.000000	4.788144
342.000000	4.822211
343.000000	4.759440
344.000000	4.795734
345.000000	4.877653
346.000000	4.842636
347.000000	4.822035
348.000000	4.866626
349.000000	4.827831
350.000000	4.927898
351.000000	4.958931
352.000000	4.931792
353.000000	5.023825
354.000000	5.025626
355.000000	5.024679
356.000000	5.049018
357.000000	5.101304
358.000000	5.110185
359.000000	5.131589
360.000000	5.173753
361.000000	5.195138
362.000000	5.190637
363.000000	5.218545
364.000000	5.245267
365.000000	5.284022
366.000000	5.267064
367.000000	5.329417
368.000000	5.362390
369.000000	5.390288
370.000000	5.366693
371.000000	5.385782
372.000000	5.418502
373.000000	5.458229
374.000000	5.477455
375.000000	5.532681
376.000000	5.795277
377.000000	5.827072
378.000000	5.887729
379.000000	5.950239
380.000000	6.011289
381.000000	6.083334
382.000000	6.169640
383.000000	6.258568
384.000000	6.338928
385.000000	6.434267
386.000000	6.535152
387.000000	6.637127
388.000000	6.741325
389.000000	6.857926
390.000000	6.981382
391.000000	7.104801
392.000000	7.242157
393.000000	7.384906
394.000000	7.543373
395.000000	7.697381
396.000000	7.853254
397.000000	8.033242
398.000000	8.213439
399.000000	8.395388
400.000000	8.591800
401.000000	8.797994
402.000000	9.014343
403.000000	9.234299
404.000000	9.462771
405.000000	9.713842
406.000000	9.964220
407.000000	10.219811
408.000000	10.476882
409.000000	10.742478
410.000000	11.024505
411.000000	11.309632
412.000000	11.598846
413.000000	11.884825
414.000000	12.183510
415.000000	12.490043
416.000000	12.793700
417.000000	13.091438
418.000000	13.392147
419.000000	13.695159
420.000000	13.992733
421.000000	14.284929
422.000000	14.583457
423.000000	14.872202
424.000000	15.148097
425.000000	15.427325
426.000000	15.707495
427.000000	15.973252
428.000000	16.226744
429.000000	16.480497
430.000000	16.720650
431.000000	16.954100
432.000000	17.185920
433.000000	17.402366
434.000000	17.612472
435.000000	17.814179
436.000000	18.003335
437.000000	18.176620
438.000000	18.346320
439.000000	18.518217
440.000000	18.677475
441.000000	18.819102
442.000000	18.961297
443.000000	19.094884
444.000000	19.209429
445.000000	19.299475
446.000000	19.375524
447.000000	19.444845
448.000000	19.502311
449.000000	19.559111
450.000000	19.607674
451.000000	19.639682
452.000000	19.659228
453.000000	19.663133
454.000000	19.657368
455.000000	19.655609
456.000000	19.649022
457.000000	19.623949
458.000000	19.589342
459.000000	19.554415
460.000000	19.512690
461.000000	19.461180
462.000000	19.398343
463.000000	19.332562
464.000000	19.267139
465.000000	19.198940
466.000000	19.129071
467.000000	19.057396
468.000000	18.996845
469.000000	18.941963
470.000000	18.885744
471.000000	18.841352
472.000000	18.815239
473.000000	18.801461
474.000000	18.805272
475.000000	18.824501
476.000000	18.860847
477.000000	18.927721
478.000000	19.019950
479.000000	19.134344
480.000000	19.288860
481.000000	19.486627
482.000000	19.716332
483.000000	19.966611
484.000000	20.252396
485.000000	20.560072
486.000000	20.903894
487.000000	21.288104
488.000000	21.704536
489.000000	22.154058
490.000000	22.629997
491.000000	23.137703
492.000000	23.679916
493.000000	24.234214
494.000000	24.809751
495.000000	25.397973
496.000000	25.989051
497.000000	26.576625
498.000000	27.173372
499.000000	27.782869
500.000000	28.398819
501.000000	29.007875
502.000000	29.619396
503.000000	30.228168
504.000000	30.829651
505.000000	31.433008
506.000000	32.020267
507.000000	32.595066
508.000000	33.170681
509.000000	33.759724
510.000000	34.342867
511.000000	34.925531
512.000000	35.507270
513.000000	36.087435
514.000000	36.672656
515.000000	37.250609
516.000000	37.823953
517.000000	38.392443
518.000000	38.965203
519.000000	39.539213
520.000000	40.105669
521.000000	40.681843
522.000000	41.254417
523.000000	41.840190
524.000000	42.451650
525.000000	43.034984
526.000000	43.628422
527.000000	44.236882
528.000000	44.850502
529.000000	45.485337
530.000000	46.133484
531.000000	46.801742
532.000000	47.475954
533.000000	48.166356
534.000000	48.869772
535.000000	49.572708
536.000000	50.286245
537.000000	50.998236
538.000000	51.704927
539.000000	52.424974
540.000000	53.149350
541.000000	53.831987
542.000000	54.499296
543.000000	55.167484
544.000000	55.822027
545.000000	56.445362
546.000000	57.068051
547.000000	57.630590
548.000000	58.159876
549.000000	58.662623
550.000000	59.139680
551.000000	59.606523
552.000000	60.024648
553.000000	60.418560
554.000000	60.788920
555.000000	61.127255
556.000000	61.439240
557.000000	61.732017
558.000000	61.984058
559.000000	62.243256
560.000000	62.437271
561.000000	62.653847
562.000000	62.875598
563.000000	63.069977
564.000000	63.237852
565.000000	63.381160
566.000000	63.515519
567.000000	63.647919
568.000000	63.773847
569.000000	63.866823
570.000000	63.977306
571.000000	64.041139
572.000000	64.116062
573.000000	64.189666
574.000000	64.287286
575.000000	64.368652
576.000000	64.431214
577.000000	64.487405
578.000000	64.509066
579.000000	64.541618
580.000000	64.589717
581.000000	64.620208
582.000000	64.652850
583.000000	64.671543
584.000000	64.661424
585.000000	64.678125
586.000000	64.657351
587.000000	64.638176
588.000000	64.582547
589.000000	64.529360
590.000000	64.454039
591.000000	64.368345
592.000000	64.218631
593.000000	64.093740
594.000000	63.924533
595.000000	63.734184
596.000000	63.576943
597.000000	63.368054
598.000000	63.125597
599.000000	62.853731
600.000000	62.564100
601.000000	62.272251
602.000000	61.961384
603.000000	61.633498
604.000000	61.288301
605.000000	60.951428
606.000000	60.569195
607.000000	60.205745
608.000000	59.822622
609.000000	59.432399
610.000000	59.049056
611.000000	58.654515
612.000000	58.233696
613.000000	57.825551
614.000000	57.420696
615.000000	57.034982
616.000000	56.635423
617.000000	56.242478
618.000000	55.851439
619.000000	55.429371
620.000000	54.995230
621.000000	54.569535
622.000000	54.127312
623.000000	53.686302
624.000000	53.232590
625.000000	52.778131
626.000000	52.294992
627.000000	51.817772
628.000000	51.311810
629.000000	50.808430
630.000000	50.277612
631.000000	49.746906
632.000000	49.218529
633.000000	48.669214
634.000000	48.150860
635.000000	47.658699
636.000000	47.178330
637.000000	46.727026
638.000000	46.327723
639.000000	45.916205
640.000000	45.574368
641.000000	45.252140
642.000000	44.987886
643.000000	44.749122
644.000000	44.581982
645.000000	44.460676
646.000000	44.353826
647.000000	44.359893
648.000000	44.377140
649.000000	44.432507
650.000000	44.544305
651.000000	44.718863
652.000000	44.907681
653.000000	45.161541
654.000000	45.435884
655.000000	45.732515
656.000000	46.058235
657.000000	46.420023
658.000000	46.802871
659.000000	47.213482
660.000000	47.654231
661.000000	48.100279
662.000000	48.546518
663.000000	49.044345
664.000000	49.562084
665.000000	50.053879
666.000000	50.561337
667.000000	51.089303
668.000000	51.593162
669.000000	52.122119
670.000000	52.624262
671.000000	53.148911
672.000000	53.651379
673.000000	54.148995
674.000000	54.630934
675.000000	55.064025
676.000000	55.532969
677.000000	55.926298
678.000000	56.366265
679.000000	56.763920
680.000000	57.126551
681.000000	57.475676
682.000000	57.808108
683.000000	58.135207
684.000000	58.438614
685.000000	58.730777
686.000000	58.994561
687.000000	59.232887
688.000000	59.446400
689.000000	59.677394
690.000000	59.879348
691.000000	60.070473
692.000000	60.285377
693.000000	60.463202
694.000000	60.619138
695.000000	60.750768
696.000000	60.884754
697.000000	60.999173
698.000000	61.127974
699.000000	61.228200
700.000000	61.314538
701.000000	61.405547
702.000000	61.458889
703.000000	61.526399
704.000000	61.582993
705.000000	61.612315
706.000000	61.641351
707.000000	61.663009
708.000000	61.681839
709.000000	61.681619
710.000000	61.697676
711.000000	61.684057
712.000000	61.681532
713.000000	61.666057
714.000000	61.658093
715.000000	61.630043
716.000000	61.614005
717.000000	61.603665
718.000000	61.596302
719.000000	61.589864
720.000000	61.583889
721.000000	61.563722
722.000000	61.582978
723.000000	61.605053
724.000000	61.613945
725.000000	61.631795
726.000000	61.621334
727.000000	61.661180
728.000000	61.709256
729.000000	61.735116
730.000000	61.793867
731.000000	61.842132
732.000000	61.889333
733.000000	61.971213
734.000000	62.041154
735.000000	62.132891
736.000000	62.243260
737.000000	62.333557
738.000000	62.449929
739.000000	62.569115
740.000000	62.685182
741.000000	62.825229
742.000000	62.957378
743.000000	63.101297
744.000000	63.235123
745.000000	63.371569
746.000000	63.523372
747.000000	63.680079
748.000000	63.826649
749.000000	63.960209
750.000000	64.095935
751.000000	64.234830
752.000000	64.396523
753.000000	64.566394
754.000000	64.714721
755.000000	64.846405
756.000000	64.959859
757.000000	65.101130
758.000000	65.249034
759.000000	65.367628
760.000000	65.493102
761.000000	65.583226
762.000000	65.722768
763.000000	65.845864
764.000000	65.915961
765.000000	66.032386
766.000000	66.117500
767.000000	66.155783
768.000000	66.231134
769.000000	66.346064
770.000000	66.444811
771.000000	66.497453
772.000000	66.531224
773.000000	66.577472
774.000000	66.610408
775.000000	66.662472
776.000000	66.699013
777.000000	66.708303
778.000000	66.707154
779.000000	66.721762
780.000000	66.752658
781.000000	66.760023
782.000000	66.739836
783.000000	66.758201
784.000000	66.787822
785.000000	66.745705
786.000000	66.742828
787.000000	66.692488
788.000000	66.667672
789.000000	66.660986
790.000000	66.621897
791.000000	66.582630
792.000000	66.486554
793.000000	66.443870
794.000000	66.387119
795.000000	66.341245
796.000000	66.268286
797.000000	66.186517
798.000000	66.110188
799.000000	66.044881
800.000000	65.912804
801.000000	65.857922
802.000000	65.728029
803.000000	65.610613
804.000000	65.560595
805.000000	65.460909
806.000000	65.366826
807.000000	65.228188
808.000000	65.138700
809.000000	65.081684
810.000000	64.870511
811.000000	64.784597
812.000000	64.649596
813.000000	64.561090
814.000000	64.410839
815.000000	64.283877
816.000000	64.166976
817.000000	63.981251
818.000000	63.955829
819.000000	63.855387
820.000000	63.747800
821.000000	63.598269
822.000000	63.512762
823.000000	63.388963
824.000000	63.201643
825.000000	63.144769
826.000000	63.058432
827.000000	62.959136
828.000000	62.824044
829.000000	62.749420
830.000000	62.594256
831.000000	62.532232
832.000000	62.497507
833.000000	62.414434
834.000000	62.301238
835.000000	62.215253
836.000000	62.038158
837.000000	61.915097
838.000000	61.871170
839.000000	61.859870
840.000000	61.758030
841.000000	61.662783
842.000000	61.649395
843.000000	61.577375
844.000000	61.288811
845.000000	61.245530
846.000000	61.224233
847.000000	61.190682
848.000000	61.065331
849.000000	60.980883
850.000000	60.978711
851.000000	60.798870
852.000000	60.557740
853.000000	60.463259
854.000000	60.330138
855.000000	60.234871
856.000000	59.994802
857.000000	60.018724
858.000000	61.367700
859.000000	59.826560
860.000000	59.633120
861.000000	59.451980
862.000000	59.242860
863.000000	59.040360
864.000000	58.822300
865.000000	58.628460
866.000000	58.530340
867.000000	58.561940
868.000000	58.666220
869.000000	58.854520
870.000000	59.034380
871.000000	59.206620
872.000000	59.349420
873.000000	59.416200
874.000000	59.492760
875.000000	59.559640
876.000000	59.606240
877.000000	59.653440
878.000000	59.694600
879.000000	59.729760
880.000000	59.780420
881.000000	59.779260
882.000000	59.803920
883.000000	59.846420
884.000000	59.870460
885.000000	59.897920
886.000000	59.901140
887.000000	59.889280
888.000000	59.887640
889.000000	59.905880
890.000000	59.934060
891.000000	59.944220
892.000000	59.955940
893.000000	59.973440
894.000000	59.976420
895.000000	59.977760
896.000000	59.985840
897.000000	59.971040
898.000000	59.988800
899.000000	59.977440
900.000000	59.980800
901.000000	60.003440
902.000000	60.000760
903.000000	59.983440
904.000000	59.976920
905.000000	59.960740
906.000000	59.954660
907.000000	59.953900
908.000000	59.964720
909.000000	59.967700
910.000000	59.983640
911.000000	59.972820
912.000000	59.947580
913.000000	59.954100
914.000000	59.958500
915.000000	59.951100
916.000000	59.949980
917.000000	59.959780
918.000000	59.928000
919.000000	59.881460
920.000000	59.854600
921.000000	59.818300
922.000000	59.784640
923.000000	59.750220
924.000000	59.710560
925.000000	59.661300
926.000000	59.601000
927.000000	59.538440
928.000000	59.486680
929.000000	59.418920
930.000000	59.351940
931.000000	59.285080
932.000000	59.217020
933.000000	59.149440
934.000000	59.051800
935.000000	58.965860
936.000000	58.867640
937.000000	58.778920
938.000000	58.708020
939.000000	58.613680
940.000000	58.551380
941.000000	58.477360
942.000000	58.412640
943.000000	58.345220
944.000000	58.248160
945.000000	58.163320
946.000000	58.078100
947.000000	57.999600
948.000000	57.923000
949.000000	57.845000
950.000000	57.773740
951.000000	57.692640
952.000000	57.607640
953.000000	57.532160
954.000000	57.467960
955.000000	57.396420
956.000000	57.321440
957.000000	57.252740
958.000000	57.179540
959.000000	57.108220
960.000000	57.047720
961.000000	56.980600
962.000000	56.918520
963.000000	56.860440
964.000000	56.800820
965.000000	56.741740
966.000000	56.689600
967.000000	56.627200
968.000000	56.577400
969.000000	56.514580
970.000000	56.471500
971.000000	56.417460
972.000000	56.369640
973.000000	56.323220
974.000000	56.279440
975.000000	56.233020
976.000000	56.184460
977.000000	56.144300
978.000000	56.106420
979.000000	56.072760
980.000000	56.031960
981.000000	55.990780
982.000000	55.963400
983.000000	55.934680
984.000000	55.900640
985.000000	55.866500
986.000000	55.838220
987.000000	55.814620
988.000000	55.793480
989.000000	55.772040
990.000000	55.748680
991.000000	55.721780
992.000000	55.703020
993.000000	55.681320
994.000000	55.655320
995.000000	55.642680
996.000000	55.625820
997.000000	55.589680
998.000000	55.560000
999.000000	55.539320
1000.000000	55.512380
1001.000000	55.477680
1002.000000	55.439660
1003.000000	55.407520
1004.000000	55.370560
1005.000000	55.324600
1006.000000	55.280880
1007.000000	55.226800
1008.000000	55.174960
1009.000000	55.117920
1010.000000	55.054760
1011.000000	54.993980
1012.000000	54.935660
1013.000000	54.882680
1014.000000	54.823800
1015.000000	54.767620
1016.000000	54.721900
1017.000000	54.672760
1018.000000	54.617660
1019.000000	54.570980
1020.000000	54.528800
1021.000000	54.485440
1022.000000	54.442720
1023.000000	54.399760
1024.000000	54.363520
1025.000000	54.339860
1026.000000	54.315560
1027.000000	54.284960
1028.000000	54.258000
1029.000000	54.230440
1030.000000	54.204700
1031.000000	54.195020
1032.000000	54.178740
1033.000000	54.155660
1034.000000	54.140980
1035.000000	54.129460
1036.000000	54.124720
1037.000000	54.124420
1038.000000	54.121560
1039.000000	54.117000
1040.000000	54.119300
1041.000000	54.121220
1042.000000	54.121860
1043.000000	54.125320
1044.000000	54.134860
1045.000000	54.148880
1046.000000	54.159080
1047.000000	54.174220
1048.000000	54.192140
1049.000000	54.206640
1050.000000	54.220360
1051.000000	54.246480
1052.000000	54.277380
1053.000000	54.300380
1054.000000	54.321440
1055.000000	54.351120
1056.000000	54.378140
1057.000000	54.406120
1058.000000	54.433380
1059.000000	54.460040
1060.000000	54.481600
1061.000000	54.498320
1062.000000	54.514760
1063.000000	54.532860
1064.000000	54.551000
1065.000000	54.571940
1066.000000	54.587260
1067.000000	54.605600
1068.000000	54.610260
1069.000000	54.616860
1070.000000	54.634080
1071.000000	54.640060
1072.000000	54.641560
1073.000000	54.642900
1074.000000	54.650000
1075.000000	54.655940
1076.000000	54.655280
1077.000000	54.659780
1078.000000	54.667360
1079.000000	54.664940
1080.000000	54.669060
1081.000000	54.673400
1082.000000	54.678580
1083.000000	54.684020
1084.000000	54.687980
1085.000000	54.686780
1086.000000	54.694840
1087.000000	54.705160
1088.000000	54.713260
1089.000000	54.712540
1090.000000	54.722280
1091.000000	54.726280
1092.000000	54.731680
1093.000000	54.746980
1094.000000	54.755100
1095.000000	54.758660
1096.000000	54.759780
1097.000000	54.767300
1098.000000	54.770100
1099.000000	54.777140
1100.000000	54.781420
1101.000000	54.777400
1102.000000	54.779460
1103.000000	54.782320
1104.000000	54.780860
1105.000000	54.785380
1106.000000	54.788400
1107.000000	54.788800
1108.000000	54.780840
1109.000000	54.786080
1110.000000	54.785340
1111.000000	54.776880
1112.000000	54.761780
1113.000000	54.769100
1114.000000	54.775340
1115.000000	54.775240
1116.000000	54.773800
1117.000000	54.770880
1118.000000	54.758460
1119.000000	54.743320
1120.000000	54.726340
1121.000000	54.706280
1122.000000	54.675320
1123.000000	54.630480
1124.000000	54.587100
1125.000000	54.536660
1126.000000	54.482960
1127.000000	54.415420
1128.000000	54.347120
1129.000000	54.245980
1130.000000	54.125780
1131.000000	54.000680
1132.000000	53.857120
1133.000000	53.709460
1134.000000	53.552600
1135.000000	53.352160
1136.000000	53.105720
1137.000000	52.878760
1138.000000	52.650460
1139.000000	52.431220
1140.000000	52.230080
1141.000000	52.028440
1142.000000	51.821780
1143.000000	51.637560
1144.000000	51.454780
1145.000000	51.291700
1146.000000	51.172940
1147.000000	51.074840
1148.000000	51.022120
1149.000000	51.006400
1150.000000	51.012200
1151.000000	51.013480
1152.000000	51.009640
1153.000000	50.993940
1154.000000	50.946800
1155.000000	50.875900
1156.000000	50.777740
1157.000000	50.627980
1158.000000	50.463580
1159.000000	50.267200
1160.000000	50.073260
1161.000000	49.861740
1162.000000	49.637360
1163.000000	49.405560
1164.000000	49.165040
1165.000000	48.927340
1166.000000	48.683940
1167.000000	48.453660
1168.000000	48.210740
1169.000000	47.982400
1170.000000	47.743880
1171.000000	47.513320
1172.000000	47.291860
1173.000000	47.068200
1174.000000	46.856520
1175.000000	46.645820
1176.000000	46.440200
1177.000000	46.220360
1178.000000	45.975220
1179.000000	45.694380
1180.000000	45.374060
1181.000000	45.008260
1182.000000	44.657640
1183.000000	44.318600
1184.000000	44.039040
1185.000000	43.840520
1186.000000	43.734720
1187.000000	43.726680
1188.000000	43.804380
1189.000000	43.987660
1190.000000	44.241120
1191.000000	44.541780
1192.000000	44.878020
1193.000000	45.193240
1194.000000	45.482160
1195.000000	45.723120
1196.000000	45.912580
1197.000000	46.059340
1198.000000	46.174880
1199.000000	46.264380
1200.000000	46.327880
1201.000000	46.366920
1202.000000	46.397040
1203.000000	46.420340
1204.000000	46.434060
1205.000000	46.449460
1206.000000	46.476220
1207.000000	46.512280
1208.000000	46.552780
1209.000000	46.607560
1210.000000	46.667480
1211.000000	46.752060
1212.000000	46.824300
1213.000000	46.900520
1214.000000	46.984500
1215.000000	47.066160
1216.000000	47.154620
1217.000000	47.245720
1218.000000	47.335060
1219.000000	47.439540
1220.000000	47.546960
1221.000000	47.648080
1222.000000	47.762380
1223.000000	47.880140
1224.000000	48.003760
1225.000000	48.122880
1226.000000	48.239660
1227.000000	48.363540
1228.000000	48.484240
1229.000000	48.599020
1230.000000	48.722240
1231.000000	48.843480
1232.000000	48.963720
1233.000000	49.074280
1234.000000	49.194300
1235.000000	49.309180
1236.000000	49.423640
1237.000000	49.527860
1238.000000	49.632640
1239.000000	49.732560
1240.000000	49.834860
1241.000000	49.934840
1242.000000	50.038060
1243.000000	50.132860
1244.000000	50.227800
1245.000000	50.330200
1246.000000	50.415720
1247.000000	50.495480
1248.000000	50.572480
1249.000000	50.640860
1250.000000	50.697920
1251.000000	50.771120
1252.000000	50.830320
1253.000000	50.885040
1254.000000	50.953840
1255.000000	51.008240
1256.000000	51.046520
1257.000000	51.095520
1258.000000	51.140500
1259.000000	51.185180
1260.000000	51.225800
1261.000000	51.256860
1262.000000	51.291740
1263.000000	51.335440
1264.000000	51.376080
1265.000000	51.414540
1266.000000	51.443580
1267.000000	51.477640
1268.000000	51.511440
1269.000000	51.544820
1270.000000	51.571940
1271.000000	51.602980
1272.000000	51.638540
1273.000000	51.673500
1274.000000	51.708840
1275.000000	51.740280
1276.000000	51.769040
1277.000000	51.810060
1278.000000	51.854320
1279.000000	51.895060
1280.000000	51.942540
1281.000000	51.992600
1282.000000	52.038000
1283.000000	52.082960
1284.000000	52.128980
1285.000000	52.176220
1286.000000	52.225100
1287.000000	52.273000
1288.000000	52.315440
1289.000000	52.351420
1290.000000	52.379360
1291.000000	52.408160
1292.000000	52.430560
1293.000000	52.453160
1294.000000	52.475660
1295.000000	52.493200
1296.000000	52.502960
1297.000000	52.509280
1298.000000	52.513580
1299.000000	52.518020
1300.000000	52.525020
1301.000000	52.527260
1302.000000	52.528720
1303.000000	52.523220
1304.000000	52.512540
1305.000000	52.502240
1306.000000	52.486480
1307.000000	52.470400
1308.000000	52.445700
1309.000000	52.412280
1310.000000	52.381300
1311.000000	52.350380
1312.000000	52.318620
1313.000000	52.274060
1314.000000	52.227880
1315.000000	52.179360
1316.000000	52.123300
1317.000000	52.063180
1318.000000	52.009340
1319.000000	51.950360
1320.000000	51.884480
1321.000000	51.812980
1322.000000	51.739060
1323.000000	51.665700
1324.000000	51.588680
1325.000000	51.507700
1326.000000	51.418100
1327.000000	51.323960
1328.000000	51.230080
1329.000000	51.130160
1330.000000	51.012700
1331.000000	50.900240
1332.000000	50.782420
1333.000000	50.645040
1334.000000	50.509240
1335.000000	50.373280
1336.000000	50.225060
1337.000000	50.066460
1338.000000	49.895400
1339.000000	49.715720
1340.000000	49.538980
1341.000000	49.352700
1342.000000	49.148380
1343.000000	48.942760
1344.000000	48.738460
1345.000000	48.504080
1346.000000	48.260240
1347.000000	48.012920
1348.000000	47.743240
1349.000000	47.452160
1350.000000	47.160260
1351.000000	46.830520
1352.000000	46.448060
1353.000000	46.047140
1354.000000	45.681920
1355.000000	45.312640
1356.000000	44.975040
1357.000000	44.728560
1358.000000	44.577440
1359.000000	44.491340
1360.000000	44.446000
1361.000000	44.415260
1362.000000	44.280560
1363.000000	44.154300
1364.000000	44.040460
1365.000000	43.892020
1366.000000	43.728080
1367.000000	43.578060
1368.000000	43.378400
1369.000000	43.144820
1370.000000	42.922380
1371.000000	42.671300
1372.000000	42.354840
1373.000000	42.074760
1374.000000	41.826220
1375.000000	41.613280
1376.000000	41.436320
1377.000000	41.311960
1378.000000	41.208600
1379.000000	41.177500
1380.000000	41.076140
1381.000000	40.993820
1382.000000	40.783680
1383.000000	40.487560
1384.000000	40.148700
1385.000000	39.807540
1386.000000	39.481280
1387.000000	39.178700
1388.000000	38.890060
1389.000000	38.575020
1390.000000	38.334760
1391.000000	38.183260
1392.000000	37.984280
1393.000000	37.781020
1394.000000	37.643160
1395.000000	37.511300
1396.000000	37.289780
1397.000000	37.010280
1398.000000	36.804760
1399.000000	36.656940
1400.000000	36.437640
1401.000000	36.103580
1402.000000	35.741080
1403.000000	35.442860
1404.000000	35.126280
1405.000000	34.773960
1406.000000	34.444200
1407.000000	34.116300
1408.000000	33.799040
1409.000000	33.472520
1410.000000	33.149020
1411.000000	32.858940
1412.000000	32.605220
1413.000000	32.412520
1414.000000	32.200520
1415.000000	31.948640
1416.000000	31.709780
1417.000000	31.494040
1418.000000	31.314240
1419.000000	31.094480
1420.000000	30.874120
1421.000000	30.637840
1422.000000	30.424160
1423.000000	30.214260
1424.000000	30.002660
1425.000000	29.798460
1426.000000	29.598780
1427.000000	29.393860
1428.000000	29.226800
1429.000000	29.044320
1430.000000	28.881460
1431.000000	28.743600
1432.000000	28.588740
1433.000000	28.459600
1434.000000	28.338960
1435.000000	28.191780
1436.000000	28.063080
1437.000000	27.945680
1438.000000	27.840240
1439.000000	27.695640
1440.000000	27.572440
1441.000000	27.439740
1442.000000	27.319280
1443.000000	27.189660
1444.000000	27.073060
1445.000000	26.976920
1446.000000	26.845020
1447.000000	26.720360
1448.000000	26.603420
1449.000000	26.494160
1450.000000	26.398860
1451.000000	26.285740
1452.000000	26.179280
1453.000000	26.073040
1454.000000	25.972000
1455.000000	25.876840
1456.000000	25.785680
1457.000000	25.699940
1458.000000	25.607340
1459.000000	25.534200
1460.000000	25.461520
1461.000000	25.379160
1462.000000	25.313440
1463.000000	25.243680
1464.000000	25.187580
1465.000000	25.134720
1466.000000	25.095840
1467.000000	25.046720
1468.000000	25.005160
1469.000000	24.963440
1470.000000	24.932520
1471.000000	24.896220
1472.000000	24.862580
1473.000000	24.822740
1474.000000	24.788460
1475.000000	24.747780
1476.000000	24.711700
1477.000000	24.685720
1478.000000	24.658080
1479.000000	24.632180
1480.000000	24.597740
1481.000000	24.575240
1482.000000	24.549680
1483.000000	24.530340
1484.000000	24.515540
1485.000000	24.490460
1486.000000	24.489600
1487.000000	24.476320
1488.000000	24.469680
1489.000000	24.457080
1490.000000	24.451060
1491.000000	24.447420
1492.000000	24.440440
1493.000000	24.446700
1494.000000	24.439940
1495.000000	24.438660
1496.000000	24.442020
1497.000000	24.459920
1498.000000	24.474400
1499.000000	24.490580
1500.000000	24.506020
1501.000000	24.532220
1502.000000	24.552580
1503.000000	24.575220
1504.000000	24.602580
1505.000000	24.630520
1506.000000	24.660120
1507.000000	24.694020
1508.000000	24.730420
1509.000000	24.753120
1510.000000	24.791200
1511.000000	24.830740
1512.000000	24.867620
1513.000000	24.899460
1514.000000	24.940880
1515.000000	24.974380
1516.000000	25.008060
1517.000000	25.044560
1518.000000	25.072900
1519.000000	25.106860
1520.000000	25.147600
1521.000000	25.174360
1522.000000	25.201940
1523.000000	25.234380
1524.000000	25.273480
1525.000000	25.304560
1526.000000	25.331120
1527.000000	25.357120
1528.000000	25.393060
1529.000000	25.412480
1530.000000	25.430160
1531.000000	25.460820
1532.000000	25.493400
1533.000000	25.516260
1534.000000	25.528340
1535.000000	25.542980
1536.000000	25.561560
1537.000000	25.570840
1538.000000	25.587900
1539.000000	25.601480
1540.000000	25.606420
1541.000000	25.618000
1542.000000	25.628060
1543.000000	25.633320
1544.000000	25.641660
1545.000000	25.654620
1546.000000	25.668680
1547.000000	25.686600
1548.000000	25.704580
1549.000000	25.715260
1550.000000	25.730840
1551.000000	25.751460
1552.000000	25.764860
1553.000000	25.775180
1554.000000	25.786160
1555.000000	25.799520
1556.000000	25.802680
1557.000000	25.800780
1558.000000	25.797780
1559.000000	25.786760
1560.000000	25.776120
1561.000000	25.762900
1562.000000	25.746660
1563.000000	25.730540
1564.000000	25.709800
1565.000000	25.698060
1566.000000	25.674240
1567.000000	25.647100
1568.000000	25.630660
1569.000000	25.606900
1570.000000	25.594240
1571.000000	25.579900
1572.000000	25.559720
1573.000000	25.545720
1574.000000	25.536160
1575.000000	25.528360
1576.000000	25.527920
1577.000000	25.531120
1578.000000	25.534400
1579.000000	25.538760
1580.000000	25.545100
1581.000000	25.562620
1582.000000	25.585240
1583.000000	25.600760
1584.000000	25.624580
1585.000000	25.652080
1586.000000	25.677100
1587.000000	25.709460
1588.000000	25.742600
1589.000000	25.779860
1590.000000	25.818880
1591.000000	25.852680
1592.000000	25.894380
1593.000000	25.938900
1594.000000	25.979920
1595.000000	26.027620
1596.000000	26.076980
1597.000000	26.126720
1598.000000	26.180600
1599.000000	26.240280
1600.000000	26.298800
1601.000000	26.362000
1602.000000	26.420420
1603.000000	26.484780
1604.000000	26.557320
1605.000000	26.620400
1606.000000	26.688080
1607.000000	26.751800
1608.000000	26.817600
1609.000000	26.885340
1610.000000	26.944500
1611.000000	27.016380
1612.000000	27.080140
1613.000000	27.144560
1614.000000	27.212340
1615.000000	27.274920
1616.000000	27.345100
1617.000000	27.417960
1618.000000	27.483960
1619.000000	27.564640
1620.000000	27.641480
1621.000000	27.713060
1622.000000	27.791040
1623.000000	27.870620
1624.000000	27.945740
1625.000000	28.018280
1626.000000	28.093800
1627.000000	28.175720
1628.000000	28.260660
1629.000000	28.341760
1630.000000	28.423000
1631.000000	28.500020
1632.000000	28.572280
1633.000000	28.647900
1634.000000	28.718880
1635.000000	28.785100
1636.000000	28.857220
1637.000000	28.927320
1638.000000	28.994800
1639.000000	29.062820
1640.000000	29.122300
1641.000000	29.178120
1642.000000	29.235800
1643.000000	29.288780
1644.000000	29.348980
1645.000000	29.405260
1646.000000	29.456520
1647.000000	29.504240
1648.000000	29.548280
1649.000000	29.585280
1650.000000	29.628640
1651.000000	29.659900
1652.000000	29.679100
1653.000000	29.703480
1654.000000	29.714780
1655.000000	29.727520
1656.000000	29.729220
1657.000000	29.723120
1658.000000	29.709760
1659.000000	29.685900
1660.000000	29.663160
1661.000000	29.622940
1662.000000	29.585320
1663.000000	29.533240
1664.000000	29.458280
1665.000000	29.380640
1666.000000	29.290760
1667.000000	29.204080
1668.000000	29.082340
1669.000000	28.941820
1670.000000	28.786040
1671.000000	28.612240
1672.000000	28.411540
1673.000000	28.184340
1674.000000	27.913820
1675.000000	27.607820
1676.000000	27.243680
1677.000000	26.833640
1678.000000	26.357100
1679.000000	25.854240
1680.000000	25.314540
1681.000000	24.806620
1682.000000	24.347120
1683.000000	24.001640
1684.000000	23.759120
1685.000000	23.645040
1686.000000	23.594280
1687.000000	23.575440
1688.000000	23.551940
1689.000000	23.496300
1690.000000	23.397820
1691.000000	23.243440
1692.000000	23.075280
1693.000000	22.917540
1694.000000	22.783740
1695.000000	22.717500
1696.000000	22.708140
1697.000000	22.758180
1698.000000	22.859880
1699.000000	22.992720
1700.000000	23.149300
1701.000000	23.311800
1702.000000	23.439600
1703.000000	23.547140
1704.000000	23.631140
1705.000000	23.705740
1706.000000	23.758500
1707.000000	23.798000
1708.000000	23.821640
1709.000000	23.841540
1710.000000	23.842480
1711.000000	23.827540
1712.000000	23.806080
1713.000000	23.761060
1714.000000	23.698460
1715.000000	23.637480
1716.000000	23.571040
1717.000000	23.517680
1718.000000	23.467100
1719.000000	23.432320
1720.000000	23.395960
1721.000000	23.372860
1722.000000	23.362140
1723.000000	23.334140
1724.000000	23.301080
1725.000000	23.240120
1726.000000	23.168340
1727.000000	23.075900
1728.000000	22.958420
1729.000000	22.845540
1730.000000	22.728040
1731.000000	22.605360
1732.000000	22.510660
1733.000000	22.450040
1734.000000	22.430940
1735.000000	22.454340
1736.000000	22.518280
1737.000000	22.640000
1738.000000	22.802480
1739.000000	22.997320
1740.000000	23.207500
1741.000000	23.434280
1742.000000	23.650700
1743.000000	23.866660
1744.000000	24.038840
1745.000000	24.190960
1746.000000	24.328700
1747.000000	24.440620
1748.000000	24.527580
1749.000000	24.609640
1750.000000	24.663640
1751.000000	24.711920
1752.000000	24.749960
1753.000000	24.766380
1754.000000	24.766180
1755.000000	24.752960
1756.000000	24.722500
1757.000000	24.676420
1758.000000	24.620520
1759.000000	24.555160
1760.000000	24.492580
1761.000000	24.431440
1762.000000	24.388480
1763.000000	24.365160
1764.000000	24.371460
1765.000000	24.409100
1766.000000	24.470760
1767.000000	24.549240
1768.000000	24.649940
1769.000000	24.755380
1770.000000	24.865080
1771.000000	24.983860
1772.000000	25.107340
1773.000000	25.238060
1774.000000	25.363280
1775.000000	25.483280
1776.000000	25.595760
1777.000000	25.696400
1778.000000	25.800140
1779.000000	25.884320
1780.000000	25.960520
1781.000000	26.035340
1782.000000	26.115980
1783.000000	26.192740
1784.000000	26.267480
1785.000000	26.341800
1786.000000	26.413680
1787.000000	26.485960
1788.000000	26.555240
1789.000000	26.612280
1790.000000	26.667960
1791.000000	26.729920
1792.000000	26.784260
1793.000000	26.838380
1794.000000	26.891420
1795.000000	26.942480
1796.000000	26.983800
1797.000000	27.025480
1798.000000	27.079120
1799.000000	27.128800
1800.000000	27.181120
1801.000000	27.237240
1802.000000	27.279980
1803.000000	27.321700
1804.000000	27.371480
1805.000000	27.419100
1806.000000	27.465780
1807.000000	27.509200
1808.000000	27.550960
1809.000000	27.605060
1810.000000	27.653420
1811.000000	27.694260
1812.000000	27.716580
1813.000000	27.734420
1814.000000	27.757600
1815.000000	27.774820
1816.000000	27.782680
1817.000000	27.788220
1818.000000	27.823960
1819.000000	27.872320
1820.000000	27.896660
1821.000000	27.889020
1822.000000	27.879380
1823.000000	27.901640
1824.000000	27.956400
1825.000000	28.029020
1826.000000	28.089400
1827.000000	28.133100
1828.000000	28.195040
1829.000000	28.284400
1830.000000	28.353660
1831.000000	28.404420
1832.000000	28.464500
1833.000000	28.557980
1834.000000	28.674640
1835.000000	28.768140
1836.000000	28.821140
1837.000000	28.844680
1838.000000	28.880040
1839.000000	28.937100
1840.000000	28.984200
1841.000000	29.000620
1842.000000	28.988260
1843.000000	28.984420
1844.000000	29.042660
1845.000000	29.155360
1846.000000	29.253620
1847.000000	29.291500
1848.000000	29.273860
1849.000000	29.253960
1850.000000	29.299820
1851.000000	29.388240
1852.000000	29.444580
1853.000000	29.481600
1854.000000	29.517200
1855.000000	29.520660
1856.000000	29.522620
1857.000000	29.562120
1858.000000	29.573260
1859.000000	29.522740
1860.000000	29.464520
1861.000000	29.407520
1862.000000	29.349640
1863.000000	29.297280
1864.000000	29.264820
1865.000000	29.235040
1866.000000	29.172240
1867.000000	29.107960
1868.000000	29.014400
1869.000000	28.855880
1870.000000	28.617880
1871.000000	28.371200
1872.000000	28.103960
1873.000000	27.813920
1874.000000	27.513320
1875.000000	27.195400
1876.000000	26.856340
1877.000000	26.514720
1878.000000	26.152180
1879.000000	25.750540
1880.000000	25.363820
1881.000000	24.973460
1882.000000	24.527100
1883.000000	24.078640
1884.000000	23.629340
1885.000000	23.167740
1886.000000	22.745580
1887.000000	22.379800
1888.000000	22.071600
1889.000000	21.752300
1890.000000	21.444520
1891.000000	21.129620
1892.000000	20.785360
1893.000000	20.447400
1894.000000	20.164420
1895.000000	19.909080
1896.000000	19.693820
1897.000000	19.483960
1898.000000	19.211480
1899.000000	18.904180
1900.000000	18.603640
1901.000000	18.314760
1902.000000	18.057780
1903.000000	17.838480
1904.000000	17.609460
1905.000000	17.343000
1906.000000	17.056040
1907.000000	16.792340
1908.000000	16.560800
1909.000000	16.376840
1910.000000	16.223720
1911.000000	16.049460
1912.000000	15.853840
1913.000000	15.634860
1914.000000	15.407880
1915.000000	15.190180
1916.000000	15.026340
1917.000000	14.903660
1918.000000	14.772220
1919.000000	14.617440
1920.000000	14.468280
1921.000000	14.299740
1922.000000	14.122420
1923.000000	13.982280
1924.000000	13.891020
1925.000000	13.803220
1926.000000	13.691560
1927.000000	13.590920
1928.000000	13.496260
1929.000000	13.407560
1930.000000	13.321260
1931.000000	13.258780
1932.000000	13.204340
1933.000000	13.157580
1934.000000	13.109120
1935.000000	13.082040
1936.000000	13.057400
1937.000000	13.038840
1938.000000	13.011620
1939.000000	12.992120
1940.000000	12.983000
1941.000000	12.996140
1942.000000	12.989700
1943.000000	13.021420
1944.000000	13.036040
1945.000000	13.064940
1946.000000	13.085280
1947.000000	13.104680
1948.000000	13.152920
1949.000000	13.188480
1950.000000	13.222700
1951.000000	13.270620
1952.000000	13.325740
1953.000000	13.369240
1954.000000	13.420720
1955.000000	13.466440
1956.000000	13.525580
1957.000000	13.582960
1958.000000	13.632380
1959.000000	13.692580
1960.000000	13.750120
1961.000000	13.819180
1962.000000	13.863480
1963.000000	13.924760
1964.000000	13.982240
1965.000000	14.030920
1966.000000	14.090600
1967.000000	14.146560
1968.000000	14.202780
1969.000000	14.270540
1970.000000	14.338500
1971.000000	14.393260
1972.000000	14.454800
1973.000000	14.517560
1974.000000	14.589560
1975.000000	14.660040
1976.000000	14.719840
1977.000000	14.789820
1978.000000	14.858860
1979.000000	14.919960
1980.000000	14.989080
1981.000000	15.063720
1982.000000	15.124920
1983.000000	15.191140
1984.000000	15.268400
1985.000000	15.339080
1986.000000	15.391320
1987.000000	15.476660
1988.000000	15.525480
1989.000000	15.600800
1990.000000	15.669840
1991.000000	15.715460
1992.000000	15.771940
1993.000000	15.832580
1994.000000	15.875120
1995.000000	15.926500
1996.000000	15.985140
1997.000000	16.029500
1998.000000	16.066920
1999.000000	16.106580
2000.000000	16.145880
2001.000000	16.173760
2002.000000	16.205660
2003.000000	16.248440
2004.000000	16.257980
2005.000000	16.290460
2006.000000	16.307700
2007.000000	16.321580
2008.000000	16.329780
2009.000000	16.338260
2010.000000	16.343000
2011.000000	16.350020
2012.000000	16.335640
2013.000000	16.332660
2014.000000	16.317580
2015.000000	16.304740
2016.000000	16.278840
2017.000000	16.256780
2018.000000	16.228780
2019.000000	16.197500
2020.000000	16.173980
2021.000000	16.133500
2022.000000	16.098080
2023.000000	16.050920
2024.000000	16.004020
2025.000000	15.969580
2026.000000	15.922460
2027.000000	15.865800
2028.000000	15.807900
2029.000000	15.752420
2030.000000	15.693640
2031.000000	15.631340
2032.000000	15.560320
2033.000000	15.486400
2034.000000	15.412700
2035.000000	15.331440
2036.000000	15.250860
2037.000000	15.164740
2038.000000	15.077360
2039.000000	14.983740
2040.000000	14.886660
2041.000000	14.779880
2042.000000	14.674200
2043.000000	14.581280
2044.000000	14.487760
2045.000000	14.388020
2046.000000	14.281140
2047.000000	14.184800
2048.000000	14.104600
2049.000000	14.012560
2050.000000	13.935720
2051.000000	13.868840
2052.000000	13.806100
2053.000000	13.744280
2054.000000	13.695000
2055.000000	13.646400
2056.000000	13.615920
2057.000000	13.595860
2058.000000	13.572620
2059.000000	13.562620
2060.000000	13.554640
2061.000000	13.551920
2062.000000	13.551620
2063.000000	13.567040
2064.000000	13.574480
2065.000000	13.579200
2066.000000	13.594240
2067.000000	13.613720
2068.000000	13.625080
2069.000000	13.640600
2070.000000	13.659660
2071.000000	13.683280
2072.000000	13.704640
2073.000000	13.721760
2074.000000	13.733540
2075.000000	13.749200
2076.000000	13.767300
2077.000000	13.791000
2078.000000	13.815200
2079.000000	13.832240
2080.000000	13.848200
2081.000000	13.865300
2082.000000	13.889300
2083.000000	13.907220
2084.000000	13.918200
2085.000000	13.924320
2086.000000	13.934060
2087.000000	13.952320
2088.000000	13.966540
2089.000000	13.980500
2090.000000	13.991200
2091.000000	14.000040
2092.000000	14.012700
2093.000000	14.028820
2094.000000	14.045820
2095.000000	14.060720
2096.000000	14.082040
2097.000000	14.099000
2098.000000	14.109640
2099.000000	14.124120
2100.000000	14.145380
2101.000000	14.171360
2102.000000	14.195440
2103.000000	14.212420
2104.000000	14.230620
2105.000000	14.251480
2106.000000	14.265260
2107.000000	14.287520
2108.000000	14.318260
2109.000000	14.337180
2110.000000	14.356640
2111.000000	14.380300
2112.000000	14.405640
2113.000000	14.432000
2114.000000	14.452200
2115.000000	14.467620
2116.000000	14.483820
2117.000000	14.501340
2118.000000	14.523160
2119.000000	14.542900
2120.000000	14.557560
2121.000000	14.567660
2122.000000	14.575120
2123.000000	14.586600
2124.000000	14.596960
2125.000000	14.607200
2126.000000	14.609840
2127.000000	14.609260
2128.000000	14.611840
2129.000000	14.608360
2130.000000	14.600780
2131.000000	14.596360
2132.000000	14.584860
2133.000000	14.579660
2134.000000	14.570100
2135.000000	14.560120
2136.000000	14.545060
2137.000000	14.522400
2138.000000	14.510800
2139.000000	14.492700
2140.000000	14.465980
2141.000000	14.447980
2142.000000	14.425740
2143.000000	14.402140
2144.000000	14.381080
2145.000000	14.347200
2146.000000	14.323240
2147.000000	14.297200
2148.000000	14.262620
2149.000000	14.229040
2150.000000	14.201640
2151.000000	14.170820
2152.000000	14.141500
2153.000000	14.112820
2154.000000	14.087280
2155.000000	14.049660
2156.000000	14.007900
2157.000000	13.994020
2158.000000	13.966020
2159.000000	13.943940
2160.000000	13.922520
2161.000000	13.903240
2162.000000	13.882900
2163.000000	13.859180
2164.000000	13.846880
2165.000000	13.827340
2166.000000	13.815180
2167.000000	13.801920
2168.000000	13.788400
2169.000000	13.778020
2170.000000	13.776940
2171.000000	13.759560
2172.000000	13.761900
2173.000000	13.767720
2174.000000	13.772200
2175.000000	13.772360
2176.000000	13.783100
2177.000000	13.775640
2178.000000	13.781180
2179.000000	13.794800
2180.000000	13.807340
2181.000000	13.818580
2182.000000	13.836720
2183.000000	13.853060
2184.000000	13.862820
2185.000000	13.878520
2186.000000	13.908780
2187.000000	13.918820
2188.000000	13.934860
2189.000000	13.945440
2190.000000	13.955640
2191.000000	13.970040
2192.000000	13.987580
2193.000000	13.992040
2194.000000	14.009060
2195.000000	14.023960
2196.000000	14.040120
2197.000000	14.053340
2198.000000	14.065860
2199.000000	14.074080
2200.000000	14.082460
2201.000000	14.089380
2202.000000	14.097400
2203.000000	14.116500
2204.000000	14.125620
2205.000000	14.140120
2206.000000	14.153420
2207.000000	14.167500
2208.000000	14.184640
2209.000000	14.189200
2210.000000	14.212060
2211.000000	14.228820
2212.000000	14.250280
2213.000000	14.271880
2214.000000	14.293640
2215.000000	14.316400
2216.000000	14.329840
2217.000000	14.350560
2218.000000	14.370740
2219.000000	14.377020
2220.000000	14.398860
2221.000000	14.417540
2222.000000	14.428960
2223.000000	14.432880
2224.000000	14.441200
2225.000000	14.451940
2226.000000	14.429600
2227.000000	14.425080
2228.000000	14.409960
2229.000000	14.393040
2230.000000	14.368420
2231.000000	14.336500
2232.000000	14.304760
2233.000000	14.253880
2234.000000	14.208820
2235.000000	14.152160
2236.000000	14.077980
2237.000000	14.015460
2238.000000	13.933140
2239.000000	13.856700
2240.000000	13.751480
2241.000000	13.671160
2242.000000	13.578900
2243.000000	13.458900
2244.000000	13.337240
2245.000000	13.218560
2246.000000	13.087340
2247.000000	12.942320
2248.000000	12.798320
2249.000000	12.632700
2250.000000	12.475660
2251.000000	12.279980
2252.000000	12.084560
2253.000000	11.887680
2254.000000	11.678780
2255.000000	11.479660
2256.000000	11.255960
2257.000000	11.030540
2258.000000	10.803580
2259.000000	10.592740
2260.000000	10.387520
2261.000000	10.182040
2262.000000	9.999960
2263.000000	9.842460
2264.000000	9.680660
2265.000000	9.539520
2266.000000	9.422560
2267.000000	9.319440
2268.000000	9.248000
2269.000000	9.179480
2270.000000	9.126640
2271.000000	9.103400
2272.000000	9.091620
2273.000000	9.075480
2274.000000	9.087380
2275.000000	9.103080
2276.000000	9.130360
2277.000000	9.158340
2278.000000	9.187880
2279.000000	9.233180
2280.000000	9.282540
2281.000000	9.322740
2282.000000	9.358460
2283.000000	9.409480
2284.000000	9.451240
2285.000000	9.481900
2286.000000	9.515500
2287.000000	9.544820
2288.000000	9.554580
2289.000000	9.566160
2290.000000	9.556580
2291.000000	9.552500
2292.000000	9.529760
2293.000000	9.480560
2294.000000	9.434680
2295.000000	9.367260
2296.000000	9.299360
2297.000000	9.232660
2298.000000	9.162900
2299.000000	9.063980
2300.000000	8.987900
2301.000000	8.906160
2302.000000	8.823760
2303.000000	8.758760
2304.000000	8.703200
2305.000000	8.661400
2306.000000	8.625600
2307.000000	8.612120
2308.000000	8.620020
2309.000000	8.636260
2310.000000	8.663120
2311.000000	8.703020
2312.000000	8.766240
2313.000000	8.833060
2314.000000	8.904980
2315.000000	8.984680
2316.000000	9.079020
2317.000000	9.165620
2318.000000	9.255880
2319.000000	9.348900
2320.000000	9.440840
2321.000000	9.535660
2322.000000	9.626020
2323.000000	9.700980
2324.000000	9.769500
2325.000000	9.845120
2326.000000	9.913460
2327.000000	9.983960
2328.000000	10.041460
2329.000000	10.090960
2330.000000	10.130640
2331.000000	10.162660
2332.000000	10.204980
2333.000000	10.244740
2334.000000	10.267100
2335.000000	10.286760
2336.000000	10.298060
2337.000000	10.300700
2338.000000	10.302300
2339.000000	10.283540
2340.000000	10.265600
2341.000000	10.243260
2342.000000	10.209700
2343.000000	10.169640
2344.000000	10.126980
2345.000000	10.093060
2346.000000	10.044380
2347.000000	9.985780
2348.000000	9.940340
2349.000000	9.897820
2350.000000	9.859380
2351.000000	9.836540
2352.000000	9.814880
2353.000000	9.798700
2354.000000	9.794040
2355.000000	9.798380
2356.000000	9.815820
2357.000000	9.843760
2358.000000	9.878780
2359.000000	9.918800
2360.000000	9.956760
2361.000000	10.004100
2362.000000	10.061900
2363.000000	10.107980
2364.000000	10.160440
2365.000000	10.217960
2366.000000	10.271020
2367.000000	10.309220
2368.000000	10.352080
2369.000000	10.394100
2370.000000	10.419740
2371.000000	10.448060
2372.000000	10.478080
2373.000000	10.504740
2374.000000	10.522140
2375.000000	10.533200
2376.000000	10.550080
2377.000000	10.562180
2378.000000	10.566860
2379.000000	10.580740
2380.000000	10.590260
2381.000000	10.593320
2382.000000	10.596760
2383.000000	10.590520
2384.000000	10.591100
2385.000000	10.592880
2386.000000	10.588020
2387.000000	10.577260
2388.000000	10.571280
2389.000000	10.564540
2390.000000	10.542440
2391.000000	10.529940
2392.000000	10.519940
2393.000000	10.491720
2394.000000	10.472280
2395.000000	10.448960
2396.000000	10.424480
2397.000000	10.398760
2398.000000	10.366860
2399.000000	10.334140
2400.000000	10.319480
2401.000000	10.301160
2402.000000	10.265680
2403.000000	10.229680
2404.000000	10.206080
2405.000000	10.191660
2406.000000	10.169260
2407.000000	10.160900
2408.000000	10.133840
2409.000000	10.097400
2410.000000	10.048480
2411.000000	10.005440
2412.000000	9.983160
2413.000000	9.966480
2414.000000	9.946080
2415.000000	9.922280
2416.000000	9.906280
2417.000000	9.898360
2418.000000	9.895580
2419.000000	9.861000
2420.000000	9.841400
2421.000000	9.826020
2422.000000	9.797040
2423.000000	9.774840
2424.000000	9.772620
2425.000000	9.769360
2426.000000	9.754320
2427.000000	9.732260
2428.000000	9.709100
2429.000000	9.675340
2430.000000	9.638060
2431.000000	9.600440
2432.000000	9.556140
2433.000000	9.518520
2434.000000	9.481060
2435.000000	9.436380
2436.000000	9.395880
2437.000000	9.350680
2438.000000	9.299720
2439.000000	9.245540
2440.000000	9.196260
2441.000000	9.141040
2442.000000	9.093180
2443.000000	9.031380
2444.000000	8.977660
2445.000000	8.930680
2446.000000	8.869040
2447.000000	8.810680
2448.000000	8.748700
2449.000000	8.682340
2450.000000	8.643160
2451.000000	8.570400
2452.000000	8.518740
2453.000000	8.458280
2454.000000	8.411760
2455.000000	8.359960
2456.000000	8.297760
2457.000000	8.260960
2458.000000	8.212020
2459.000000	8.167500
2460.000000	8.124200
2461.000000	8.076220
2462.000000	8.056420
2463.000000	8.014000
2464.000000	8.012180
2465.000000	7.980740
2466.000000	7.964900
2467.000000	7.934440
2468.000000	7.938120
2469.000000	7.938880
2470.000000	7.920680
2471.000000	7.901820
2472.000000	7.902200
2473.000000	7.925680
2474.000000	7.937420
2475.000000	7.937460
2476.000000	7.915200
2477.000000	7.913060
2478.000000	7.924080
2479.000000	7.934840
2480.000000	7.923480
2481.000000	7.950480
2482.000000	7.941600
2483.000000	7.938000
2484.000000	7.917320
2485.000000	7.972540
2486.000000	7.966920
2487.000000	7.984180
2488.000000	8.000680
2489.000000	7.979460
2490.000000	8.021100
2491.000000	8.006480
2492.000000	8.027860
2493.000000	8.095940
2494.000000	8.045880
2495.000000	8.106580
2496.000000	8.096480
2497.000000	8.125580
2498.000000	8.160500
2499.000000	8.257060
2500.000000	8.233520
