PE UV       SUBTECH     SPECTRUM    ASCII       PEDS        4.00        
   -1
CICIMAUCR0070-3.Sample.ASC
24/04/18
13:44:03.00
24/04/18
13:44:03.00
Vinicio Soto Monge
C. resplendens
250,000000
1
Lambda 1050
1050L1511233
PerkinElmer UV WinLab 6.3.2.0749 / 2.02.05 Lambda 900 UV/VIS/NIR, Aug  7 2015 09:38:08

0
0
3350/servo 860,8/2
0
0
UV/VIS
1
1
1
DoubleDePol,CommonBeamDepol,RBeamAtt,SBeamAtt,60mm sphere, WB InGaAs Detector
0
0
0
0
Program
Program
3350/servo 860,8/2
3350/0,2 860,8/0,2
3350/0,2 860,8/0,2
0
15.00
 
 
 
0
 
860,8
319,2
860,8
Front
100
on
S:100 R:100
0
0
0
0
 
0
 
 
 
0
 
 
0
0
0
0
0
 
 
 
 
0
0


0
0
#HDR
-1
-1
#GR
nm
%R
1.0
0.0
2500,000000
-1,000000
2251
8
85,171500
5,254500
#DATA
250.000000	6.293233
251.000000	6.296733
252.000000	6.277967
253.000000	6.295500
254.000000	6.254967
255.000000	6.238900
256.000000	6.250433
257.000000	6.207533
258.000000	6.159933
259.000000	6.195167
260.000000	6.153333
261.000000	6.115400
262.000000	6.099100
263.000000	6.067833
264.000000	6.028433
265.000000	6.021100
266.000000	5.992200
267.000000	5.938833
268.000000	5.982267
269.000000	5.895833
270.000000	5.882300
271.000000	5.855400
272.000000	5.843600
273.000000	5.838700
274.000000	5.823533
275.000000	5.806433
276.000000	5.802500
277.000000	5.746700
278.000000	5.798267
279.000000	5.766667
280.000000	5.729833
281.000000	5.747900
282.000000	5.720467
283.000000	5.726567
284.000000	5.712667
285.000000	5.707600
286.000000	5.699267
287.000000	5.668833
288.000000	5.678533
289.000000	5.650967
290.000000	5.651700
291.000000	5.629667
292.000000	5.625500
293.000000	5.604967
294.000000	5.600433
295.000000	5.615533
296.000000	5.589167
297.000000	5.568933
298.000000	5.594267
299.000000	5.546667
300.000000	5.567333
301.000000	5.586867
302.000000	5.563967
303.000000	5.534600
304.000000	5.532333
305.000000	5.552767
306.000000	5.549400
307.000000	5.565267
308.000000	5.532833
309.000000	5.529933
310.000000	5.512667
311.000000	5.558833
312.000000	5.535300
313.000000	5.525833
314.000000	5.539400
315.000000	5.580333
316.000000	5.539333
317.000000	5.852633
318.000000	5.783267
319.000000	5.753133
320.000000	5.765000
321.000000	5.671333
322.000000	5.591800
323.000000	5.575033
324.000000	5.687500
325.000000	5.670967
326.000000	5.555600
327.000000	5.523400
328.000000	5.522333
329.000000	5.462267
330.000000	5.466933
331.000000	5.484467
332.000000	5.600133
333.000000	5.428033
334.000000	5.475067
335.000000	5.404400
336.000000	5.414467
337.000000	5.377567
338.000000	5.396567
339.000000	5.446133
340.000000	5.399833
341.000000	5.384567
342.000000	5.459933
343.000000	5.404467
344.000000	5.456167
345.000000	5.481167
346.000000	5.396067
347.000000	5.411067
348.000000	5.421833
349.000000	5.433033
350.000000	5.411133
351.000000	5.412233
352.000000	5.395333
353.000000	5.406967
354.000000	5.425100
355.000000	5.432000
356.000000	5.423000
357.000000	5.397933
358.000000	5.415333
359.000000	5.439733
360.000000	5.438200
361.000000	5.430600
362.000000	5.392900
363.000000	5.429733
364.000000	5.422500
365.000000	5.386367
366.000000	5.388000
367.000000	5.403967
368.000000	5.405033
369.000000	5.414067
370.000000	5.420700
371.000000	5.374800
372.000000	5.353000
373.000000	5.272033
374.000000	5.262867
375.000000	5.291933
376.000000	5.476633
377.000000	5.568333
378.000000	5.568133
379.000000	5.566267
380.000000	5.575300
381.000000	5.583967
382.000000	5.581433
383.000000	5.589467
384.000000	5.598300
385.000000	5.607100
386.000000	5.613333
387.000000	5.615433
388.000000	5.632100
389.000000	5.636933
390.000000	5.642833
391.000000	5.650567
392.000000	5.652333
393.000000	5.652333
394.000000	5.663967
395.000000	5.670567
396.000000	5.673900
397.000000	5.673167
398.000000	5.680767
399.000000	5.692700
400.000000	5.706333
401.000000	5.710600
402.000000	5.722633
403.000000	5.740733
404.000000	5.754067
405.000000	5.773400
406.000000	5.795300
407.000000	5.816167
408.000000	5.842700
409.000000	5.862800
410.000000	5.887600
411.000000	5.913900
412.000000	5.941400
413.000000	5.981233
414.000000	6.026167
415.000000	6.072400
416.000000	6.123233
417.000000	6.178367
418.000000	6.242000
419.000000	6.305267
420.000000	6.381733
421.000000	6.461533
422.000000	6.541267
423.000000	6.630933
424.000000	6.731967
425.000000	6.844067
426.000000	6.967200
427.000000	7.092933
428.000000	7.228100
429.000000	7.381233
430.000000	7.539167
431.000000	7.708233
432.000000	7.895867
433.000000	8.089700
434.000000	8.296333
435.000000	8.518700
436.000000	8.750667
437.000000	8.987733
438.000000	9.234967
439.000000	9.499700
440.000000	9.771667
441.000000	10.054133
442.000000	10.353900
443.000000	10.653533
444.000000	10.953833
445.000000	11.268267
446.000000	11.583633
447.000000	11.902700
448.000000	12.225367
449.000000	12.547600
450.000000	12.881967
451.000000	13.211600
452.000000	13.535500
453.000000	13.863967
454.000000	14.188467
455.000000	14.511267
456.000000	14.820967
457.000000	15.122733
458.000000	15.422800
459.000000	15.722367
460.000000	16.024533
461.000000	16.331700
462.000000	16.621000
463.000000	16.888967
464.000000	17.163333
465.000000	17.438733
466.000000	17.706567
467.000000	17.968733
468.000000	18.236200
469.000000	18.494633
470.000000	18.755200
471.000000	19.018933
472.000000	19.282133
473.000000	19.539433
474.000000	19.800433
475.000000	20.070133
476.000000	20.335567
477.000000	20.602100
478.000000	20.868633
479.000000	21.135100
480.000000	21.414500
481.000000	21.692967
482.000000	21.971767
483.000000	22.235933
484.000000	22.512500
485.000000	22.787800
486.000000	23.051333
487.000000	23.321900
488.000000	23.587133
489.000000	23.860967
490.000000	24.135133
491.000000	24.416367
492.000000	24.700500
493.000000	24.992800
494.000000	25.296667
495.000000	25.585100
496.000000	25.881600
497.000000	26.173600
498.000000	26.456633
499.000000	26.763167
500.000000	27.069067
501.000000	27.389900
502.000000	27.716300
503.000000	28.047433
504.000000	28.387600
505.000000	28.749467
506.000000	29.098333
507.000000	29.438567
508.000000	29.799967
509.000000	30.174967
510.000000	30.557033
511.000000	30.963867
512.000000	31.395467
513.000000	31.847133
514.000000	32.314067
515.000000	32.805267
516.000000	33.299033
517.000000	33.819233
518.000000	34.377467
519.000000	34.959000
520.000000	35.584500
521.000000	36.244733
522.000000	36.945067
523.000000	37.669067
524.000000	38.426267
525.000000	39.211200
526.000000	40.015967
527.000000	40.853933
528.000000	41.721700
529.000000	42.617433
530.000000	43.548700
531.000000	44.504333
532.000000	45.498700
533.000000	46.488533
534.000000	47.498900
535.000000	48.519900
536.000000	49.515867
537.000000	50.507633
538.000000	51.475700
539.000000	52.430267
540.000000	53.375500
541.000000	54.295400
542.000000	55.160500
543.000000	56.028367
544.000000	56.852800
545.000000	57.606100
546.000000	58.310667
547.000000	58.993433
548.000000	59.613000
549.000000	60.169467
550.000000	60.696267
551.000000	61.175467
552.000000	61.627633
553.000000	62.030533
554.000000	62.417133
555.000000	62.778467
556.000000	63.119667
557.000000	63.445467
558.000000	63.743100
559.000000	64.009267
560.000000	64.266533
561.000000	64.499633
562.000000	64.706733
563.000000	64.863933
564.000000	65.023967
565.000000	65.159667
566.000000	65.266533
567.000000	65.337800
568.000000	65.383933
569.000000	65.422067
570.000000	65.439533
571.000000	65.447067
572.000000	65.471133
573.000000	65.501200
574.000000	65.528733
575.000000	65.564200
576.000000	65.593300
577.000000	65.645633
578.000000	65.704467
579.000000	65.730800
580.000000	65.784933
581.000000	65.827733
582.000000	65.843100
583.000000	65.855467
584.000000	65.870167
585.000000	65.829000
586.000000	65.771600
587.000000	65.712833
588.000000	65.619900
589.000000	65.507967
590.000000	65.347933
591.000000	65.167300
592.000000	64.956333
593.000000	64.730300
594.000000	64.485267
595.000000	64.213733
596.000000	63.941467
597.000000	63.660000
598.000000	63.384867
599.000000	63.072467
600.000000	62.798867
601.000000	62.466200
602.000000	62.166433
603.000000	61.845600
604.000000	61.558200
605.000000	61.231833
606.000000	60.910233
607.000000	60.562533
608.000000	60.186000
609.000000	59.845500
610.000000	59.441900
611.000000	59.031200
612.000000	58.589433
613.000000	58.135100
614.000000	57.678633
615.000000	57.184400
616.000000	56.693800
617.000000	56.230600
618.000000	55.747500
619.000000	55.281100
620.000000	54.812133
621.000000	54.381433
622.000000	53.915933
623.000000	53.486367
624.000000	53.040567
625.000000	52.663000
626.000000	52.291800
627.000000	51.940067
628.000000	51.589933
629.000000	51.240167
630.000000	50.927333
631.000000	50.621900
632.000000	50.333933
633.000000	50.095033
634.000000	49.855900
635.000000	49.616333
636.000000	49.401367
637.000000	49.230733
638.000000	49.031600
639.000000	48.892833
640.000000	48.743633
641.000000	48.637167
642.000000	48.552300
643.000000	48.459400
644.000000	48.406233
645.000000	48.343300
646.000000	48.311267
647.000000	48.296400
648.000000	48.295633
649.000000	48.341133
650.000000	48.370733
651.000000	48.404833
652.000000	48.462200
653.000000	48.535167
654.000000	48.628133
655.000000	48.752767
656.000000	48.886767
657.000000	49.012933
658.000000	49.196467
659.000000	49.389567
660.000000	49.598600
661.000000	49.833533
662.000000	50.093767
663.000000	50.347967
664.000000	50.661000
665.000000	50.985100
666.000000	51.282600
667.000000	51.593367
668.000000	51.904167
669.000000	52.209367
670.000000	52.504467
671.000000	52.806733
672.000000	53.059933
673.000000	53.300967
674.000000	53.526467
675.000000	53.750033
676.000000	53.945667
677.000000	54.090000
678.000000	54.197933
679.000000	54.307267
680.000000	54.405300
681.000000	54.485067
682.000000	54.537233
683.000000	54.577767
684.000000	54.635267
685.000000	54.696667
686.000000	54.762600
687.000000	54.816933
688.000000	54.926233
689.000000	55.015100
690.000000	55.130300
691.000000	55.269600
692.000000	55.435333
693.000000	55.639533
694.000000	55.828267
695.000000	56.070700
696.000000	56.318800
697.000000	56.564767
698.000000	56.868933
699.000000	57.149300
700.000000	57.437033
701.000000	57.690033
702.000000	57.957500
703.000000	58.259433
704.000000	58.552733
705.000000	58.827933
706.000000	59.091700
707.000000	59.356333
708.000000	59.630500
709.000000	59.899567
710.000000	60.140733
711.000000	60.356367
712.000000	60.626233
713.000000	60.890767
714.000000	61.137633
715.000000	61.374233
716.000000	61.603833
717.000000	61.836333
718.000000	62.066267
719.000000	62.304967
720.000000	62.546933
721.000000	62.819567
722.000000	63.055800
723.000000	63.311800
724.000000	63.596233
725.000000	63.854733
726.000000	64.131700
727.000000	64.426600
728.000000	64.657467
729.000000	64.965900
730.000000	65.263267
731.000000	65.544700
732.000000	65.814533
733.000000	66.082167
734.000000	66.402767
735.000000	66.651100
736.000000	66.856033
737.000000	67.118033
738.000000	67.384967
739.000000	67.600200
740.000000	67.835600
741.000000	68.108767
742.000000	68.337833
743.000000	68.569133
744.000000	68.787967
745.000000	68.971133
746.000000	69.187233
747.000000	69.378867
748.000000	69.540100
749.000000	69.733000
750.000000	69.909600
751.000000	70.078633
752.000000	70.264200
753.000000	70.429967
754.000000	70.575667
755.000000	70.771033
756.000000	70.948367
757.000000	71.134067
758.000000	71.329400
759.000000	71.471100
760.000000	71.661433
761.000000	71.868400
762.000000	72.014867
763.000000	72.144600
764.000000	72.319733
765.000000	72.489933
766.000000	72.682133
767.000000	72.843933
768.000000	72.995667
769.000000	73.145100
770.000000	73.320067
771.000000	73.483533
772.000000	73.681267
773.000000	73.794733
774.000000	73.938133
775.000000	74.090633
776.000000	74.228300
777.000000	74.410833
778.000000	74.582133
779.000000	74.712467
780.000000	74.874100
781.000000	75.089333
782.000000	75.273167
783.000000	75.422800
784.000000	75.585900
785.000000	75.720567
786.000000	75.842233
787.000000	75.982067
788.000000	76.190567
789.000000	76.343200
790.000000	76.452867
791.000000	76.636000
792.000000	76.835867
793.000000	77.010700
794.000000	77.160967
795.000000	77.300300
796.000000	77.492567
797.000000	77.677200
798.000000	77.808167
799.000000	78.010333
800.000000	78.245633
801.000000	78.428300
802.000000	78.594500
803.000000	78.736833
804.000000	78.886533
805.000000	79.052833
806.000000	79.184067
807.000000	79.347400
808.000000	79.566433
809.000000	79.698633
810.000000	79.888967
811.000000	80.007033
812.000000	80.163400
813.000000	80.256667
814.000000	80.459333
815.000000	80.590767
816.000000	80.803300
817.000000	80.903433
818.000000	81.076567
819.000000	81.178567
820.000000	81.310267
821.000000	81.484767
822.000000	81.641867
823.000000	81.772967
824.000000	82.003967
825.000000	82.127300
826.000000	82.225967
827.000000	82.287233
828.000000	82.461967
829.000000	82.677733
830.000000	82.688167
831.000000	82.886400
832.000000	82.931133
833.000000	83.060067
834.000000	83.179900
835.000000	83.289500
836.000000	83.381933
837.000000	83.449533
838.000000	83.531667
839.000000	83.682767
840.000000	83.805900
841.000000	83.871133
842.000000	84.008767
843.000000	84.008900
844.000000	84.234933
845.000000	84.314567
846.000000	84.505633
847.000000	84.423100
848.000000	84.457767
849.000000	84.644367
850.000000	84.564600
851.000000	84.529733
852.000000	84.817800
853.000000	84.808833
854.000000	84.560833
855.000000	84.370867
856.000000	84.592167
857.000000	84.817033
858.000000	84.593356
859.000000	82.994903
860.000000	83.561579
861.000000	84.125278
862.000000	84.645280
863.000000	85.131515
864.000000	85.615915
865.000000	86.059762
866.000000	86.417813
867.000000	86.808953
868.000000	87.152835
869.000000	87.525909
870.000000	87.828052
871.000000	88.067926
872.000000	88.348447
873.000000	88.629065
874.000000	88.936245
875.000000	89.185581
876.000000	89.415858
877.000000	89.605720
878.000000	89.810022
879.000000	89.996639
880.000000	90.134040
881.000000	90.295176
882.000000	90.456988
883.000000	90.614662
884.000000	90.762785
885.000000	90.854524
886.000000	90.965312
887.000000	91.075087
888.000000	91.150854
889.000000	91.207565
890.000000	91.281231
891.000000	91.318678
892.000000	91.386343
893.000000	91.440715
894.000000	91.490773
895.000000	91.545330
896.000000	91.557890
897.000000	91.564729
898.000000	91.582065
899.000000	91.607580
900.000000	91.623020
901.000000	91.611145
902.000000	91.566445
903.000000	91.555956
904.000000	91.560455
905.000000	91.566903
906.000000	91.497776
907.000000	91.468782
908.000000	91.393887
909.000000	91.360547
910.000000	91.330240
911.000000	91.299468
912.000000	91.249615
913.000000	91.174614
914.000000	91.123735
915.000000	91.075972
916.000000	91.003799
917.000000	90.944473
918.000000	90.859517
919.000000	90.813942
920.000000	90.740852
921.000000	90.686456
922.000000	90.620299
923.000000	90.573069
924.000000	90.527392
925.000000	90.450046
926.000000	90.387776
927.000000	90.355117
928.000000	90.303750
929.000000	90.226182
930.000000	90.188610
931.000000	90.115169
932.000000	90.053282
933.000000	89.986443
934.000000	89.913264
935.000000	89.866190
936.000000	89.793665
937.000000	89.721936
938.000000	89.666827
939.000000	89.603662
940.000000	89.571061
941.000000	89.491623
942.000000	89.450003
943.000000	89.390096
944.000000	89.345195
945.000000	89.278939
946.000000	89.227970
947.000000	89.150069
948.000000	89.101789
949.000000	89.064341
950.000000	88.990259
951.000000	88.918155
952.000000	88.846030
953.000000	88.786458
954.000000	88.709043
955.000000	88.634004
956.000000	88.569916
957.000000	88.489076
958.000000	88.413957
959.000000	88.349597
960.000000	88.266732
961.000000	88.198986
962.000000	88.126017
963.000000	88.043244
964.000000	87.968325
965.000000	87.900742
966.000000	87.837527
967.000000	87.785951
968.000000	87.719334
969.000000	87.655633
970.000000	87.605558
971.000000	87.547901
972.000000	87.492562
973.000000	87.435282
974.000000	87.391271
975.000000	87.355333
976.000000	87.309437
977.000000	87.265106
978.000000	87.234098
979.000000	87.200418
980.000000	87.168430
981.000000	87.137775
982.000000	87.108994
983.000000	87.089095
984.000000	87.066961
985.000000	87.040315
986.000000	87.022982
987.000000	87.011645
988.000000	87.009662
989.000000	86.988283
990.000000	86.981046
991.000000	86.984842
992.000000	86.980728
993.000000	86.979371
994.000000	86.988132
995.000000	86.982066
996.000000	86.984098
997.000000	86.990624
998.000000	86.995300
999.000000	87.008624
1000.000000	87.004085
1001.000000	87.004765
1002.000000	87.018130
1003.000000	87.011333
1004.000000	87.009452
1005.000000	87.025303
1006.000000	87.020486
1007.000000	87.012152
1008.000000	87.019023
1009.000000	87.001388
1010.000000	86.980523
1011.000000	86.976841
1012.000000	86.970632
1013.000000	86.959602
1014.000000	86.943026
1015.000000	86.940277
1016.000000	86.931913
1017.000000	86.911557
1018.000000	86.901736
1019.000000	86.893567
1020.000000	86.884622
1021.000000	86.873387
1022.000000	86.863313
1023.000000	86.843799
1024.000000	86.827191
1025.000000	86.810433
1026.000000	86.796512
1027.000000	86.795418
1028.000000	86.786562
1029.000000	86.771317
1030.000000	86.755720
1031.000000	86.746220
1032.000000	86.740854
1033.000000	86.724184
1034.000000	86.715931
1035.000000	86.710719
1036.000000	86.697216
1037.000000	86.685859
1038.000000	86.680947
1039.000000	86.680179
1040.000000	86.672907
1041.000000	86.670094
1042.000000	86.669620
1043.000000	86.657412
1044.000000	86.645740
1045.000000	86.648937
1046.000000	86.657114
1047.000000	86.659771
1048.000000	86.668267
1049.000000	86.669145
1050.000000	86.671922
1051.000000	86.692106
1052.000000	86.711285
1053.000000	86.725391
1054.000000	86.739062
1055.000000	86.754891
1056.000000	86.777715
1057.000000	86.805576
1058.000000	86.832656
1059.000000	86.854780
1060.000000	86.884307
1061.000000	86.912772
1062.000000	86.947478
1063.000000	86.977072
1064.000000	87.010224
1065.000000	87.036555
1066.000000	87.074967
1067.000000	87.110743
1068.000000	87.143078
1069.000000	87.187753
1070.000000	87.223134
1071.000000	87.247682
1072.000000	87.281659
1073.000000	87.329604
1074.000000	87.370524
1075.000000	87.405518
1076.000000	87.436220
1077.000000	87.467446
1078.000000	87.502576
1079.000000	87.530446
1080.000000	87.562535
1081.000000	87.606009
1082.000000	87.637695
1083.000000	87.662252
1084.000000	87.687824
1085.000000	87.723759
1086.000000	87.749447
1087.000000	87.767422
1088.000000	87.796479
1089.000000	87.818680
1090.000000	87.839120
1091.000000	87.857238
1092.000000	87.879680
1093.000000	87.901033
1094.000000	87.921683
1095.000000	87.929589
1096.000000	87.937611
1097.000000	87.953853
1098.000000	87.975494
1099.000000	87.986171
1100.000000	87.987294
1101.000000	88.001179
1102.000000	88.011380
1103.000000	88.013257
1104.000000	88.011229
1105.000000	88.013811
1106.000000	88.009171
1107.000000	88.016856
1108.000000	88.026093
1109.000000	88.019878
1110.000000	88.018452
1111.000000	88.021966
1112.000000	88.015282
1113.000000	88.005776
1114.000000	88.007766
1115.000000	88.008202
1116.000000	88.004055
1117.000000	88.005278
1118.000000	87.999608
1119.000000	87.998217
1120.000000	87.981363
1121.000000	87.972335
1122.000000	87.977091
1123.000000	87.949634
1124.000000	87.925960
1125.000000	87.880974
1126.000000	87.836727
1127.000000	87.781570
1128.000000	87.752050
1129.000000	87.718172
1130.000000	87.631970
1131.000000	87.550483
1132.000000	87.474964
1133.000000	87.445514
1134.000000	87.427045
1135.000000	87.354584
1136.000000	87.277827
1137.000000	87.144469
1138.000000	87.042086
1139.000000	86.961020
1140.000000	86.899056
1141.000000	86.844004
1142.000000	86.767536
1143.000000	86.705083
1144.000000	86.674937
1145.000000	86.649411
1146.000000	86.591809
1147.000000	86.538017
1148.000000	86.482461
1149.000000	86.438599
1150.000000	86.392905
1151.000000	86.339386
1152.000000	86.300528
1153.000000	86.245634
1154.000000	86.179210
1155.000000	86.100916
1156.000000	86.041397
1157.000000	85.962309
1158.000000	85.876175
1159.000000	85.803814
1160.000000	85.711922
1161.000000	85.614153
1162.000000	85.518306
1163.000000	85.431658
1164.000000	85.345884
1165.000000	85.244077
1166.000000	85.159058
1167.000000	85.082544
1168.000000	84.997688
1169.000000	84.920687
1170.000000	84.855915
1171.000000	84.787671
1172.000000	84.737693
1173.000000	84.686006
1174.000000	84.645496
1175.000000	84.608311
1176.000000	84.568169
1177.000000	84.535743
1178.000000	84.492480
1179.000000	84.446233
1180.000000	84.415095
1181.000000	84.385633
1182.000000	84.357507
1183.000000	84.339117
1184.000000	84.319518
1185.000000	84.308908
1186.000000	84.311690
1187.000000	84.323655
1188.000000	84.331737
1189.000000	84.352162
1190.000000	84.402915
1191.000000	84.438112
1192.000000	84.492129
1193.000000	84.559558
1194.000000	84.617486
1195.000000	84.681813
1196.000000	84.731208
1197.000000	84.782460
1198.000000	84.839126
1199.000000	84.887938
1200.000000	84.929120
1201.000000	84.980898
1202.000000	85.018525
1203.000000	85.066646
1204.000000	85.108144
1205.000000	85.145009
1206.000000	85.175228
1207.000000	85.222040
1208.000000	85.256320
1209.000000	85.283114
1210.000000	85.323321
1211.000000	85.353098
1212.000000	85.386118
1213.000000	85.419752
1214.000000	85.435871
1215.000000	85.467121
1216.000000	85.482705
1217.000000	85.494336
1218.000000	85.499846
1219.000000	85.521282
1220.000000	85.534173
1221.000000	85.557880
1222.000000	85.569868
1223.000000	85.578113
1224.000000	85.592329
1225.000000	85.604849
1226.000000	85.617009
1227.000000	85.630697
1228.000000	85.657166
1229.000000	85.652931
1230.000000	85.675994
1231.000000	85.679843
1232.000000	85.697689
1233.000000	85.710369
1234.000000	85.713452
1235.000000	85.724880
1236.000000	85.741880
1237.000000	85.752289
1238.000000	85.766905
1239.000000	85.793691
1240.000000	85.809267
1241.000000	85.830248
1242.000000	85.840665
1243.000000	85.857048
1244.000000	85.884885
1245.000000	85.922243
1246.000000	85.927830
1247.000000	85.937874
1248.000000	85.969474
1249.000000	85.980850
1250.000000	85.985484
1251.000000	85.999606
1252.000000	86.021208
1253.000000	86.028479
1254.000000	86.024105
1255.000000	86.021060
1256.000000	86.005485
1257.000000	86.007518
1258.000000	86.007010
1259.000000	86.002602
1260.000000	85.986376
1261.000000	85.972930
1262.000000	85.953641
1263.000000	85.949575
1264.000000	85.949226
1265.000000	85.941766
1266.000000	85.936784
1267.000000	85.919539
1268.000000	85.905985
1269.000000	85.898777
1270.000000	85.888325
1271.000000	85.877366
1272.000000	85.873166
1273.000000	85.874808
1274.000000	85.880441
1275.000000	85.877901
1276.000000	85.876961
1277.000000	85.878998
1278.000000	85.890130
1279.000000	85.905045
1280.000000	85.917492
1281.000000	85.931086
1282.000000	85.952440
1283.000000	85.973052
1284.000000	85.989159
1285.000000	86.009845
1286.000000	86.029891
1287.000000	86.047925
1288.000000	86.070803
1289.000000	86.084473
1290.000000	86.095887
1291.000000	86.112222
1292.000000	86.124948
1293.000000	86.139493
1294.000000	86.150111
1295.000000	86.152393
1296.000000	86.161396
1297.000000	86.170826
1298.000000	86.169503
1299.000000	86.167501
1300.000000	86.167011
1301.000000	86.166531
1302.000000	86.163833
1303.000000	86.162937
1304.000000	86.159782
1305.000000	86.140812
1306.000000	86.127070
1307.000000	86.122345
1308.000000	86.107624
1309.000000	86.089675
1310.000000	86.071329
1311.000000	86.050070
1312.000000	86.030926
1313.000000	86.008978
1314.000000	85.981493
1315.000000	85.949145
1316.000000	85.920667
1317.000000	85.900214
1318.000000	85.865779
1319.000000	85.820857
1320.000000	85.792279
1321.000000	85.764922
1322.000000	85.725530
1323.000000	85.693402
1324.000000	85.655604
1325.000000	85.607714
1326.000000	85.562033
1327.000000	85.512460
1328.000000	85.462849
1329.000000	85.414777
1330.000000	85.343327
1331.000000	85.282653
1332.000000	85.227909
1333.000000	85.160792
1334.000000	85.075081
1335.000000	84.996203
1336.000000	84.922228
1337.000000	84.837497
1338.000000	84.743645
1339.000000	84.642430
1340.000000	84.550127
1341.000000	84.442636
1342.000000	84.326689
1343.000000	84.227531
1344.000000	84.124148
1345.000000	83.973459
1346.000000	83.839290
1347.000000	83.755331
1348.000000	83.658168
1349.000000	83.505052
1350.000000	83.373702
1351.000000	83.239170
1352.000000	83.103429
1353.000000	83.008671
1354.000000	82.965804
1355.000000	82.890735
1356.000000	82.758801
1357.000000	82.670058
1358.000000	82.613255
1359.000000	82.549616
1360.000000	82.557451
1361.000000	82.562382
1362.000000	82.505497
1363.000000	82.369717
1364.000000	82.286788
1365.000000	82.186947
1366.000000	82.053356
1367.000000	81.972616
1368.000000	81.907773
1369.000000	81.743970
1370.000000	81.637130
1371.000000	81.554867
1372.000000	81.434584
1373.000000	81.277474
1374.000000	81.118424
1375.000000	81.033702
1376.000000	80.926941
1377.000000	80.830851
1378.000000	80.733460
1379.000000	80.637301
1380.000000	80.485483
1381.000000	80.483494
1382.000000	80.368725
1383.000000	80.163175
1384.000000	79.988400
1385.000000	79.650752
1386.000000	79.383282
1387.000000	79.155910
1388.000000	78.958801
1389.000000	78.575124
1390.000000	78.266627
1391.000000	78.049262
1392.000000	77.792817
1393.000000	77.472084
1394.000000	77.263656
1395.000000	77.079094
1396.000000	76.696700
1397.000000	76.224323
1398.000000	75.843218
1399.000000	75.675992
1400.000000	75.446393
1401.000000	75.004958
1402.000000	74.493725
1403.000000	74.156190
1404.000000	73.737809
1405.000000	73.434935
1406.000000	73.028497
1407.000000	72.654791
1408.000000	72.274705
1409.000000	71.929068
1410.000000	71.441109
1411.000000	71.005410
1412.000000	70.618708
1413.000000	70.329712
1414.000000	70.053537
1415.000000	69.631405
1416.000000	69.244616
1417.000000	68.939887
1418.000000	68.706179
1419.000000	68.471744
1420.000000	68.161869
1421.000000	67.808297
1422.000000	67.530465
1423.000000	67.326173
1424.000000	67.103074
1425.000000	66.842129
1426.000000	66.597593
1427.000000	66.402667
1428.000000	66.230891
1429.000000	66.020323
1430.000000	65.822844
1431.000000	65.700760
1432.000000	65.554394
1433.000000	65.398193
1434.000000	65.250107
1435.000000	65.080493
1436.000000	64.937492
1437.000000	64.816864
1438.000000	64.719620
1439.000000	64.590016
1440.000000	64.461905
1441.000000	64.378905
1442.000000	64.259153
1443.000000	64.149470
1444.000000	64.063969
1445.000000	64.014986
1446.000000	63.929976
1447.000000	63.785339
1448.000000	63.664179
1449.000000	63.591988
1450.000000	63.561078
1451.000000	63.492742
1452.000000	63.389325
1453.000000	63.254521
1454.000000	63.168159
1455.000000	63.100152
1456.000000	63.000932
1457.000000	62.898305
1458.000000	62.808657
1459.000000	62.721297
1460.000000	62.643515
1461.000000	62.560000
1462.000000	62.471176
1463.000000	62.390367
1464.000000	62.297208
1465.000000	62.237069
1466.000000	62.172227
1467.000000	62.102221
1468.000000	62.006477
1469.000000	61.927377
1470.000000	61.910329
1471.000000	61.861685
1472.000000	61.792361
1473.000000	61.709376
1474.000000	61.637442
1475.000000	61.566665
1476.000000	61.516507
1477.000000	61.496516
1478.000000	61.456134
1479.000000	61.420363
1480.000000	61.394983
1481.000000	61.373139
1482.000000	61.346346
1483.000000	61.301315
1484.000000	61.268786
1485.000000	61.245166
1486.000000	61.215917
1487.000000	61.200528
1488.000000	61.175186
1489.000000	61.147569
1490.000000	61.119452
1491.000000	61.105077
1492.000000	61.080546
1493.000000	61.050581
1494.000000	61.046309
1495.000000	61.054246
1496.000000	61.062718
1497.000000	61.068662
1498.000000	61.088032
1499.000000	61.116887
1500.000000	61.145145
1501.000000	61.184277
1502.000000	61.231561
1503.000000	61.280402
1504.000000	61.331773
1505.000000	61.389398
1506.000000	61.440595
1507.000000	61.512180
1508.000000	61.572204
1509.000000	61.642850
1510.000000	61.707135
1511.000000	61.763273
1512.000000	61.823491
1513.000000	61.886137
1514.000000	61.957054
1515.000000	62.025570
1516.000000	62.077942
1517.000000	62.145870
1518.000000	62.212602
1519.000000	62.263604
1520.000000	62.319928
1521.000000	62.382851
1522.000000	62.437802
1523.000000	62.494979
1524.000000	62.555276
1525.000000	62.606221
1526.000000	62.657578
1527.000000	62.713612
1528.000000	62.762830
1529.000000	62.797432
1530.000000	62.841384
1531.000000	62.893086
1532.000000	62.938920
1533.000000	62.987761
1534.000000	63.024658
1535.000000	63.061478
1536.000000	63.097957
1537.000000	63.141803
1538.000000	63.179204
1539.000000	63.206481
1540.000000	63.228793
1541.000000	63.262011
1542.000000	63.296146
1543.000000	63.338397
1544.000000	63.384307
1545.000000	63.439236
1546.000000	63.497119
1547.000000	63.553781
1548.000000	63.620692
1549.000000	63.694976
1550.000000	63.772346
1551.000000	63.835855
1552.000000	63.902384
1553.000000	63.966042
1554.000000	64.015615
1555.000000	64.063997
1556.000000	64.108566
1557.000000	64.144184
1558.000000	64.166897
1559.000000	64.186438
1560.000000	64.200183
1561.000000	64.201706
1562.000000	64.202567
1563.000000	64.192825
1564.000000	64.169160
1565.000000	64.142049
1566.000000	64.131578
1567.000000	64.114572
1568.000000	64.089199
1569.000000	64.074661
1570.000000	64.057158
1571.000000	64.033451
1572.000000	64.014964
1573.000000	64.008534
1574.000000	64.006359
1575.000000	64.007710
1576.000000	64.011678
1577.000000	64.022963
1578.000000	64.047133
1579.000000	64.068751
1580.000000	64.088438
1581.000000	64.120853
1582.000000	64.156973
1583.000000	64.202093
1584.000000	64.231551
1585.000000	64.253312
1586.000000	64.297049
1587.000000	64.347031
1588.000000	64.391771
1589.000000	64.429139
1590.000000	64.476593
1591.000000	64.527985
1592.000000	64.567258
1593.000000	64.614366
1594.000000	64.661211
1595.000000	64.711325
1596.000000	64.775286
1597.000000	64.839420
1598.000000	64.891737
1599.000000	64.948998
1600.000000	65.014215
1601.000000	65.084315
1602.000000	65.157430
1603.000000	65.219910
1604.000000	65.279026
1605.000000	65.352226
1606.000000	65.411280
1607.000000	65.472393
1608.000000	65.526484
1609.000000	65.585495
1610.000000	65.629358
1611.000000	65.667549
1612.000000	65.718527
1613.000000	65.758581
1614.000000	65.794535
1615.000000	65.825075
1616.000000	65.868606
1617.000000	65.901746
1618.000000	65.926153
1619.000000	65.959355
1620.000000	65.996971
1621.000000	66.028209
1622.000000	66.066180
1623.000000	66.111573
1624.000000	66.151699
1625.000000	66.193035
1626.000000	66.238734
1627.000000	66.283597
1628.000000	66.327778
1629.000000	66.365801
1630.000000	66.402228
1631.000000	66.449065
1632.000000	66.491774
1633.000000	66.523140
1634.000000	66.546859
1635.000000	66.587263
1636.000000	66.603915
1637.000000	66.627916
1638.000000	66.652020
1639.000000	66.660842
1640.000000	66.673222
1641.000000	66.685297
1642.000000	66.686017
1643.000000	66.701233
1644.000000	66.707962
1645.000000	66.720755
1646.000000	66.732791
1647.000000	66.747128
1648.000000	66.754554
1649.000000	66.751586
1650.000000	66.750713
1651.000000	66.739324
1652.000000	66.718552
1653.000000	66.700745
1654.000000	66.667889
1655.000000	66.631204
1656.000000	66.577155
1657.000000	66.521776
1658.000000	66.443005
1659.000000	66.371076
1660.000000	66.272915
1661.000000	66.173234
1662.000000	66.057524
1663.000000	65.926803
1664.000000	65.804307
1665.000000	65.673999
1666.000000	65.544048
1667.000000	65.405117
1668.000000	65.232934
1669.000000	65.061293
1670.000000	64.893424
1671.000000	64.725927
1672.000000	64.563084
1673.000000	64.390074
1674.000000	64.233682
1675.000000	64.044977
1676.000000	63.875846
1677.000000	63.702756
1678.000000	63.502500
1679.000000	63.307237
1680.000000	63.099858
1681.000000	62.878409
1682.000000	62.671050
1683.000000	62.453072
1684.000000	62.239428
1685.000000	62.066960
1686.000000	61.917877
1687.000000	61.800057
1688.000000	61.730418
1689.000000	61.708569
1690.000000	61.734642
1691.000000	61.773993
1692.000000	61.829577
1693.000000	61.907165
1694.000000	61.942517
1695.000000	61.995030
1696.000000	62.012126
1697.000000	62.038219
1698.000000	62.030570
1699.000000	62.036777
1700.000000	62.022194
1701.000000	61.995055
1702.000000	61.989092
1703.000000	61.953940
1704.000000	61.917453
1705.000000	61.882498
1706.000000	61.815354
1707.000000	61.740135
1708.000000	61.629602
1709.000000	61.521101
1710.000000	61.406935
1711.000000	61.257465
1712.000000	61.095881
1713.000000	60.926032
1714.000000	60.719794
1715.000000	60.518542
1716.000000	60.307469
1717.000000	60.065945
1718.000000	59.844373
1719.000000	59.614256
1720.000000	59.414331
1721.000000	59.232725
1722.000000	59.099402
1723.000000	59.028590
1724.000000	58.970918
1725.000000	58.949997
1726.000000	58.952034
1727.000000	58.964499
1728.000000	58.993139
1729.000000	59.010342
1730.000000	59.032158
1731.000000	59.057015
1732.000000	59.097942
1733.000000	59.129477
1734.000000	59.165501
1735.000000	59.195321
1736.000000	59.248386
1737.000000	59.286789
1738.000000	59.337828
1739.000000	59.380453
1740.000000	59.444374
1741.000000	59.504552
1742.000000	59.568223
1743.000000	59.630118
1744.000000	59.680913
1745.000000	59.746728
1746.000000	59.801384
1747.000000	59.830018
1748.000000	59.869719
1749.000000	59.890818
1750.000000	59.924314
1751.000000	59.936827
1752.000000	59.941226
1753.000000	59.929281
1754.000000	59.933189
1755.000000	59.917576
1756.000000	59.918418
1757.000000	59.906103
1758.000000	59.895857
1759.000000	59.892652
1760.000000	59.871101
1761.000000	59.871511
1762.000000	59.861417
1763.000000	59.872924
1764.000000	59.880137
1765.000000	59.890940
1766.000000	59.915997
1767.000000	59.946793
1768.000000	59.972309
1769.000000	60.001198
1770.000000	60.020032
1771.000000	60.060042
1772.000000	60.090031
1773.000000	60.110958
1774.000000	60.140456
1775.000000	60.167100
1776.000000	60.201301
1777.000000	60.232867
1778.000000	60.256245
1779.000000	60.272902
1780.000000	60.290252
1781.000000	60.292115
1782.000000	60.295982
1783.000000	60.300258
1784.000000	60.312397
1785.000000	60.317893
1786.000000	60.300488
1787.000000	60.285262
1788.000000	60.277520
1789.000000	60.269633
1790.000000	60.268846
1791.000000	60.279067
1792.000000	60.288410
1793.000000	60.305334
1794.000000	60.325198
1795.000000	60.348097
1796.000000	60.358657
1797.000000	60.373118
1798.000000	60.397546
1799.000000	60.416333
1800.000000	60.453296
1801.000000	60.498630
1802.000000	60.513257
1803.000000	60.512003
1804.000000	60.519154
1805.000000	60.548943
1806.000000	60.590536
1807.000000	60.608668
1808.000000	60.618999
1809.000000	60.634372
1810.000000	60.668706
1811.000000	60.726462
1812.000000	60.757531
1813.000000	60.770546
1814.000000	60.773211
1815.000000	60.794512
1816.000000	60.802795
1817.000000	60.803247
1818.000000	60.810823
1819.000000	60.857876
1820.000000	60.929854
1821.000000	60.940390
1822.000000	60.875556
1823.000000	60.806679
1824.000000	60.813074
1825.000000	60.850560
1826.000000	60.887607
1827.000000	60.898395
1828.000000	60.941687
1829.000000	61.003951
1830.000000	61.037334
1831.000000	61.045638
1832.000000	61.052222
1833.000000	61.097797
1834.000000	61.176415
1835.000000	61.268002
1836.000000	61.325636
1837.000000	61.354925
1838.000000	61.377814
1839.000000	61.419598
1840.000000	61.469775
1841.000000	61.503480
1842.000000	61.467237
1843.000000	61.393791
1844.000000	61.375649
1845.000000	61.415218
1846.000000	61.505712
1847.000000	61.570292
1848.000000	61.546471
1849.000000	61.495929
1850.000000	61.433582
1851.000000	61.386707
1852.000000	61.340991
1853.000000	61.333413
1854.000000	61.327820
1855.000000	61.263622
1856.000000	61.223047
1857.000000	61.184753
1858.000000	61.119386
1859.000000	61.044487
1860.000000	60.939473
1861.000000	60.812030
1862.000000	60.683126
1863.000000	60.570150
1864.000000	60.483213
1865.000000	60.398854
1866.000000	60.322028
1867.000000	60.266575
1868.000000	60.151104
1869.000000	59.972823
1870.000000	59.800673
1871.000000	59.596331
1872.000000	59.343045
1873.000000	59.063279
1874.000000	58.754196
1875.000000	58.427389
1876.000000	58.094976
1877.000000	57.768803
1878.000000	57.424238
1879.000000	57.039799
1880.000000	56.669048
1881.000000	56.272542
1882.000000	55.838496
1883.000000	55.401569
1884.000000	54.893584
1885.000000	54.325312
1886.000000	53.778989
1887.000000	53.232052
1888.000000	52.680751
1889.000000	52.051386
1890.000000	51.471578
1891.000000	50.802532
1892.000000	50.061850
1893.000000	49.335032
1894.000000	48.654769
1895.000000	48.005941
1896.000000	47.424819
1897.000000	46.808179
1898.000000	46.095202
1899.000000	45.400820
1900.000000	44.672895
1901.000000	43.980265
1902.000000	43.383102
1903.000000	42.794112
1904.000000	42.229330
1905.000000	41.613303
1906.000000	40.964174
1907.000000	40.377151
1908.000000	39.854838
1909.000000	39.434246
1910.000000	39.071784
1911.000000	38.637948
1912.000000	38.242852
1913.000000	37.828542
1914.000000	37.395231
1915.000000	36.994865
1916.000000	36.675639
1917.000000	36.397264
1918.000000	36.105523
1919.000000	35.843444
1920.000000	35.606055
1921.000000	35.334187
1922.000000	35.072324
1923.000000	34.857654
1924.000000	34.689854
1925.000000	34.502809
1926.000000	34.354721
1927.000000	34.224402
1928.000000	34.099676
1929.000000	33.957777
1930.000000	33.869578
1931.000000	33.782121
1932.000000	33.718599
1933.000000	33.659053
1934.000000	33.619566
1935.000000	33.589464
1936.000000	33.585569
1937.000000	33.585693
1938.000000	33.605255
1939.000000	33.633021
1940.000000	33.648066
1941.000000	33.690412
1942.000000	33.746188
1943.000000	33.800358
1944.000000	33.868262
1945.000000	33.940269
1946.000000	34.009917
1947.000000	34.112634
1948.000000	34.201168
1949.000000	34.293593
1950.000000	34.398960
1951.000000	34.505929
1952.000000	34.629721
1953.000000	34.751681
1954.000000	34.868613
1955.000000	34.983511
1956.000000	35.111681
1957.000000	35.217955
1958.000000	35.353842
1959.000000	35.475425
1960.000000	35.594869
1961.000000	35.706452
1962.000000	35.833921
1963.000000	35.966560
1964.000000	36.080453
1965.000000	36.208093
1966.000000	36.316868
1967.000000	36.425438
1968.000000	36.541173
1969.000000	36.677665
1970.000000	36.784744
1971.000000	36.905466
1972.000000	37.030795
1973.000000	37.159598
1974.000000	37.274052
1975.000000	37.392591
1976.000000	37.524513
1977.000000	37.648893
1978.000000	37.771204
1979.000000	37.911676
1980.000000	38.042460
1981.000000	38.179550
1982.000000	38.310057
1983.000000	38.427772
1984.000000	38.561811
1985.000000	38.693708
1986.000000	38.821868
1987.000000	38.946800
1988.000000	39.071497
1989.000000	39.182821
1990.000000	39.316954
1991.000000	39.449025
1992.000000	39.551210
1993.000000	39.661049
1994.000000	39.789557
1995.000000	39.886466
1996.000000	39.997934
1997.000000	40.090784
1998.000000	40.189198
1999.000000	40.271696
2000.000000	40.363729
2001.000000	40.444844
2002.000000	40.513564
2003.000000	40.590787
2004.000000	40.638681
2005.000000	40.709942
2006.000000	40.754415
2007.000000	40.800081
2008.000000	40.831431
2009.000000	40.875164
2010.000000	40.899639
2011.000000	40.913791
2012.000000	40.914452
2013.000000	40.927797
2014.000000	40.932712
2015.000000	40.917501
2016.000000	40.880959
2017.000000	40.870677
2018.000000	40.852835
2019.000000	40.815850
2020.000000	40.766927
2021.000000	40.705193
2022.000000	40.655129
2023.000000	40.607299
2024.000000	40.533489
2025.000000	40.457216
2026.000000	40.381620
2027.000000	40.300611
2028.000000	40.227468
2029.000000	40.130859
2030.000000	40.017071
2031.000000	39.915230
2032.000000	39.790278
2033.000000	39.657523
2034.000000	39.533858
2035.000000	39.398499
2036.000000	39.261327
2037.000000	39.109176
2038.000000	38.943652
2039.000000	38.770455
2040.000000	38.599074
2041.000000	38.425173
2042.000000	38.243467
2043.000000	38.079100
2044.000000	37.911519
2045.000000	37.734823
2046.000000	37.554979
2047.000000	37.400775
2048.000000	37.263371
2049.000000	37.153016
2050.000000	37.050205
2051.000000	36.971617
2052.000000	36.911309
2053.000000	36.878964
2054.000000	36.877135
2055.000000	36.880612
2056.000000	36.921459
2057.000000	36.980531
2058.000000	37.043756
2059.000000	37.136783
2060.000000	37.251878
2061.000000	37.372346
2062.000000	37.495059
2063.000000	37.626725
2064.000000	37.767822
2065.000000	37.912038
2066.000000	38.050116
2067.000000	38.187456
2068.000000	38.330330
2069.000000	38.471402
2070.000000	38.601314
2071.000000	38.728007
2072.000000	38.846742
2073.000000	38.964875
2074.000000	39.068596
2075.000000	39.164809
2076.000000	39.261072
2077.000000	39.332956
2078.000000	39.407118
2079.000000	39.472167
2080.000000	39.520141
2081.000000	39.569312
2082.000000	39.607495
2083.000000	39.640195
2084.000000	39.664456
2085.000000	39.669782
2086.000000	39.672028
2087.000000	39.677279
2088.000000	39.678217
2089.000000	39.667230
2090.000000	39.648848
2091.000000	39.631638
2092.000000	39.614424
2093.000000	39.590495
2094.000000	39.572873
2095.000000	39.561257
2096.000000	39.552003
2097.000000	39.546547
2098.000000	39.543624
2099.000000	39.538855
2100.000000	39.527805
2101.000000	39.529158
2102.000000	39.536706
2103.000000	39.543137
2104.000000	39.544331
2105.000000	39.543179
2106.000000	39.540910
2107.000000	39.540139
2108.000000	39.542730
2109.000000	39.536647
2110.000000	39.526602
2111.000000	39.521729
2112.000000	39.513609
2113.000000	39.505920
2114.000000	39.491926
2115.000000	39.467075
2116.000000	39.444447
2117.000000	39.411915
2118.000000	39.389162
2119.000000	39.355140
2120.000000	39.311159
2121.000000	39.270953
2122.000000	39.230839
2123.000000	39.182348
2124.000000	39.120062
2125.000000	39.061649
2126.000000	38.997729
2127.000000	38.927043
2128.000000	38.851234
2129.000000	38.776437
2130.000000	38.698008
2131.000000	38.604413
2132.000000	38.514288
2133.000000	38.415979
2134.000000	38.316080
2135.000000	38.209412
2136.000000	38.088761
2137.000000	37.973925
2138.000000	37.852837
2139.000000	37.738776
2140.000000	37.615098
2141.000000	37.492976
2142.000000	37.363198
2143.000000	37.234096
2144.000000	37.104334
2145.000000	36.977821
2146.000000	36.848226
2147.000000	36.699330
2148.000000	36.561019
2149.000000	36.430321
2150.000000	36.295105
2151.000000	36.162000
2152.000000	36.024740
2153.000000	35.896053
2154.000000	35.771260
2155.000000	35.641172
2156.000000	35.516174
2157.000000	35.416706
2158.000000	35.305459
2159.000000	35.203803
2160.000000	35.120045
2161.000000	35.031187
2162.000000	34.950068
2163.000000	34.879525
2164.000000	34.830076
2165.000000	34.772118
2166.000000	34.722283
2167.000000	34.674731
2168.000000	34.649894
2169.000000	34.617812
2170.000000	34.580882
2171.000000	34.557091
2172.000000	34.535735
2173.000000	34.536927
2174.000000	34.534039
2175.000000	34.541686
2176.000000	34.537032
2177.000000	34.551989
2178.000000	34.566038
2179.000000	34.594837
2180.000000	34.600625
2181.000000	34.634962
2182.000000	34.652283
2183.000000	34.680644
2184.000000	34.694700
2185.000000	34.724514
2186.000000	34.766330
2187.000000	34.784492
2188.000000	34.803614
2189.000000	34.830853
2190.000000	34.855679
2191.000000	34.884224
2192.000000	34.901702
2193.000000	34.934229
2194.000000	34.967787
2195.000000	34.993921
2196.000000	35.032214
2197.000000	35.059590
2198.000000	35.101140
2199.000000	35.145289
2200.000000	35.194317
2201.000000	35.236521
2202.000000	35.289491
2203.000000	35.343012
2204.000000	35.384092
2205.000000	35.446715
2206.000000	35.513792
2207.000000	35.582369
2208.000000	35.664368
2209.000000	35.736586
2210.000000	35.813736
2211.000000	35.888403
2212.000000	35.981018
2213.000000	36.072065
2214.000000	36.168001
2215.000000	36.272889
2216.000000	36.372878
2217.000000	36.479057
2218.000000	36.588656
2219.000000	36.679965
2220.000000	36.780907
2221.000000	36.881597
2222.000000	36.976545
2223.000000	37.065186
2224.000000	37.149514
2225.000000	37.233841
2226.000000	37.309460
2227.000000	37.373599
2228.000000	37.429255
2229.000000	37.467353
2230.000000	37.508157
2231.000000	37.543834
2232.000000	37.561104
2233.000000	37.570087
2234.000000	37.564196
2235.000000	37.566128
2236.000000	37.518323
2237.000000	37.494481
2238.000000	37.451392
2239.000000	37.382344
2240.000000	37.304951
2241.000000	37.203570
2242.000000	37.111196
2243.000000	37.018033
2244.000000	36.870764
2245.000000	36.750960
2246.000000	36.580386
2247.000000	36.442678
2248.000000	36.257627
2249.000000	36.079506
2250.000000	35.896788
2251.000000	35.705765
2252.000000	35.521145
2253.000000	35.295108
2254.000000	35.101680
2255.000000	34.911879
2256.000000	34.699913
2257.000000	34.520880
2258.000000	34.339178
2259.000000	34.164203
2260.000000	33.995988
2261.000000	33.844646
2262.000000	33.717014
2263.000000	33.568920
2264.000000	33.472989
2265.000000	33.355741
2266.000000	33.276292
2267.000000	33.178924
2268.000000	33.132185
2269.000000	33.064274
2270.000000	33.004227
2271.000000	32.935510
2272.000000	32.892662
2273.000000	32.833363
2274.000000	32.785400
2275.000000	32.748871
2276.000000	32.692750
2277.000000	32.653749
2278.000000	32.598414
2279.000000	32.542321
2280.000000	32.492420
2281.000000	32.430912
2282.000000	32.376521
2283.000000	32.328232
2284.000000	32.261027
2285.000000	32.192676
2286.000000	32.148879
2287.000000	32.095317
2288.000000	32.054726
2289.000000	32.001404
2290.000000	31.963875
2291.000000	31.929012
2292.000000	31.903101
2293.000000	31.857051
2294.000000	31.834866
2295.000000	31.813467
2296.000000	31.788158
2297.000000	31.783856
2298.000000	31.759221
2299.000000	31.752163
2300.000000	31.758387
2301.000000	31.770025
2302.000000	31.767467
2303.000000	31.780970
2304.000000	31.802659
2305.000000	31.810884
2306.000000	31.843176
2307.000000	31.857284
2308.000000	31.891332
2309.000000	31.935404
2310.000000	31.960825
2311.000000	32.002469
2312.000000	32.045554
2313.000000	32.076892
2314.000000	32.097593
2315.000000	32.117021
2316.000000	32.133347
2317.000000	32.151219
2318.000000	32.161659
2319.000000	32.157510
2320.000000	32.142046
2321.000000	32.135055
2322.000000	32.104070
2323.000000	32.072833
2324.000000	32.047543
2325.000000	32.007191
2326.000000	31.965026
2327.000000	31.940893
2328.000000	31.905675
2329.000000	31.851109
2330.000000	31.801743
2331.000000	31.765647
2332.000000	31.736572
2333.000000	31.709992
2334.000000	31.691388
2335.000000	31.646248
2336.000000	31.618775
2337.000000	31.623810
2338.000000	31.595432
2339.000000	31.581840
2340.000000	31.582262
2341.000000	31.575693
2342.000000	31.573719
2343.000000	31.546098
2344.000000	31.539214
2345.000000	31.554501
2346.000000	31.553364
2347.000000	31.548882
2348.000000	31.541386
2349.000000	31.552648
2350.000000	31.558911
2351.000000	31.552830
2352.000000	31.561749
2353.000000	31.562917
2354.000000	31.559195
2355.000000	31.564212
2356.000000	31.576834
2357.000000	31.570327
2358.000000	31.562210
2359.000000	31.555035
2360.000000	31.546709
2361.000000	31.542539
2362.000000	31.519268
2363.000000	31.498220
2364.000000	31.488599
2365.000000	31.466305
2366.000000	31.454407
2367.000000	31.447502
2368.000000	31.437200
2369.000000	31.419201
2370.000000	31.408276
2371.000000	31.404666
2372.000000	31.390748
2373.000000	31.383272
2374.000000	31.377681
2375.000000	31.387077
2376.000000	31.374182
2377.000000	31.364278
2378.000000	31.366322
2379.000000	31.363549
2380.000000	31.355425
2381.000000	31.335052
2382.000000	31.329836
2383.000000	31.321172
2384.000000	31.297957
2385.000000	31.272168
2386.000000	31.244176
2387.000000	31.212419
2388.000000	31.177580
2389.000000	31.157723
2390.000000	31.129025
2391.000000	31.084082
2392.000000	31.046205
2393.000000	30.989459
2394.000000	30.933057
2395.000000	30.891621
2396.000000	30.846395
2397.000000	30.804015
2398.000000	30.757079
2399.000000	30.674732
2400.000000	30.601750
2401.000000	30.558588
2402.000000	30.504368
2403.000000	30.438713
2404.000000	30.340584
2405.000000	30.264938
2406.000000	30.207984
2407.000000	30.145336
2408.000000	30.069188
2409.000000	29.951227
2410.000000	29.856367
2411.000000	29.782189
2412.000000	29.693086
2413.000000	29.582269
2414.000000	29.455321
2415.000000	29.360990
2416.000000	29.264922
2417.000000	29.170181
2418.000000	29.043923
2419.000000	28.901194
2420.000000	28.730979
2421.000000	28.526705
2422.000000	28.329505
2423.000000	28.160589
2424.000000	28.026836
2425.000000	27.903212
2426.000000	27.815058
2427.000000	27.700809
2428.000000	27.580184
2429.000000	27.452427
2430.000000	27.344672
2431.000000	27.219990
2432.000000	27.086886
2433.000000	26.967602
2434.000000	26.818909
2435.000000	26.682107
2436.000000	26.567094
2437.000000	26.431719
2438.000000	26.289274
2439.000000	26.154029
2440.000000	26.007201
2441.000000	25.867490
2442.000000	25.724044
2443.000000	25.585932
2444.000000	25.443536
2445.000000	25.318976
2446.000000	25.183128
2447.000000	25.028456
2448.000000	24.882268
2449.000000	24.749698
2450.000000	24.613831
2451.000000	24.495527
2452.000000	24.341411
2453.000000	24.221865
2454.000000	24.109701
2455.000000	24.001717
2456.000000	23.891442
2457.000000	23.786136
2458.000000	23.691922
2459.000000	23.588043
2460.000000	23.511423
2461.000000	23.437741
2462.000000	23.355574
2463.000000	23.257734
2464.000000	23.182028
2465.000000	23.111269
2466.000000	23.043131
2467.000000	22.979968
2468.000000	22.910378
2469.000000	22.814227
2470.000000	22.794290
2471.000000	22.720695
2472.000000	22.670646
2473.000000	22.637895
2474.000000	22.556618
2475.000000	22.505623
2476.000000	22.470045
2477.000000	22.410441
2478.000000	22.380194
2479.000000	22.342664
2480.000000	22.325835
2481.000000	22.357059
2482.000000	22.302902
2483.000000	22.250945
2484.000000	22.249656
2485.000000	22.243484
2486.000000	22.231438
2487.000000	22.158577
2488.000000	22.201962
2489.000000	22.213674
2490.000000	22.214359
2491.000000	22.170360
2492.000000	22.217866
2493.000000	22.229382
2494.000000	22.183367
2495.000000	22.192058
2496.000000	22.255614
2497.000000	22.305828
2498.000000	22.299356
2499.000000	22.292549
2500.000000	22.301331
