PE UV       SUBTECH     SPECTRUM    ASCII       PEDS        4.00        
   -1
CICIMAUCR0015-3.Sample.ASC
24/04/12
11:43:14.00
24/04/12
11:43:14.00
Vinicio Soto Monge
C. resplendens
250,000000
1
Lambda 1050
1050L1511233
PerkinElmer UV WinLab 6.3.2.0749 / 2.02.05 Lambda 900 UV/VIS/NIR, Aug  7 2015 09:38:08

0
0
3350/servo 860,8/2
0
0
UV/VIS
1
1
1
DoubleDePol,CommonBeamDepol,RBeamAtt,SBeamAtt,60mm sphere, WB InGaAs Detector
0
0
0
0
Program
Program
3350/servo 860,8/2
3350/0,2 860,8/0,2
3350/0,2 860,8/0,2
0
15.00
 
 
 
0
 
860,8
319,2
860,8
Front
100
on
S:100 R:100
0
0
0
0
 
0
 
 
 
0
 
 
0
0
0
0
0
 
 
 
 
0
0


0
0
#HDR
-1
-1
#GR
nm
%R
1.0
0.0
2500,000000
-1,000000
2251
8
93,394800
5,535300
#DATA
250.000000	6.108967
251.000000	6.101900
252.000000	6.079567
253.000000	6.068200
254.000000	6.084167
255.000000	6.013767
256.000000	6.021300
257.000000	6.027367
258.000000	5.991533
259.000000	6.008267
260.000000	5.972633
261.000000	5.946767
262.000000	5.923067
263.000000	5.898633
264.000000	5.899067
265.000000	5.869833
266.000000	5.848567
267.000000	5.828233
268.000000	5.800367
269.000000	5.780900
270.000000	5.792600
271.000000	5.777733
272.000000	5.733333
273.000000	5.731400
274.000000	5.731267
275.000000	5.752300
276.000000	5.743667
277.000000	5.720467
278.000000	5.696333
279.000000	5.678100
280.000000	5.707267
281.000000	5.680167
282.000000	5.708967
283.000000	5.705167
284.000000	5.687000
285.000000	5.656067
286.000000	5.658500
287.000000	5.624100
288.000000	5.639567
289.000000	5.637833
290.000000	5.578200
291.000000	5.602633
292.000000	5.609867
293.000000	5.609033
294.000000	5.591300
295.000000	5.607600
296.000000	5.580667
297.000000	5.582700
298.000000	5.518800
299.000000	5.565067
300.000000	5.568700
301.000000	5.522133
302.000000	5.524833
303.000000	5.539033
304.000000	5.512400
305.000000	5.516700
306.000000	5.480033
307.000000	5.510733
308.000000	5.514233
309.000000	5.483400
310.000000	5.472200
311.000000	5.470100
312.000000	5.473233
313.000000	5.474467
314.000000	5.473067
315.000000	5.481033
316.000000	5.506333
317.000000	5.786800
318.000000	5.792767
319.000000	5.730900
320.000000	5.733900
321.000000	5.729100
322.000000	5.593500
323.000000	5.871500
324.000000	5.800133
325.000000	5.690833
326.000000	5.645633
327.000000	5.723667
328.000000	5.717600
329.000000	5.565000
330.000000	5.661667
331.000000	5.643267
332.000000	5.678433
333.000000	5.607467
334.000000	5.591167
335.000000	5.655900
336.000000	5.650400
337.000000	5.619600
338.000000	5.651800
339.000000	5.651200
340.000000	5.615200
341.000000	5.673033
342.000000	5.796367
343.000000	5.721167
344.000000	5.706900
345.000000	5.702367
346.000000	5.711867
347.000000	5.708267
348.000000	5.749700
349.000000	5.766267
350.000000	5.787567
351.000000	5.831667
352.000000	5.823133
353.000000	5.844633
354.000000	5.959967
355.000000	6.034600
356.000000	6.119567
357.000000	6.195967
358.000000	6.234033
359.000000	6.298167
360.000000	6.380467
361.000000	6.454367
362.000000	6.560500
363.000000	6.560867
364.000000	6.617233
365.000000	6.699867
366.000000	6.795233
367.000000	6.902967
368.000000	6.973600
369.000000	7.067767
370.000000	7.142000
371.000000	7.241700
372.000000	7.343533
373.000000	7.456567
374.000000	7.545100
375.000000	7.717600
376.000000	8.071933
377.000000	8.145033
378.000000	8.328833
379.000000	8.538267
380.000000	8.753167
381.000000	8.980467
382.000000	9.216933
383.000000	9.468167
384.000000	9.728500
385.000000	10.000567
386.000000	10.287067
387.000000	10.587167
388.000000	10.891867
389.000000	11.206533
390.000000	11.541833
391.000000	11.878800
392.000000	12.235367
393.000000	12.591933
394.000000	12.957833
395.000000	13.326933
396.000000	13.696867
397.000000	14.066900
398.000000	14.435733
399.000000	14.811767
400.000000	15.191767
401.000000	15.566167
402.000000	15.933167
403.000000	16.305000
404.000000	16.665233
405.000000	17.030500
406.000000	17.373367
407.000000	17.712367
408.000000	18.045200
409.000000	18.356467
410.000000	18.677867
411.000000	18.994300
412.000000	19.291433
413.000000	19.572467
414.000000	19.843700
415.000000	20.098233
416.000000	20.343267
417.000000	20.583933
418.000000	20.810700
419.000000	21.023533
420.000000	21.214800
421.000000	21.399767
422.000000	21.580067
423.000000	21.738267
424.000000	21.882867
425.000000	22.010600
426.000000	22.128567
427.000000	22.231900
428.000000	22.312633
429.000000	22.381867
430.000000	22.433933
431.000000	22.471367
432.000000	22.497200
433.000000	22.499800
434.000000	22.488267
435.000000	22.463233
436.000000	22.428133
437.000000	22.383333
438.000000	22.321200
439.000000	22.235367
440.000000	22.139367
441.000000	22.039033
442.000000	21.928600
443.000000	21.818800
444.000000	21.694033
445.000000	21.540333
446.000000	21.396633
447.000000	21.257067
448.000000	21.136733
449.000000	21.037400
450.000000	20.940733
451.000000	20.842467
452.000000	20.779300
453.000000	20.745233
454.000000	20.743533
455.000000	20.788100
456.000000	20.857933
457.000000	20.967800
458.000000	21.117267
459.000000	21.308600
460.000000	21.554200
461.000000	21.851200
462.000000	22.181467
463.000000	22.565467
464.000000	22.987933
465.000000	23.438367
466.000000	23.918767
467.000000	24.430467
468.000000	24.958367
469.000000	25.494267
470.000000	26.045267
471.000000	26.590367
472.000000	27.124667
473.000000	27.654433
474.000000	28.161133
475.000000	28.643133
476.000000	29.087567
477.000000	29.518300
478.000000	29.909267
479.000000	30.263967
480.000000	30.601800
481.000000	30.900700
482.000000	31.162700
483.000000	31.392400
484.000000	31.581267
485.000000	31.730733
486.000000	31.838333
487.000000	31.932967
488.000000	32.019200
489.000000	32.093633
490.000000	32.164267
491.000000	32.226633
492.000000	32.295233
493.000000	32.369733
494.000000	32.464267
495.000000	32.593600
496.000000	32.751200
497.000000	32.950700
498.000000	33.198133
499.000000	33.513867
500.000000	33.907700
501.000000	34.372400
502.000000	34.923767
503.000000	35.548533
504.000000	36.260533
505.000000	37.039567
506.000000	37.885400
507.000000	38.814500
508.000000	39.802633
509.000000	40.868333
510.000000	41.997267
511.000000	43.192033
512.000000	44.421367
513.000000	45.702267
514.000000	47.029333
515.000000	48.386300
516.000000	49.754633
517.000000	51.116000
518.000000	52.480067
519.000000	53.848167
520.000000	55.207433
521.000000	56.537800
522.000000	57.846067
523.000000	59.109767
524.000000	60.339800
525.000000	61.513167
526.000000	62.638700
527.000000	63.719800
528.000000	64.759333
529.000000	65.756400
530.000000	66.722567
531.000000	67.660200
532.000000	68.560000
533.000000	69.422500
534.000000	70.265433
535.000000	71.087533
536.000000	71.853533
537.000000	72.611600
538.000000	73.332300
539.000000	74.020667
540.000000	74.721600
541.000000	75.407433
542.000000	76.065500
543.000000	76.706900
544.000000	77.314533
545.000000	77.898033
546.000000	78.467767
547.000000	79.024233
548.000000	79.556067
549.000000	80.045733
550.000000	80.532167
551.000000	80.992267
552.000000	81.435533
553.000000	81.879933
554.000000	82.268567
555.000000	82.643067
556.000000	83.020000
557.000000	83.386933
558.000000	83.716567
559.000000	84.014967
560.000000	84.247500
561.000000	84.524067
562.000000	84.803233
563.000000	85.046100
564.000000	85.271033
565.000000	85.472600
566.000000	85.651167
567.000000	85.836200
568.000000	85.976233
569.000000	86.104933
570.000000	86.210067
571.000000	86.314500
572.000000	86.417167
573.000000	86.481933
574.000000	86.571133
575.000000	86.611067
576.000000	86.654100
577.000000	86.678333
578.000000	86.700367
579.000000	86.686800
580.000000	86.643000
581.000000	86.588267
582.000000	86.550233
583.000000	86.451400
584.000000	86.348067
585.000000	86.203133
586.000000	86.049300
587.000000	85.902533
588.000000	85.731833
589.000000	85.512100
590.000000	85.254233
591.000000	85.021033
592.000000	84.720533
593.000000	84.457033
594.000000	84.163400
595.000000	83.809167
596.000000	83.479633
597.000000	83.138900
598.000000	82.747533
599.000000	82.333667
600.000000	81.910400
601.000000	81.437233
602.000000	80.949933
603.000000	80.445967
604.000000	79.860933
605.000000	79.297267
606.000000	78.686500
607.000000	78.068800
608.000000	77.373133
609.000000	76.702767
610.000000	75.993067
611.000000	75.252100
612.000000	74.520800
613.000000	73.756700
614.000000	72.965033
615.000000	72.142833
616.000000	71.339367
617.000000	70.481767
618.000000	69.633200
619.000000	68.732567
620.000000	67.798967
621.000000	66.848033
622.000000	65.876800
623.000000	64.915300
624.000000	63.922333
625.000000	62.984167
626.000000	62.023933
627.000000	61.113200
628.000000	60.224733
629.000000	59.351367
630.000000	58.560100
631.000000	57.808033
632.000000	57.137633
633.000000	56.510767
634.000000	55.969667
635.000000	55.511467
636.000000	55.113667
637.000000	54.824467
638.000000	54.621633
639.000000	54.509100
640.000000	54.451433
641.000000	54.517733
642.000000	54.658533
643.000000	54.863067
644.000000	55.175367
645.000000	55.559433
646.000000	56.038700
647.000000	56.534367
648.000000	57.091567
649.000000	57.738100
650.000000	58.435700
651.000000	59.165267
652.000000	59.940500
653.000000	60.718967
654.000000	61.507333
655.000000	62.288233
656.000000	63.045000
657.000000	63.793367
658.000000	64.497767
659.000000	65.207267
660.000000	65.868133
661.000000	66.494667
662.000000	67.060267
663.000000	67.603667
664.000000	68.135233
665.000000	68.613167
666.000000	69.066467
667.000000	69.463167
668.000000	69.853900
669.000000	70.248733
670.000000	70.600600
671.000000	70.948767
672.000000	71.254300
673.000000	71.536467
674.000000	71.807800
675.000000	72.061333
676.000000	72.262267
677.000000	72.459800
678.000000	72.630333
679.000000	72.769533
680.000000	72.869367
681.000000	72.975467
682.000000	73.102500
683.000000	73.184900
684.000000	73.251333
685.000000	73.317933
686.000000	73.337800
687.000000	73.349767
688.000000	73.347800
689.000000	73.367000
690.000000	73.354700
691.000000	73.370600
692.000000	73.402367
693.000000	73.360833
694.000000	73.306067
695.000000	73.270000
696.000000	73.217967
697.000000	73.154267
698.000000	73.066933
699.000000	73.010300
700.000000	72.922300
701.000000	72.842367
702.000000	72.789400
703.000000	72.723833
704.000000	72.661033
705.000000	72.605300
706.000000	72.549833
707.000000	72.533733
708.000000	72.543600
709.000000	72.567533
710.000000	72.633100
711.000000	72.711233
712.000000	72.796733
713.000000	72.928367
714.000000	73.119933
715.000000	73.323267
716.000000	73.558967
717.000000	73.822633
718.000000	74.083367
719.000000	74.401733
720.000000	74.803467
721.000000	75.190733
722.000000	75.569133
723.000000	75.986700
724.000000	76.468167
725.000000	76.973767
726.000000	77.478100
727.000000	77.989767
728.000000	78.510667
729.000000	79.038367
730.000000	79.571367
731.000000	80.148233
732.000000	80.690633
733.000000	81.239900
734.000000	81.769933
735.000000	82.267600
736.000000	82.766267
737.000000	83.268200
738.000000	83.765833
739.000000	84.226500
740.000000	84.680633
741.000000	85.114467
742.000000	85.558533
743.000000	85.988033
744.000000	86.375233
745.000000	86.728667
746.000000	87.040800
747.000000	87.349467
748.000000	87.621033
749.000000	87.862000
750.000000	88.071733
751.000000	88.278100
752.000000	88.419967
753.000000	88.501800
754.000000	88.640200
755.000000	88.720500
756.000000	88.751233
757.000000	88.818600
758.000000	88.876433
759.000000	88.913733
760.000000	88.916367
761.000000	88.905100
762.000000	88.895967
763.000000	88.852100
764.000000	88.799533
765.000000	88.733267
766.000000	88.643200
767.000000	88.589033
768.000000	88.581767
769.000000	88.490133
770.000000	88.392100
771.000000	88.366833
772.000000	88.304100
773.000000	88.195667
774.000000	88.164267
775.000000	88.177333
776.000000	88.168667
777.000000	88.206867
778.000000	88.250467
779.000000	88.374367
780.000000	88.455733
781.000000	88.511300
782.000000	88.594933
783.000000	88.720900
784.000000	88.837133
785.000000	88.876833
786.000000	88.977967
787.000000	89.079467
788.000000	89.150200
789.000000	89.231000
790.000000	89.306100
791.000000	89.371233
792.000000	89.394767
793.000000	89.443833
794.000000	89.508300
795.000000	89.521200
796.000000	89.432800
797.000000	89.403433
798.000000	89.426400
799.000000	89.382800
800.000000	89.260400
801.000000	89.123600
802.000000	89.043533
803.000000	88.962433
804.000000	88.694433
805.000000	88.529200
806.000000	88.404700
807.000000	88.230300
808.000000	88.047167
809.000000	87.944233
810.000000	87.739733
811.000000	87.498000
812.000000	87.347600
813.000000	87.242067
814.000000	87.126167
815.000000	87.115467
816.000000	86.955933
817.000000	86.856900
818.000000	86.864767
819.000000	86.854033
820.000000	86.789600
821.000000	86.708367
822.000000	86.605367
823.000000	86.678200
824.000000	86.601000
825.000000	86.571233
826.000000	86.537133
827.000000	86.459500
828.000000	86.354267
829.000000	86.274900
830.000000	86.130233
831.000000	85.931633
832.000000	85.775000
833.000000	85.403900
834.000000	85.247767
835.000000	84.964367
836.000000	84.605467
837.000000	84.276000
838.000000	83.946200
839.000000	83.566500
840.000000	83.061800
841.000000	82.688133
842.000000	82.261933
843.000000	81.831033
844.000000	81.246167
845.000000	80.875300
846.000000	80.383300
847.000000	79.752933
848.000000	79.405000
849.000000	78.783567
850.000000	78.316600
851.000000	77.730067
852.000000	77.095367
853.000000	76.866367
854.000000	76.418300
855.000000	75.767633
856.000000	75.260733
857.000000	75.102567
858.000000	75.376978
859.000000	74.271036
860.000000	74.376416
861.000000	74.425069
862.000000	74.509346
863.000000	74.473873
864.000000	74.487535
865.000000	74.442485
866.000000	74.445931
867.000000	74.392888
868.000000	74.348108
869.000000	74.301297
870.000000	74.249698
871.000000	74.201186
872.000000	74.136757
873.000000	74.109993
874.000000	74.030428
875.000000	73.958185
876.000000	73.906252
877.000000	73.797113
878.000000	73.649715
879.000000	73.598217
880.000000	73.474979
881.000000	73.333528
882.000000	73.222770
883.000000	73.081487
884.000000	72.921515
885.000000	72.742575
886.000000	72.561042
887.000000	72.355130
888.000000	72.204274
889.000000	72.003996
890.000000	71.783925
891.000000	71.548878
892.000000	71.329589
893.000000	71.084304
894.000000	70.844035
895.000000	70.573718
896.000000	70.333718
897.000000	70.090234
898.000000	69.807323
899.000000	69.535936
900.000000	69.293207
901.000000	69.038636
902.000000	68.771661
903.000000	68.528430
904.000000	68.255496
905.000000	68.037612
906.000000	67.829391
907.000000	67.593022
908.000000	67.394880
909.000000	67.203423
910.000000	67.033178
911.000000	66.897571
912.000000	66.727031
913.000000	66.585464
914.000000	66.440038
915.000000	66.304666
916.000000	66.200388
917.000000	66.064547
918.000000	65.954146
919.000000	65.843706
920.000000	65.745495
921.000000	65.658215
922.000000	65.526960
923.000000	65.402327
924.000000	65.298767
925.000000	65.199929
926.000000	65.114315
927.000000	65.027428
928.000000	64.901701
929.000000	64.788454
930.000000	64.710543
931.000000	64.601313
932.000000	64.493017
933.000000	64.404496
934.000000	64.270980
935.000000	64.178496
936.000000	64.061192
937.000000	63.957243
938.000000	63.876306
939.000000	63.740424
940.000000	63.650112
941.000000	63.561393
942.000000	63.463828
943.000000	63.371844
944.000000	63.290479
945.000000	63.221955
946.000000	63.121147
947.000000	63.052122
948.000000	62.976876
949.000000	62.903409
950.000000	62.850451
951.000000	62.775721
952.000000	62.712278
953.000000	62.656386
954.000000	62.602455
955.000000	62.548495
956.000000	62.503861
957.000000	62.465832
958.000000	62.408521
959.000000	62.354312
960.000000	62.307964
961.000000	62.273563
962.000000	62.250727
963.000000	62.216536
964.000000	62.178944
965.000000	62.167272
966.000000	62.149809
967.000000	62.143625
968.000000	62.142264
969.000000	62.132103
970.000000	62.128397
971.000000	62.137178
972.000000	62.137106
973.000000	62.132820
974.000000	62.127146
975.000000	62.134989
976.000000	62.140013
977.000000	62.150803
978.000000	62.153618
979.000000	62.152524
980.000000	62.157778
981.000000	62.159577
982.000000	62.158455
983.000000	62.157186
984.000000	62.165100
985.000000	62.172110
986.000000	62.166882
987.000000	62.174441
988.000000	62.184693
989.000000	62.183232
990.000000	62.188363
991.000000	62.189068
992.000000	62.187800
993.000000	62.208197
994.000000	62.225325
995.000000	62.214950
996.000000	62.222147
997.000000	62.241306
998.000000	62.254957
999.000000	62.265118
1000.000000	62.267678
1001.000000	62.265750
1002.000000	62.286211
1003.000000	62.307127
1004.000000	62.320048
1005.000000	62.328376
1006.000000	62.343953
1007.000000	62.353390
1008.000000	62.372970
1009.000000	62.388982
1010.000000	62.402044
1011.000000	62.422871
1012.000000	62.437632
1013.000000	62.468306
1014.000000	62.519663
1015.000000	62.565499
1016.000000	62.620848
1017.000000	62.686646
1018.000000	62.742597
1019.000000	62.813107
1020.000000	62.886568
1021.000000	62.961637
1022.000000	63.041099
1023.000000	63.103769
1024.000000	63.189565
1025.000000	63.274134
1026.000000	63.350562
1027.000000	63.440019
1028.000000	63.513909
1029.000000	63.587454
1030.000000	63.668837
1031.000000	63.746218
1032.000000	63.816381
1033.000000	63.898913
1034.000000	63.982732
1035.000000	64.059002
1036.000000	64.130238
1037.000000	64.206860
1038.000000	64.280072
1039.000000	64.357495
1040.000000	64.436700
1041.000000	64.504207
1042.000000	64.575629
1043.000000	64.653458
1044.000000	64.722673
1045.000000	64.798103
1046.000000	64.873476
1047.000000	64.950103
1048.000000	65.021754
1049.000000	65.101703
1050.000000	65.197423
1051.000000	65.282131
1052.000000	65.358133
1053.000000	65.441692
1054.000000	65.535104
1055.000000	65.635496
1056.000000	65.735566
1057.000000	65.821477
1058.000000	65.911255
1059.000000	66.000819
1060.000000	66.088817
1061.000000	66.171633
1062.000000	66.248241
1063.000000	66.338642
1064.000000	66.424651
1065.000000	66.493272
1066.000000	66.566621
1067.000000	66.639276
1068.000000	66.713856
1069.000000	66.784299
1070.000000	66.849914
1071.000000	66.920427
1072.000000	66.985835
1073.000000	67.055661
1074.000000	67.118248
1075.000000	67.179333
1076.000000	67.239242
1077.000000	67.303601
1078.000000	67.367257
1079.000000	67.419485
1080.000000	67.476642
1081.000000	67.535191
1082.000000	67.600279
1083.000000	67.665751
1084.000000	67.732049
1085.000000	67.787060
1086.000000	67.845938
1087.000000	67.925733
1088.000000	67.990852
1089.000000	68.060680
1090.000000	68.127320
1091.000000	68.189188
1092.000000	68.251439
1093.000000	68.312031
1094.000000	68.374635
1095.000000	68.445123
1096.000000	68.494464
1097.000000	68.552415
1098.000000	68.603462
1099.000000	68.655808
1100.000000	68.713739
1101.000000	68.771067
1102.000000	68.822988
1103.000000	68.870960
1104.000000	68.920477
1105.000000	68.975722
1106.000000	69.017178
1107.000000	69.055979
1108.000000	69.097932
1109.000000	69.135629
1110.000000	69.180977
1111.000000	69.235700
1112.000000	69.264430
1113.000000	69.302422
1114.000000	69.328689
1115.000000	69.376415
1116.000000	69.404862
1117.000000	69.446531
1118.000000	69.465778
1119.000000	69.483604
1120.000000	69.479124
1121.000000	69.470640
1122.000000	69.469483
1123.000000	69.421025
1124.000000	69.377866
1125.000000	69.319421
1126.000000	69.263129
1127.000000	69.171102
1128.000000	69.078543
1129.000000	68.957456
1130.000000	68.774855
1131.000000	68.571926
1132.000000	68.322697
1133.000000	68.072861
1134.000000	67.848980
1135.000000	67.534536
1136.000000	67.195285
1137.000000	66.818357
1138.000000	66.464263
1139.000000	66.112601
1140.000000	65.792717
1141.000000	65.476402
1142.000000	65.147261
1143.000000	64.839592
1144.000000	64.565041
1145.000000	64.338780
1146.000000	64.154751
1147.000000	64.053923
1148.000000	64.013420
1149.000000	64.038696
1150.000000	64.064561
1151.000000	64.086730
1152.000000	64.120546
1153.000000	64.093805
1154.000000	64.038716
1155.000000	63.910624
1156.000000	63.748670
1157.000000	63.502238
1158.000000	63.226381
1159.000000	62.923032
1160.000000	62.583914
1161.000000	62.251898
1162.000000	61.898081
1163.000000	61.516328
1164.000000	61.155591
1165.000000	60.778711
1166.000000	60.408892
1167.000000	60.045449
1168.000000	59.693694
1169.000000	59.335346
1170.000000	58.993819
1171.000000	58.641103
1172.000000	58.316339
1173.000000	57.988535
1174.000000	57.675389
1175.000000	57.389846
1176.000000	57.081895
1177.000000	56.784182
1178.000000	56.415610
1179.000000	55.999780
1180.000000	55.514472
1181.000000	55.001804
1182.000000	54.486174
1183.000000	54.026481
1184.000000	53.673213
1185.000000	53.453392
1186.000000	53.367765
1187.000000	53.399678
1188.000000	53.555594
1189.000000	53.852056
1190.000000	54.263934
1191.000000	54.721220
1192.000000	55.211643
1193.000000	55.669384
1194.000000	56.069748
1195.000000	56.415636
1196.000000	56.692307
1197.000000	56.883999
1198.000000	57.050474
1199.000000	57.163030
1200.000000	57.248218
1201.000000	57.310873
1202.000000	57.343751
1203.000000	57.364264
1204.000000	57.405450
1205.000000	57.423346
1206.000000	57.451410
1207.000000	57.505316
1208.000000	57.579471
1209.000000	57.659094
1210.000000	57.754255
1211.000000	57.864830
1212.000000	57.964974
1213.000000	58.068919
1214.000000	58.202180
1215.000000	58.321668
1216.000000	58.446162
1217.000000	58.593509
1218.000000	58.737140
1219.000000	58.876618
1220.000000	59.022829
1221.000000	59.191995
1222.000000	59.359836
1223.000000	59.530262
1224.000000	59.710839
1225.000000	59.889823
1226.000000	60.073618
1227.000000	60.271760
1228.000000	60.454368
1229.000000	60.645190
1230.000000	60.831018
1231.000000	61.021014
1232.000000	61.214828
1233.000000	61.391047
1234.000000	61.574871
1235.000000	61.763365
1236.000000	61.938655
1237.000000	62.117330
1238.000000	62.288019
1239.000000	62.458012
1240.000000	62.632155
1241.000000	62.796342
1242.000000	62.952171
1243.000000	63.095260
1244.000000	63.243900
1245.000000	63.396303
1246.000000	63.526327
1247.000000	63.635714
1248.000000	63.740673
1249.000000	63.839580
1250.000000	63.941632
1251.000000	64.037626
1252.000000	64.114705
1253.000000	64.193268
1254.000000	64.262026
1255.000000	64.324884
1256.000000	64.386158
1257.000000	64.452798
1258.000000	64.510817
1259.000000	64.571337
1260.000000	64.616304
1261.000000	64.666231
1262.000000	64.713013
1263.000000	64.774659
1264.000000	64.828438
1265.000000	64.874085
1266.000000	64.932037
1267.000000	64.989361
1268.000000	65.050053
1269.000000	65.096852
1270.000000	65.146960
1271.000000	65.203920
1272.000000	65.257285
1273.000000	65.300371
1274.000000	65.355380
1275.000000	65.416841
1276.000000	65.477234
1277.000000	65.541771
1278.000000	65.614469
1279.000000	65.689204
1280.000000	65.772256
1281.000000	65.860029
1282.000000	65.939097
1283.000000	66.010872
1284.000000	66.100055
1285.000000	66.187310
1286.000000	66.262264
1287.000000	66.337483
1288.000000	66.406786
1289.000000	66.469098
1290.000000	66.528287
1291.000000	66.578215
1292.000000	66.622548
1293.000000	66.665602
1294.000000	66.708383
1295.000000	66.741195
1296.000000	66.764175
1297.000000	66.781148
1298.000000	66.805361
1299.000000	66.834786
1300.000000	66.850085
1301.000000	66.862593
1302.000000	66.870846
1303.000000	66.873131
1304.000000	66.877986
1305.000000	66.876881
1306.000000	66.874432
1307.000000	66.861257
1308.000000	66.829485
1309.000000	66.794821
1310.000000	66.771765
1311.000000	66.731006
1312.000000	66.676028
1313.000000	66.626813
1314.000000	66.569182
1315.000000	66.505067
1316.000000	66.445611
1317.000000	66.371369
1318.000000	66.294315
1319.000000	66.220075
1320.000000	66.131936
1321.000000	66.043596
1322.000000	65.962685
1323.000000	65.869143
1324.000000	65.758631
1325.000000	65.646921
1326.000000	65.527342
1327.000000	65.402801
1328.000000	65.268227
1329.000000	65.127554
1330.000000	64.981947
1331.000000	64.829985
1332.000000	64.655159
1333.000000	64.469842
1334.000000	64.266044
1335.000000	64.055603
1336.000000	63.854141
1337.000000	63.638769
1338.000000	63.400291
1339.000000	63.139366
1340.000000	62.878364
1341.000000	62.615327
1342.000000	62.305382
1343.000000	62.006414
1344.000000	61.708150
1345.000000	61.339958
1346.000000	60.977574
1347.000000	60.620507
1348.000000	60.213033
1349.000000	59.756270
1350.000000	59.277731
1351.000000	58.739654
1352.000000	58.153028
1353.000000	57.545923
1354.000000	57.000557
1355.000000	56.471759
1356.000000	56.031971
1357.000000	55.730179
1358.000000	55.558635
1359.000000	55.455468
1360.000000	55.411998
1361.000000	55.401247
1362.000000	55.287897
1363.000000	55.110801
1364.000000	54.966581
1365.000000	54.802794
1366.000000	54.555212
1367.000000	54.363394
1368.000000	54.137206
1369.000000	53.805091
1370.000000	53.486571
1371.000000	53.167161
1372.000000	52.792942
1373.000000	52.404750
1374.000000	52.070186
1375.000000	51.804459
1376.000000	51.610436
1377.000000	51.500340
1378.000000	51.414482
1379.000000	51.382592
1380.000000	51.275820
1381.000000	51.220462
1382.000000	51.018411
1383.000000	50.725422
1384.000000	50.368116
1385.000000	49.952236
1386.000000	49.583990
1387.000000	49.286144
1388.000000	49.045278
1389.000000	48.741019
1390.000000	48.508356
1391.000000	48.347541
1392.000000	48.201160
1393.000000	48.008687
1394.000000	47.907800
1395.000000	47.818984
1396.000000	47.633389
1397.000000	47.342988
1398.000000	47.071243
1399.000000	46.895677
1400.000000	46.670710
1401.000000	46.287746
1402.000000	45.798594
1403.000000	45.422073
1404.000000	44.994867
1405.000000	44.625320
1406.000000	44.202921
1407.000000	43.798309
1408.000000	43.399359
1409.000000	43.041581
1410.000000	42.679361
1411.000000	42.353274
1412.000000	42.056010
1413.000000	41.866660
1414.000000	41.677885
1415.000000	41.397475
1416.000000	41.104103
1417.000000	40.840490
1418.000000	40.649148
1419.000000	40.429543
1420.000000	40.155988
1421.000000	39.867642
1422.000000	39.600100
1423.000000	39.358051
1424.000000	39.133809
1425.000000	38.846686
1426.000000	38.584214
1427.000000	38.373852
1428.000000	38.160178
1429.000000	37.938127
1430.000000	37.736279
1431.000000	37.581557
1432.000000	37.426214
1433.000000	37.258111
1434.000000	37.086649
1435.000000	36.922211
1436.000000	36.772693
1437.000000	36.624361
1438.000000	36.508381
1439.000000	36.324727
1440.000000	36.179898
1441.000000	36.042076
1442.000000	35.878912
1443.000000	35.710509
1444.000000	35.567339
1445.000000	35.433615
1446.000000	35.301148
1447.000000	35.123949
1448.000000	34.953506
1449.000000	34.802441
1450.000000	34.705136
1451.000000	34.575963
1452.000000	34.439130
1453.000000	34.276278
1454.000000	34.136898
1455.000000	34.028963
1456.000000	33.896859
1457.000000	33.784103
1458.000000	33.658913
1459.000000	33.547473
1460.000000	33.457307
1461.000000	33.359671
1462.000000	33.259479
1463.000000	33.171270
1464.000000	33.087321
1465.000000	33.012341
1466.000000	32.934048
1467.000000	32.868839
1468.000000	32.800963
1469.000000	32.727744
1470.000000	32.681018
1471.000000	32.640018
1472.000000	32.567095
1473.000000	32.485418
1474.000000	32.423887
1475.000000	32.346344
1476.000000	32.293577
1477.000000	32.236021
1478.000000	32.188641
1479.000000	32.128848
1480.000000	32.083615
1481.000000	32.047798
1482.000000	32.009609
1483.000000	31.953376
1484.000000	31.908497
1485.000000	31.875152
1486.000000	31.854341
1487.000000	31.831651
1488.000000	31.799082
1489.000000	31.766188
1490.000000	31.749778
1491.000000	31.734436
1492.000000	31.707269
1493.000000	31.689965
1494.000000	31.667865
1495.000000	31.655368
1496.000000	31.650064
1497.000000	31.651421
1498.000000	31.656755
1499.000000	31.666384
1500.000000	31.679244
1501.000000	31.691196
1502.000000	31.711584
1503.000000	31.734830
1504.000000	31.759267
1505.000000	31.787356
1506.000000	31.818667
1507.000000	31.837360
1508.000000	31.868626
1509.000000	31.904874
1510.000000	31.936967
1511.000000	31.969600
1512.000000	32.002666
1513.000000	32.026090
1514.000000	32.058932
1515.000000	32.093289
1516.000000	32.127339
1517.000000	32.152396
1518.000000	32.185930
1519.000000	32.211407
1520.000000	32.233110
1521.000000	32.265433
1522.000000	32.293088
1523.000000	32.313849
1524.000000	32.339275
1525.000000	32.361137
1526.000000	32.390862
1527.000000	32.419927
1528.000000	32.432886
1529.000000	32.454163
1530.000000	32.473983
1531.000000	32.489121
1532.000000	32.498163
1533.000000	32.507375
1534.000000	32.524775
1535.000000	32.534474
1536.000000	32.539395
1537.000000	32.539604
1538.000000	32.539889
1539.000000	32.546203
1540.000000	32.542179
1541.000000	32.541680
1542.000000	32.547588
1543.000000	32.556688
1544.000000	32.562618
1545.000000	32.566036
1546.000000	32.579947
1547.000000	32.588482
1548.000000	32.601295
1549.000000	32.623676
1550.000000	32.646283
1551.000000	32.657790
1552.000000	32.667586
1553.000000	32.673891
1554.000000	32.679258
1555.000000	32.680688
1556.000000	32.675972
1557.000000	32.670114
1558.000000	32.660725
1559.000000	32.640708
1560.000000	32.617484
1561.000000	32.590137
1562.000000	32.559470
1563.000000	32.535281
1564.000000	32.505185
1565.000000	32.473645
1566.000000	32.433447
1567.000000	32.386146
1568.000000	32.353839
1569.000000	32.318421
1570.000000	32.282564
1571.000000	32.255043
1572.000000	32.226853
1573.000000	32.200307
1574.000000	32.177257
1575.000000	32.160095
1576.000000	32.154185
1577.000000	32.153482
1578.000000	32.148171
1579.000000	32.151013
1580.000000	32.158068
1581.000000	32.171043
1582.000000	32.200245
1583.000000	32.215311
1584.000000	32.234399
1585.000000	32.267080
1586.000000	32.296486
1587.000000	32.330940
1588.000000	32.376617
1589.000000	32.412187
1590.000000	32.448556
1591.000000	32.490217
1592.000000	32.537605
1593.000000	32.591932
1594.000000	32.645091
1595.000000	32.715020
1596.000000	32.775312
1597.000000	32.827663
1598.000000	32.888689
1599.000000	32.962004
1600.000000	33.033568
1601.000000	33.106656
1602.000000	33.181104
1603.000000	33.261811
1604.000000	33.338091
1605.000000	33.412468
1606.000000	33.488729
1607.000000	33.573750
1608.000000	33.655025
1609.000000	33.727692
1610.000000	33.811417
1611.000000	33.881124
1612.000000	33.950689
1613.000000	34.037128
1614.000000	34.116263
1615.000000	34.198558
1616.000000	34.285106
1617.000000	34.359056
1618.000000	34.439588
1619.000000	34.525660
1620.000000	34.610275
1621.000000	34.703539
1622.000000	34.794300
1623.000000	34.880185
1624.000000	34.970959
1625.000000	35.076765
1626.000000	35.167902
1627.000000	35.260047
1628.000000	35.347026
1629.000000	35.444287
1630.000000	35.529009
1631.000000	35.624020
1632.000000	35.718899
1633.000000	35.801923
1634.000000	35.882602
1635.000000	35.979198
1636.000000	36.051014
1637.000000	36.127730
1638.000000	36.207821
1639.000000	36.279059
1640.000000	36.345639
1641.000000	36.405901
1642.000000	36.487360
1643.000000	36.549650
1644.000000	36.607457
1645.000000	36.658514
1646.000000	36.712524
1647.000000	36.774743
1648.000000	36.814261
1649.000000	36.869009
1650.000000	36.897274
1651.000000	36.929039
1652.000000	36.960319
1653.000000	36.969466
1654.000000	36.995371
1655.000000	36.991555
1656.000000	36.986435
1657.000000	36.964127
1658.000000	36.946368
1659.000000	36.911160
1660.000000	36.861829
1661.000000	36.799698
1662.000000	36.729242
1663.000000	36.661655
1664.000000	36.571855
1665.000000	36.466235
1666.000000	36.349894
1667.000000	36.219536
1668.000000	36.044923
1669.000000	35.864692
1670.000000	35.653996
1671.000000	35.415765
1672.000000	35.151689
1673.000000	34.836161
1674.000000	34.492032
1675.000000	34.077517
1676.000000	33.618638
1677.000000	33.070866
1678.000000	32.465985
1679.000000	31.834215
1680.000000	31.165411
1681.000000	30.521561
1682.000000	30.002102
1683.000000	29.608658
1684.000000	29.344116
1685.000000	29.215801
1686.000000	29.177482
1687.000000	29.155146
1688.000000	29.117255
1689.000000	29.052285
1690.000000	28.915741
1691.000000	28.732966
1692.000000	28.544665
1693.000000	28.370587
1694.000000	28.259802
1695.000000	28.202349
1696.000000	28.209334
1697.000000	28.300056
1698.000000	28.421692
1699.000000	28.588697
1700.000000	28.774305
1701.000000	28.945695
1702.000000	29.108727
1703.000000	29.224936
1704.000000	29.303334
1705.000000	29.377470
1706.000000	29.432106
1707.000000	29.466426
1708.000000	29.463355
1709.000000	29.468544
1710.000000	29.462970
1711.000000	29.425772
1712.000000	29.380829
1713.000000	29.301398
1714.000000	29.216299
1715.000000	29.121321
1716.000000	29.026567
1717.000000	28.940494
1718.000000	28.847396
1719.000000	28.794717
1720.000000	28.759805
1721.000000	28.713745
1722.000000	28.669997
1723.000000	28.657221
1724.000000	28.613483
1725.000000	28.560689
1726.000000	28.466352
1727.000000	28.372993
1728.000000	28.250432
1729.000000	28.120673
1730.000000	27.992405
1731.000000	27.878616
1732.000000	27.781937
1733.000000	27.722479
1734.000000	27.722762
1735.000000	27.768700
1736.000000	27.885042
1737.000000	28.054784
1738.000000	28.263553
1739.000000	28.518573
1740.000000	28.807802
1741.000000	29.093352
1742.000000	29.366806
1743.000000	29.614446
1744.000000	29.850980
1745.000000	30.057287
1746.000000	30.238357
1747.000000	30.374163
1748.000000	30.503355
1749.000000	30.604498
1750.000000	30.688121
1751.000000	30.755106
1752.000000	30.803293
1753.000000	30.833156
1754.000000	30.851145
1755.000000	30.838807
1756.000000	30.799881
1757.000000	30.755474
1758.000000	30.696408
1759.000000	30.617467
1760.000000	30.552265
1761.000000	30.498294
1762.000000	30.448531
1763.000000	30.428444
1764.000000	30.461555
1765.000000	30.515001
1766.000000	30.603035
1767.000000	30.722269
1768.000000	30.858047
1769.000000	30.999194
1770.000000	31.157190
1771.000000	31.322856
1772.000000	31.492343
1773.000000	31.661211
1774.000000	31.821452
1775.000000	31.990932
1776.000000	32.139729
1777.000000	32.277953
1778.000000	32.397976
1779.000000	32.511555
1780.000000	32.618736
1781.000000	32.724782
1782.000000	32.812274
1783.000000	32.907039
1784.000000	33.010162
1785.000000	33.117550
1786.000000	33.208600
1787.000000	33.290898
1788.000000	33.363862
1789.000000	33.434440
1790.000000	33.510770
1791.000000	33.579760
1792.000000	33.640393
1793.000000	33.707448
1794.000000	33.773816
1795.000000	33.836362
1796.000000	33.895536
1797.000000	33.952094
1798.000000	33.998128
1799.000000	34.044792
1800.000000	34.119233
1801.000000	34.193364
1802.000000	34.246352
1803.000000	34.296445
1804.000000	34.350769
1805.000000	34.406928
1806.000000	34.473293
1807.000000	34.532411
1808.000000	34.564506
1809.000000	34.608760
1810.000000	34.661520
1811.000000	34.715544
1812.000000	34.750857
1813.000000	34.777430
1814.000000	34.791594
1815.000000	34.798914
1816.000000	34.811020
1817.000000	34.809376
1818.000000	34.818945
1819.000000	34.854918
1820.000000	34.905792
1821.000000	34.925613
1822.000000	34.924267
1823.000000	34.928582
1824.000000	34.961582
1825.000000	35.026162
1826.000000	35.107862
1827.000000	35.176857
1828.000000	35.260489
1829.000000	35.366409
1830.000000	35.451863
1831.000000	35.532154
1832.000000	35.616632
1833.000000	35.706357
1834.000000	35.813671
1835.000000	35.924502
1836.000000	36.008130
1837.000000	36.063464
1838.000000	36.112998
1839.000000	36.184370
1840.000000	36.264132
1841.000000	36.316459
1842.000000	36.325420
1843.000000	36.315861
1844.000000	36.349199
1845.000000	36.434765
1846.000000	36.548567
1847.000000	36.646868
1848.000000	36.707370
1849.000000	36.760247
1850.000000	36.801401
1851.000000	36.859413
1852.000000	36.910356
1853.000000	36.985241
1854.000000	37.074071
1855.000000	37.109456
1856.000000	37.145889
1857.000000	37.197747
1858.000000	37.215419
1859.000000	37.214172
1860.000000	37.203513
1861.000000	37.162208
1862.000000	37.112464
1863.000000	37.068163
1864.000000	37.036495
1865.000000	36.991025
1866.000000	36.933334
1867.000000	36.880411
1868.000000	36.793377
1869.000000	36.644732
1870.000000	36.472837
1871.000000	36.261170
1872.000000	35.989494
1873.000000	35.697657
1874.000000	35.391015
1875.000000	35.057547
1876.000000	34.689769
1877.000000	34.306236
1878.000000	33.894749
1879.000000	33.449399
1880.000000	32.984415
1881.000000	32.490651
1882.000000	31.989913
1883.000000	31.493213
1884.000000	30.987653
1885.000000	30.486402
1886.000000	30.037089
1887.000000	29.644196
1888.000000	29.302974
1889.000000	28.928222
1890.000000	28.598982
1891.000000	28.248307
1892.000000	27.861333
1893.000000	27.484508
1894.000000	27.134099
1895.000000	26.800029
1896.000000	26.521806
1897.000000	26.221071
1898.000000	25.871443
1899.000000	25.501769
1900.000000	25.109157
1901.000000	24.740656
1902.000000	24.419120
1903.000000	24.107382
1904.000000	23.804959
1905.000000	23.436606
1906.000000	23.050115
1907.000000	22.684554
1908.000000	22.367131
1909.000000	22.106773
1910.000000	21.889413
1911.000000	21.614619
1912.000000	21.347738
1913.000000	21.051651
1914.000000	20.742232
1915.000000	20.454698
1916.000000	20.215493
1917.000000	20.027238
1918.000000	19.840890
1919.000000	19.626998
1920.000000	19.429728
1921.000000	19.201445
1922.000000	18.988988
1923.000000	18.807931
1924.000000	18.659502
1925.000000	18.524318
1926.000000	18.380441
1927.000000	18.244324
1928.000000	18.123297
1929.000000	18.003158
1930.000000	17.898417
1931.000000	17.822748
1932.000000	17.731471
1933.000000	17.676985
1934.000000	17.623911
1935.000000	17.574640
1936.000000	17.540218
1937.000000	17.521504
1938.000000	17.516704
1939.000000	17.518014
1940.000000	17.507982
1941.000000	17.505474
1942.000000	17.531437
1943.000000	17.551821
1944.000000	17.582442
1945.000000	17.619176
1946.000000	17.670598
1947.000000	17.730894
1948.000000	17.788566
1949.000000	17.834538
1950.000000	17.911678
1951.000000	17.981513
1952.000000	18.042479
1953.000000	18.130835
1954.000000	18.205344
1955.000000	18.283472
1956.000000	18.373148
1957.000000	18.436794
1958.000000	18.517056
1959.000000	18.604920
1960.000000	18.682626
1961.000000	18.759014
1962.000000	18.847415
1963.000000	18.917869
1964.000000	18.991259
1965.000000	19.081855
1966.000000	19.156982
1967.000000	19.240229
1968.000000	19.308679
1969.000000	19.403568
1970.000000	19.464414
1971.000000	19.554025
1972.000000	19.624269
1973.000000	19.699763
1974.000000	19.796699
1975.000000	19.866980
1976.000000	19.971115
1977.000000	20.043937
1978.000000	20.130423
1979.000000	20.227810
1980.000000	20.309880
1981.000000	20.382259
1982.000000	20.481501
1983.000000	20.567162
1984.000000	20.642955
1985.000000	20.723943
1986.000000	20.797227
1987.000000	20.876873
1988.000000	20.958665
1989.000000	21.027498
1990.000000	21.088784
1991.000000	21.155918
1992.000000	21.221440
1993.000000	21.268190
1994.000000	21.325765
1995.000000	21.369957
1996.000000	21.406533
1997.000000	21.467083
1998.000000	21.489857
1999.000000	21.513057
2000.000000	21.541451
2001.000000	21.573286
2002.000000	21.577420
2003.000000	21.595584
2004.000000	21.593571
2005.000000	21.593818
2006.000000	21.585055
2007.000000	21.572492
2008.000000	21.557915
2009.000000	21.534391
2010.000000	21.506234
2011.000000	21.468946
2012.000000	21.421859
2013.000000	21.378912
2014.000000	21.324902
2015.000000	21.266367
2016.000000	21.200028
2017.000000	21.134160
2018.000000	21.069925
2019.000000	21.001937
2020.000000	20.902149
2021.000000	20.822957
2022.000000	20.732714
2023.000000	20.638111
2024.000000	20.540251
2025.000000	20.447479
2026.000000	20.347623
2027.000000	20.235415
2028.000000	20.124427
2029.000000	20.013505
2030.000000	19.901525
2031.000000	19.781540
2032.000000	19.655685
2033.000000	19.524669
2034.000000	19.380351
2035.000000	19.226568
2036.000000	19.087820
2037.000000	18.939157
2038.000000	18.778296
2039.000000	18.610784
2040.000000	18.447046
2041.000000	18.276538
2042.000000	18.106908
2043.000000	17.924011
2044.000000	17.757824
2045.000000	17.594981
2046.000000	17.427761
2047.000000	17.261874
2048.000000	17.116671
2049.000000	16.988497
2050.000000	16.866681
2051.000000	16.757545
2052.000000	16.663337
2053.000000	16.577719
2054.000000	16.519679
2055.000000	16.469503
2056.000000	16.427860
2057.000000	16.397558
2058.000000	16.389903
2059.000000	16.391879
2060.000000	16.401015
2061.000000	16.413743
2062.000000	16.444936
2063.000000	16.472125
2064.000000	16.497164
2065.000000	16.540566
2066.000000	16.584103
2067.000000	16.629007
2068.000000	16.672132
2069.000000	16.716571
2070.000000	16.760810
2071.000000	16.799663
2072.000000	16.836538
2073.000000	16.876290
2074.000000	16.917976
2075.000000	16.962100
2076.000000	17.003469
2077.000000	17.036988
2078.000000	17.067659
2079.000000	17.098645
2080.000000	17.129461
2081.000000	17.156682
2082.000000	17.187523
2083.000000	17.205148
2084.000000	17.223136
2085.000000	17.247227
2086.000000	17.270613
2087.000000	17.280370
2088.000000	17.291207
2089.000000	17.299960
2090.000000	17.315967
2091.000000	17.333489
2092.000000	17.349482
2093.000000	17.369382
2094.000000	17.379028
2095.000000	17.397438
2096.000000	17.423105
2097.000000	17.434176
2098.000000	17.453397
2099.000000	17.486060
2100.000000	17.512534
2101.000000	17.542609
2102.000000	17.575683
2103.000000	17.593968
2104.000000	17.623397
2105.000000	17.660671
2106.000000	17.689476
2107.000000	17.718087
2108.000000	17.747628
2109.000000	17.772974
2110.000000	17.800037
2111.000000	17.834151
2112.000000	17.856187
2113.000000	17.877453
2114.000000	17.906298
2115.000000	17.931199
2116.000000	17.950525
2117.000000	17.975714
2118.000000	17.992950
2119.000000	18.009528
2120.000000	18.023140
2121.000000	18.043827
2122.000000	18.061470
2123.000000	18.065478
2124.000000	18.064530
2125.000000	18.063066
2126.000000	18.063723
2127.000000	18.056573
2128.000000	18.045620
2129.000000	18.028870
2130.000000	18.009478
2131.000000	17.986809
2132.000000	17.958620
2133.000000	17.930014
2134.000000	17.895898
2135.000000	17.863028
2136.000000	17.828611
2137.000000	17.792379
2138.000000	17.752630
2139.000000	17.705097
2140.000000	17.653234
2141.000000	17.602671
2142.000000	17.558322
2143.000000	17.512123
2144.000000	17.454682
2145.000000	17.407044
2146.000000	17.347494
2147.000000	17.290508
2148.000000	17.235588
2149.000000	17.181523
2150.000000	17.131140
2151.000000	17.065959
2152.000000	17.005372
2153.000000	16.949081
2154.000000	16.894593
2155.000000	16.845946
2156.000000	16.776314
2157.000000	16.720414
2158.000000	16.682862
2159.000000	16.645814
2160.000000	16.591083
2161.000000	16.553974
2162.000000	16.515794
2163.000000	16.477651
2164.000000	16.447886
2165.000000	16.427427
2166.000000	16.397137
2167.000000	16.373102
2168.000000	16.353641
2169.000000	16.328686
2170.000000	16.313065
2171.000000	16.302090
2172.000000	16.293537
2173.000000	16.274699
2174.000000	16.269125
2175.000000	16.256686
2176.000000	16.255553
2177.000000	16.272073
2178.000000	16.283880
2179.000000	16.303684
2180.000000	16.320860
2181.000000	16.331074
2182.000000	16.342097
2183.000000	16.345406
2184.000000	16.363312
2185.000000	16.392174
2186.000000	16.403536
2187.000000	16.420204
2188.000000	16.426262
2189.000000	16.438819
2190.000000	16.452711
2191.000000	16.467580
2192.000000	16.478029
2193.000000	16.479616
2194.000000	16.499274
2195.000000	16.518483
2196.000000	16.524996
2197.000000	16.533716
2198.000000	16.543184
2199.000000	16.552679
2200.000000	16.566632
2201.000000	16.571473
2202.000000	16.597200
2203.000000	16.615650
2204.000000	16.620965
2205.000000	16.633771
2206.000000	16.657955
2207.000000	16.681927
2208.000000	16.699045
2209.000000	16.713353
2210.000000	16.751817
2211.000000	16.755573
2212.000000	16.794692
2213.000000	16.827962
2214.000000	16.867304
2215.000000	16.900089
2216.000000	16.942884
2217.000000	16.972091
2218.000000	17.010877
2219.000000	17.035326
2220.000000	17.079793
2221.000000	17.095132
2222.000000	17.120631
2223.000000	17.135989
2224.000000	17.139449
2225.000000	17.162616
2226.000000	17.156358
2227.000000	17.148985
2228.000000	17.158257
2229.000000	17.119351
2230.000000	17.095742
2231.000000	17.059509
2232.000000	16.999742
2233.000000	16.963507
2234.000000	16.893202
2235.000000	16.812651
2236.000000	16.750442
2237.000000	16.645360
2238.000000	16.547270
2239.000000	16.444196
2240.000000	16.317629
2241.000000	16.221683
2242.000000	16.056183
2243.000000	15.915050
2244.000000	15.755658
2245.000000	15.580764
2246.000000	15.397657
2247.000000	15.217323
2248.000000	15.023030
2249.000000	14.800905
2250.000000	14.563157
2251.000000	14.319957
2252.000000	14.057836
2253.000000	13.802257
2254.000000	13.513702
2255.000000	13.239663
2256.000000	12.937957
2257.000000	12.664371
2258.000000	12.371193
2259.000000	12.100240
2260.000000	11.843071
2261.000000	11.582891
2262.000000	11.332465
2263.000000	11.135209
2264.000000	10.950513
2265.000000	10.786256
2266.000000	10.627126
2267.000000	10.512497
2268.000000	10.420812
2269.000000	10.348046
2270.000000	10.299619
2271.000000	10.260945
2272.000000	10.229236
2273.000000	10.233352
2274.000000	10.246179
2275.000000	10.268494
2276.000000	10.288739
2277.000000	10.339154
2278.000000	10.374399
2279.000000	10.418462
2280.000000	10.464967
2281.000000	10.533930
2282.000000	10.570469
2283.000000	10.612927
2284.000000	10.658685
2285.000000	10.683437
2286.000000	10.711243
2287.000000	10.738059
2288.000000	10.746552
2289.000000	10.757649
2290.000000	10.741202
2291.000000	10.707286
2292.000000	10.668813
2293.000000	10.614359
2294.000000	10.540056
2295.000000	10.471581
2296.000000	10.379823
2297.000000	10.288139
2298.000000	10.188678
2299.000000	10.091197
2300.000000	9.988464
2301.000000	9.894725
2302.000000	9.812896
2303.000000	9.740776
2304.000000	9.687861
2305.000000	9.646050
2306.000000	9.622322
2307.000000	9.619228
2308.000000	9.646006
2309.000000	9.689858
2310.000000	9.742165
2311.000000	9.820073
2312.000000	9.911459
2313.000000	10.012473
2314.000000	10.124684
2315.000000	10.242571
2316.000000	10.375270
2317.000000	10.506967
2318.000000	10.625504
2319.000000	10.742145
2320.000000	10.856788
2321.000000	10.969141
2322.000000	11.089018
2323.000000	11.186792
2324.000000	11.276030
2325.000000	11.353674
2326.000000	11.430194
2327.000000	11.520346
2328.000000	11.587485
2329.000000	11.645818
2330.000000	11.701473
2331.000000	11.756024
2332.000000	11.800531
2333.000000	11.836317
2334.000000	11.865425
2335.000000	11.892687
2336.000000	11.909347
2337.000000	11.919473
2338.000000	11.925789
2339.000000	11.913640
2340.000000	11.886955
2341.000000	11.853716
2342.000000	11.817157
2343.000000	11.783876
2344.000000	11.732336
2345.000000	11.678611
2346.000000	11.633832
2347.000000	11.579837
2348.000000	11.531023
2349.000000	11.493793
2350.000000	11.462793
2351.000000	11.431293
2352.000000	11.408827
2353.000000	11.411699
2354.000000	11.428315
2355.000000	11.448643
2356.000000	11.480608
2357.000000	11.536897
2358.000000	11.591502
2359.000000	11.646392
2360.000000	11.708472
2361.000000	11.786195
2362.000000	11.857240
2363.000000	11.927340
2364.000000	12.002002
2365.000000	12.070938
2366.000000	12.128525
2367.000000	12.184748
2368.000000	12.245636
2369.000000	12.303015
2370.000000	12.350418
2371.000000	12.389244
2372.000000	12.414132
2373.000000	12.441625
2374.000000	12.483086
2375.000000	12.518721
2376.000000	12.543192
2377.000000	12.558596
2378.000000	12.573364
2379.000000	12.590872
2380.000000	12.609473
2381.000000	12.623062
2382.000000	12.637981
2383.000000	12.649867
2384.000000	12.648227
2385.000000	12.644198
2386.000000	12.637806
2387.000000	12.634129
2388.000000	12.623790
2389.000000	12.608439
2390.000000	12.584182
2391.000000	12.559246
2392.000000	12.534979
2393.000000	12.512598
2394.000000	12.484164
2395.000000	12.455607
2396.000000	12.414498
2397.000000	12.379097
2398.000000	12.347051
2399.000000	12.321744
2400.000000	12.295235
2401.000000	12.251202
2402.000000	12.220792
2403.000000	12.192966
2404.000000	12.154714
2405.000000	12.118946
2406.000000	12.092521
2407.000000	12.056547
2408.000000	12.026222
2409.000000	11.996583
2410.000000	11.966264
2411.000000	11.950313
2412.000000	11.908749
2413.000000	11.875802
2414.000000	11.844336
2415.000000	11.800053
2416.000000	11.772817
2417.000000	11.738881
2418.000000	11.699713
2419.000000	11.663134
2420.000000	11.616082
2421.000000	11.574886
2422.000000	11.543230
2423.000000	11.520401
2424.000000	11.478847
2425.000000	11.426207
2426.000000	11.367817
2427.000000	11.333665
2428.000000	11.281940
2429.000000	11.242441
2430.000000	11.198269
2431.000000	11.151455
2432.000000	11.091462
2433.000000	11.025469
2434.000000	10.953964
2435.000000	10.893256
2436.000000	10.820509
2437.000000	10.738482
2438.000000	10.673659
2439.000000	10.589728
2440.000000	10.519146
2441.000000	10.432873
2442.000000	10.347061
2443.000000	10.258862
2444.000000	10.189582
2445.000000	10.093727
2446.000000	10.018576
2447.000000	9.942303
2448.000000	9.858702
2449.000000	9.765489
2450.000000	9.680397
2451.000000	9.600865
2452.000000	9.519795
2453.000000	9.438431
2454.000000	9.350757
2455.000000	9.276130
2456.000000	9.220500
2457.000000	9.150033
2458.000000	9.092266
2459.000000	9.034107
2460.000000	8.982903
2461.000000	8.934981
2462.000000	8.897544
2463.000000	8.859037
2464.000000	8.810473
2465.000000	8.799002
2466.000000	8.761781
2467.000000	8.749827
2468.000000	8.764748
2469.000000	8.721007
2470.000000	8.727857
2471.000000	8.706571
2472.000000	8.713891
2473.000000	8.714156
2474.000000	8.693172
2475.000000	8.686703
2476.000000	8.690264
2477.000000	8.675072
2478.000000	8.694486
2479.000000	8.692046
2480.000000	8.688307
2481.000000	8.723705
2482.000000	8.708929
2483.000000	8.706417
2484.000000	8.677637
2485.000000	8.722525
2486.000000	8.748730
2487.000000	8.732013
2488.000000	8.770733
2489.000000	8.769221
2490.000000	8.742658
2491.000000	8.796241
2492.000000	8.805544
2493.000000	8.860773
2494.000000	8.846862
2495.000000	8.919121
2496.000000	8.941796
2497.000000	8.936534
2498.000000	8.944221
2499.000000	8.965678
2500.000000	9.082076
