PE UV       SUBTECH     SPECTRUM    ASCII       PEDS        4.00        
   -1
CICIMAUCR0098-5.Sample.ASC
24/04/25
11:55:07.00
24/04/25
11:55:07.00
Vinicio Soto Monge
C. cupreomarginata
250,000000
1
Lambda 1050
1050L1511233
PerkinElmer UV WinLab 6.3.2.0749 / 2.02.05 Lambda 900 UV/VIS/NIR, Aug  7 2015 09:38:08

0
0
3350/servo 860,8/2
0
0
UV/VIS
1
1
1
DoubleDePol,CommonBeamDepol,RBeamAtt,SBeamAtt,60mm sphere, WB InGaAs Detector
0
0
0
0
Program
Program
3350/servo 860,8/2
3350/0,2 860,8/0,2
3350/0,2 860,8/0,2
0
15.00
 
 
 
0
 
860,8
319,2
860,8
Front
100
on
S:100 R:100
0
0
0
0
 
0
 
 
 
0
 
 
0
0
0
0
0
 
 
 
 
0
0


0
0
#HDR
-1
-1
#GR
nm
%R
1.0
0.0
2500,000000
-1,000000
2251
8
65,296400
4,773000
#DATA
250.000000	5.605126
251.000000	5.595586
252.000000	5.580568
253.000000	5.576099
254.000000	5.542760
255.000000	5.548304
256.000000	5.529393
257.000000	5.518215
258.000000	5.522932
259.000000	5.501782
260.000000	5.467291
261.000000	5.432478
262.000000	5.421924
263.000000	5.418429
264.000000	5.364737
265.000000	5.339099
266.000000	5.328940
267.000000	5.292298
268.000000	5.269302
269.000000	5.273000
270.000000	5.245553
271.000000	5.247230
272.000000	5.225229
273.000000	5.211987
274.000000	5.206905
275.000000	5.181329
276.000000	5.142362
277.000000	5.163750
278.000000	5.164136
279.000000	5.131126
280.000000	5.138081
281.000000	5.077394
282.000000	5.110836
283.000000	5.087051
284.000000	5.103036
285.000000	5.094171
286.000000	5.068126
287.000000	5.071913
288.000000	5.054035
289.000000	5.077653
290.000000	5.047731
291.000000	5.049389
292.000000	5.034537
293.000000	5.027082
294.000000	5.029315
295.000000	5.019921
296.000000	5.012469
297.000000	5.003375
298.000000	5.018941
299.000000	4.954700
300.000000	4.966474
301.000000	4.985974
302.000000	4.979006
303.000000	5.002662
304.000000	4.956406
305.000000	4.958640
306.000000	4.945801
307.000000	4.965461
308.000000	4.985456
309.000000	4.976725
310.000000	4.962245
311.000000	4.947225
312.000000	4.931986
313.000000	4.932492
314.000000	4.965396
315.000000	4.931846
316.000000	4.947113
317.000000	5.237295
318.000000	5.343907
319.000000	5.349727
320.000000	5.233023
321.000000	5.180838
322.000000	5.084581
323.000000	5.084340
324.000000	5.117320
325.000000	5.103131
326.000000	5.143516
327.000000	5.033697
328.000000	5.059721
329.000000	5.115256
330.000000	5.031329
331.000000	5.089647
332.000000	4.961713
333.000000	4.996821
334.000000	5.093609
335.000000	4.959666
336.000000	4.971706
337.000000	4.937201
338.000000	4.938130
339.000000	4.915221
340.000000	4.977451
341.000000	4.984663
342.000000	4.937759
343.000000	4.911248
344.000000	4.900222
345.000000	4.885657
346.000000	4.942404
347.000000	4.902063
348.000000	4.871705
349.000000	4.881916
350.000000	4.832320
351.000000	4.880334
352.000000	4.908857
353.000000	4.881581
354.000000	4.893167
355.000000	4.860054
356.000000	4.855589
357.000000	4.850781
358.000000	4.872219
359.000000	4.891176
360.000000	4.880647
361.000000	4.873900
362.000000	4.876035
363.000000	4.899889
364.000000	4.854775
365.000000	4.888886
366.000000	4.887095
367.000000	4.886625
368.000000	4.881893
369.000000	4.850490
370.000000	4.830754
371.000000	4.816181
372.000000	4.846656
373.000000	4.820029
374.000000	4.755284
375.000000	4.763823
376.000000	4.926210
377.000000	4.961258
378.000000	4.978768
379.000000	4.994673
380.000000	5.007321
381.000000	5.014047
382.000000	5.024932
383.000000	5.043409
384.000000	5.059678
385.000000	5.065957
386.000000	5.085460
387.000000	5.099809
388.000000	5.108639
389.000000	5.129392
390.000000	5.150877
391.000000	5.169908
392.000000	5.186770
393.000000	5.215473
394.000000	5.239517
395.000000	5.268337
396.000000	5.295840
397.000000	5.320741
398.000000	5.360632
399.000000	5.398356
400.000000	5.441546
401.000000	5.490572
402.000000	5.546366
403.000000	5.602257
404.000000	5.666046
405.000000	5.736652
406.000000	5.812348
407.000000	5.896353
408.000000	5.987529
409.000000	6.086102
410.000000	6.187647
411.000000	6.297462
412.000000	6.418666
413.000000	6.548769
414.000000	6.687263
415.000000	6.835437
416.000000	6.990752
417.000000	7.156178
418.000000	7.328687
419.000000	7.509109
420.000000	7.704513
421.000000	7.909223
422.000000	8.118489
423.000000	8.328796
424.000000	8.551040
425.000000	8.777842
426.000000	9.011934
427.000000	9.250170
428.000000	9.490887
429.000000	9.736915
430.000000	9.988134
431.000000	10.247564
432.000000	10.504015
433.000000	10.763420
434.000000	11.038610
435.000000	11.307726
436.000000	11.566892
437.000000	11.836122
438.000000	12.106356
439.000000	12.363537
440.000000	12.623581
441.000000	12.887056
442.000000	13.147131
443.000000	13.399295
444.000000	13.643568
445.000000	13.895690
446.000000	14.144854
447.000000	14.378229
448.000000	14.606517
449.000000	14.825839
450.000000	15.032796
451.000000	15.244500
452.000000	15.452866
453.000000	15.649255
454.000000	15.841553
455.000000	16.030470
456.000000	16.204428
457.000000	16.377204
458.000000	16.541702
459.000000	16.707038
460.000000	16.870739
461.000000	17.023470
462.000000	17.172932
463.000000	17.318090
464.000000	17.459938
465.000000	17.593165
466.000000	17.725429
467.000000	17.855196
468.000000	17.975481
469.000000	18.091065
470.000000	18.200476
471.000000	18.308963
472.000000	18.417519
473.000000	18.515551
474.000000	18.606102
475.000000	18.704183
476.000000	18.794337
477.000000	18.874615
478.000000	18.951213
479.000000	19.030228
480.000000	19.100459
481.000000	19.161620
482.000000	19.209249
483.000000	19.272205
484.000000	19.342022
485.000000	19.416280
486.000000	19.505618
487.000000	19.599033
488.000000	19.707469
489.000000	19.824456
490.000000	19.963381
491.000000	20.125411
492.000000	20.309454
493.000000	20.519823
494.000000	20.762623
495.000000	21.023149
496.000000	21.320450
497.000000	21.642350
498.000000	21.992946
499.000000	22.372374
500.000000	22.774947
501.000000	23.212480
502.000000	23.666457
503.000000	24.145866
504.000000	24.647735
505.000000	25.159045
506.000000	25.689921
507.000000	26.229917
508.000000	26.779419
509.000000	27.354740
510.000000	27.940358
511.000000	28.545740
512.000000	29.163645
513.000000	29.791158
514.000000	30.431072
515.000000	31.086401
516.000000	31.745073
517.000000	32.419536
518.000000	33.105725
519.000000	33.811595
520.000000	34.528386
521.000000	35.267898
522.000000	36.013069
523.000000	36.780550
524.000000	37.567604
525.000000	38.358530
526.000000	39.156947
527.000000	39.965285
528.000000	40.784662
529.000000	41.616572
530.000000	42.470368
531.000000	43.328134
532.000000	44.188562
533.000000	45.052799
534.000000	45.927978
535.000000	46.784303
536.000000	47.622354
537.000000	48.446360
538.000000	49.236976
539.000000	49.997047
540.000000	50.725758
541.000000	51.460213
542.000000	52.145849
543.000000	52.806359
544.000000	53.418942
545.000000	54.015250
546.000000	54.565634
547.000000	55.080990
548.000000	55.584286
549.000000	56.025725
550.000000	56.418061
551.000000	56.784060
552.000000	57.116290
553.000000	57.413564
554.000000	57.646591
555.000000	57.869551
556.000000	58.072446
557.000000	58.247285
558.000000	58.409031
559.000000	58.543683
560.000000	58.741763
561.000000	58.857822
562.000000	58.965354
563.000000	59.059409
564.000000	59.120927
565.000000	59.178637
566.000000	59.219974
567.000000	59.231204
568.000000	59.248199
569.000000	59.230924
570.000000	59.191034
571.000000	59.150723
572.000000	59.097104
573.000000	59.048010
574.000000	58.973432
575.000000	58.915139
576.000000	58.836401
577.000000	58.776059
578.000000	58.719418
579.000000	58.629623
580.000000	58.563923
581.000000	58.448585
582.000000	58.338080
583.000000	58.227433
584.000000	58.077211
585.000000	57.903870
586.000000	57.720095
587.000000	57.478511
588.000000	57.205804
589.000000	56.922540
590.000000	56.611219
591.000000	56.260666
592.000000	55.921446
593.000000	55.565328
594.000000	55.201645
595.000000	54.838377
596.000000	54.458365
597.000000	54.065056
598.000000	53.682373
599.000000	53.282549
600.000000	52.854862
601.000000	52.450000
602.000000	51.994648
603.000000	51.534417
604.000000	51.083486
605.000000	50.606795
606.000000	50.105366
607.000000	49.578501
608.000000	49.064349
609.000000	48.496798
610.000000	47.941072
611.000000	47.344092
612.000000	46.758323
613.000000	46.161638
614.000000	45.573194
615.000000	45.042273
616.000000	44.502140
617.000000	44.006282
618.000000	43.551409
619.000000	43.156597
620.000000	42.779499
621.000000	42.464374
622.000000	42.184671
623.000000	41.977820
624.000000	41.800858
625.000000	41.673314
626.000000	41.581980
627.000000	41.521880
628.000000	41.516362
629.000000	41.531329
630.000000	41.591669
631.000000	41.656638
632.000000	41.766694
633.000000	41.900143
634.000000	42.046210
635.000000	42.218868
636.000000	42.406693
637.000000	42.611850
638.000000	42.795279
639.000000	43.020591
640.000000	43.230985
641.000000	43.430944
642.000000	43.622329
643.000000	43.828450
644.000000	44.005769
645.000000	44.182123
646.000000	44.320653
647.000000	44.436196
648.000000	44.569102
649.000000	44.670303
650.000000	44.752538
651.000000	44.814137
652.000000	44.895890
653.000000	44.949262
654.000000	44.992910
655.000000	45.043112
656.000000	45.044687
657.000000	45.069017
658.000000	45.115155
659.000000	45.123841
660.000000	45.134434
661.000000	45.188291
662.000000	45.227984
663.000000	45.236086
664.000000	45.273957
665.000000	45.317961
666.000000	45.379566
667.000000	45.442332
668.000000	45.526468
669.000000	45.598816
670.000000	45.682669
671.000000	45.784152
672.000000	45.891086
673.000000	45.998349
674.000000	46.124301
675.000000	46.243930
676.000000	46.367994
677.000000	46.527005
678.000000	46.672530
679.000000	46.851780
680.000000	47.015855
681.000000	47.216648
682.000000	47.405350
683.000000	47.617468
684.000000	47.806965
685.000000	48.027028
686.000000	48.227471
687.000000	48.439929
688.000000	48.660501
689.000000	48.846670
690.000000	49.033482
691.000000	49.216079
692.000000	49.408428
693.000000	49.580048
694.000000	49.757615
695.000000	49.923094
696.000000	50.085553
697.000000	50.243244
698.000000	50.382649
699.000000	50.531029
700.000000	50.690387
701.000000	50.819475
702.000000	50.934729
703.000000	51.069561
704.000000	51.200100
705.000000	51.330125
706.000000	51.417532
707.000000	51.496680
708.000000	51.599213
709.000000	51.678147
710.000000	51.754869
711.000000	51.849554
712.000000	51.926660
713.000000	52.001705
714.000000	52.072133
715.000000	52.150818
716.000000	52.220752
717.000000	52.283687
718.000000	52.342873
719.000000	52.415618
720.000000	52.475429
721.000000	52.524447
722.000000	52.577939
723.000000	52.633913
724.000000	52.684389
725.000000	52.738339
726.000000	52.801906
727.000000	52.843925
728.000000	52.903212
729.000000	52.971492
730.000000	53.024173
731.000000	53.104033
732.000000	53.183407
733.000000	53.247552
734.000000	53.325249
735.000000	53.398565
736.000000	53.470376
737.000000	53.546298
738.000000	53.635420
739.000000	53.688374
740.000000	53.737661
741.000000	53.798952
742.000000	53.879880
743.000000	53.943850
744.000000	54.016141
745.000000	54.095105
746.000000	54.165736
747.000000	54.230647
748.000000	54.310612
749.000000	54.402459
750.000000	54.485374
751.000000	54.582381
752.000000	54.671019
753.000000	54.768572
754.000000	54.882407
755.000000	54.968242
756.000000	55.020468
757.000000	55.094457
758.000000	55.196393
759.000000	55.249676
760.000000	55.340096
761.000000	55.449942
762.000000	55.499593
763.000000	55.546240
764.000000	55.636549
765.000000	55.693098
766.000000	55.748083
767.000000	55.845505
768.000000	55.951476
769.000000	56.020262
770.000000	56.055992
771.000000	56.138744
772.000000	56.247957
773.000000	56.349270
774.000000	56.425000
775.000000	56.477342
776.000000	56.545413
777.000000	56.608363
778.000000	56.641985
779.000000	56.689304
780.000000	56.750625
781.000000	56.833837
782.000000	56.896260
783.000000	56.947197
784.000000	57.015812
785.000000	57.081548
786.000000	57.154687
787.000000	57.208313
788.000000	57.277715
789.000000	57.362629
790.000000	57.424694
791.000000	57.527018
792.000000	57.628500
793.000000	57.691962
794.000000	57.766148
795.000000	57.804861
796.000000	57.912674
797.000000	58.028682
798.000000	58.099997
799.000000	58.146307
800.000000	58.239432
801.000000	58.318835
802.000000	58.394949
803.000000	58.489826
804.000000	58.578421
805.000000	58.671096
806.000000	58.797310
807.000000	58.859652
808.000000	58.933644
809.000000	59.041507
810.000000	59.175043
811.000000	59.281987
812.000000	59.370600
813.000000	59.501898
814.000000	59.626558
815.000000	59.743965
816.000000	59.772206
817.000000	59.923121
818.000000	60.051714
819.000000	60.054372
820.000000	60.219101
821.000000	60.399577
822.000000	60.515374
823.000000	60.577932
824.000000	60.644359
825.000000	60.707401
826.000000	60.791208
827.000000	60.868336
828.000000	60.944302
829.000000	60.988402
830.000000	60.997890
831.000000	61.174201
832.000000	61.229974
833.000000	61.277398
834.000000	61.295608
835.000000	61.390722
836.000000	61.384400
837.000000	61.350097
838.000000	61.441381
839.000000	61.520008
840.000000	61.574406
841.000000	61.583802
842.000000	61.563928
843.000000	61.610115
844.000000	61.617983
845.000000	61.696645
846.000000	61.575614
847.000000	61.603311
848.000000	61.650238
849.000000	61.618137
850.000000	61.610829
851.000000	61.665825
852.000000	61.473042
853.000000	61.636216
854.000000	61.658243
855.000000	61.506553
856.000000	61.605691
857.000000	61.673448
858.000000	62.053680
859.000000	61.538040
860.000000	61.591840
861.000000	61.622540
862.000000	61.642100
863.000000	61.633240
864.000000	61.632280
865.000000	61.613680
866.000000	61.619720
867.000000	61.668200
868.000000	61.745640
869.000000	61.818980
870.000000	61.899640
871.000000	61.973420
872.000000	62.025480
873.000000	62.083240
874.000000	62.111520
875.000000	62.133060
876.000000	62.162360
877.000000	62.173620
878.000000	62.195580
879.000000	62.193780
880.000000	62.189680
881.000000	62.186420
882.000000	62.168540
883.000000	62.165000
884.000000	62.153300
885.000000	62.145840
886.000000	62.111860
887.000000	62.059080
888.000000	62.024780
889.000000	62.001620
890.000000	61.960880
891.000000	61.907720
892.000000	61.854360
893.000000	61.797500
894.000000	61.719260
895.000000	61.647020
896.000000	61.565940
897.000000	61.489600
898.000000	61.407640
899.000000	61.326880
900.000000	61.236500
901.000000	61.150340
902.000000	61.055340
903.000000	60.950480
904.000000	60.863880
905.000000	60.770540
906.000000	60.694420
907.000000	60.602460
908.000000	60.534460
909.000000	60.470580
910.000000	60.418240
911.000000	60.352680
912.000000	60.308100
913.000000	60.243380
914.000000	60.206960
915.000000	60.168160
916.000000	60.119980
917.000000	60.065360
918.000000	60.014360
919.000000	59.980920
920.000000	59.937380
921.000000	59.873100
922.000000	59.826320
923.000000	59.763660
924.000000	59.700020
925.000000	59.652060
926.000000	59.588220
927.000000	59.536360
928.000000	59.485080
929.000000	59.432760
930.000000	59.378600
931.000000	59.319420
932.000000	59.266480
933.000000	59.211140
934.000000	59.169460
935.000000	59.110120
936.000000	59.071260
937.000000	59.038520
938.000000	58.978900
939.000000	58.925320
940.000000	58.879000
941.000000	58.814880
942.000000	58.772480
943.000000	58.723920
944.000000	58.674820
945.000000	58.625120
946.000000	58.586260
947.000000	58.529640
948.000000	58.478340
949.000000	58.421180
950.000000	58.377500
951.000000	58.336940
952.000000	58.286320
953.000000	58.244100
954.000000	58.194780
955.000000	58.146280
956.000000	58.083920
957.000000	58.026760
958.000000	57.974260
959.000000	57.924840
960.000000	57.858900
961.000000	57.793240
962.000000	57.732260
963.000000	57.678680
964.000000	57.639400
965.000000	57.587900
966.000000	57.536800
967.000000	57.495940
968.000000	57.452500
969.000000	57.415380
970.000000	57.377280
971.000000	57.332420
972.000000	57.305940
973.000000	57.271040
974.000000	57.237780
975.000000	57.202900
976.000000	57.175040
977.000000	57.140940
978.000000	57.114720
979.000000	57.077300
980.000000	57.043800
981.000000	57.021100
982.000000	56.990220
983.000000	56.961880
984.000000	56.929580
985.000000	56.898520
986.000000	56.878560
987.000000	56.866880
988.000000	56.842500
989.000000	56.817160
990.000000	56.809060
991.000000	56.798580
992.000000	56.783220
993.000000	56.776720
994.000000	56.772260
995.000000	56.766560
996.000000	56.763200
997.000000	56.761000
998.000000	56.753280
999.000000	56.747160
1000.000000	56.752020
1001.000000	56.765000
1002.000000	56.763120
1003.000000	56.761380
1004.000000	56.762400
1005.000000	56.759280
1006.000000	56.763860
1007.000000	56.766500
1008.000000	56.766520
1009.000000	56.769720
1010.000000	56.772460
1011.000000	56.779520
1012.000000	56.793940
1013.000000	56.815600
1014.000000	56.836860
1015.000000	56.868400
1016.000000	56.907980
1017.000000	56.949820
1018.000000	56.991620
1019.000000	57.034880
1020.000000	57.087200
1021.000000	57.141820
1022.000000	57.195840
1023.000000	57.251320
1024.000000	57.309500
1025.000000	57.364880
1026.000000	57.421060
1027.000000	57.485400
1028.000000	57.543100
1029.000000	57.597920
1030.000000	57.653860
1031.000000	57.703900
1032.000000	57.757320
1033.000000	57.805220
1034.000000	57.852860
1035.000000	57.904140
1036.000000	57.949320
1037.000000	57.996640
1038.000000	58.042540
1039.000000	58.091840
1040.000000	58.135520
1041.000000	58.171840
1042.000000	58.212040
1043.000000	58.245800
1044.000000	58.280620
1045.000000	58.323460
1046.000000	58.370600
1047.000000	58.414480
1048.000000	58.459680
1049.000000	58.501040
1050.000000	58.544180
1051.000000	58.591620
1052.000000	58.633360
1053.000000	58.677300
1054.000000	58.733780
1055.000000	58.790700
1056.000000	58.838540
1057.000000	58.886260
1058.000000	58.940460
1059.000000	59.001220
1060.000000	59.048920
1061.000000	59.092020
1062.000000	59.147420
1063.000000	59.194260
1064.000000	59.240080
1065.000000	59.283120
1066.000000	59.331320
1067.000000	59.379840
1068.000000	59.423420
1069.000000	59.465680
1070.000000	59.508520
1071.000000	59.551120
1072.000000	59.595360
1073.000000	59.640140
1074.000000	59.679160
1075.000000	59.719660
1076.000000	59.756220
1077.000000	59.797480
1078.000000	59.837120
1079.000000	59.879360
1080.000000	59.919680
1081.000000	59.958060
1082.000000	60.000940
1083.000000	60.041700
1084.000000	60.089000
1085.000000	60.127820
1086.000000	60.160300
1087.000000	60.202000
1088.000000	60.242980
1089.000000	60.286500
1090.000000	60.318580
1091.000000	60.360220
1092.000000	60.396500
1093.000000	60.428260
1094.000000	60.455120
1095.000000	60.480940
1096.000000	60.521760
1097.000000	60.557060
1098.000000	60.581720
1099.000000	60.606040
1100.000000	60.628140
1101.000000	60.646700
1102.000000	60.676020
1103.000000	60.690080
1104.000000	60.708480
1105.000000	60.722960
1106.000000	60.740300
1107.000000	60.750860
1108.000000	60.772600
1109.000000	60.793260
1110.000000	60.809920
1111.000000	60.826140
1112.000000	60.841280
1113.000000	60.845100
1114.000000	60.870880
1115.000000	60.884860
1116.000000	60.907760
1117.000000	60.919460
1118.000000	60.920760
1119.000000	60.909460
1120.000000	60.910400
1121.000000	60.898040
1122.000000	60.880120
1123.000000	60.855520
1124.000000	60.813200
1125.000000	60.758300
1126.000000	60.698540
1127.000000	60.618960
1128.000000	60.527640
1129.000000	60.424760
1130.000000	60.288640
1131.000000	60.109620
1132.000000	59.910220
1133.000000	59.717800
1134.000000	59.520000
1135.000000	59.272560
1136.000000	58.996220
1137.000000	58.694700
1138.000000	58.407620
1139.000000	58.140900
1140.000000	57.877480
1141.000000	57.630760
1142.000000	57.383160
1143.000000	57.145780
1144.000000	56.933340
1145.000000	56.744580
1146.000000	56.591900
1147.000000	56.498260
1148.000000	56.435380
1149.000000	56.411540
1150.000000	56.392980
1151.000000	56.377100
1152.000000	56.356580
1153.000000	56.312280
1154.000000	56.237380
1155.000000	56.117500
1156.000000	55.965400
1157.000000	55.781180
1158.000000	55.550340
1159.000000	55.318360
1160.000000	55.043900
1161.000000	54.775940
1162.000000	54.483140
1163.000000	54.201740
1164.000000	53.904360
1165.000000	53.600900
1166.000000	53.306080
1167.000000	53.021380
1168.000000	52.733440
1169.000000	52.448520
1170.000000	52.166700
1171.000000	51.895360
1172.000000	51.615400
1173.000000	51.365680
1174.000000	51.106640
1175.000000	50.866100
1176.000000	50.634720
1177.000000	50.373360
1178.000000	50.083240
1179.000000	49.761420
1180.000000	49.400720
1181.000000	49.014740
1182.000000	48.648580
1183.000000	48.316320
1184.000000	48.042960
1185.000000	47.863820
1186.000000	47.792020
1187.000000	47.799580
1188.000000	47.892580
1189.000000	48.101420
1190.000000	48.374420
1191.000000	48.696080
1192.000000	49.042100
1193.000000	49.373760
1194.000000	49.686340
1195.000000	49.937280
1196.000000	50.149540
1197.000000	50.319680
1198.000000	50.456100
1199.000000	50.558280
1200.000000	50.644220
1201.000000	50.713920
1202.000000	50.767700
1203.000000	50.822820
1204.000000	50.874520
1205.000000	50.923240
1206.000000	50.979300
1207.000000	51.053940
1208.000000	51.137060
1209.000000	51.220860
1210.000000	51.326260
1211.000000	51.434060
1212.000000	51.532800
1213.000000	51.647160
1214.000000	51.755900
1215.000000	51.857900
1216.000000	51.979580
1217.000000	52.098020
1218.000000	52.218960
1219.000000	52.340360
1220.000000	52.464620
1221.000000	52.602280
1222.000000	52.741160
1223.000000	52.872200
1224.000000	53.012140
1225.000000	53.144780
1226.000000	53.289300
1227.000000	53.436320
1228.000000	53.572120
1229.000000	53.701140
1230.000000	53.838780
1231.000000	53.974520
1232.000000	54.109540
1233.000000	54.242940
1234.000000	54.366480
1235.000000	54.488420
1236.000000	54.605200
1237.000000	54.724640
1238.000000	54.842680
1239.000000	54.959420
1240.000000	55.068820
1241.000000	55.182500
1242.000000	55.295420
1243.000000	55.395400
1244.000000	55.496060
1245.000000	55.598120
1246.000000	55.693040
1247.000000	55.784980
1248.000000	55.867480
1249.000000	55.940120
1250.000000	56.009760
1251.000000	56.076860
1252.000000	56.138140
1253.000000	56.188540
1254.000000	56.241400
1255.000000	56.294320
1256.000000	56.333800
1257.000000	56.373700
1258.000000	56.420480
1259.000000	56.449380
1260.000000	56.473840
1261.000000	56.502180
1262.000000	56.535660
1263.000000	56.557980
1264.000000	56.579820
1265.000000	56.603580
1266.000000	56.623420
1267.000000	56.643440
1268.000000	56.655860
1269.000000	56.668840
1270.000000	56.685500
1271.000000	56.697620
1272.000000	56.713500
1273.000000	56.737240
1274.000000	56.757100
1275.000000	56.778680
1276.000000	56.803240
1277.000000	56.837500
1278.000000	56.876000
1279.000000	56.920100
1280.000000	56.961340
1281.000000	56.999180
1282.000000	57.043900
1283.000000	57.093760
1284.000000	57.139140
1285.000000	57.187220
1286.000000	57.234640
1287.000000	57.272240
1288.000000	57.302160
1289.000000	57.328780
1290.000000	57.353860
1291.000000	57.378060
1292.000000	57.397000
1293.000000	57.411860
1294.000000	57.424980
1295.000000	57.433920
1296.000000	57.434980
1297.000000	57.437240
1298.000000	57.438440
1299.000000	57.436380
1300.000000	57.433840
1301.000000	57.424920
1302.000000	57.417920
1303.000000	57.409340
1304.000000	57.392620
1305.000000	57.371240
1306.000000	57.349560
1307.000000	57.326700
1308.000000	57.294620
1309.000000	57.254620
1310.000000	57.208400
1311.000000	57.163000
1312.000000	57.117460
1313.000000	57.060960
1314.000000	57.005580
1315.000000	56.943260
1316.000000	56.873560
1317.000000	56.804240
1318.000000	56.730340
1319.000000	56.658880
1320.000000	56.579980
1321.000000	56.494460
1322.000000	56.411640
1323.000000	56.322680
1324.000000	56.230100
1325.000000	56.134780
1326.000000	56.028120
1327.000000	55.916040
1328.000000	55.802220
1329.000000	55.690340
1330.000000	55.567820
1331.000000	55.432520
1332.000000	55.289740
1333.000000	55.138200
1334.000000	54.974860
1335.000000	54.813280
1336.000000	54.641060
1337.000000	54.461560
1338.000000	54.269480
1339.000000	54.070760
1340.000000	53.875000
1341.000000	53.665040
1342.000000	53.429880
1343.000000	53.205540
1344.000000	52.967260
1345.000000	52.692580
1346.000000	52.413380
1347.000000	52.176440
1348.000000	51.878860
1349.000000	51.543200
1350.000000	51.200780
1351.000000	50.819360
1352.000000	50.414980
1353.000000	49.994540
1354.000000	49.638580
1355.000000	49.270280
1356.000000	48.940280
1357.000000	48.714760
1358.000000	48.565780
1359.000000	48.469960
1360.000000	48.407020
1361.000000	48.373240
1362.000000	48.259040
1363.000000	48.097200
1364.000000	47.964280
1365.000000	47.805140
1366.000000	47.615800
1367.000000	47.442720
1368.000000	47.251980
1369.000000	46.996540
1370.000000	46.743480
1371.000000	46.489200
1372.000000	46.189320
1373.000000	45.892580
1374.000000	45.620920
1375.000000	45.400640
1376.000000	45.221340
1377.000000	45.087900
1378.000000	44.976880
1379.000000	44.885360
1380.000000	44.741260
1381.000000	44.629720
1382.000000	44.414840
1383.000000	44.103000
1384.000000	43.754720
1385.000000	43.349140
1386.000000	42.985160
1387.000000	42.654480
1388.000000	42.364300
1389.000000	41.998540
1390.000000	41.708340
1391.000000	41.487080
1392.000000	41.270860
1393.000000	41.017320
1394.000000	40.821940
1395.000000	40.665920
1396.000000	40.402240
1397.000000	40.066000
1398.000000	39.774560
1399.000000	39.588840
1400.000000	39.355600
1401.000000	38.995000
1402.000000	38.573660
1403.000000	38.229380
1404.000000	37.872040
1405.000000	37.551900
1406.000000	37.175460
1407.000000	36.842120
1408.000000	36.497280
1409.000000	36.178180
1410.000000	35.814580
1411.000000	35.490620
1412.000000	35.210380
1413.000000	34.980600
1414.000000	34.759720
1415.000000	34.475880
1416.000000	34.201800
1417.000000	33.945880
1418.000000	33.753660
1419.000000	33.546740
1420.000000	33.304300
1421.000000	33.048280
1422.000000	32.816120
1423.000000	32.625940
1424.000000	32.429800
1425.000000	32.210360
1426.000000	31.993480
1427.000000	31.821420
1428.000000	31.661780
1429.000000	31.482700
1430.000000	31.308660
1431.000000	31.187320
1432.000000	31.052080
1433.000000	30.923360
1434.000000	30.798560
1435.000000	30.661920
1436.000000	30.528100
1437.000000	30.415820
1438.000000	30.321600
1439.000000	30.201340
1440.000000	30.086480
1441.000000	29.977640
1442.000000	29.868740
1443.000000	29.755260
1444.000000	29.641460
1445.000000	29.559580
1446.000000	29.484960
1447.000000	29.349580
1448.000000	29.230300
1449.000000	29.148960
1450.000000	29.083700
1451.000000	29.011920
1452.000000	28.910980
1453.000000	28.797100
1454.000000	28.712180
1455.000000	28.639420
1456.000000	28.555540
1457.000000	28.473740
1458.000000	28.393600
1459.000000	28.316420
1460.000000	28.257520
1461.000000	28.199960
1462.000000	28.129620
1463.000000	28.074460
1464.000000	28.014780
1465.000000	27.969720
1466.000000	27.926100
1467.000000	27.877140
1468.000000	27.822440
1469.000000	27.787920
1470.000000	27.766100
1471.000000	27.736300
1472.000000	27.695240
1473.000000	27.646100
1474.000000	27.611820
1475.000000	27.560680
1476.000000	27.534460
1477.000000	27.515000
1478.000000	27.477500
1479.000000	27.454340
1480.000000	27.431280
1481.000000	27.412240
1482.000000	27.387060
1483.000000	27.349380
1484.000000	27.328540
1485.000000	27.310920
1486.000000	27.301620
1487.000000	27.290780
1488.000000	27.268660
1489.000000	27.253640
1490.000000	27.242940
1491.000000	27.227660
1492.000000	27.217620
1493.000000	27.208360
1494.000000	27.206100
1495.000000	27.201400
1496.000000	27.207200
1497.000000	27.226380
1498.000000	27.234800
1499.000000	27.247300
1500.000000	27.260420
1501.000000	27.289360
1502.000000	27.311360
1503.000000	27.339760
1504.000000	27.374420
1505.000000	27.404680
1506.000000	27.436020
1507.000000	27.469200
1508.000000	27.503180
1509.000000	27.536660
1510.000000	27.565680
1511.000000	27.592460
1512.000000	27.632580
1513.000000	27.667900
1514.000000	27.701680
1515.000000	27.741100
1516.000000	27.774820
1517.000000	27.807120
1518.000000	27.835040
1519.000000	27.866920
1520.000000	27.894780
1521.000000	27.925360
1522.000000	27.959100
1523.000000	27.989880
1524.000000	28.019820
1525.000000	28.053860
1526.000000	28.083800
1527.000000	28.107720
1528.000000	28.131580
1529.000000	28.158000
1530.000000	28.184440
1531.000000	28.207480
1532.000000	28.228000
1533.000000	28.242840
1534.000000	28.259460
1535.000000	28.281000
1536.000000	28.295120
1537.000000	28.305440
1538.000000	28.318400
1539.000000	28.328320
1540.000000	28.342620
1541.000000	28.358160
1542.000000	28.368220
1543.000000	28.383980
1544.000000	28.403000
1545.000000	28.421120
1546.000000	28.444560
1547.000000	28.476640
1548.000000	28.510180
1549.000000	28.540420
1550.000000	28.579640
1551.000000	28.617180
1552.000000	28.655580
1553.000000	28.684020
1554.000000	28.704860
1555.000000	28.729220
1556.000000	28.748180
1557.000000	28.759460
1558.000000	28.765420
1559.000000	28.771580
1560.000000	28.773900
1561.000000	28.767740
1562.000000	28.760160
1563.000000	28.746900
1564.000000	28.732780
1565.000000	28.718120
1566.000000	28.692440
1567.000000	28.667240
1568.000000	28.645120
1569.000000	28.621760
1570.000000	28.598120
1571.000000	28.582840
1572.000000	28.571300
1573.000000	28.558680
1574.000000	28.547820
1575.000000	28.543600
1576.000000	28.547740
1577.000000	28.548720
1578.000000	28.557080
1579.000000	28.571580
1580.000000	28.583380
1581.000000	28.602320
1582.000000	28.632140
1583.000000	28.656600
1584.000000	28.678720
1585.000000	28.711680
1586.000000	28.749320
1587.000000	28.788260
1588.000000	28.822280
1589.000000	28.864300
1590.000000	28.902600
1591.000000	28.942100
1592.000000	28.989960
1593.000000	29.035960
1594.000000	29.080080
1595.000000	29.131740
1596.000000	29.186360
1597.000000	29.243440
1598.000000	29.306600
1599.000000	29.367220
1600.000000	29.424320
1601.000000	29.483320
1602.000000	29.552820
1603.000000	29.616520
1604.000000	29.677240
1605.000000	29.740020
1606.000000	29.808640
1607.000000	29.874240
1608.000000	29.931960
1609.000000	29.991500
1610.000000	30.053560
1611.000000	30.117620
1612.000000	30.170640
1613.000000	30.231240
1614.000000	30.292060
1615.000000	30.340580
1616.000000	30.400360
1617.000000	30.449500
1618.000000	30.507180
1619.000000	30.566420
1620.000000	30.623840
1621.000000	30.681900
1622.000000	30.740080
1623.000000	30.798060
1624.000000	30.856220
1625.000000	30.916720
1626.000000	30.988120
1627.000000	31.049580
1628.000000	31.114080
1629.000000	31.180180
1630.000000	31.246140
1631.000000	31.314600
1632.000000	31.377680
1633.000000	31.436060
1634.000000	31.490420
1635.000000	31.544440
1636.000000	31.586900
1637.000000	31.643940
1638.000000	31.682160
1639.000000	31.738260
1640.000000	31.774260
1641.000000	31.822040
1642.000000	31.860700
1643.000000	31.900980
1644.000000	31.939120
1645.000000	31.981320
1646.000000	32.025360
1647.000000	32.057740
1648.000000	32.094460
1649.000000	32.125900
1650.000000	32.143180
1651.000000	32.158000
1652.000000	32.173700
1653.000000	32.179860
1654.000000	32.180620
1655.000000	32.173500
1656.000000	32.154980
1657.000000	32.130780
1658.000000	32.105440
1659.000000	32.059820
1660.000000	32.004420
1661.000000	31.945220
1662.000000	31.876860
1663.000000	31.795360
1664.000000	31.702800
1665.000000	31.618520
1666.000000	31.503340
1667.000000	31.383020
1668.000000	31.221000
1669.000000	31.072880
1670.000000	30.906660
1671.000000	30.725740
1672.000000	30.522120
1673.000000	30.293640
1674.000000	30.064620
1675.000000	29.793160
1676.000000	29.482620
1677.000000	29.150680
1678.000000	28.784220
1679.000000	28.400240
1680.000000	28.005460
1681.000000	27.647760
1682.000000	27.325260
1683.000000	27.062800
1684.000000	26.872820
1685.000000	26.743540
1686.000000	26.660920
1687.000000	26.603160
1688.000000	26.552620
1689.000000	26.490640
1690.000000	26.420040
1691.000000	26.348300
1692.000000	26.273960
1693.000000	26.192680
1694.000000	26.146640
1695.000000	26.127460
1696.000000	26.127040
1697.000000	26.177020
1698.000000	26.231660
1699.000000	26.312720
1700.000000	26.400900
1701.000000	26.489100
1702.000000	26.584440
1703.000000	26.639380
1704.000000	26.693080
1705.000000	26.726940
1706.000000	26.751520
1707.000000	26.758580
1708.000000	26.754480
1709.000000	26.735020
1710.000000	26.707940
1711.000000	26.672720
1712.000000	26.620440
1713.000000	26.549180
1714.000000	26.472300
1715.000000	26.392540
1716.000000	26.287600
1717.000000	26.198080
1718.000000	26.113180
1719.000000	26.035740
1720.000000	25.960740
1721.000000	25.907640
1722.000000	25.862720
1723.000000	25.825380
1724.000000	25.797100
1725.000000	25.757160
1726.000000	25.715020
1727.000000	25.664300
1728.000000	25.603840
1729.000000	25.539540
1730.000000	25.478040
1731.000000	25.421600
1732.000000	25.385060
1733.000000	25.359620
1734.000000	25.357440
1735.000000	25.378660
1736.000000	25.431140
1737.000000	25.519140
1738.000000	25.624000
1739.000000	25.753460
1740.000000	25.891520
1741.000000	26.044700
1742.000000	26.191040
1743.000000	26.329860
1744.000000	26.459320
1745.000000	26.568940
1746.000000	26.663240
1747.000000	26.752520
1748.000000	26.806840
1749.000000	26.874080
1750.000000	26.930660
1751.000000	26.973160
1752.000000	26.996740
1753.000000	27.012180
1754.000000	27.030440
1755.000000	27.033900
1756.000000	27.014300
1757.000000	26.989260
1758.000000	26.961320
1759.000000	26.935620
1760.000000	26.911900
1761.000000	26.883980
1762.000000	26.869740
1763.000000	26.870840
1764.000000	26.886500
1765.000000	26.929260
1766.000000	26.988200
1767.000000	27.048940
1768.000000	27.123840
1769.000000	27.211440
1770.000000	27.297740
1771.000000	27.390300
1772.000000	27.484520
1773.000000	27.579020
1774.000000	27.669940
1775.000000	27.756320
1776.000000	27.840000
1777.000000	27.916880
1778.000000	27.994060
1779.000000	28.057000
1780.000000	28.119920
1781.000000	28.184780
1782.000000	28.235580
1783.000000	28.282960
1784.000000	28.336220
1785.000000	28.394920
1786.000000	28.444400
1787.000000	28.492000
1788.000000	28.533140
1789.000000	28.571380
1790.000000	28.606940
1791.000000	28.653720
1792.000000	28.693460
1793.000000	28.729160
1794.000000	28.770820
1795.000000	28.814380
1796.000000	28.852960
1797.000000	28.887900
1798.000000	28.919340
1799.000000	28.957080
1800.000000	29.009360
1801.000000	29.058660
1802.000000	29.092220
1803.000000	29.121480
1804.000000	29.158360
1805.000000	29.200740
1806.000000	29.244520
1807.000000	29.286120
1808.000000	29.316660
1809.000000	29.343200
1810.000000	29.381480
1811.000000	29.424000
1812.000000	29.452680
1813.000000	29.468940
1814.000000	29.481060
1815.000000	29.504100
1816.000000	29.517260
1817.000000	29.514880
1818.000000	29.520840
1819.000000	29.550460
1820.000000	29.606660
1821.000000	29.641860
1822.000000	29.647640
1823.000000	29.635460
1824.000000	29.639800
1825.000000	29.679260
1826.000000	29.733340
1827.000000	29.789500
1828.000000	29.857800
1829.000000	29.925540
1830.000000	29.987780
1831.000000	30.046000
1832.000000	30.098840
1833.000000	30.151240
1834.000000	30.210760
1835.000000	30.287520
1836.000000	30.361500
1837.000000	30.425260
1838.000000	30.472360
1839.000000	30.508400
1840.000000	30.550840
1841.000000	30.588940
1842.000000	30.611940
1843.000000	30.602900
1844.000000	30.593140
1845.000000	30.622920
1846.000000	30.677720
1847.000000	30.753440
1848.000000	30.822300
1849.000000	30.850500
1850.000000	30.844340
1851.000000	30.843520
1852.000000	30.847460
1853.000000	30.872340
1854.000000	30.902680
1855.000000	30.902480
1856.000000	30.902720
1857.000000	30.893360
1858.000000	30.871840
1859.000000	30.848500
1860.000000	30.798540
1861.000000	30.732360
1862.000000	30.655920
1863.000000	30.569180
1864.000000	30.493720
1865.000000	30.409620
1866.000000	30.329200
1867.000000	30.241260
1868.000000	30.131380
1869.000000	29.981960
1870.000000	29.804320
1871.000000	29.614340
1872.000000	29.385720
1873.000000	29.131400
1874.000000	28.857360
1875.000000	28.558740
1876.000000	28.246060
1877.000000	27.916440
1878.000000	27.582700
1879.000000	27.226860
1880.000000	26.864700
1881.000000	26.497320
1882.000000	26.121060
1883.000000	25.739520
1884.000000	25.340160
1885.000000	24.928520
1886.000000	24.549220
1887.000000	24.201080
1888.000000	23.867040
1889.000000	23.521480
1890.000000	23.206580
1891.000000	22.870900
1892.000000	22.522940
1893.000000	22.170100
1894.000000	21.839800
1895.000000	21.528740
1896.000000	21.243340
1897.000000	20.965160
1898.000000	20.662540
1899.000000	20.360800
1900.000000	20.058460
1901.000000	19.755820
1902.000000	19.486560
1903.000000	19.220300
1904.000000	18.965780
1905.000000	18.714840
1906.000000	18.443960
1907.000000	18.183620
1908.000000	17.945280
1909.000000	17.735760
1910.000000	17.545660
1911.000000	17.352340
1912.000000	17.173400
1913.000000	16.992920
1914.000000	16.801800
1915.000000	16.620340
1916.000000	16.461440
1917.000000	16.309760
1918.000000	16.166420
1919.000000	16.023440
1920.000000	15.905900
1921.000000	15.778180
1922.000000	15.665080
1923.000000	15.551280
1924.000000	15.454060
1925.000000	15.344380
1926.000000	15.255980
1927.000000	15.187560
1928.000000	15.116900
1929.000000	15.052600
1930.000000	14.983420
1931.000000	14.936120
1932.000000	14.888540
1933.000000	14.837880
1934.000000	14.803580
1935.000000	14.768920
1936.000000	14.755560
1937.000000	14.742780
1938.000000	14.739440
1939.000000	14.746780
1940.000000	14.749520
1941.000000	14.756100
1942.000000	14.762700
1943.000000	14.763380
1944.000000	14.784900
1945.000000	14.817180
1946.000000	14.833900
1947.000000	14.877620
1948.000000	14.909440
1949.000000	14.949420
1950.000000	14.971860
1951.000000	15.019180
1952.000000	15.054260
1953.000000	15.102720
1954.000000	15.156840
1955.000000	15.210280
1956.000000	15.263240
1957.000000	15.308700
1958.000000	15.347140
1959.000000	15.393800
1960.000000	15.445120
1961.000000	15.499280
1962.000000	15.542380
1963.000000	15.596740
1964.000000	15.642880
1965.000000	15.688500
1966.000000	15.743040
1967.000000	15.787400
1968.000000	15.832000
1969.000000	15.874740
1970.000000	15.918220
1971.000000	15.984540
1972.000000	16.034080
1973.000000	16.078740
1974.000000	16.127620
1975.000000	16.181460
1976.000000	16.228840
1977.000000	16.292880
1978.000000	16.338300
1979.000000	16.400360
1980.000000	16.466000
1981.000000	16.515640
1982.000000	16.574960
1983.000000	16.632960
1984.000000	16.691140
1985.000000	16.742760
1986.000000	16.797940
1987.000000	16.848600
1988.000000	16.913960
1989.000000	16.968220
1990.000000	17.017680
1991.000000	17.079240
1992.000000	17.120860
1993.000000	17.160660
1994.000000	17.205820
1995.000000	17.261460
1996.000000	17.299200
1997.000000	17.338240
1998.000000	17.379380
1999.000000	17.410420
2000.000000	17.440520
2001.000000	17.472960
2002.000000	17.496700
2003.000000	17.528220
2004.000000	17.544200
2005.000000	17.565780
2006.000000	17.571760
2007.000000	17.574720
2008.000000	17.586620
2009.000000	17.587040
2010.000000	17.589080
2011.000000	17.588380
2012.000000	17.578960
2013.000000	17.571500
2014.000000	17.558960
2015.000000	17.538340
2016.000000	17.518200
2017.000000	17.499660
2018.000000	17.470080
2019.000000	17.445700
2020.000000	17.409200
2021.000000	17.376400
2022.000000	17.340580
2023.000000	17.301880
2024.000000	17.254060
2025.000000	17.209560
2026.000000	17.159880
2027.000000	17.117840
2028.000000	17.057020
2029.000000	17.001700
2030.000000	16.940800
2031.000000	16.880820
2032.000000	16.816780
2033.000000	16.740820
2034.000000	16.666340
2035.000000	16.587100
2036.000000	16.505460
2037.000000	16.414040
2038.000000	16.327020
2039.000000	16.232580
2040.000000	16.133080
2041.000000	16.035040
2042.000000	15.939600
2043.000000	15.824540
2044.000000	15.730040
2045.000000	15.634380
2046.000000	15.534520
2047.000000	15.433740
2048.000000	15.348380
2049.000000	15.280920
2050.000000	15.210120
2051.000000	15.151080
2052.000000	15.097480
2053.000000	15.056860
2054.000000	15.039360
2055.000000	15.021500
2056.000000	15.012240
2057.000000	15.019920
2058.000000	15.031740
2059.000000	15.050740
2060.000000	15.081280
2061.000000	15.117360
2062.000000	15.150860
2063.000000	15.193940
2064.000000	15.253720
2065.000000	15.307660
2066.000000	15.361980
2067.000000	15.411580
2068.000000	15.460700
2069.000000	15.518720
2070.000000	15.571720
2071.000000	15.628840
2072.000000	15.684940
2073.000000	15.735560
2074.000000	15.783080
2075.000000	15.830640
2076.000000	15.875280
2077.000000	15.917820
2078.000000	15.950680
2079.000000	15.988220
2080.000000	16.029720
2081.000000	16.065480
2082.000000	16.091640
2083.000000	16.114680
2084.000000	16.133960
2085.000000	16.153920
2086.000000	16.171440
2087.000000	16.185000
2088.000000	16.194160
2089.000000	16.205840
2090.000000	16.216360
2091.000000	16.221860
2092.000000	16.223900
2093.000000	16.228840
2094.000000	16.243600
2095.000000	16.257760
2096.000000	16.261120
2097.000000	16.273480
2098.000000	16.288400
2099.000000	16.294760
2100.000000	16.302700
2101.000000	16.319200
2102.000000	16.338740
2103.000000	16.347900
2104.000000	16.355660
2105.000000	16.371580
2106.000000	16.388860
2107.000000	16.398960
2108.000000	16.411600
2109.000000	16.426560
2110.000000	16.433420
2111.000000	16.442180
2112.000000	16.455500
2113.000000	16.462180
2114.000000	16.463060
2115.000000	16.468820
2116.000000	16.483940
2117.000000	16.490840
2118.000000	16.486380
2119.000000	16.484900
2120.000000	16.481660
2121.000000	16.480520
2122.000000	16.479600
2123.000000	16.467160
2124.000000	16.458940
2125.000000	16.450020
2126.000000	16.433460
2127.000000	16.412460
2128.000000	16.394080
2129.000000	16.372120
2130.000000	16.344200
2131.000000	16.320440
2132.000000	16.287240
2133.000000	16.258340
2134.000000	16.228540
2135.000000	16.190640
2136.000000	16.143360
2137.000000	16.101540
2138.000000	16.062380
2139.000000	16.025040
2140.000000	15.975580
2141.000000	15.926520
2142.000000	15.878980
2143.000000	15.832000
2144.000000	15.793680
2145.000000	15.743520
2146.000000	15.682680
2147.000000	15.634700
2148.000000	15.582560
2149.000000	15.520380
2150.000000	15.471560
2151.000000	15.420460
2152.000000	15.372140
2153.000000	15.318700
2154.000000	15.264280
2155.000000	15.219760
2156.000000	15.168380
2157.000000	15.128160
2158.000000	15.090220
2159.000000	15.049280
2160.000000	15.009640
2161.000000	14.974860
2162.000000	14.949340
2163.000000	14.925060
2164.000000	14.898860
2165.000000	14.868700
2166.000000	14.841660
2167.000000	14.818680
2168.000000	14.802220
2169.000000	14.791140
2170.000000	14.775400
2171.000000	14.769400
2172.000000	14.749060
2173.000000	14.745940
2174.000000	14.745580
2175.000000	14.746260
2176.000000	14.743780
2177.000000	14.745000
2178.000000	14.740940
2179.000000	14.757100
2180.000000	14.763940
2181.000000	14.770640
2182.000000	14.774340
2183.000000	14.787160
2184.000000	14.797500
2185.000000	14.806300
2186.000000	14.818240
2187.000000	14.826740
2188.000000	14.837980
2189.000000	14.844640
2190.000000	14.852240
2191.000000	14.862160
2192.000000	14.874640
2193.000000	14.873840
2194.000000	14.883420
2195.000000	14.892160
2196.000000	14.900700
2197.000000	14.915220
2198.000000	14.930540
2199.000000	14.934140
2200.000000	14.955820
2201.000000	14.963460
2202.000000	14.982460
2203.000000	15.004580
2204.000000	15.020280
2205.000000	15.038980
2206.000000	15.056400
2207.000000	15.077120
2208.000000	15.108660
2209.000000	15.137640
2210.000000	15.164240
2211.000000	15.185840
2212.000000	15.225960
2213.000000	15.266080
2214.000000	15.300440
2215.000000	15.339560
2216.000000	15.374960
2217.000000	15.410240
2218.000000	15.452580
2219.000000	15.487460
2220.000000	15.515200
2221.000000	15.550960
2222.000000	15.575920
2223.000000	15.609940
2224.000000	15.630100
2225.000000	15.655760
2226.000000	15.673520
2227.000000	15.690260
2228.000000	15.694540
2229.000000	15.699680
2230.000000	15.700380
2231.000000	15.691560
2232.000000	15.682340
2233.000000	15.663560
2234.000000	15.632340
2235.000000	15.612240
2236.000000	15.577020
2237.000000	15.525120
2238.000000	15.473940
2239.000000	15.429520
2240.000000	15.369800
2241.000000	15.291560
2242.000000	15.221360
2243.000000	15.141900
2244.000000	15.043540
2245.000000	14.937520
2246.000000	14.841220
2247.000000	14.720300
2248.000000	14.605980
2249.000000	14.467340
2250.000000	14.335540
2251.000000	14.189760
2252.000000	14.034180
2253.000000	13.885900
2254.000000	13.724980
2255.000000	13.564600
2256.000000	13.408300
2257.000000	13.243840
2258.000000	13.088640
2259.000000	12.937320
2260.000000	12.795320
2261.000000	12.666500
2262.000000	12.530760
2263.000000	12.423200
2264.000000	12.320180
2265.000000	12.235680
2266.000000	12.158140
2267.000000	12.099140
2268.000000	12.044800
2269.000000	11.994360
2270.000000	11.971280
2271.000000	11.946540
2272.000000	11.936400
2273.000000	11.925460
2274.000000	11.931160
2275.000000	11.931340
2276.000000	11.940000
2277.000000	11.948700
2278.000000	11.960800
2279.000000	11.975100
2280.000000	11.983320
2281.000000	11.988380
2282.000000	12.013840
2283.000000	12.011560
2284.000000	12.015660
2285.000000	12.012640
2286.000000	12.009540
2287.000000	12.011180
2288.000000	12.001680
2289.000000	11.981060
2290.000000	11.966180
2291.000000	11.943140
2292.000000	11.915440
2293.000000	11.884860
2294.000000	11.850240
2295.000000	11.820000
2296.000000	11.772420
2297.000000	11.729540
2298.000000	11.682200
2299.000000	11.644080
2300.000000	11.611320
2301.000000	11.582420
2302.000000	11.556820
2303.000000	11.538860
2304.000000	11.530820
2305.000000	11.526820
2306.000000	11.535040
2307.000000	11.546920
2308.000000	11.578140
2309.000000	11.609220
2310.000000	11.653540
2311.000000	11.702420
2312.000000	11.757440
2313.000000	11.806760
2314.000000	11.863900
2315.000000	11.929880
2316.000000	11.990520
2317.000000	12.046700
2318.000000	12.105300
2319.000000	12.156500
2320.000000	12.212200
2321.000000	12.262260
2322.000000	12.304480
2323.000000	12.343940
2324.000000	12.381700
2325.000000	12.418920
2326.000000	12.444060
2327.000000	12.466480
2328.000000	12.493220
2329.000000	12.518960
2330.000000	12.540380
2331.000000	12.555940
2332.000000	12.570940
2333.000000	12.583160
2334.000000	12.592060
2335.000000	12.601840
2336.000000	12.603960
2337.000000	12.606700
2338.000000	12.604700
2339.000000	12.601560
2340.000000	12.595820
2341.000000	12.587260
2342.000000	12.577640
2343.000000	12.561740
2344.000000	12.544460
2345.000000	12.527400
2346.000000	12.515680
2347.000000	12.501380
2348.000000	12.490760
2349.000000	12.485920
2350.000000	12.480120
2351.000000	12.477020
2352.000000	12.486440
2353.000000	12.494780
2354.000000	12.503260
2355.000000	12.524100
2356.000000	12.546880
2357.000000	12.566900
2358.000000	12.595400
2359.000000	12.628660
2360.000000	12.660080
2361.000000	12.689540
2362.000000	12.720780
2363.000000	12.745100
2364.000000	12.772580
2365.000000	12.802720
2366.000000	12.833500
2367.000000	12.860500
2368.000000	12.884840
2369.000000	12.914000
2370.000000	12.930600
2371.000000	12.945420
2372.000000	12.964740
2373.000000	12.985700
2374.000000	13.014160
2375.000000	13.025300
2376.000000	13.034840
2377.000000	13.057380
2378.000000	13.069360
2379.000000	13.081400
2380.000000	13.096520
2381.000000	13.101780
2382.000000	13.108020
2383.000000	13.119340
2384.000000	13.124540
2385.000000	13.121140
2386.000000	13.119660
2387.000000	13.117780
2388.000000	13.115760
2389.000000	13.116880
2390.000000	13.105820
2391.000000	13.089160
2392.000000	13.077900
2393.000000	13.067900
2394.000000	13.061340
2395.000000	13.048560
2396.000000	13.034800
2397.000000	13.016080
2398.000000	13.003540
2399.000000	12.987000
2400.000000	12.967720
2401.000000	12.950520
2402.000000	12.930920
2403.000000	12.913500
2404.000000	12.904600
2405.000000	12.881800
2406.000000	12.853780
2407.000000	12.837480
2408.000000	12.810060
2409.000000	12.796140
2410.000000	12.774120
2411.000000	12.745980
2412.000000	12.720200
2413.000000	12.699580
2414.000000	12.672100
2415.000000	12.638900
2416.000000	12.603540
2417.000000	12.570940
2418.000000	12.550860
2419.000000	12.523700
2420.000000	12.491060
2421.000000	12.459580
2422.000000	12.418060
2423.000000	12.372700
2424.000000	12.323720
2425.000000	12.275820
2426.000000	12.239060
2427.000000	12.190780
2428.000000	12.143580
2429.000000	12.091640
2430.000000	12.046280
2431.000000	11.988020
2432.000000	11.935500
2433.000000	11.884280
2434.000000	11.829140
2435.000000	11.766200
2436.000000	11.713480
2437.000000	11.655960
2438.000000	11.585960
2439.000000	11.512260
2440.000000	11.450940
2441.000000	11.382360
2442.000000	11.324060
2443.000000	11.252280
2444.000000	11.183000
2445.000000	11.122360
2446.000000	11.054100
2447.000000	10.982160
2448.000000	10.921400
2449.000000	10.852440
2450.000000	10.779700
2451.000000	10.716120
2452.000000	10.659720
2453.000000	10.596540
2454.000000	10.523380
2455.000000	10.474720
2456.000000	10.419600
2457.000000	10.368480
2458.000000	10.324240
2459.000000	10.273320
2460.000000	10.218640
2461.000000	10.196200
2462.000000	10.144640
2463.000000	10.115680
2464.000000	10.091180
2465.000000	10.063740
2466.000000	10.052220
2467.000000	9.994440
2468.000000	9.991440
2469.000000	9.969120
2470.000000	9.949600
2471.000000	9.943340
2472.000000	9.921840
2473.000000	9.917320
2474.000000	9.890920
2475.000000	9.887120
2476.000000	9.882360
2477.000000	9.882100
2478.000000	9.862420
2479.000000	9.836620
2480.000000	9.848280
2481.000000	9.857620
2482.000000	9.857680
2483.000000	9.855860
2484.000000	9.870220
2485.000000	9.858020
2486.000000	9.844500
2487.000000	9.844480
2488.000000	9.846120
2489.000000	9.859100
2490.000000	9.890760
2491.000000	9.894000
2492.000000	9.907960
2493.000000	9.911780
2494.000000	9.963980
2495.000000	9.932680
2496.000000	9.968040
2497.000000	10.010980
2498.000000	9.997340
2499.000000	9.975060
2500.000000	10.073040
