PE UV       SUBTECH     SPECTRUM    ASCII       PEDS        4.00        
   -1
CICIMAUCR0158-5.Sample.ASC
24/04/25
13:52:02.00
24/04/25
13:52:02.00
Vinicio Soto Monge
C. cupreomarginata
250,000000
1
Lambda 1050
1050L1511233
PerkinElmer UV WinLab 6.3.2.0749 / 2.02.05 Lambda 900 UV/VIS/NIR, Aug  7 2015 09:38:08

0
0
3350/servo 860,8/2
0
0
UV/VIS
1
1
1
DoubleDePol,CommonBeamDepol,RBeamAtt,SBeamAtt,60mm sphere, WB InGaAs Detector
0
0
0
0
Program
Program
3350/servo 860,8/2
3350/0,2 860,8/0,2
3350/0,2 860,8/0,2
0
15.00
 
 
 
0
 
860,8
319,2
860,8
Front
100
on
S:100 R:100
0
0
0
0
 
0
 
 
 
0
 
 
0
0
0
0
0
 
 
 
 
0
0


0
0
#HDR
-1
-1
#GR
nm
%R
1.0
0.0
2500,000000
-1,000000
2251
8
68,614000
5,280700
#DATA
250.000000	6.008450
251.000000	5.972775
252.000000	5.954625
253.000000	5.952850
254.000000	5.908875
255.000000	5.913125
256.000000	5.923175
257.000000	5.907650
258.000000	5.868625
259.000000	5.852250
260.000000	5.834575
261.000000	5.798925
262.000000	5.782325
263.000000	5.753050
264.000000	5.733175
265.000000	5.701350
266.000000	5.688175
267.000000	5.656600
268.000000	5.649375
269.000000	5.616125
270.000000	5.597200
271.000000	5.611950
272.000000	5.585900
273.000000	5.545425
274.000000	5.563125
275.000000	5.535275
276.000000	5.502225
277.000000	5.501100
278.000000	5.467975
279.000000	5.476425
280.000000	5.471850
281.000000	5.429450
282.000000	5.432250
283.000000	5.427850
284.000000	5.426325
285.000000	5.419050
286.000000	5.427550
287.000000	5.436875
288.000000	5.403450
289.000000	5.388775
290.000000	5.400975
291.000000	5.403075
292.000000	5.403725
293.000000	5.372150
294.000000	5.422950
295.000000	5.366775
296.000000	5.404950
297.000000	5.381000
298.000000	5.378400
299.000000	5.391825
300.000000	5.379500
301.000000	5.364375
302.000000	5.366550
303.000000	5.384400
304.000000	5.397650
305.000000	5.422900
306.000000	5.396575
307.000000	5.389350
308.000000	5.416900
309.000000	5.430050
310.000000	5.437025
311.000000	5.404500
312.000000	5.424875
313.000000	5.415750
314.000000	5.417125
315.000000	5.442525
316.000000	5.510275
317.000000	6.144600
318.000000	5.953375
319.000000	5.838050
320.000000	5.906975
321.000000	5.827750
322.000000	5.851650
323.000000	5.721750
324.000000	5.736525
325.000000	5.706275
326.000000	5.741500
327.000000	5.575450
328.000000	5.532600
329.000000	5.692250
330.000000	5.552475
331.000000	5.432150
332.000000	5.499650
333.000000	5.545325
334.000000	5.577225
335.000000	5.475650
336.000000	5.481400
337.000000	5.549375
338.000000	5.472000
339.000000	5.475825
340.000000	5.484425
341.000000	5.467425
342.000000	5.552275
343.000000	5.540500
344.000000	5.483675
345.000000	5.484825
346.000000	5.427925
347.000000	5.492250
348.000000	5.490675
349.000000	5.479950
350.000000	5.458625
351.000000	5.525900
352.000000	5.603700
353.000000	5.589375
354.000000	5.609225
355.000000	5.653925
356.000000	5.692125
357.000000	5.665025
358.000000	5.709525
359.000000	5.781625
360.000000	5.915425
361.000000	5.877225
362.000000	5.929750
363.000000	5.950950
364.000000	6.028350
365.000000	6.045575
366.000000	6.067875
367.000000	6.160575
368.000000	6.274500
369.000000	6.362150
370.000000	6.355250
371.000000	6.408400
372.000000	6.474075
373.000000	6.588575
374.000000	6.630425
375.000000	6.881550
376.000000	7.274700
377.000000	7.374500
378.000000	7.540575
379.000000	7.716425
380.000000	7.902675
381.000000	8.112900
382.000000	8.312500
383.000000	8.516450
384.000000	8.739250
385.000000	8.978575
386.000000	9.201775
387.000000	9.434100
388.000000	9.674275
389.000000	9.908500
390.000000	10.146750
391.000000	10.389225
392.000000	10.619500
393.000000	10.847550
394.000000	11.065925
395.000000	11.289900
396.000000	11.499000
397.000000	11.714400
398.000000	11.912925
399.000000	12.100850
400.000000	12.280950
401.000000	12.448125
402.000000	12.613525
403.000000	12.767350
404.000000	12.919725
405.000000	13.051400
406.000000	13.177850
407.000000	13.304675
408.000000	13.418275
409.000000	13.515650
410.000000	13.598550
411.000000	13.676100
412.000000	13.750425
413.000000	13.823100
414.000000	13.881925
415.000000	13.934275
416.000000	13.970450
417.000000	13.996250
418.000000	14.011775
419.000000	14.024525
420.000000	14.034175
421.000000	14.032550
422.000000	14.024475
423.000000	14.012300
424.000000	13.988225
425.000000	13.961125
426.000000	13.941425
427.000000	13.914950
428.000000	13.891650
429.000000	13.873625
430.000000	13.863575
431.000000	13.861600
432.000000	13.877900
433.000000	13.889275
434.000000	13.920050
435.000000	13.971800
436.000000	14.048450
437.000000	14.128400
438.000000	14.233800
439.000000	14.375725
440.000000	14.522250
441.000000	14.694700
442.000000	14.895225
443.000000	15.123550
444.000000	15.370975
445.000000	15.623900
446.000000	15.890075
447.000000	16.167500
448.000000	16.455225
449.000000	16.766725
450.000000	17.073150
451.000000	17.375450
452.000000	17.672675
453.000000	17.980550
454.000000	18.273000
455.000000	18.553450
456.000000	18.823450
457.000000	19.075825
458.000000	19.328175
459.000000	19.551800
460.000000	19.771675
461.000000	19.991750
462.000000	20.202425
463.000000	20.395500
464.000000	20.591875
465.000000	20.779550
466.000000	20.963750
467.000000	21.149850
468.000000	21.344025
469.000000	21.538100
470.000000	21.733775
471.000000	21.946150
472.000000	22.173175
473.000000	22.391100
474.000000	22.626250
475.000000	22.870700
476.000000	23.130800
477.000000	23.398525
478.000000	23.678100
479.000000	23.968575
480.000000	24.271725
481.000000	24.592875
482.000000	24.929075
483.000000	25.272000
484.000000	25.623800
485.000000	25.966125
486.000000	26.311925
487.000000	26.674200
488.000000	27.037150
489.000000	27.409625
490.000000	27.795600
491.000000	28.194725
492.000000	28.564075
493.000000	28.946025
494.000000	29.320475
495.000000	29.713175
496.000000	30.118725
497.000000	30.507550
498.000000	30.869375
499.000000	31.264400
500.000000	31.665175
501.000000	32.072150
502.000000	32.474550
503.000000	32.897325
504.000000	33.325875
505.000000	33.760450
506.000000	34.214150
507.000000	34.673875
508.000000	35.146350
509.000000	35.650875
510.000000	36.178250
511.000000	36.719750
512.000000	37.281500
513.000000	37.865975
514.000000	38.456650
515.000000	39.061800
516.000000	39.676575
517.000000	40.318750
518.000000	40.953550
519.000000	41.609950
520.000000	42.289325
521.000000	42.984750
522.000000	43.696075
523.000000	44.408325
524.000000	45.140125
525.000000	45.878600
526.000000	46.623475
527.000000	47.372525
528.000000	48.131850
529.000000	48.899575
530.000000	49.686750
531.000000	50.473600
532.000000	51.276825
533.000000	52.102075
534.000000	52.921325
535.000000	53.727350
536.000000	54.529150
537.000000	55.303275
538.000000	56.068625
539.000000	56.805775
540.000000	57.528450
541.000000	58.223500
542.000000	58.890800
543.000000	59.511525
544.000000	60.101500
545.000000	60.629125
546.000000	61.127750
547.000000	61.584675
548.000000	61.989125
549.000000	62.330050
550.000000	62.653225
551.000000	62.948450
552.000000	63.184375
553.000000	63.385900
554.000000	63.557525
555.000000	63.721225
556.000000	63.864300
557.000000	64.002750
558.000000	64.082525
559.000000	64.162900
560.000000	64.236175
561.000000	64.308175
562.000000	64.358125
563.000000	64.418775
564.000000	64.480475
565.000000	64.501625
566.000000	64.537975
567.000000	64.526825
568.000000	64.500650
569.000000	64.443450
570.000000	64.370550
571.000000	64.283525
572.000000	64.185050
573.000000	64.070725
574.000000	63.963750
575.000000	63.832550
576.000000	63.697250
577.000000	63.557675
578.000000	63.429800
579.000000	63.278000
580.000000	63.131625
581.000000	62.951750
582.000000	62.808175
583.000000	62.662675
584.000000	62.505425
585.000000	62.331875
586.000000	62.173275
587.000000	62.049800
588.000000	61.903975
589.000000	61.734675
590.000000	61.566700
591.000000	61.400425
592.000000	61.229625
593.000000	61.025600
594.000000	60.850850
595.000000	60.640850
596.000000	60.431150
597.000000	60.219250
598.000000	59.958550
599.000000	59.713200
600.000000	59.425050
601.000000	59.124125
602.000000	58.787425
603.000000	58.424475
604.000000	58.065550
605.000000	57.678800
606.000000	57.302975
607.000000	56.924800
608.000000	56.536875
609.000000	56.156625
610.000000	55.746125
611.000000	55.365875
612.000000	54.956900
613.000000	54.547050
614.000000	54.186725
615.000000	53.803975
616.000000	53.458225
617.000000	53.069750
618.000000	52.702900
619.000000	52.345400
620.000000	51.969025
621.000000	51.598825
622.000000	51.215050
623.000000	50.837525
624.000000	50.463325
625.000000	50.106375
626.000000	49.765450
627.000000	49.449150
628.000000	49.150175
629.000000	48.881050
630.000000	48.623300
631.000000	48.427000
632.000000	48.268325
633.000000	48.141175
634.000000	48.071475
635.000000	48.064025
636.000000	48.087550
637.000000	48.169275
638.000000	48.315450
639.000000	48.463400
640.000000	48.651800
641.000000	48.859675
642.000000	49.124100
643.000000	49.405225
644.000000	49.696175
645.000000	49.976400
646.000000	50.299350
647.000000	50.639925
648.000000	50.921125
649.000000	51.232575
650.000000	51.535225
651.000000	51.849400
652.000000	52.168950
653.000000	52.461850
654.000000	52.738125
655.000000	53.016975
656.000000	53.280325
657.000000	53.521275
658.000000	53.770325
659.000000	53.976500
660.000000	54.200500
661.000000	54.376325
662.000000	54.545000
663.000000	54.706800
664.000000	54.851450
665.000000	54.976050
666.000000	55.086050
667.000000	55.176400
668.000000	55.260550
669.000000	55.319375
670.000000	55.377000
671.000000	55.441425
672.000000	55.465825
673.000000	55.496325
674.000000	55.528325
675.000000	55.565900
676.000000	55.619625
677.000000	55.634275
678.000000	55.674000
679.000000	55.688200
680.000000	55.701350
681.000000	55.730150
682.000000	55.772575
683.000000	55.791550
684.000000	55.827575
685.000000	55.889050
686.000000	55.919600
687.000000	55.945750
688.000000	55.993375
689.000000	56.086475
690.000000	56.141925
691.000000	56.208575
692.000000	56.282700
693.000000	56.380875
694.000000	56.480375
695.000000	56.602475
696.000000	56.723025
697.000000	56.845750
698.000000	56.946925
699.000000	57.070950
700.000000	57.229350
701.000000	57.384225
702.000000	57.542550
703.000000	57.695875
704.000000	57.852450
705.000000	58.006525
706.000000	58.164225
707.000000	58.305175
708.000000	58.441025
709.000000	58.602850
710.000000	58.778050
711.000000	58.887725
712.000000	59.039775
713.000000	59.172550
714.000000	59.284125
715.000000	59.448575
716.000000	59.580500
717.000000	59.685725
718.000000	59.799600
719.000000	59.927625
720.000000	60.000850
721.000000	60.099850
722.000000	60.218000
723.000000	60.302400
724.000000	60.343275
725.000000	60.430675
726.000000	60.522150
727.000000	60.583200
728.000000	60.657150
729.000000	60.736600
730.000000	60.776625
731.000000	60.828675
732.000000	60.904075
733.000000	60.975100
734.000000	61.015000
735.000000	61.085500
736.000000	61.159350
737.000000	61.212075
738.000000	61.281825
739.000000	61.333225
740.000000	61.388250
741.000000	61.456700
742.000000	61.510875
743.000000	61.554025
744.000000	61.616400
745.000000	61.714200
746.000000	61.765225
747.000000	61.867450
748.000000	61.952575
749.000000	62.034325
750.000000	62.121375
751.000000	62.220850
752.000000	62.298900
753.000000	62.387625
754.000000	62.490750
755.000000	62.575325
756.000000	62.684675
757.000000	62.797050
758.000000	62.892525
759.000000	63.021300
760.000000	63.142450
761.000000	63.279725
762.000000	63.372050
763.000000	63.487325
764.000000	63.630400
765.000000	63.738975
766.000000	63.863600
767.000000	64.007550
768.000000	64.105400
769.000000	64.224500
770.000000	64.409500
771.000000	64.552150
772.000000	64.698750
773.000000	64.847950
774.000000	64.987500
775.000000	65.073875
776.000000	65.175225
777.000000	65.295850
778.000000	65.440850
779.000000	65.529025
780.000000	65.619800
781.000000	65.711550
782.000000	65.799725
783.000000	65.867350
784.000000	65.970125
785.000000	66.061125
786.000000	66.202375
787.000000	66.304375
788.000000	66.344100
789.000000	66.406525
790.000000	66.498600
791.000000	66.569100
792.000000	66.657475
793.000000	66.737550
794.000000	66.738150
795.000000	66.789075
796.000000	66.805300
797.000000	66.899575
798.000000	66.942575
799.000000	67.014300
800.000000	67.085975
801.000000	67.086175
802.000000	67.161200
803.000000	67.195625
804.000000	67.285150
805.000000	67.327150
806.000000	67.333050
807.000000	67.401900
808.000000	67.445625
809.000000	67.503500
810.000000	67.576750
811.000000	67.616100
812.000000	67.669950
813.000000	67.685275
814.000000	67.643125
815.000000	67.774550
816.000000	67.877950
817.000000	67.835550
818.000000	67.885275
819.000000	67.867075
820.000000	67.931825
821.000000	67.961750
822.000000	67.950175
823.000000	67.982425
824.000000	67.941750
825.000000	68.069600
826.000000	68.063075
827.000000	68.028325
828.000000	68.058225
829.000000	68.033575
830.000000	67.974625
831.000000	67.912200
832.000000	67.870175
833.000000	67.965475
834.000000	67.825575
835.000000	67.725025
836.000000	67.738200
837.000000	67.650075
838.000000	67.624350
839.000000	67.513650
840.000000	67.597400
841.000000	67.436050
842.000000	67.333450
843.000000	67.412625
844.000000	67.199200
845.000000	66.948525
846.000000	67.006025
847.000000	66.671050
848.000000	66.615050
849.000000	66.470525
850.000000	66.387900
851.000000	66.344675
852.000000	66.291800
853.000000	66.228150
854.000000	66.027500
855.000000	65.967700
856.000000	65.653900
857.000000	65.996850
858.000000	65.872817
859.000000	64.609742
860.000000	64.765742
861.000000	64.769328
862.000000	64.698531
863.000000	64.717203
864.000000	64.730529
865.000000	64.536497
866.000000	64.527243
867.000000	64.759454
868.000000	64.932811
869.000000	65.425536
870.000000	65.649070
871.000000	65.924117
872.000000	66.029678
873.000000	66.452555
874.000000	66.610800
875.000000	66.678106
876.000000	66.933841
877.000000	67.056711
878.000000	67.156448
879.000000	67.328455
880.000000	67.410182
881.000000	67.491030
882.000000	67.526335
883.000000	67.633856
884.000000	67.799832
885.000000	67.886480
886.000000	67.775980
887.000000	67.847878
888.000000	67.910558
889.000000	67.956840
890.000000	67.992822
891.000000	67.940881
892.000000	67.898442
893.000000	67.909916
894.000000	67.956062
895.000000	67.869796
896.000000	67.837935
897.000000	67.838594
898.000000	67.800038
899.000000	67.757514
900.000000	67.733861
901.000000	67.766576
902.000000	67.700847
903.000000	67.616469
904.000000	67.566529
905.000000	67.551118
906.000000	67.481805
907.000000	67.443742
908.000000	67.416756
909.000000	67.366636
910.000000	67.331393
911.000000	67.279360
912.000000	67.209102
913.000000	67.146287
914.000000	67.110536
915.000000	67.134282
916.000000	67.173630
917.000000	67.136479
918.000000	67.138061
919.000000	67.154564
920.000000	67.124442
921.000000	67.106750
922.000000	67.086214
923.000000	67.060077
924.000000	67.059365
925.000000	67.064645
926.000000	67.080666
927.000000	67.090796
928.000000	67.105482
929.000000	67.091896
930.000000	67.095948
931.000000	67.082773
932.000000	67.078226
933.000000	67.100595
934.000000	67.091359
935.000000	67.081882
936.000000	67.086641
937.000000	67.080310
938.000000	67.091321
939.000000	67.092974
940.000000	67.085622
941.000000	67.108503
942.000000	67.107778
943.000000	67.120385
944.000000	67.122481
945.000000	67.090737
946.000000	67.122388
947.000000	67.134804
948.000000	67.139431
949.000000	67.127877
950.000000	67.129399
951.000000	67.136922
952.000000	67.125928
953.000000	67.088095
954.000000	67.085081
955.000000	67.085576
956.000000	67.080068
957.000000	67.048747
958.000000	67.042917
959.000000	67.041916
960.000000	67.024724
961.000000	67.038663
962.000000	67.048290
963.000000	67.041890
964.000000	67.073992
965.000000	67.049830
966.000000	67.056871
967.000000	67.056749
968.000000	67.063394
969.000000	67.085633
970.000000	67.110862
971.000000	67.131668
972.000000	67.137479
973.000000	67.177560
974.000000	67.191666
975.000000	67.214475
976.000000	67.244378
977.000000	67.258814
978.000000	67.273972
979.000000	67.328197
980.000000	67.359460
981.000000	67.390443
982.000000	67.407467
983.000000	67.468121
984.000000	67.514260
985.000000	67.536702
986.000000	67.564412
987.000000	67.592056
988.000000	67.630038
989.000000	67.675394
990.000000	67.716084
991.000000	67.774937
992.000000	67.815100
993.000000	67.855105
994.000000	67.898823
995.000000	67.943044
996.000000	67.984258
997.000000	68.025658
998.000000	68.075814
999.000000	68.110422
1000.000000	68.156297
1001.000000	68.195563
1002.000000	68.244587
1003.000000	68.270714
1004.000000	68.315068
1005.000000	68.369653
1006.000000	68.405752
1007.000000	68.435924
1008.000000	68.484460
1009.000000	68.509648
1010.000000	68.545814
1011.000000	68.580561
1012.000000	68.612021
1013.000000	68.641451
1014.000000	68.683227
1015.000000	68.711447
1016.000000	68.738298
1017.000000	68.802237
1018.000000	68.842004
1019.000000	68.857748
1020.000000	68.905354
1021.000000	68.939770
1022.000000	68.974686
1023.000000	69.013292
1024.000000	69.044607
1025.000000	69.073498
1026.000000	69.120934
1027.000000	69.153357
1028.000000	69.202506
1029.000000	69.233033
1030.000000	69.274396
1031.000000	69.304500
1032.000000	69.338097
1033.000000	69.369753
1034.000000	69.410139
1035.000000	69.448352
1036.000000	69.498715
1037.000000	69.523462
1038.000000	69.551625
1039.000000	69.574111
1040.000000	69.600760
1041.000000	69.633074
1042.000000	69.672617
1043.000000	69.700314
1044.000000	69.739598
1045.000000	69.776432
1046.000000	69.817395
1047.000000	69.842796
1048.000000	69.869420
1049.000000	69.924667
1050.000000	69.944950
1051.000000	69.979422
1052.000000	70.022229
1053.000000	70.060605
1054.000000	70.103096
1055.000000	70.133574
1056.000000	70.167382
1057.000000	70.217528
1058.000000	70.251278
1059.000000	70.307562
1060.000000	70.348128
1061.000000	70.383940
1062.000000	70.423871
1063.000000	70.456261
1064.000000	70.503838
1065.000000	70.535695
1066.000000	70.590348
1067.000000	70.629846
1068.000000	70.672713
1069.000000	70.724319
1070.000000	70.765496
1071.000000	70.804947
1072.000000	70.844593
1073.000000	70.885729
1074.000000	70.932563
1075.000000	70.976325
1076.000000	71.018274
1077.000000	71.042104
1078.000000	71.091282
1079.000000	71.130392
1080.000000	71.165716
1081.000000	71.217937
1082.000000	71.250294
1083.000000	71.279302
1084.000000	71.311308
1085.000000	71.353540
1086.000000	71.394442
1087.000000	71.425229
1088.000000	71.472796
1089.000000	71.495193
1090.000000	71.527878
1091.000000	71.556643
1092.000000	71.581638
1093.000000	71.618890
1094.000000	71.637076
1095.000000	71.669057
1096.000000	71.684467
1097.000000	71.702166
1098.000000	71.726335
1099.000000	71.748789
1100.000000	71.770012
1101.000000	71.794541
1102.000000	71.813002
1103.000000	71.814022
1104.000000	71.837868
1105.000000	71.853815
1106.000000	71.876560
1107.000000	71.889733
1108.000000	71.903887
1109.000000	71.906056
1110.000000	71.919421
1111.000000	71.935815
1112.000000	71.944266
1113.000000	71.949389
1114.000000	71.957618
1115.000000	71.972460
1116.000000	71.987020
1117.000000	71.989232
1118.000000	72.002147
1119.000000	72.012286
1120.000000	72.001426
1121.000000	71.996876
1122.000000	72.007842
1123.000000	72.010858
1124.000000	71.993092
1125.000000	71.955657
1126.000000	71.931277
1127.000000	71.878001
1128.000000	71.852490
1129.000000	71.815466
1130.000000	71.759033
1131.000000	71.684519
1132.000000	71.616826
1133.000000	71.552806
1134.000000	71.529308
1135.000000	71.480817
1136.000000	71.363254
1137.000000	71.265868
1138.000000	71.158833
1139.000000	71.072690
1140.000000	70.998790
1141.000000	70.918956
1142.000000	70.852132
1143.000000	70.779429
1144.000000	70.740936
1145.000000	70.685322
1146.000000	70.633835
1147.000000	70.581579
1148.000000	70.510926
1149.000000	70.459126
1150.000000	70.407256
1151.000000	70.355022
1152.000000	70.301745
1153.000000	70.259973
1154.000000	70.167268
1155.000000	70.101539
1156.000000	70.022475
1157.000000	69.953447
1158.000000	69.867587
1159.000000	69.767911
1160.000000	69.656055
1161.000000	69.554086
1162.000000	69.467675
1163.000000	69.361755
1164.000000	69.252235
1165.000000	69.158368
1166.000000	69.056705
1167.000000	68.950871
1168.000000	68.861369
1169.000000	68.770642
1170.000000	68.681555
1171.000000	68.609940
1172.000000	68.540147
1173.000000	68.482182
1174.000000	68.438187
1175.000000	68.369008
1176.000000	68.320276
1177.000000	68.276963
1178.000000	68.223718
1179.000000	68.177543
1180.000000	68.126923
1181.000000	68.073726
1182.000000	68.045020
1183.000000	68.004848
1184.000000	67.977516
1185.000000	67.959354
1186.000000	67.953492
1187.000000	67.952517
1188.000000	67.957632
1189.000000	67.985371
1190.000000	68.024972
1191.000000	68.075636
1192.000000	68.133159
1193.000000	68.190553
1194.000000	68.245411
1195.000000	68.309367
1196.000000	68.369106
1197.000000	68.421571
1198.000000	68.474850
1199.000000	68.528924
1200.000000	68.579949
1201.000000	68.636860
1202.000000	68.679334
1203.000000	68.742431
1204.000000	68.788651
1205.000000	68.831709
1206.000000	68.875578
1207.000000	68.927178
1208.000000	68.970885
1209.000000	69.013700
1210.000000	69.064977
1211.000000	69.111945
1212.000000	69.144478
1213.000000	69.183752
1214.000000	69.220796
1215.000000	69.251734
1216.000000	69.285480
1217.000000	69.326310
1218.000000	69.351446
1219.000000	69.376964
1220.000000	69.399204
1221.000000	69.435346
1222.000000	69.458836
1223.000000	69.486322
1224.000000	69.502539
1225.000000	69.516930
1226.000000	69.536830
1227.000000	69.558546
1228.000000	69.584835
1229.000000	69.598989
1230.000000	69.605275
1231.000000	69.625135
1232.000000	69.634456
1233.000000	69.648934
1234.000000	69.661991
1235.000000	69.682768
1236.000000	69.689695
1237.000000	69.701655
1238.000000	69.719397
1239.000000	69.732081
1240.000000	69.752435
1241.000000	69.772322
1242.000000	69.784287
1243.000000	69.810256
1244.000000	69.837237
1245.000000	69.868976
1246.000000	69.883062
1247.000000	69.909877
1248.000000	69.938786
1249.000000	69.956961
1250.000000	69.978602
1251.000000	69.991248
1252.000000	70.011972
1253.000000	70.017084
1254.000000	70.028642
1255.000000	70.038046
1256.000000	70.040863
1257.000000	70.035757
1258.000000	70.032658
1259.000000	70.027771
1260.000000	70.020173
1261.000000	70.015760
1262.000000	70.000919
1263.000000	69.991187
1264.000000	69.981934
1265.000000	69.980257
1266.000000	69.969235
1267.000000	69.959220
1268.000000	69.944369
1269.000000	69.928755
1270.000000	69.909330
1271.000000	69.901615
1272.000000	69.896681
1273.000000	69.894289
1274.000000	69.885550
1275.000000	69.870888
1276.000000	69.864476
1277.000000	69.869081
1278.000000	69.879061
1279.000000	69.883753
1280.000000	69.887726
1281.000000	69.902793
1282.000000	69.916431
1283.000000	69.929466
1284.000000	69.944656
1285.000000	69.953784
1286.000000	69.973668
1287.000000	69.978843
1288.000000	69.994061
1289.000000	70.013332
1290.000000	70.017381
1291.000000	70.022786
1292.000000	70.032895
1293.000000	70.039542
1294.000000	70.041007
1295.000000	70.046941
1296.000000	70.051844
1297.000000	70.046791
1298.000000	70.038992
1299.000000	70.038591
1300.000000	70.039441
1301.000000	70.034026
1302.000000	70.024073
1303.000000	70.021333
1304.000000	70.020911
1305.000000	70.008498
1306.000000	69.982430
1307.000000	69.960343
1308.000000	69.947121
1309.000000	69.916190
1310.000000	69.888308
1311.000000	69.872974
1312.000000	69.845232
1313.000000	69.813756
1314.000000	69.785295
1315.000000	69.752426
1316.000000	69.701694
1317.000000	69.663043
1318.000000	69.629936
1319.000000	69.591167
1320.000000	69.556990
1321.000000	69.512122
1322.000000	69.466058
1323.000000	69.421318
1324.000000	69.363362
1325.000000	69.305514
1326.000000	69.253437
1327.000000	69.198667
1328.000000	69.143442
1329.000000	69.075755
1330.000000	69.007098
1331.000000	68.944147
1332.000000	68.868928
1333.000000	68.789187
1334.000000	68.694502
1335.000000	68.615072
1336.000000	68.524767
1337.000000	68.431049
1338.000000	68.328840
1339.000000	68.218393
1340.000000	68.119476
1341.000000	68.014555
1342.000000	67.891069
1343.000000	67.769824
1344.000000	67.653745
1345.000000	67.520038
1346.000000	67.373642
1347.000000	67.259017
1348.000000	67.162351
1349.000000	67.009922
1350.000000	66.863557
1351.000000	66.720392
1352.000000	66.585540
1353.000000	66.423881
1354.000000	66.363911
1355.000000	66.328028
1356.000000	66.208162
1357.000000	66.069906
1358.000000	65.990774
1359.000000	65.928415
1360.000000	65.874404
1361.000000	65.890202
1362.000000	65.883279
1363.000000	65.729132
1364.000000	65.603815
1365.000000	65.582126
1366.000000	65.436059
1367.000000	65.334141
1368.000000	65.291058
1369.000000	65.161548
1370.000000	65.011594
1371.000000	64.943105
1372.000000	64.829464
1373.000000	64.690660
1374.000000	64.536593
1375.000000	64.424691
1376.000000	64.323321
1377.000000	64.213427
1378.000000	64.080157
1379.000000	63.992828
1380.000000	63.885581
1381.000000	63.811847
1382.000000	63.675423
1383.000000	63.521853
1384.000000	63.237827
1385.000000	63.017491
1386.000000	62.705983
1387.000000	62.442030
1388.000000	62.233632
1389.000000	61.913602
1390.000000	61.559292
1391.000000	61.300263
1392.000000	61.052886
1393.000000	60.745215
1394.000000	60.443402
1395.000000	60.263852
1396.000000	59.993348
1397.000000	59.539678
1398.000000	59.118905
1399.000000	58.866576
1400.000000	58.685228
1401.000000	58.361891
1402.000000	57.882182
1403.000000	57.456001
1404.000000	57.147383
1405.000000	56.805451
1406.000000	56.436847
1407.000000	56.081204
1408.000000	55.735171
1409.000000	55.389497
1410.000000	55.033716
1411.000000	54.599384
1412.000000	54.223766
1413.000000	53.962519
1414.000000	53.708711
1415.000000	53.410025
1416.000000	53.021345
1417.000000	52.714080
1418.000000	52.488464
1419.000000	52.276700
1420.000000	52.033504
1421.000000	51.740864
1422.000000	51.497018
1423.000000	51.304147
1424.000000	51.112191
1425.000000	50.892673
1426.000000	50.685513
1427.000000	50.486672
1428.000000	50.339889
1429.000000	50.173993
1430.000000	49.996308
1431.000000	49.853154
1432.000000	49.747450
1433.000000	49.607827
1434.000000	49.466814
1435.000000	49.334984
1436.000000	49.211180
1437.000000	49.112163
1438.000000	49.019712
1439.000000	48.914021
1440.000000	48.810116
1441.000000	48.693011
1442.000000	48.616270
1443.000000	48.529760
1444.000000	48.423354
1445.000000	48.375937
1446.000000	48.321673
1447.000000	48.211601
1448.000000	48.100705
1449.000000	48.010925
1450.000000	47.964737
1451.000000	47.904699
1452.000000	47.807767
1453.000000	47.722060
1454.000000	47.624975
1455.000000	47.547457
1456.000000	47.480011
1457.000000	47.395245
1458.000000	47.310354
1459.000000	47.222713
1460.000000	47.152677
1461.000000	47.078277
1462.000000	47.009026
1463.000000	46.928910
1464.000000	46.871191
1465.000000	46.799005
1466.000000	46.753563
1467.000000	46.688884
1468.000000	46.610428
1469.000000	46.548662
1470.000000	46.516644
1471.000000	46.476063
1472.000000	46.427498
1473.000000	46.378438
1474.000000	46.314898
1475.000000	46.264990
1476.000000	46.226619
1477.000000	46.205123
1478.000000	46.177106
1479.000000	46.150053
1480.000000	46.128782
1481.000000	46.107513
1482.000000	46.084579
1483.000000	46.052015
1484.000000	46.022516
1485.000000	46.002071
1486.000000	45.978583
1487.000000	45.959220
1488.000000	45.938309
1489.000000	45.924238
1490.000000	45.902092
1491.000000	45.882070
1492.000000	45.864403
1493.000000	45.853740
1494.000000	45.855377
1495.000000	45.860667
1496.000000	45.864325
1497.000000	45.880914
1498.000000	45.898874
1499.000000	45.932975
1500.000000	45.964849
1501.000000	45.997790
1502.000000	46.040537
1503.000000	46.089642
1504.000000	46.147260
1505.000000	46.204491
1506.000000	46.259336
1507.000000	46.315314
1508.000000	46.378439
1509.000000	46.443280
1510.000000	46.498206
1511.000000	46.560694
1512.000000	46.627395
1513.000000	46.693383
1514.000000	46.752249
1515.000000	46.813579
1516.000000	46.880721
1517.000000	46.933985
1518.000000	47.001585
1519.000000	47.071888
1520.000000	47.130775
1521.000000	47.186887
1522.000000	47.246190
1523.000000	47.298322
1524.000000	47.360076
1525.000000	47.423571
1526.000000	47.472532
1527.000000	47.524817
1528.000000	47.574593
1529.000000	47.632876
1530.000000	47.690712
1531.000000	47.739761
1532.000000	47.796538
1533.000000	47.839709
1534.000000	47.885167
1535.000000	47.926006
1536.000000	47.971968
1537.000000	48.006164
1538.000000	48.046684
1539.000000	48.085747
1540.000000	48.117327
1541.000000	48.159897
1542.000000	48.209739
1543.000000	48.247596
1544.000000	48.293720
1545.000000	48.342140
1546.000000	48.409497
1547.000000	48.470469
1548.000000	48.535488
1549.000000	48.606333
1550.000000	48.682913
1551.000000	48.756042
1552.000000	48.826860
1553.000000	48.903335
1554.000000	48.965483
1555.000000	49.014930
1556.000000	49.066256
1557.000000	49.120350
1558.000000	49.146971
1559.000000	49.179495
1560.000000	49.205238
1561.000000	49.227254
1562.000000	49.239397
1563.000000	49.245357
1564.000000	49.230067
1565.000000	49.231759
1566.000000	49.241434
1567.000000	49.227741
1568.000000	49.202286
1569.000000	49.195315
1570.000000	49.182631
1571.000000	49.186389
1572.000000	49.177850
1573.000000	49.173962
1574.000000	49.174873
1575.000000	49.191475
1576.000000	49.211256
1577.000000	49.225378
1578.000000	49.239370
1579.000000	49.261850
1580.000000	49.298491
1581.000000	49.332784
1582.000000	49.358345
1583.000000	49.395705
1584.000000	49.441119
1585.000000	49.487388
1586.000000	49.528202
1587.000000	49.573076
1588.000000	49.617556
1589.000000	49.666052
1590.000000	49.707294
1591.000000	49.751041
1592.000000	49.794652
1593.000000	49.850198
1594.000000	49.906782
1595.000000	49.959636
1596.000000	50.012751
1597.000000	50.063868
1598.000000	50.126311
1599.000000	50.187476
1600.000000	50.254063
1601.000000	50.331224
1602.000000	50.392073
1603.000000	50.453869
1604.000000	50.517378
1605.000000	50.573114
1606.000000	50.642469
1607.000000	50.700523
1608.000000	50.763612
1609.000000	50.814476
1610.000000	50.866690
1611.000000	50.912009
1612.000000	50.960856
1613.000000	51.002275
1614.000000	51.035742
1615.000000	51.078667
1616.000000	51.111492
1617.000000	51.142162
1618.000000	51.174830
1619.000000	51.201564
1620.000000	51.221809
1621.000000	51.257947
1622.000000	51.283399
1623.000000	51.321548
1624.000000	51.366628
1625.000000	51.403768
1626.000000	51.444393
1627.000000	51.475691
1628.000000	51.521758
1629.000000	51.557334
1630.000000	51.597897
1631.000000	51.641603
1632.000000	51.677862
1633.000000	51.708334
1634.000000	51.742802
1635.000000	51.785362
1636.000000	51.809458
1637.000000	51.821438
1638.000000	51.843612
1639.000000	51.850375
1640.000000	51.860608
1641.000000	51.865427
1642.000000	51.885426
1643.000000	51.887745
1644.000000	51.903879
1645.000000	51.922093
1646.000000	51.929454
1647.000000	51.946175
1648.000000	51.964777
1649.000000	51.953561
1650.000000	51.959212
1651.000000	51.965073
1652.000000	51.951509
1653.000000	51.929697
1654.000000	51.911122
1655.000000	51.876329
1656.000000	51.849268
1657.000000	51.811140
1658.000000	51.738291
1659.000000	51.668338
1660.000000	51.598381
1661.000000	51.524741
1662.000000	51.435203
1663.000000	51.321376
1664.000000	51.203986
1665.000000	51.099828
1666.000000	50.981031
1667.000000	50.869062
1668.000000	50.692802
1669.000000	50.547646
1670.000000	50.405732
1671.000000	50.251134
1672.000000	50.102981
1673.000000	49.949891
1674.000000	49.806684
1675.000000	49.652472
1676.000000	49.502658
1677.000000	49.342904
1678.000000	49.183656
1679.000000	49.006293
1680.000000	48.833181
1681.000000	48.648991
1682.000000	48.449633
1683.000000	48.252662
1684.000000	48.084494
1685.000000	47.894698
1686.000000	47.751050
1687.000000	47.626854
1688.000000	47.536817
1689.000000	47.501921
1690.000000	47.498312
1691.000000	47.515490
1692.000000	47.548640
1693.000000	47.584156
1694.000000	47.631594
1695.000000	47.671215
1696.000000	47.697980
1697.000000	47.710607
1698.000000	47.723991
1699.000000	47.717239
1700.000000	47.715803
1701.000000	47.708349
1702.000000	47.706570
1703.000000	47.679935
1704.000000	47.659217
1705.000000	47.625708
1706.000000	47.602053
1707.000000	47.554443
1708.000000	47.476867
1709.000000	47.392930
1710.000000	47.287146
1711.000000	47.200240
1712.000000	47.073027
1713.000000	46.946325
1714.000000	46.814323
1715.000000	46.653901
1716.000000	46.466892
1717.000000	46.294642
1718.000000	46.101397
1719.000000	45.930339
1720.000000	45.766644
1721.000000	45.617029
1722.000000	45.499561
1723.000000	45.416343
1724.000000	45.371718
1725.000000	45.335223
1726.000000	45.338055
1727.000000	45.340171
1728.000000	45.351998
1729.000000	45.360188
1730.000000	45.380152
1731.000000	45.413752
1732.000000	45.437765
1733.000000	45.466656
1734.000000	45.496664
1735.000000	45.527904
1736.000000	45.555312
1737.000000	45.592114
1738.000000	45.629368
1739.000000	45.673725
1740.000000	45.728517
1741.000000	45.780662
1742.000000	45.833025
1743.000000	45.884263
1744.000000	45.931515
1745.000000	45.984580
1746.000000	46.033730
1747.000000	46.082504
1748.000000	46.123275
1749.000000	46.157235
1750.000000	46.186205
1751.000000	46.214471
1752.000000	46.237438
1753.000000	46.236014
1754.000000	46.242450
1755.000000	46.257981
1756.000000	46.249831
1757.000000	46.255878
1758.000000	46.255613
1759.000000	46.259929
1760.000000	46.262779
1761.000000	46.269464
1762.000000	46.271867
1763.000000	46.288247
1764.000000	46.325987
1765.000000	46.346959
1766.000000	46.375066
1767.000000	46.403127
1768.000000	46.437355
1769.000000	46.470393
1770.000000	46.505445
1771.000000	46.533110
1772.000000	46.556052
1773.000000	46.596084
1774.000000	46.636113
1775.000000	46.670916
1776.000000	46.706230
1777.000000	46.734304
1778.000000	46.760218
1779.000000	46.791867
1780.000000	46.798873
1781.000000	46.816958
1782.000000	46.825834
1783.000000	46.824347
1784.000000	46.832295
1785.000000	46.839895
1786.000000	46.836990
1787.000000	46.832703
1788.000000	46.822793
1789.000000	46.819655
1790.000000	46.829138
1791.000000	46.839042
1792.000000	46.845802
1793.000000	46.864741
1794.000000	46.877941
1795.000000	46.885314
1796.000000	46.903208
1797.000000	46.929437
1798.000000	46.926448
1799.000000	46.942082
1800.000000	46.980584
1801.000000	47.015563
1802.000000	47.044415
1803.000000	47.044959
1804.000000	47.031164
1805.000000	47.062121
1806.000000	47.121081
1807.000000	47.140533
1808.000000	47.135817
1809.000000	47.128024
1810.000000	47.154361
1811.000000	47.210719
1812.000000	47.246283
1813.000000	47.250048
1814.000000	47.242376
1815.000000	47.256460
1816.000000	47.296623
1817.000000	47.288314
1818.000000	47.296653
1819.000000	47.317852
1820.000000	47.398468
1821.000000	47.421813
1822.000000	47.404097
1823.000000	47.344137
1824.000000	47.283340
1825.000000	47.292877
1826.000000	47.380983
1827.000000	47.398597
1828.000000	47.396102
1829.000000	47.445146
1830.000000	47.502094
1831.000000	47.527430
1832.000000	47.506656
1833.000000	47.523962
1834.000000	47.565730
1835.000000	47.669975
1836.000000	47.749144
1837.000000	47.759161
1838.000000	47.749277
1839.000000	47.765904
1840.000000	47.824124
1841.000000	47.839554
1842.000000	47.909564
1843.000000	47.811016
1844.000000	47.745159
1845.000000	47.742178
1846.000000	47.801022
1847.000000	47.975545
1848.000000	48.010766
1849.000000	47.885113
1850.000000	47.778735
1851.000000	47.737404
1852.000000	47.680895
1853.000000	47.744683
1854.000000	47.780720
1855.000000	47.617038
1856.000000	47.572879
1857.000000	47.602877
1858.000000	47.489093
1859.000000	47.409087
1860.000000	47.416985
1861.000000	47.294891
1862.000000	47.101318
1863.000000	46.987424
1864.000000	46.969263
1865.000000	46.868579
1866.000000	46.696377
1867.000000	46.676813
1868.000000	46.655056
1869.000000	46.465984
1870.000000	46.255706
1871.000000	46.163864
1872.000000	45.858608
1873.000000	45.648626
1874.000000	45.365382
1875.000000	45.006712
1876.000000	44.725889
1877.000000	44.496092
1878.000000	44.162422
1879.000000	43.784421
1880.000000	43.456448
1881.000000	43.153664
1882.000000	42.757416
1883.000000	42.331179
1884.000000	41.968730
1885.000000	41.454012
1886.000000	40.956974
1887.000000	40.482880
1888.000000	39.944274
1889.000000	39.452656
1890.000000	38.954714
1891.000000	38.369273
1892.000000	37.770948
1893.000000	37.151298
1894.000000	36.566996
1895.000000	36.009209
1896.000000	35.475862
1897.000000	34.982432
1898.000000	34.470575
1899.000000	33.901027
1900.000000	33.390373
1901.000000	32.689931
1902.000000	32.216164
1903.000000	31.737419
1904.000000	31.253377
1905.000000	30.799272
1906.000000	30.323532
1907.000000	29.842759
1908.000000	29.382985
1909.000000	29.003439
1910.000000	28.687885
1911.000000	28.416378
1912.000000	28.071483
1913.000000	27.778745
1914.000000	27.470600
1915.000000	27.141055
1916.000000	26.855763
1917.000000	26.625778
1918.000000	26.365735
1919.000000	26.143585
1920.000000	26.022606
1921.000000	25.849007
1922.000000	25.587431
1923.000000	25.405490
1924.000000	25.272858
1925.000000	25.148968
1926.000000	25.004481
1927.000000	24.929143
1928.000000	24.838540
1929.000000	24.728227
1930.000000	24.634597
1931.000000	24.579217
1932.000000	24.512765
1933.000000	24.476045
1934.000000	24.435556
1935.000000	24.390335
1936.000000	24.391044
1937.000000	24.412885
1938.000000	24.400934
1939.000000	24.436791
1940.000000	24.463047
1941.000000	24.482930
1942.000000	24.518906
1943.000000	24.536598
1944.000000	24.600592
1945.000000	24.669566
1946.000000	24.727791
1947.000000	24.795172
1948.000000	24.876973
1949.000000	24.951044
1950.000000	25.024852
1951.000000	25.113339
1952.000000	25.205637
1953.000000	25.298248
1954.000000	25.393229
1955.000000	25.492803
1956.000000	25.597411
1957.000000	25.678550
1958.000000	25.776502
1959.000000	25.887889
1960.000000	25.992358
1961.000000	26.080712
1962.000000	26.184054
1963.000000	26.269121
1964.000000	26.349178
1965.000000	26.457441
1966.000000	26.552265
1967.000000	26.659323
1968.000000	26.753031
1969.000000	26.844530
1970.000000	26.933766
1971.000000	27.027456
1972.000000	27.146533
1973.000000	27.235986
1974.000000	27.320560
1975.000000	27.427899
1976.000000	27.534122
1977.000000	27.641640
1978.000000	27.758809
1979.000000	27.855530
1980.000000	27.961941
1981.000000	28.079692
1982.000000	28.187186
1983.000000	28.296651
1984.000000	28.415161
1985.000000	28.522509
1986.000000	28.622919
1987.000000	28.725395
1988.000000	28.845900
1989.000000	28.961478
1990.000000	29.063645
1991.000000	29.156829
1992.000000	29.247115
1993.000000	29.333863
1994.000000	29.421551
1995.000000	29.522203
1996.000000	29.621899
1997.000000	29.713628
1998.000000	29.778892
1999.000000	29.870986
2000.000000	29.982627
2001.000000	30.045642
2002.000000	30.120331
2003.000000	30.173339
2004.000000	30.220900
2005.000000	30.274284
2006.000000	30.308435
2007.000000	30.360086
2008.000000	30.403532
2009.000000	30.422821
2010.000000	30.459319
2011.000000	30.460815
2012.000000	30.465648
2013.000000	30.491197
2014.000000	30.510966
2015.000000	30.497106
2016.000000	30.504718
2017.000000	30.490003
2018.000000	30.477027
2019.000000	30.432154
2020.000000	30.399881
2021.000000	30.388801
2022.000000	30.350229
2023.000000	30.289103
2024.000000	30.239855
2025.000000	30.189792
2026.000000	30.161704
2027.000000	30.101168
2028.000000	30.047792
2029.000000	29.960600
2030.000000	29.875740
2031.000000	29.824001
2032.000000	29.729729
2033.000000	29.611171
2034.000000	29.525942
2035.000000	29.425779
2036.000000	29.331428
2037.000000	29.210673
2038.000000	29.079680
2039.000000	28.995088
2040.000000	28.874269
2041.000000	28.736255
2042.000000	28.596196
2043.000000	28.483581
2044.000000	28.337656
2045.000000	28.202540
2046.000000	28.058973
2047.000000	27.935970
2048.000000	27.787194
2049.000000	27.706741
2050.000000	27.648377
2051.000000	27.557053
2052.000000	27.494707
2053.000000	27.496010
2054.000000	27.442142
2055.000000	27.443844
2056.000000	27.500464
2057.000000	27.529094
2058.000000	27.599583
2059.000000	27.662875
2060.000000	27.732845
2061.000000	27.865567
2062.000000	27.945258
2063.000000	28.056068
2064.000000	28.136700
2065.000000	28.250364
2066.000000	28.383446
2067.000000	28.495351
2068.000000	28.638416
2069.000000	28.701152
2070.000000	28.843434
2071.000000	28.977255
2072.000000	29.079615
2073.000000	29.171063
2074.000000	29.247191
2075.000000	29.338780
2076.000000	29.404822
2077.000000	29.495465
2078.000000	29.586785
2079.000000	29.662618
2080.000000	29.668420
2081.000000	29.747059
2082.000000	29.795494
2083.000000	29.816718
2084.000000	29.802172
2085.000000	29.857898
2086.000000	29.841874
2087.000000	29.869884
2088.000000	29.961510
2089.000000	29.960793
2090.000000	29.858183
2091.000000	29.843670
2092.000000	29.862956
2093.000000	29.902629
2094.000000	29.848401
2095.000000	29.857217
2096.000000	29.902217
2097.000000	29.882558
2098.000000	29.817592
2099.000000	29.908131
2100.000000	29.821252
2101.000000	29.832274
2102.000000	29.874192
2103.000000	29.780006
2104.000000	29.794280
2105.000000	29.884121
2106.000000	29.841867
2107.000000	29.907533
2108.000000	29.839726
2109.000000	29.855637
2110.000000	29.842054
2111.000000	29.828107
2112.000000	29.850180
2113.000000	29.796879
2114.000000	29.833140
2115.000000	29.826161
2116.000000	29.791761
2117.000000	29.751067
2118.000000	29.653111
2119.000000	29.680094
2120.000000	29.620427
2121.000000	29.590644
2122.000000	29.622520
2123.000000	29.476951
2124.000000	29.529757
2125.000000	29.521281
2126.000000	29.361564
2127.000000	29.358376
2128.000000	29.330133
2129.000000	29.212514
2130.000000	29.168520
2131.000000	29.083116
2132.000000	29.078823
2133.000000	28.864825
2134.000000	28.903320
2135.000000	28.832446
2136.000000	28.718031
2137.000000	28.661473
2138.000000	28.497143
2139.000000	28.351106
2140.000000	28.272181
2141.000000	28.035551
2142.000000	28.126390
2143.000000	27.940452
2144.000000	27.848499
2145.000000	27.769082
2146.000000	27.765380
2147.000000	27.648270
2148.000000	27.394819
2149.000000	27.410559
2150.000000	27.149083
2151.000000	27.048234
2152.000000	27.004501
2153.000000	26.864279
2154.000000	26.808885
2155.000000	26.687581
2156.000000	26.596789
2157.000000	26.459254
2158.000000	26.356454
2159.000000	26.339403
2160.000000	26.286165
2161.000000	26.158003
2162.000000	26.098062
2163.000000	26.076171
2164.000000	25.955243
2165.000000	25.827856
2166.000000	25.888454
2167.000000	25.878185
2168.000000	25.830723
2169.000000	25.867338
2170.000000	25.878065
2171.000000	25.742379
2172.000000	25.690026
2173.000000	25.701769
2174.000000	25.665504
2175.000000	25.746791
2176.000000	25.734868
2177.000000	25.736575
2178.000000	25.809435
2179.000000	25.837920
2180.000000	25.764033
2181.000000	25.819643
2182.000000	25.775540
2183.000000	25.778751
2184.000000	25.855260
2185.000000	25.867870
2186.000000	25.937897
2187.000000	25.901849
2188.000000	25.966556
2189.000000	26.023412
2190.000000	26.070087
2191.000000	26.076033
2192.000000	26.043607
2193.000000	26.048637
2194.000000	26.100832
2195.000000	26.055474
2196.000000	26.009540
2197.000000	26.106109
2198.000000	26.150824
2199.000000	26.168776
2200.000000	26.278109
2201.000000	26.357670
2202.000000	26.319979
2203.000000	26.369011
2204.000000	26.460403
2205.000000	26.476487
2206.000000	26.477963
2207.000000	26.573702
2208.000000	26.594699
2209.000000	26.642065
2210.000000	26.715569
2211.000000	26.759036
2212.000000	26.874742
2213.000000	26.891408
2214.000000	26.994590
2215.000000	27.072471
2216.000000	27.175081
2217.000000	27.255173
2218.000000	27.320355
2219.000000	27.413821
2220.000000	27.478885
2221.000000	27.539668
2222.000000	27.625951
2223.000000	27.699311
2224.000000	27.777317
2225.000000	27.873260
2226.000000	27.898526
2227.000000	27.973438
2228.000000	28.017374
2229.000000	28.074299
2230.000000	28.061622
2231.000000	28.076697
2232.000000	28.077407
2233.000000	28.151501
2234.000000	28.116855
2235.000000	28.033050
2236.000000	28.104512
2237.000000	28.096475
2238.000000	28.007375
2239.000000	27.928757
2240.000000	27.913560
2241.000000	27.834853
2242.000000	27.676938
2243.000000	27.610100
2244.000000	27.488330
2245.000000	27.405742
2246.000000	27.291136
2247.000000	27.100646
2248.000000	27.054710
2249.000000	26.946696
2250.000000	26.773484
2251.000000	26.644702
2252.000000	26.486145
2253.000000	26.306463
2254.000000	26.163617
2255.000000	26.017974
2256.000000	25.799765
2257.000000	25.625784
2258.000000	25.500306
2259.000000	25.366076
2260.000000	25.233115
2261.000000	25.100026
2262.000000	25.057615
2263.000000	24.976751
2264.000000	24.793298
2265.000000	24.699381
2266.000000	24.672134
2267.000000	24.550055
2268.000000	24.519037
2269.000000	24.527545
2270.000000	24.473820
2271.000000	24.385251
2272.000000	24.330444
2273.000000	24.390998
2274.000000	24.365507
2275.000000	24.290916
2276.000000	24.214942
2277.000000	24.262737
2278.000000	24.208357
2279.000000	24.034394
2280.000000	24.009438
2281.000000	24.073090
2282.000000	23.972444
2283.000000	23.928128
2284.000000	23.979314
2285.000000	23.894513
2286.000000	23.802218
2287.000000	23.773634
2288.000000	23.820531
2289.000000	23.722208
2290.000000	23.713459
2291.000000	23.691601
2292.000000	23.640827
2293.000000	23.639667
2294.000000	23.586216
2295.000000	23.568625
2296.000000	23.558820
2297.000000	23.543461
2298.000000	23.538485
2299.000000	23.554015
2300.000000	23.583471
2301.000000	23.631677
2302.000000	23.618043
2303.000000	23.698899
2304.000000	23.689213
2305.000000	23.545915
2306.000000	23.619523
2307.000000	23.723787
2308.000000	23.670757
2309.000000	23.738622
2310.000000	23.848295
2311.000000	23.839862
2312.000000	23.868548
2313.000000	23.952419
2314.000000	24.006864
2315.000000	24.035199
2316.000000	23.991947
2317.000000	24.074938
2318.000000	24.155996
2319.000000	24.145041
2320.000000	24.065360
2321.000000	24.007593
2322.000000	24.049295
2323.000000	24.041612
2324.000000	24.152070
2325.000000	24.057901
2326.000000	23.970668
2327.000000	24.067532
2328.000000	23.955388
2329.000000	23.769365
2330.000000	23.794005
2331.000000	23.812535
2332.000000	23.825225
2333.000000	23.884531
2334.000000	23.910906
2335.000000	23.785278
2336.000000	23.853320
2337.000000	23.737443
2338.000000	23.705547
2339.000000	23.903634
2340.000000	23.811338
2341.000000	23.872371
2342.000000	23.802944
2343.000000	23.669967
2344.000000	23.681139
2345.000000	23.664832
2346.000000	23.721129
2347.000000	23.566553
2348.000000	23.808161
2349.000000	23.768521
2350.000000	23.868495
2351.000000	23.783011
2352.000000	23.822008
2353.000000	23.764214
2354.000000	23.759034
2355.000000	23.811256
2356.000000	23.854991
2357.000000	23.875805
2358.000000	23.981386
2359.000000	23.952704
2360.000000	23.894186
2361.000000	23.845684
2362.000000	23.966109
2363.000000	24.121424
2364.000000	24.030851
2365.000000	23.848199
2366.000000	23.816774
2367.000000	23.907095
2368.000000	23.767864
2369.000000	23.804271
2370.000000	24.052412
2371.000000	23.982854
2372.000000	24.078291
2373.000000	23.956609
2374.000000	23.953500
2375.000000	23.954326
2376.000000	23.812957
2377.000000	23.867478
2378.000000	23.847510
2379.000000	23.943747
2380.000000	23.976662
2381.000000	23.965183
2382.000000	24.001641
2383.000000	23.960603
2384.000000	23.942255
2385.000000	24.003078
2386.000000	23.866293
2387.000000	23.950937
2388.000000	23.863545
2389.000000	23.869689
2390.000000	24.028263
2391.000000	24.116474
2392.000000	23.719411
2393.000000	23.819391
2394.000000	23.672735
2395.000000	23.856451
2396.000000	23.612952
2397.000000	23.642740
2398.000000	23.844048
2399.000000	23.777931
2400.000000	23.392056
2401.000000	22.607313
2402.000000	22.561092
2403.000000	22.525721
2404.000000	22.496021
2405.000000	22.456120
2406.000000	22.419262
2407.000000	22.379449
2408.000000	22.320349
2409.000000	22.253851
2410.000000	22.176188
2411.000000	22.100903
2412.000000	22.041761
2413.000000	21.991939
2414.000000	21.938296
2415.000000	21.871303
2416.000000	21.815080
2417.000000	21.755238
2418.000000	21.684014
2419.000000	21.622875
2420.000000	21.559577
2421.000000	21.494854
2422.000000	21.427215
2423.000000	21.350067
2424.000000	21.271988
2425.000000	21.195055
2426.000000	21.120402
2427.000000	21.053232
2428.000000	20.971412
2429.000000	20.883322
2430.000000	20.791883
2431.000000	20.701062
2432.000000	20.609324
2433.000000	20.507390
2434.000000	20.419293
2435.000000	20.328132
2436.000000	20.233138
2437.000000	20.133309
2438.000000	20.028494
2439.000000	19.923556
2440.000000	19.820158
2441.000000	19.727695
2442.000000	19.616877
2443.000000	19.505664
2444.000000	19.408791
2445.000000	19.304232
2446.000000	19.200300
2447.000000	19.090113
2448.000000	18.984979
2449.000000	18.887858
2450.000000	18.790196
2451.000000	18.694648
2452.000000	18.608167
2453.000000	18.504284
2454.000000	18.421506
2455.000000	18.328752
2456.000000	18.244811
2457.000000	18.176339
2458.000000	18.116379
2459.000000	18.041965
2460.000000	17.966674
2461.000000	17.909241
2462.000000	17.863411
2463.000000	17.818702
2464.000000	17.774198
2465.000000	17.713717
2466.000000	17.652532
2467.000000	17.602939
2468.000000	17.575721
2469.000000	17.540248
2470.000000	17.473948
2471.000000	17.454376
2472.000000	17.392838
2473.000000	17.375267
2474.000000	17.324518
2475.000000	17.321966
2476.000000	17.283203
2477.000000	17.278303
2478.000000	17.262985
2479.000000	17.219593
2480.000000	17.233722
2481.000000	17.192528
2482.000000	17.217427
2483.000000	17.148266
2484.000000	17.121220
2485.000000	17.169878
2486.000000	17.127278
2487.000000	17.140587
2488.000000	17.145328
2489.000000	17.126379
2490.000000	17.164595
2491.000000	17.179842
2492.000000	17.165883
2493.000000	17.170759
2494.000000	17.234611
2495.000000	17.244579
2496.000000	17.226467
2497.000000	17.245139
2498.000000	17.239733
2499.000000	17.227684
2500.000000	17.346131
