PE UV       SUBTECH     SPECTRUM    ASCII       PEDS        4.00        
   -1
CICIMAUCR0141-3.Sample.ASC
24/04/22
09:38:58.00
24/04/22
09:38:58.00
Vinicio Soto Monge
C. kalinini
250,000000
1
Lambda 1050
1050L1511233
PerkinElmer UV WinLab 6.3.2.0749 / 2.02.05 Lambda 900 UV/VIS/NIR, Aug  7 2015 09:38:08

0
0
3350/servo 860,8/2
0
0
UV/VIS
1
1
1
DoubleDePol,CommonBeamDepol,RBeamAtt,SBeamAtt,60mm sphere, WB InGaAs Detector
0
0
0
0
Program
Program
3350/servo 860,8/2
3350/0,2 860,8/0,2
3350/0,2 860,8/0,2
0
15.00
 
 
 
0
 
860,8
319,2
860,8
Front
100
on
S:100 R:100
0
0
0
0
 
0
 
 
 
0
 
 
0
0
0
0
0
 
 
 
 
0
0


0
0
#HDR
-1
-1
#GR
nm
%R
1.0
0.0
2500,000000
-1,000000
2251
8
96,279600
5,742600
#DATA
250.000000	6.390333
251.000000	6.389500
252.000000	6.380300
253.000000	6.354200
254.000000	6.367300
255.000000	6.352900
256.000000	6.322533
257.000000	6.315033
258.000000	6.277633
259.000000	6.307867
260.000000	6.271033
261.000000	6.250300
262.000000	6.245033
263.000000	6.215800
264.000000	6.168000
265.000000	6.140967
266.000000	6.127967
267.000000	6.110333
268.000000	6.118100
269.000000	6.070733
270.000000	6.057933
271.000000	6.048000
272.000000	5.998700
273.000000	5.977800
274.000000	6.004833
275.000000	6.009833
276.000000	5.989000
277.000000	5.984833
278.000000	5.991633
279.000000	5.962100
280.000000	5.969533
281.000000	5.958600
282.000000	5.959533
283.000000	5.917233
284.000000	5.952433
285.000000	5.932300
286.000000	5.944667
287.000000	5.927700
288.000000	5.910400
289.000000	5.912267
290.000000	5.897767
291.000000	5.898700
292.000000	5.924333
293.000000	5.894300
294.000000	5.893767
295.000000	5.903767
296.000000	5.891133
297.000000	5.889567
298.000000	5.886800
299.000000	5.879933
300.000000	5.858900
301.000000	5.843533
302.000000	5.873100
303.000000	5.876100
304.000000	5.828600
305.000000	5.855233
306.000000	5.889467
307.000000	5.869567
308.000000	5.864300
309.000000	5.863900
310.000000	5.849433
311.000000	5.870067
312.000000	5.822733
313.000000	5.866467
314.000000	5.809500
315.000000	5.850233
316.000000	5.889733
317.000000	6.127533
318.000000	6.049600
319.000000	6.159233
320.000000	6.102167
321.000000	6.045533
322.000000	6.156900
323.000000	6.012000
324.000000	6.089600
325.000000	6.021000
326.000000	5.917633
327.000000	5.989500
328.000000	5.951633
329.000000	5.955400
330.000000	5.994467
331.000000	6.044167
332.000000	5.960800
333.000000	5.952500
334.000000	5.995433
335.000000	5.872200
336.000000	5.959767
337.000000	5.935300
338.000000	5.935767
339.000000	5.908367
340.000000	5.920567
341.000000	5.966500
342.000000	5.965333
343.000000	5.969700
344.000000	6.001667
345.000000	5.915733
346.000000	5.997667
347.000000	5.986300
348.000000	6.012533
349.000000	5.984100
350.000000	5.997667
351.000000	5.971400
352.000000	5.994533
353.000000	6.046100
354.000000	6.063900
355.000000	6.057400
356.000000	6.056933
357.000000	6.087333
358.000000	6.137300
359.000000	6.134967
360.000000	6.170367
361.000000	6.216900
362.000000	6.205400
363.000000	6.177400
364.000000	6.230467
365.000000	6.243500
366.000000	6.233533
367.000000	6.253600
368.000000	6.290600
369.000000	6.246567
370.000000	6.226767
371.000000	6.262867
372.000000	6.303333
373.000000	6.328300
374.000000	6.299200
375.000000	6.386533
376.000000	6.532300
377.000000	6.520533
378.000000	6.543333
379.000000	6.571767
380.000000	6.598100
381.000000	6.630633
382.000000	6.667800
383.000000	6.707600
384.000000	6.753700
385.000000	6.796667
386.000000	6.841767
387.000000	6.881133
388.000000	6.931600
389.000000	6.988200
390.000000	7.046800
391.000000	7.120867
392.000000	7.184600
393.000000	7.255633
394.000000	7.337900
395.000000	7.425633
396.000000	7.529500
397.000000	7.628033
398.000000	7.732400
399.000000	7.848767
400.000000	7.981800
401.000000	8.122800
402.000000	8.284900
403.000000	8.462633
404.000000	8.645700
405.000000	8.839733
406.000000	9.051700
407.000000	9.280867
408.000000	9.528800
409.000000	9.795400
410.000000	10.078367
411.000000	10.390100
412.000000	10.723667
413.000000	11.071600
414.000000	11.437767
415.000000	11.828867
416.000000	12.238633
417.000000	12.662800
418.000000	13.108767
419.000000	13.569800
420.000000	14.047400
421.000000	14.538933
422.000000	15.048133
423.000000	15.563600
424.000000	16.088100
425.000000	16.620067
426.000000	17.150867
427.000000	17.692333
428.000000	18.222467
429.000000	18.739700
430.000000	19.261500
431.000000	19.792833
432.000000	20.322733
433.000000	20.833900
434.000000	21.330933
435.000000	21.828767
436.000000	22.304733
437.000000	22.762233
438.000000	23.208867
439.000000	23.645467
440.000000	24.063033
441.000000	24.463800
442.000000	24.870167
443.000000	25.253367
444.000000	25.610533
445.000000	25.960567
446.000000	26.297600
447.000000	26.614100
448.000000	26.905367
449.000000	27.200267
450.000000	27.486833
451.000000	27.738933
452.000000	27.995167
453.000000	28.235567
454.000000	28.462233
455.000000	28.687900
456.000000	28.890567
457.000000	29.071667
458.000000	29.238900
459.000000	29.403900
460.000000	29.555133
461.000000	29.687000
462.000000	29.780867
463.000000	29.878500
464.000000	29.966267
465.000000	30.023767
466.000000	30.072333
467.000000	30.101633
468.000000	30.100533
469.000000	30.082500
470.000000	30.042800
471.000000	29.986800
472.000000	29.906467
473.000000	29.813967
474.000000	29.698200
475.000000	29.572833
476.000000	29.417500
477.000000	29.242967
478.000000	29.070100
479.000000	28.886833
480.000000	28.704700
481.000000	28.534500
482.000000	28.357567
483.000000	28.185600
484.000000	28.011033
485.000000	27.860600
486.000000	27.742667
487.000000	27.655733
488.000000	27.605867
489.000000	27.598933
490.000000	27.646700
491.000000	27.727267
492.000000	27.870000
493.000000	28.097067
494.000000	28.371100
495.000000	28.687433
496.000000	29.054600
497.000000	29.489200
498.000000	29.962433
499.000000	30.487067
500.000000	31.052500
501.000000	31.643833
502.000000	32.266300
503.000000	32.923400
504.000000	33.581700
505.000000	34.249900
506.000000	34.922200
507.000000	35.595200
508.000000	36.268500
509.000000	36.941700
510.000000	37.596467
511.000000	38.262533
512.000000	38.914800
513.000000	39.571433
514.000000	40.216533
515.000000	40.868233
516.000000	41.520900
517.000000	42.181100
518.000000	42.827933
519.000000	43.499867
520.000000	44.185733
521.000000	44.872100
522.000000	45.587467
523.000000	46.329600
524.000000	47.094333
525.000000	47.861567
526.000000	48.664500
527.000000	49.462367
528.000000	50.291633
529.000000	51.142500
530.000000	52.019867
531.000000	52.918267
532.000000	53.839633
533.000000	54.796833
534.000000	55.744100
535.000000	56.684800
536.000000	57.646033
537.000000	58.587133
538.000000	59.511133
539.000000	60.419267
540.000000	61.339067
541.000000	62.232700
542.000000	63.094300
543.000000	63.923600
544.000000	64.739900
545.000000	65.502133
546.000000	66.238600
547.000000	66.925300
548.000000	67.590033
549.000000	68.223733
550.000000	68.839933
551.000000	69.410367
552.000000	69.965867
553.000000	70.491700
554.000000	70.994700
555.000000	71.450533
556.000000	71.914967
557.000000	72.354767
558.000000	72.774800
559.000000	73.153400
560.000000	73.516867
561.000000	73.874400
562.000000	74.196433
563.000000	74.528767
564.000000	74.847300
565.000000	75.146933
566.000000	75.398467
567.000000	75.657333
568.000000	75.891600
569.000000	76.101833
570.000000	76.289400
571.000000	76.446500
572.000000	76.594900
573.000000	76.773200
574.000000	76.905133
575.000000	77.026433
576.000000	77.151600
577.000000	77.234033
578.000000	77.304033
579.000000	77.342467
580.000000	77.367100
581.000000	77.344300
582.000000	77.306033
583.000000	77.251067
584.000000	77.197233
585.000000	77.110267
586.000000	76.965533
587.000000	76.842667
588.000000	76.628000
589.000000	76.439933
590.000000	76.185633
591.000000	75.881867
592.000000	75.574000
593.000000	75.230267
594.000000	74.848567
595.000000	74.438633
596.000000	74.064767
597.000000	73.623200
598.000000	73.198100
599.000000	72.757067
600.000000	72.278500
601.000000	71.819567
602.000000	71.266233
603.000000	70.768033
604.000000	70.219700
605.000000	69.708333
606.000000	69.159467
607.000000	68.638667
608.000000	68.079733
609.000000	67.539400
610.000000	67.035067
611.000000	66.491467
612.000000	65.982133
613.000000	65.469667
614.000000	64.946533
615.000000	64.455400
616.000000	63.985167
617.000000	63.509467
618.000000	63.080800
619.000000	62.637200
620.000000	62.267800
621.000000	61.920967
622.000000	61.599667
623.000000	61.345567
624.000000	61.105200
625.000000	60.934967
626.000000	60.763867
627.000000	60.650533
628.000000	60.573600
629.000000	60.516367
630.000000	60.435600
631.000000	60.385467
632.000000	60.374100
633.000000	60.347267
634.000000	60.322800
635.000000	60.330900
636.000000	60.329100
637.000000	60.323833
638.000000	60.336967
639.000000	60.354533
640.000000	60.385500
641.000000	60.428633
642.000000	60.505267
643.000000	60.589367
644.000000	60.667433
645.000000	60.787033
646.000000	60.883100
647.000000	61.019867
648.000000	61.145033
649.000000	61.288400
650.000000	61.436733
651.000000	61.538867
652.000000	61.651467
653.000000	61.776800
654.000000	61.845200
655.000000	61.934000
656.000000	61.997833
657.000000	62.030267
658.000000	62.101300
659.000000	62.138000
660.000000	62.180500
661.000000	62.230567
662.000000	62.339300
663.000000	62.431533
664.000000	62.534700
665.000000	62.677167
666.000000	62.847300
667.000000	63.049833
668.000000	63.261067
669.000000	63.520933
670.000000	63.799833
671.000000	64.114067
672.000000	64.419700
673.000000	64.759600
674.000000	65.045433
675.000000	65.398733
676.000000	65.748000
677.000000	66.092400
678.000000	66.450400
679.000000	66.826500
680.000000	67.226833
681.000000	67.596300
682.000000	67.986067
683.000000	68.384967
684.000000	68.783100
685.000000	69.224967
686.000000	69.651867
687.000000	70.083833
688.000000	70.490033
689.000000	70.922833
690.000000	71.358933
691.000000	71.799567
692.000000	72.211300
693.000000	72.601300
694.000000	72.964300
695.000000	73.329467
696.000000	73.706167
697.000000	74.029467
698.000000	74.320967
699.000000	74.684467
700.000000	74.980900
701.000000	75.265100
702.000000	75.544533
703.000000	75.835933
704.000000	76.128433
705.000000	76.415233
706.000000	76.713200
707.000000	77.000100
708.000000	77.339633
709.000000	77.649433
710.000000	77.953833
711.000000	78.293533
712.000000	78.659433
713.000000	79.031233
714.000000	79.410000
715.000000	79.810033
716.000000	80.224900
717.000000	80.643400
718.000000	81.109433
719.000000	81.526333
720.000000	81.951967
721.000000	82.440100
722.000000	82.910167
723.000000	83.365733
724.000000	83.880267
725.000000	84.370867
726.000000	84.861500
727.000000	85.354033
728.000000	85.854800
729.000000	86.380400
730.000000	86.876167
731.000000	87.362700
732.000000	87.884100
733.000000	88.399333
734.000000	88.892467
735.000000	89.381733
736.000000	89.869900
737.000000	90.341933
738.000000	90.733267
739.000000	91.199100
740.000000	91.648233
741.000000	91.977000
742.000000	92.357367
743.000000	92.778733
744.000000	93.119533
745.000000	93.423533
746.000000	93.758733
747.000000	94.054567
748.000000	94.352700
749.000000	94.657800
750.000000	94.889567
751.000000	95.147033
752.000000	95.421967
753.000000	95.637900
754.000000	95.845600
755.000000	96.036333
756.000000	96.212967
757.000000	96.393167
758.000000	96.561500
759.000000	96.731367
760.000000	96.857733
761.000000	96.983167
762.000000	97.121700
763.000000	97.263467
764.000000	97.363267
765.000000	97.444233
766.000000	97.468700
767.000000	97.519433
768.000000	97.566133
769.000000	97.582100
770.000000	97.617767
771.000000	97.657633
772.000000	97.643567
773.000000	97.670367
774.000000	97.626933
775.000000	97.560633
776.000000	97.578067
777.000000	97.580067
778.000000	97.549533
779.000000	97.526633
780.000000	97.475333
781.000000	97.404733
782.000000	97.374500
783.000000	97.339933
784.000000	97.242867
785.000000	97.211967
786.000000	97.106100
787.000000	97.037267
788.000000	97.023633
789.000000	96.887633
790.000000	96.785900
791.000000	96.700300
792.000000	96.585100
793.000000	96.525133
794.000000	96.506467
795.000000	96.405167
796.000000	96.293533
797.000000	96.239733
798.000000	96.194667
799.000000	96.187133
800.000000	95.979500
801.000000	95.926800
802.000000	95.890267
803.000000	95.768367
804.000000	95.625767
805.000000	95.583733
806.000000	95.440967
807.000000	95.250600
808.000000	95.241833
809.000000	95.051700
810.000000	94.921967
811.000000	94.751600
812.000000	94.637700
813.000000	94.406433
814.000000	94.264400
815.000000	94.101000
816.000000	93.864133
817.000000	93.626233
818.000000	93.317100
819.000000	93.119967
820.000000	92.932300
821.000000	92.577933
822.000000	92.311933
823.000000	91.946533
824.000000	91.717733
825.000000	91.287000
826.000000	90.977833
827.000000	90.675100
828.000000	90.266233
829.000000	89.914833
830.000000	89.432633
831.000000	89.009333
832.000000	88.619600
833.000000	88.238900
834.000000	87.777133
835.000000	87.299433
836.000000	86.793300
837.000000	86.342133
838.000000	85.941133
839.000000	85.469567
840.000000	85.131333
841.000000	84.620367
842.000000	84.096367
843.000000	83.819733
844.000000	83.243067
845.000000	82.696900
846.000000	82.213533
847.000000	81.986033
848.000000	81.431833
849.000000	80.998000
850.000000	80.434833
851.000000	80.285600
852.000000	79.644133
853.000000	79.538833
854.000000	79.085200
855.000000	78.458333
856.000000	78.113067
857.000000	77.540133
858.000000	78.037178
859.000000	77.508653
860.000000	77.348894
861.000000	77.239960
862.000000	77.137693
863.000000	76.961644
864.000000	76.809969
865.000000	76.623773
866.000000	76.465684
867.000000	76.266842
868.000000	76.106053
869.000000	75.914025
870.000000	75.750007
871.000000	75.558890
872.000000	75.398602
873.000000	75.207380
874.000000	75.018336
875.000000	74.852563
876.000000	74.694135
877.000000	74.535134
878.000000	74.381505
879.000000	74.218184
880.000000	74.062111
881.000000	73.922603
882.000000	73.773089
883.000000	73.621396
884.000000	73.499922
885.000000	73.371498
886.000000	73.217275
887.000000	73.081618
888.000000	72.934810
889.000000	72.801055
890.000000	72.668128
891.000000	72.557304
892.000000	72.427496
893.000000	72.293951
894.000000	72.176986
895.000000	72.056358
896.000000	71.920141
897.000000	71.808836
898.000000	71.692491
899.000000	71.557045
900.000000	71.440116
901.000000	71.337268
902.000000	71.220349
903.000000	71.104974
904.000000	70.942169
905.000000	70.810708
906.000000	70.692019
907.000000	70.574244
908.000000	70.454851
909.000000	70.302390
910.000000	70.155721
911.000000	70.012678
912.000000	69.914150
913.000000	69.774933
914.000000	69.617496
915.000000	69.500857
916.000000	69.375649
917.000000	69.247961
918.000000	69.136621
919.000000	69.025583
920.000000	68.895672
921.000000	68.792414
922.000000	68.640885
923.000000	68.538877
924.000000	68.413586
925.000000	68.296347
926.000000	68.174006
927.000000	68.031642
928.000000	67.918341
929.000000	67.813754
930.000000	67.690531
931.000000	67.579729
932.000000	67.466208
933.000000	67.314870
934.000000	67.203599
935.000000	67.082860
936.000000	66.961403
937.000000	66.839424
938.000000	66.724002
939.000000	66.589507
940.000000	66.478191
941.000000	66.354416
942.000000	66.221444
943.000000	66.105705
944.000000	65.988171
945.000000	65.859794
946.000000	65.737616
947.000000	65.620856
948.000000	65.472707
949.000000	65.348321
950.000000	65.228084
951.000000	65.087656
952.000000	64.974174
953.000000	64.849664
954.000000	64.739050
955.000000	64.612108
956.000000	64.481435
957.000000	64.359849
958.000000	64.252034
959.000000	64.142590
960.000000	64.020245
961.000000	63.913068
962.000000	63.790030
963.000000	63.692587
964.000000	63.570760
965.000000	63.460235
966.000000	63.370970
967.000000	63.254093
968.000000	63.153334
969.000000	63.053994
970.000000	62.962075
971.000000	62.868112
972.000000	62.773941
973.000000	62.691557
974.000000	62.607000
975.000000	62.526898
976.000000	62.441434
977.000000	62.375315
978.000000	62.298843
979.000000	62.227764
980.000000	62.146398
981.000000	62.081701
982.000000	62.008688
983.000000	61.941626
984.000000	61.874766
985.000000	61.810879
986.000000	61.746078
987.000000	61.691055
988.000000	61.634188
989.000000	61.588785
990.000000	61.528291
991.000000	61.488048
992.000000	61.446435
993.000000	61.407261
994.000000	61.362216
995.000000	61.330601
996.000000	61.293789
997.000000	61.256682
998.000000	61.228015
999.000000	61.203022
1000.000000	61.173541
1001.000000	61.149301
1002.000000	61.132475
1003.000000	61.117945
1004.000000	61.098077
1005.000000	61.082932
1006.000000	61.073631
1007.000000	61.055078
1008.000000	61.039638
1009.000000	61.038037
1010.000000	61.040744
1011.000000	61.048080
1012.000000	61.042666
1013.000000	61.042369
1014.000000	61.051583
1015.000000	61.060884
1016.000000	61.073025
1017.000000	61.096644
1018.000000	61.119063
1019.000000	61.133115
1020.000000	61.154276
1021.000000	61.188494
1022.000000	61.211979
1023.000000	61.244127
1024.000000	61.288624
1025.000000	61.316581
1026.000000	61.353262
1027.000000	61.398581
1028.000000	61.431617
1029.000000	61.472967
1030.000000	61.523443
1031.000000	61.574516
1032.000000	61.621793
1033.000000	61.676726
1034.000000	61.734407
1035.000000	61.782827
1036.000000	61.833359
1037.000000	61.892783
1038.000000	61.950235
1039.000000	62.009052
1040.000000	62.066648
1041.000000	62.123428
1042.000000	62.181039
1043.000000	62.240612
1044.000000	62.306639
1045.000000	62.368359
1046.000000	62.432246
1047.000000	62.505933
1048.000000	62.571132
1049.000000	62.635120
1050.000000	62.703686
1051.000000	62.770865
1052.000000	62.841622
1053.000000	62.919247
1054.000000	62.995927
1055.000000	63.066335
1056.000000	63.138934
1057.000000	63.213505
1058.000000	63.281960
1059.000000	63.363656
1060.000000	63.442760
1061.000000	63.520123
1062.000000	63.600956
1063.000000	63.679453
1064.000000	63.754625
1065.000000	63.822343
1066.000000	63.900230
1067.000000	63.988445
1068.000000	64.062736
1069.000000	64.134658
1070.000000	64.209019
1071.000000	64.284989
1072.000000	64.360078
1073.000000	64.430782
1074.000000	64.511829
1075.000000	64.598683
1076.000000	64.678294
1077.000000	64.752560
1078.000000	64.833586
1079.000000	64.914573
1080.000000	65.003174
1081.000000	65.084374
1082.000000	65.164640
1083.000000	65.250383
1084.000000	65.334921
1085.000000	65.421045
1086.000000	65.498474
1087.000000	65.585293
1088.000000	65.666441
1089.000000	65.746547
1090.000000	65.826956
1091.000000	65.912798
1092.000000	65.995884
1093.000000	66.081919
1094.000000	66.163396
1095.000000	66.238999
1096.000000	66.322399
1097.000000	66.398582
1098.000000	66.481086
1099.000000	66.557661
1100.000000	66.633465
1101.000000	66.703873
1102.000000	66.777106
1103.000000	66.855407
1104.000000	66.916453
1105.000000	66.986422
1106.000000	67.056819
1107.000000	67.131613
1108.000000	67.197826
1109.000000	67.265271
1110.000000	67.325633
1111.000000	67.386256
1112.000000	67.447105
1113.000000	67.502730
1114.000000	67.565664
1115.000000	67.629010
1116.000000	67.683631
1117.000000	67.741306
1118.000000	67.795096
1119.000000	67.848295
1120.000000	67.885660
1121.000000	67.928915
1122.000000	67.978167
1123.000000	68.027144
1124.000000	68.053078
1125.000000	68.052933
1126.000000	68.072041
1127.000000	68.072227
1128.000000	68.071971
1129.000000	68.073968
1130.000000	68.058936
1131.000000	68.018906
1132.000000	67.983499
1133.000000	67.947080
1134.000000	67.947301
1135.000000	67.922824
1136.000000	67.873330
1137.000000	67.807351
1138.000000	67.729153
1139.000000	67.684282
1140.000000	67.637653
1141.000000	67.611932
1142.000000	67.588739
1143.000000	67.549528
1144.000000	67.547040
1145.000000	67.549469
1146.000000	67.536623
1147.000000	67.529893
1148.000000	67.509025
1149.000000	67.497739
1150.000000	67.477141
1151.000000	67.459979
1152.000000	67.432643
1153.000000	67.410577
1154.000000	67.354365
1155.000000	67.298475
1156.000000	67.243770
1157.000000	67.167865
1158.000000	67.072784
1159.000000	66.990753
1160.000000	66.882715
1161.000000	66.787959
1162.000000	66.690936
1163.000000	66.579790
1164.000000	66.485313
1165.000000	66.362466
1166.000000	66.268563
1167.000000	66.158776
1168.000000	66.055816
1169.000000	65.992375
1170.000000	65.904135
1171.000000	65.841313
1172.000000	65.778189
1173.000000	65.725618
1174.000000	65.682048
1175.000000	65.647036
1176.000000	65.620489
1177.000000	65.591485
1178.000000	65.557510
1179.000000	65.521175
1180.000000	65.488687
1181.000000	65.460194
1182.000000	65.436380
1183.000000	65.413843
1184.000000	65.392446
1185.000000	65.404499
1186.000000	65.427120
1187.000000	65.451279
1188.000000	65.491348
1189.000000	65.554226
1190.000000	65.628472
1191.000000	65.707677
1192.000000	65.812253
1193.000000	65.912992
1194.000000	66.015111
1195.000000	66.122171
1196.000000	66.218781
1197.000000	66.314218
1198.000000	66.418353
1199.000000	66.514443
1200.000000	66.597545
1201.000000	66.673623
1202.000000	66.764900
1203.000000	66.831811
1204.000000	66.917169
1205.000000	66.995322
1206.000000	67.068039
1207.000000	67.148460
1208.000000	67.231047
1209.000000	67.283577
1210.000000	67.362228
1211.000000	67.439624
1212.000000	67.504068
1213.000000	67.555770
1214.000000	67.622965
1215.000000	67.678116
1216.000000	67.722401
1217.000000	67.773545
1218.000000	67.817935
1219.000000	67.875109
1220.000000	67.916992
1221.000000	67.976699
1222.000000	68.015146
1223.000000	68.059780
1224.000000	68.117735
1225.000000	68.164582
1226.000000	68.210959
1227.000000	68.261747
1228.000000	68.313829
1229.000000	68.362676
1230.000000	68.412339
1231.000000	68.464220
1232.000000	68.516426
1233.000000	68.565126
1234.000000	68.621597
1235.000000	68.677169
1236.000000	68.729428
1237.000000	68.777022
1238.000000	68.826834
1239.000000	68.897096
1240.000000	68.967932
1241.000000	69.022001
1242.000000	69.091643
1243.000000	69.157528
1244.000000	69.222817
1245.000000	69.287622
1246.000000	69.359785
1247.000000	69.428407
1248.000000	69.485895
1249.000000	69.542515
1250.000000	69.598738
1251.000000	69.648171
1252.000000	69.687733
1253.000000	69.724522
1254.000000	69.749982
1255.000000	69.772791
1256.000000	69.803125
1257.000000	69.810928
1258.000000	69.834895
1259.000000	69.846832
1260.000000	69.851598
1261.000000	69.868590
1262.000000	69.886788
1263.000000	69.899837
1264.000000	69.921735
1265.000000	69.941970
1266.000000	69.958462
1267.000000	69.970134
1268.000000	69.989937
1269.000000	69.999101
1270.000000	70.007197
1271.000000	70.016665
1272.000000	70.040282
1273.000000	70.059666
1274.000000	70.077108
1275.000000	70.104201
1276.000000	70.128500
1277.000000	70.151557
1278.000000	70.175753
1279.000000	70.208493
1280.000000	70.246950
1281.000000	70.284631
1282.000000	70.325089
1283.000000	70.370097
1284.000000	70.412231
1285.000000	70.454699
1286.000000	70.504167
1287.000000	70.547147
1288.000000	70.584268
1289.000000	70.616999
1290.000000	70.648326
1291.000000	70.680612
1292.000000	70.714699
1293.000000	70.736481
1294.000000	70.749906
1295.000000	70.770065
1296.000000	70.787716
1297.000000	70.795216
1298.000000	70.806517
1299.000000	70.813174
1300.000000	70.811357
1301.000000	70.811555
1302.000000	70.813184
1303.000000	70.809199
1304.000000	70.800474
1305.000000	70.791234
1306.000000	70.774953
1307.000000	70.756989
1308.000000	70.734780
1309.000000	70.703036
1310.000000	70.676929
1311.000000	70.649863
1312.000000	70.615668
1313.000000	70.582883
1314.000000	70.548554
1315.000000	70.512052
1316.000000	70.475514
1317.000000	70.427055
1318.000000	70.378173
1319.000000	70.341483
1320.000000	70.305745
1321.000000	70.256023
1322.000000	70.210796
1323.000000	70.160630
1324.000000	70.103520
1325.000000	70.044983
1326.000000	69.980449
1327.000000	69.914400
1328.000000	69.853165
1329.000000	69.789048
1330.000000	69.703537
1331.000000	69.622627
1332.000000	69.529422
1333.000000	69.421662
1334.000000	69.310869
1335.000000	69.193095
1336.000000	69.086863
1337.000000	68.969656
1338.000000	68.839435
1339.000000	68.702353
1340.000000	68.549035
1341.000000	68.400187
1342.000000	68.232030
1343.000000	68.056928
1344.000000	67.889072
1345.000000	67.696863
1346.000000	67.469814
1347.000000	67.274822
1348.000000	67.092777
1349.000000	66.866967
1350.000000	66.645490
1351.000000	66.429767
1352.000000	66.217824
1353.000000	66.008177
1354.000000	65.893251
1355.000000	65.766798
1356.000000	65.627371
1357.000000	65.506186
1358.000000	65.412177
1359.000000	65.347301
1360.000000	65.257148
1361.000000	65.276819
1362.000000	65.239374
1363.000000	65.131592
1364.000000	65.010697
1365.000000	64.930291
1366.000000	64.807614
1367.000000	64.670141
1368.000000	64.586431
1369.000000	64.451221
1370.000000	64.287728
1371.000000	64.175545
1372.000000	64.042067
1373.000000	63.902895
1374.000000	63.706515
1375.000000	63.542387
1376.000000	63.422507
1377.000000	63.292044
1378.000000	63.150274
1379.000000	63.029707
1380.000000	62.892065
1381.000000	62.740807
1382.000000	62.581837
1383.000000	62.345588
1384.000000	62.048940
1385.000000	61.745193
1386.000000	61.377449
1387.000000	61.050603
1388.000000	60.729072
1389.000000	60.333499
1390.000000	59.904649
1391.000000	59.558075
1392.000000	59.210644
1393.000000	58.789097
1394.000000	58.424328
1395.000000	58.134008
1396.000000	57.763676
1397.000000	57.209165
1398.000000	56.714811
1399.000000	56.357590
1400.000000	56.038739
1401.000000	55.589205
1402.000000	54.995244
1403.000000	54.482030
1404.000000	54.006124
1405.000000	53.543092
1406.000000	53.050872
1407.000000	52.563055
1408.000000	52.097751
1409.000000	51.618367
1410.000000	51.132757
1411.000000	50.607853
1412.000000	50.118510
1413.000000	49.737637
1414.000000	49.370422
1415.000000	48.953743
1416.000000	48.522988
1417.000000	48.118285
1418.000000	47.826227
1419.000000	47.534977
1420.000000	47.213236
1421.000000	46.861304
1422.000000	46.527928
1423.000000	46.282350
1424.000000	46.042531
1425.000000	45.775301
1426.000000	45.518870
1427.000000	45.288494
1428.000000	45.066142
1429.000000	44.865813
1430.000000	44.649580
1431.000000	44.455348
1432.000000	44.311772
1433.000000	44.145979
1434.000000	43.972637
1435.000000	43.800136
1436.000000	43.645485
1437.000000	43.513711
1438.000000	43.396555
1439.000000	43.255799
1440.000000	43.106742
1441.000000	42.992754
1442.000000	42.884158
1443.000000	42.763288
1444.000000	42.625809
1445.000000	42.538716
1446.000000	42.454028
1447.000000	42.322210
1448.000000	42.175933
1449.000000	42.046720
1450.000000	41.972599
1451.000000	41.888999
1452.000000	41.765067
1453.000000	41.636573
1454.000000	41.511705
1455.000000	41.396200
1456.000000	41.289150
1457.000000	41.174994
1458.000000	41.047671
1459.000000	40.917418
1460.000000	40.809241
1461.000000	40.704602
1462.000000	40.571714
1463.000000	40.455290
1464.000000	40.342483
1465.000000	40.241590
1466.000000	40.135179
1467.000000	40.036517
1468.000000	39.924386
1469.000000	39.810678
1470.000000	39.752469
1471.000000	39.672195
1472.000000	39.571885
1473.000000	39.491722
1474.000000	39.399015
1475.000000	39.312023
1476.000000	39.245548
1477.000000	39.187980
1478.000000	39.142272
1479.000000	39.104929
1480.000000	39.063384
1481.000000	39.040252
1482.000000	39.017135
1483.000000	38.983067
1484.000000	38.950145
1485.000000	38.934947
1486.000000	38.915756
1487.000000	38.911534
1488.000000	38.895161
1489.000000	38.884632
1490.000000	38.871486
1491.000000	38.857158
1492.000000	38.853216
1493.000000	38.861670
1494.000000	38.874666
1495.000000	38.879135
1496.000000	38.898039
1497.000000	38.939541
1498.000000	38.991908
1499.000000	39.036372
1500.000000	39.087516
1501.000000	39.151916
1502.000000	39.228614
1503.000000	39.318681
1504.000000	39.410259
1505.000000	39.496344
1506.000000	39.585620
1507.000000	39.691644
1508.000000	39.795779
1509.000000	39.899158
1510.000000	39.992168
1511.000000	40.101316
1512.000000	40.200506
1513.000000	40.308483
1514.000000	40.406092
1515.000000	40.507152
1516.000000	40.606473
1517.000000	40.700623
1518.000000	40.794172
1519.000000	40.885084
1520.000000	40.973498
1521.000000	41.062226
1522.000000	41.143589
1523.000000	41.225928
1524.000000	41.314245
1525.000000	41.397830
1526.000000	41.468142
1527.000000	41.543726
1528.000000	41.630255
1529.000000	41.703958
1530.000000	41.771448
1531.000000	41.843277
1532.000000	41.918373
1533.000000	41.980859
1534.000000	42.040284
1535.000000	42.102213
1536.000000	42.162032
1537.000000	42.208699
1538.000000	42.250059
1539.000000	42.295875
1540.000000	42.337586
1541.000000	42.384953
1542.000000	42.426967
1543.000000	42.481197
1544.000000	42.526480
1545.000000	42.575642
1546.000000	42.642670
1547.000000	42.719390
1548.000000	42.795571
1549.000000	42.883572
1550.000000	42.970331
1551.000000	43.049199
1552.000000	43.130565
1553.000000	43.202162
1554.000000	43.265784
1555.000000	43.326511
1556.000000	43.377530
1557.000000	43.425632
1558.000000	43.461887
1559.000000	43.488250
1560.000000	43.503394
1561.000000	43.510629
1562.000000	43.510663
1563.000000	43.501587
1564.000000	43.490906
1565.000000	43.477056
1566.000000	43.459863
1567.000000	43.432711
1568.000000	43.406389
1569.000000	43.379059
1570.000000	43.350165
1571.000000	43.330781
1572.000000	43.327625
1573.000000	43.321009
1574.000000	43.315609
1575.000000	43.317064
1576.000000	43.319084
1577.000000	43.334719
1578.000000	43.350933
1579.000000	43.370984
1580.000000	43.397191
1581.000000	43.425235
1582.000000	43.466955
1583.000000	43.507580
1584.000000	43.558960
1585.000000	43.609229
1586.000000	43.659952
1587.000000	43.725349
1588.000000	43.770273
1589.000000	43.827405
1590.000000	43.894401
1591.000000	43.949061
1592.000000	44.007921
1593.000000	44.067783
1594.000000	44.132151
1595.000000	44.202189
1596.000000	44.277689
1597.000000	44.359151
1598.000000	44.437777
1599.000000	44.519168
1600.000000	44.608184
1601.000000	44.703923
1602.000000	44.794748
1603.000000	44.882497
1604.000000	44.969733
1605.000000	45.059015
1606.000000	45.153954
1607.000000	45.241331
1608.000000	45.327406
1609.000000	45.408708
1610.000000	45.480502
1611.000000	45.546610
1612.000000	45.614462
1613.000000	45.667607
1614.000000	45.727978
1615.000000	45.782401
1616.000000	45.840137
1617.000000	45.884396
1618.000000	45.923156
1619.000000	45.962501
1620.000000	46.006649
1621.000000	46.045542
1622.000000	46.089734
1623.000000	46.131605
1624.000000	46.177273
1625.000000	46.224589
1626.000000	46.275382
1627.000000	46.332892
1628.000000	46.372925
1629.000000	46.421869
1630.000000	46.462723
1631.000000	46.512995
1632.000000	46.552488
1633.000000	46.593153
1634.000000	46.629783
1635.000000	46.660631
1636.000000	46.679882
1637.000000	46.706439
1638.000000	46.723228
1639.000000	46.734585
1640.000000	46.739090
1641.000000	46.739290
1642.000000	46.745836
1643.000000	46.743886
1644.000000	46.748908
1645.000000	46.751149
1646.000000	46.754952
1647.000000	46.758232
1648.000000	46.754182
1649.000000	46.745760
1650.000000	46.730002
1651.000000	46.711647
1652.000000	46.685863
1653.000000	46.646774
1654.000000	46.595277
1655.000000	46.539703
1656.000000	46.481279
1657.000000	46.394502
1658.000000	46.296079
1659.000000	46.189543
1660.000000	46.066733
1661.000000	45.922773
1662.000000	45.783246
1663.000000	45.613511
1664.000000	45.436298
1665.000000	45.265926
1666.000000	45.081454
1667.000000	44.906890
1668.000000	44.682828
1669.000000	44.480751
1670.000000	44.275899
1671.000000	44.071303
1672.000000	43.859395
1673.000000	43.659809
1674.000000	43.471268
1675.000000	43.290902
1676.000000	43.107671
1677.000000	42.925045
1678.000000	42.709767
1679.000000	42.498304
1680.000000	42.269847
1681.000000	42.008582
1682.000000	41.734901
1683.000000	41.461401
1684.000000	41.211537
1685.000000	40.976888
1686.000000	40.786880
1687.000000	40.656198
1688.000000	40.600188
1689.000000	40.607802
1690.000000	40.653845
1691.000000	40.753255
1692.000000	40.878321
1693.000000	41.014622
1694.000000	41.134468
1695.000000	41.238779
1696.000000	41.321641
1697.000000	41.367175
1698.000000	41.402103
1699.000000	41.400586
1700.000000	41.394667
1701.000000	41.394717
1702.000000	41.368546
1703.000000	41.353094
1704.000000	41.297010
1705.000000	41.236776
1706.000000	41.158982
1707.000000	41.055576
1708.000000	40.955120
1709.000000	40.822752
1710.000000	40.667766
1711.000000	40.497218
1712.000000	40.312373
1713.000000	40.107060
1714.000000	39.879438
1715.000000	39.619565
1716.000000	39.353016
1717.000000	39.062158
1718.000000	38.768666
1719.000000	38.491281
1720.000000	38.231298
1721.000000	38.002535
1722.000000	37.825067
1723.000000	37.712063
1724.000000	37.656830
1725.000000	37.654485
1726.000000	37.682146
1727.000000	37.743168
1728.000000	37.814095
1729.000000	37.888565
1730.000000	37.967986
1731.000000	38.051448
1732.000000	38.144507
1733.000000	38.230114
1734.000000	38.333085
1735.000000	38.405876
1736.000000	38.501454
1737.000000	38.591777
1738.000000	38.673920
1739.000000	38.786067
1740.000000	38.889483
1741.000000	38.993582
1742.000000	39.109749
1743.000000	39.221638
1744.000000	39.334074
1745.000000	39.427049
1746.000000	39.506926
1747.000000	39.589073
1748.000000	39.652633
1749.000000	39.696112
1750.000000	39.736981
1751.000000	39.765432
1752.000000	39.771685
1753.000000	39.771950
1754.000000	39.774125
1755.000000	39.755343
1756.000000	39.744262
1757.000000	39.733685
1758.000000	39.734151
1759.000000	39.720786
1760.000000	39.706373
1761.000000	39.694322
1762.000000	39.696529
1763.000000	39.698617
1764.000000	39.710166
1765.000000	39.726673
1766.000000	39.754860
1767.000000	39.787839
1768.000000	39.830526
1769.000000	39.871786
1770.000000	39.912825
1771.000000	39.961066
1772.000000	40.010787
1773.000000	40.051735
1774.000000	40.096717
1775.000000	40.157813
1776.000000	40.206591
1777.000000	40.250340
1778.000000	40.287392
1779.000000	40.318874
1780.000000	40.345384
1781.000000	40.370300
1782.000000	40.387509
1783.000000	40.391810
1784.000000	40.398221
1785.000000	40.399861
1786.000000	40.395850
1787.000000	40.388379
1788.000000	40.374888
1789.000000	40.373906
1790.000000	40.371043
1791.000000	40.371594
1792.000000	40.375703
1793.000000	40.390566
1794.000000	40.406830
1795.000000	40.428403
1796.000000	40.458617
1797.000000	40.476469
1798.000000	40.487969
1799.000000	40.509215
1800.000000	40.538797
1801.000000	40.580987
1802.000000	40.612165
1803.000000	40.615552
1804.000000	40.612627
1805.000000	40.631276
1806.000000	40.670702
1807.000000	40.702270
1808.000000	40.717331
1809.000000	40.731294
1810.000000	40.753840
1811.000000	40.802935
1812.000000	40.846404
1813.000000	40.865231
1814.000000	40.867827
1815.000000	40.877665
1816.000000	40.899142
1817.000000	40.892472
1818.000000	40.886266
1819.000000	40.907706
1820.000000	40.944177
1821.000000	40.959204
1822.000000	40.948015
1823.000000	40.898844
1824.000000	40.845970
1825.000000	40.840867
1826.000000	40.862977
1827.000000	40.888652
1828.000000	40.914252
1829.000000	40.957403
1830.000000	40.991528
1831.000000	41.021399
1832.000000	41.043616
1833.000000	41.060798
1834.000000	41.100795
1835.000000	41.171945
1836.000000	41.247182
1837.000000	41.308317
1838.000000	41.352012
1839.000000	41.389673
1840.000000	41.433926
1841.000000	41.478820
1842.000000	41.515870
1843.000000	41.508589
1844.000000	41.478148
1845.000000	41.479866
1846.000000	41.514462
1847.000000	41.580776
1848.000000	41.628440
1849.000000	41.628476
1850.000000	41.579963
1851.000000	41.527143
1852.000000	41.488211
1853.000000	41.467625
1854.000000	41.464537
1855.000000	41.436157
1856.000000	41.382532
1857.000000	41.328062
1858.000000	41.265856
1859.000000	41.194517
1860.000000	41.110271
1861.000000	40.993653
1862.000000	40.863650
1863.000000	40.739716
1864.000000	40.619139
1865.000000	40.497942
1866.000000	40.388090
1867.000000	40.291569
1868.000000	40.183712
1869.000000	40.023064
1870.000000	39.832445
1871.000000	39.649817
1872.000000	39.422290
1873.000000	39.144326
1874.000000	38.842940
1875.000000	38.520920
1876.000000	38.175253
1877.000000	37.826559
1878.000000	37.464265
1879.000000	37.077898
1880.000000	36.678469
1881.000000	36.270756
1882.000000	35.832209
1883.000000	35.388295
1884.000000	34.874254
1885.000000	34.322523
1886.000000	33.749734
1887.000000	33.185672
1888.000000	32.615338
1889.000000	32.011981
1890.000000	31.396967
1891.000000	30.765738
1892.000000	30.080334
1893.000000	29.348540
1894.000000	28.667848
1895.000000	28.026045
1896.000000	27.423428
1897.000000	26.852720
1898.000000	26.233907
1899.000000	25.593882
1900.000000	24.963402
1901.000000	24.348535
1902.000000	23.780614
1903.000000	23.252288
1904.000000	22.756381
1905.000000	22.270044
1906.000000	21.753908
1907.000000	21.243661
1908.000000	20.811778
1909.000000	20.418936
1910.000000	20.101174
1911.000000	19.797373
1912.000000	19.500334
1913.000000	19.198499
1914.000000	18.881460
1915.000000	18.591370
1916.000000	18.332918
1917.000000	18.107575
1918.000000	17.908784
1919.000000	17.722820
1920.000000	17.547771
1921.000000	17.377872
1922.000000	17.211013
1923.000000	17.046820
1924.000000	16.911781
1925.000000	16.791180
1926.000000	16.680869
1927.000000	16.588175
1928.000000	16.512412
1929.000000	16.420642
1930.000000	16.351685
1931.000000	16.294170
1932.000000	16.239721
1933.000000	16.187720
1934.000000	16.160661
1935.000000	16.143136
1936.000000	16.128299
1937.000000	16.123786
1938.000000	16.152785
1939.000000	16.185356
1940.000000	16.202282
1941.000000	16.221691
1942.000000	16.247888
1943.000000	16.281521
1944.000000	16.330971
1945.000000	16.386205
1946.000000	16.451872
1947.000000	16.503257
1948.000000	16.575891
1949.000000	16.643343
1950.000000	16.717019
1951.000000	16.795009
1952.000000	16.880812
1953.000000	16.963266
1954.000000	17.061888
1955.000000	17.156499
1956.000000	17.247881
1957.000000	17.339241
1958.000000	17.434807
1959.000000	17.522521
1960.000000	17.610808
1961.000000	17.713837
1962.000000	17.813570
1963.000000	17.898261
1964.000000	17.990964
1965.000000	18.091707
1966.000000	18.185186
1967.000000	18.266194
1968.000000	18.362391
1969.000000	18.450090
1970.000000	18.546103
1971.000000	18.648056
1972.000000	18.740853
1973.000000	18.848699
1974.000000	18.941365
1975.000000	19.044135
1976.000000	19.128429
1977.000000	19.243509
1978.000000	19.340147
1979.000000	19.438269
1980.000000	19.551514
1981.000000	19.655127
1982.000000	19.757429
1983.000000	19.866391
1984.000000	19.975331
1985.000000	20.072935
1986.000000	20.180933
1987.000000	20.291690
1988.000000	20.394310
1989.000000	20.497529
1990.000000	20.594918
1991.000000	20.693812
1992.000000	20.788870
1993.000000	20.885265
1994.000000	20.961541
1995.000000	21.051944
1996.000000	21.140525
1997.000000	21.215391
1998.000000	21.294900
1999.000000	21.366582
2000.000000	21.420720
2001.000000	21.486161
2002.000000	21.535401
2003.000000	21.597435
2004.000000	21.656771
2005.000000	21.693510
2006.000000	21.729739
2007.000000	21.749661
2008.000000	21.781654
2009.000000	21.804516
2010.000000	21.817402
2011.000000	21.822401
2012.000000	21.815610
2013.000000	21.807401
2014.000000	21.797967
2015.000000	21.781613
2016.000000	21.762300
2017.000000	21.735825
2018.000000	21.694779
2019.000000	21.659639
2020.000000	21.611900
2021.000000	21.559443
2022.000000	21.502038
2023.000000	21.449697
2024.000000	21.386888
2025.000000	21.327778
2026.000000	21.262242
2027.000000	21.185914
2028.000000	21.119834
2029.000000	21.037728
2030.000000	20.942476
2031.000000	20.844345
2032.000000	20.756960
2033.000000	20.669329
2034.000000	20.571580
2035.000000	20.464157
2036.000000	20.334114
2037.000000	20.222613
2038.000000	20.101258
2039.000000	19.960691
2040.000000	19.836845
2041.000000	19.715165
2042.000000	19.567860
2043.000000	19.426994
2044.000000	19.295684
2045.000000	19.163933
2046.000000	19.042334
2047.000000	18.925160
2048.000000	18.812631
2049.000000	18.720444
2050.000000	18.651066
2051.000000	18.592528
2052.000000	18.549565
2053.000000	18.532788
2054.000000	18.529460
2055.000000	18.550643
2056.000000	18.589521
2057.000000	18.644062
2058.000000	18.709678
2059.000000	18.789862
2060.000000	18.878173
2061.000000	18.971761
2062.000000	19.081783
2063.000000	19.199751
2064.000000	19.319318
2065.000000	19.435499
2066.000000	19.553034
2067.000000	19.668484
2068.000000	19.783307
2069.000000	19.901627
2070.000000	20.007837
2071.000000	20.108021
2072.000000	20.210236
2073.000000	20.297894
2074.000000	20.379294
2075.000000	20.460145
2076.000000	20.536780
2077.000000	20.593298
2078.000000	20.646318
2079.000000	20.684005
2080.000000	20.725788
2081.000000	20.766316
2082.000000	20.788527
2083.000000	20.803689
2084.000000	20.813784
2085.000000	20.814672
2086.000000	20.805981
2087.000000	20.790003
2088.000000	20.773002
2089.000000	20.757193
2090.000000	20.736961
2091.000000	20.717315
2092.000000	20.693175
2093.000000	20.669326
2094.000000	20.646451
2095.000000	20.617251
2096.000000	20.593444
2097.000000	20.580063
2098.000000	20.578246
2099.000000	20.563416
2100.000000	20.550639
2101.000000	20.550568
2102.000000	20.545748
2103.000000	20.536909
2104.000000	20.533784
2105.000000	20.533257
2106.000000	20.523096
2107.000000	20.513929
2108.000000	20.514730
2109.000000	20.512165
2110.000000	20.501473
2111.000000	20.498168
2112.000000	20.496629
2113.000000	20.480222
2114.000000	20.467999
2115.000000	20.456955
2116.000000	20.432340
2117.000000	20.403843
2118.000000	20.378779
2119.000000	20.359267
2120.000000	20.328634
2121.000000	20.291493
2122.000000	20.252001
2123.000000	20.209109
2124.000000	20.165147
2125.000000	20.114449
2126.000000	20.063837
2127.000000	20.009202
2128.000000	19.950994
2129.000000	19.898987
2130.000000	19.830852
2131.000000	19.765066
2132.000000	19.702185
2133.000000	19.625017
2134.000000	19.548294
2135.000000	19.472366
2136.000000	19.390642
2137.000000	19.299918
2138.000000	19.208602
2139.000000	19.120195
2140.000000	19.028487
2141.000000	18.931555
2142.000000	18.838109
2143.000000	18.735792
2144.000000	18.641330
2145.000000	18.544429
2146.000000	18.439278
2147.000000	18.331961
2148.000000	18.231360
2149.000000	18.131797
2150.000000	18.039129
2151.000000	17.932688
2152.000000	17.822025
2153.000000	17.728170
2154.000000	17.634521
2155.000000	17.544843
2156.000000	17.465572
2157.000000	17.377036
2158.000000	17.292682
2159.000000	17.219769
2160.000000	17.166908
2161.000000	17.126515
2162.000000	17.066210
2163.000000	17.008209
2164.000000	16.981380
2165.000000	16.945598
2166.000000	16.910814
2167.000000	16.886354
2168.000000	16.876030
2169.000000	16.847824
2170.000000	16.828507
2171.000000	16.826303
2172.000000	16.815592
2173.000000	16.818816
2174.000000	16.830515
2175.000000	16.830501
2176.000000	16.839456
2177.000000	16.866795
2178.000000	16.889587
2179.000000	16.901391
2180.000000	16.923593
2181.000000	16.950686
2182.000000	16.989684
2183.000000	17.014592
2184.000000	17.044779
2185.000000	17.085632
2186.000000	17.110710
2187.000000	17.149055
2188.000000	17.179913
2189.000000	17.208440
2190.000000	17.227609
2191.000000	17.260218
2192.000000	17.300892
2193.000000	17.329280
2194.000000	17.377618
2195.000000	17.415501
2196.000000	17.460218
2197.000000	17.496180
2198.000000	17.535605
2199.000000	17.587148
2200.000000	17.628540
2201.000000	17.689815
2202.000000	17.742881
2203.000000	17.789882
2204.000000	17.858889
2205.000000	17.926514
2206.000000	17.974415
2207.000000	18.043424
2208.000000	18.112587
2209.000000	18.170307
2210.000000	18.239216
2211.000000	18.322199
2212.000000	18.401431
2213.000000	18.480972
2214.000000	18.561597
2215.000000	18.648640
2216.000000	18.723350
2217.000000	18.804126
2218.000000	18.900164
2219.000000	18.995949
2220.000000	19.077901
2221.000000	19.150059
2222.000000	19.224534
2223.000000	19.308580
2224.000000	19.383829
2225.000000	19.451775
2226.000000	19.508386
2227.000000	19.564392
2228.000000	19.611952
2229.000000	19.670218
2230.000000	19.683941
2231.000000	19.724651
2232.000000	19.746306
2233.000000	19.768533
2234.000000	19.779263
2235.000000	19.768315
2236.000000	19.752723
2237.000000	19.724057
2238.000000	19.689093
2239.000000	19.656876
2240.000000	19.602287
2241.000000	19.531850
2242.000000	19.458030
2243.000000	19.368662
2244.000000	19.271580
2245.000000	19.166860
2246.000000	19.054091
2247.000000	18.917224
2248.000000	18.782817
2249.000000	18.647673
2250.000000	18.490283
2251.000000	18.337352
2252.000000	18.174780
2253.000000	18.014316
2254.000000	17.858872
2255.000000	17.695407
2256.000000	17.535388
2257.000000	17.394242
2258.000000	17.240173
2259.000000	17.114885
2260.000000	16.996522
2261.000000	16.862199
2262.000000	16.762146
2263.000000	16.656748
2264.000000	16.574390
2265.000000	16.504052
2266.000000	16.436153
2267.000000	16.378591
2268.000000	16.335774
2269.000000	16.302276
2270.000000	16.259017
2271.000000	16.236591
2272.000000	16.208953
2273.000000	16.199125
2274.000000	16.181601
2275.000000	16.164277
2276.000000	16.147863
2277.000000	16.105985
2278.000000	16.082555
2279.000000	16.041940
2280.000000	16.030258
2281.000000	16.002617
2282.000000	15.951730
2283.000000	15.916506
2284.000000	15.898248
2285.000000	15.857555
2286.000000	15.820981
2287.000000	15.785248
2288.000000	15.756878
2289.000000	15.723435
2290.000000	15.701400
2291.000000	15.675637
2292.000000	15.641802
2293.000000	15.631262
2294.000000	15.603590
2295.000000	15.593907
2296.000000	15.580079
2297.000000	15.572008
2298.000000	15.562617
2299.000000	15.559426
2300.000000	15.559839
2301.000000	15.559391
2302.000000	15.581169
2303.000000	15.593064
2304.000000	15.617967
2305.000000	15.633885
2306.000000	15.667331
2307.000000	15.696501
2308.000000	15.720521
2309.000000	15.769157
2310.000000	15.808108
2311.000000	15.844536
2312.000000	15.883776
2313.000000	15.914191
2314.000000	15.949329
2315.000000	15.977224
2316.000000	16.003200
2317.000000	16.028707
2318.000000	16.042721
2319.000000	16.060234
2320.000000	16.058442
2321.000000	16.057660
2322.000000	16.057063
2323.000000	16.051496
2324.000000	16.035462
2325.000000	16.017161
2326.000000	15.999640
2327.000000	15.975293
2328.000000	15.958806
2329.000000	15.944724
2330.000000	15.929308
2331.000000	15.923568
2332.000000	15.913000
2333.000000	15.909824
2334.000000	15.906239
2335.000000	15.903851
2336.000000	15.910335
2337.000000	15.925422
2338.000000	15.935333
2339.000000	15.956334
2340.000000	15.976371
2341.000000	15.992375
2342.000000	16.011918
2343.000000	16.035837
2344.000000	16.063552
2345.000000	16.090096
2346.000000	16.110684
2347.000000	16.136305
2348.000000	16.164763
2349.000000	16.197388
2350.000000	16.222447
2351.000000	16.252300
2352.000000	16.280670
2353.000000	16.304953
2354.000000	16.340878
2355.000000	16.364437
2356.000000	16.384690
2357.000000	16.411178
2358.000000	16.433525
2359.000000	16.447797
2360.000000	16.456260
2361.000000	16.468987
2362.000000	16.488450
2363.000000	16.502110
2364.000000	16.506951
2365.000000	16.514021
2366.000000	16.529547
2367.000000	16.544456
2368.000000	16.544693
2369.000000	16.556190
2370.000000	16.577817
2371.000000	16.599611
2372.000000	16.617536
2373.000000	16.639214
2374.000000	16.660332
2375.000000	16.672612
2376.000000	16.693883
2377.000000	16.725498
2378.000000	16.748381
2379.000000	16.758645
2380.000000	16.775934
2381.000000	16.796330
2382.000000	16.815875
2383.000000	16.831411
2384.000000	16.844165
2385.000000	16.849312
2386.000000	16.855855
2387.000000	16.864751
2388.000000	16.866445
2389.000000	16.861135
2390.000000	16.861008
2391.000000	16.855227
2392.000000	16.841871
2393.000000	16.840591
2394.000000	16.833848
2395.000000	16.828004
2396.000000	16.808830
2397.000000	16.795242
2398.000000	16.783574
2399.000000	16.777913
2400.000000	16.766494
2401.000000	16.741498
2402.000000	16.714628
2403.000000	16.704157
2404.000000	16.691438
2405.000000	16.670624
2406.000000	16.636470
2407.000000	16.605356
2408.000000	16.585211
2409.000000	16.559416
2410.000000	16.524598
2411.000000	16.485474
2412.000000	16.456685
2413.000000	16.422603
2414.000000	16.365236
2415.000000	16.324863
2416.000000	16.275353
2417.000000	16.227053
2418.000000	16.169496
2419.000000	16.101317
2420.000000	16.030747
2421.000000	15.964091
2422.000000	15.896061
2423.000000	15.833100
2424.000000	15.778542
2425.000000	15.719038
2426.000000	15.639477
2427.000000	15.544254
2428.000000	15.454549
2429.000000	15.356637
2430.000000	15.256518
2431.000000	15.160923
2432.000000	15.067266
2433.000000	14.960917
2434.000000	14.856993
2435.000000	14.758315
2436.000000	14.638177
2437.000000	14.537781
2438.000000	14.424453
2439.000000	14.316665
2440.000000	14.191222
2441.000000	14.094450
2442.000000	13.983909
2443.000000	13.872025
2444.000000	13.765652
2445.000000	13.644666
2446.000000	13.547307
2447.000000	13.437981
2448.000000	13.335923
2449.000000	13.231226
2450.000000	13.124936
2451.000000	13.037563
2452.000000	12.933005
2453.000000	12.853586
2454.000000	12.756975
2455.000000	12.662603
2456.000000	12.581285
2457.000000	12.511017
2458.000000	12.423585
2459.000000	12.367735
2460.000000	12.308633
2461.000000	12.230113
2462.000000	12.166759
2463.000000	12.094251
2464.000000	12.048706
2465.000000	11.978646
2466.000000	11.940623
2467.000000	11.911377
2468.000000	11.844415
2469.000000	11.807380
2470.000000	11.772503
2471.000000	11.755580
2472.000000	11.676301
2473.000000	11.681802
2474.000000	11.626829
2475.000000	11.592736
2476.000000	11.562443
2477.000000	11.531740
2478.000000	11.509698
2479.000000	11.520775
2480.000000	11.476337
2481.000000	11.468500
2482.000000	11.454877
2483.000000	11.446322
2484.000000	11.391063
2485.000000	11.418107
2486.000000	11.411766
2487.000000	11.442359
2488.000000	11.442610
2489.000000	11.425839
2490.000000	11.467826
2491.000000	11.447696
2492.000000	11.454918
2493.000000	11.493997
2494.000000	11.484172
2495.000000	11.451273
2496.000000	11.495919
2497.000000	11.562565
2498.000000	11.503596
2499.000000	11.548610
2500.000000	11.600965
