PE UV       SUBTECH     SPECTRUM    ASCII       PEDS        4.00        
   -1
CICIMAUCR0018-7.Sample.ASC
24/04/25
15:44:01.00
24/04/25
15:44:01.00
Vinicio Soto Monge
C. cupreomarginata
250,000000
1
Lambda 1050
1050L1511233
PerkinElmer UV WinLab 6.3.2.0749 / 2.02.05 Lambda 900 UV/VIS/NIR, Aug  7 2015 09:38:08

0
0
3350/servo 860,8/2
0
0
UV/VIS
1
1
1
DoubleDePol,CommonBeamDepol,RBeamAtt,SBeamAtt,60mm sphere, WB InGaAs Detector
0
0
0
0
Program
Program
3350/servo 860,8/2
3350/0,2 860,8/0,2
3350/0,2 860,8/0,2
0
15.00
 
 
 
0
 
860,8
319,2
860,8
Front
100
on
S:100 R:100
0
0
0
0
 
0
 
 
 
0
 
 
0
0
0
0
0
 
 
 
 
0
0


0
0
#HDR
-1
-1
#GR
nm
%R
1.0
0.0
2500,000000
-1,000000
2251
8
71,516000
5,467700
#DATA
250.000000	5.592312
251.000000	5.580528
252.000000	5.549612
253.000000	5.548089
254.000000	5.492007
255.000000	5.488256
256.000000	5.483776
257.000000	5.482482
258.000000	5.465937
259.000000	5.412885
260.000000	5.402199
261.000000	5.403378
262.000000	5.381951
263.000000	5.318774
264.000000	5.280883
265.000000	5.275222
266.000000	5.255883
267.000000	5.219791
268.000000	5.197925
269.000000	5.169430
270.000000	5.178077
271.000000	5.150755
272.000000	5.102299
273.000000	5.106346
274.000000	5.119497
275.000000	5.062338
276.000000	5.085761
277.000000	5.069194
278.000000	5.059769
279.000000	5.058380
280.000000	5.040570
281.000000	5.012506
282.000000	5.005319
283.000000	5.002814
284.000000	5.013747
285.000000	5.013058
286.000000	4.990415
287.000000	4.982533
288.000000	5.001246
289.000000	4.985873
290.000000	4.964721
291.000000	4.996990
292.000000	4.958355
293.000000	4.933627
294.000000	4.937765
295.000000	4.973314
296.000000	4.952182
297.000000	4.931918
298.000000	4.928687
299.000000	4.929329
300.000000	4.932086
301.000000	4.905596
302.000000	4.898146
303.000000	4.925078
304.000000	4.915466
305.000000	4.932200
306.000000	4.903580
307.000000	4.894673
308.000000	4.902230
309.000000	4.892703
310.000000	4.880386
311.000000	4.881818
312.000000	4.870742
313.000000	4.877050
314.000000	4.845108
315.000000	4.875385
316.000000	4.946642
317.000000	5.787119
318.000000	5.429919
319.000000	5.560460
320.000000	5.637517
321.000000	5.384525
322.000000	5.335972
323.000000	5.429311
324.000000	5.451524
325.000000	5.216905
326.000000	5.211822
327.000000	5.123537
328.000000	5.021286
329.000000	5.076889
330.000000	5.053296
331.000000	4.931260
332.000000	5.052026
333.000000	4.980544
334.000000	5.035999
335.000000	4.980395
336.000000	4.983685
337.000000	4.968723
338.000000	4.953146
339.000000	4.926978
340.000000	4.961217
341.000000	4.928760
342.000000	5.043145
343.000000	4.930224
344.000000	4.965622
345.000000	5.003152
346.000000	4.921407
347.000000	4.908044
348.000000	5.003833
349.000000	4.903188
350.000000	4.925928
351.000000	4.955848
352.000000	4.993309
353.000000	4.950549
354.000000	4.950141
355.000000	4.942830
356.000000	4.961628
357.000000	4.984968
358.000000	4.979401
359.000000	5.015629
360.000000	4.971688
361.000000	4.989523
362.000000	4.979255
363.000000	4.939534
364.000000	4.998753
365.000000	4.956696
366.000000	4.928294
367.000000	5.050273
368.000000	5.065886
369.000000	5.045323
370.000000	4.972794
371.000000	4.991923
372.000000	5.015601
373.000000	4.940693
374.000000	4.819495
375.000000	5.017466
376.000000	5.368164
377.000000	5.388848
378.000000	5.434824
379.000000	5.484162
380.000000	5.541757
381.000000	5.595979
382.000000	5.660948
383.000000	5.738094
384.000000	5.819570
385.000000	5.908247
386.000000	6.002102
387.000000	6.112040
388.000000	6.221719
389.000000	6.332344
390.000000	6.469559
391.000000	6.598498
392.000000	6.747455
393.000000	6.903901
394.000000	7.074488
395.000000	7.239530
396.000000	7.413832
397.000000	7.591508
398.000000	7.780595
399.000000	7.978155
400.000000	8.173814
401.000000	8.371762
402.000000	8.578934
403.000000	8.783947
404.000000	9.000320
405.000000	9.211500
406.000000	9.413640
407.000000	9.618522
408.000000	9.815374
409.000000	10.019430
410.000000	10.232482
411.000000	10.423258
412.000000	10.611322
413.000000	10.796167
414.000000	10.978002
415.000000	11.156629
416.000000	11.324323
417.000000	11.484506
418.000000	11.640982
419.000000	11.795901
420.000000	11.943889
421.000000	12.088276
422.000000	12.231046
423.000000	12.366641
424.000000	12.490475
425.000000	12.612030
426.000000	12.729137
427.000000	12.852593
428.000000	12.970713
429.000000	13.074773
430.000000	13.180081
431.000000	13.281074
432.000000	13.383671
433.000000	13.478428
434.000000	13.560534
435.000000	13.640566
436.000000	13.713614
437.000000	13.781224
438.000000	13.848372
439.000000	13.914794
440.000000	13.965189
441.000000	14.007619
442.000000	14.039922
443.000000	14.049510
444.000000	14.053604
445.000000	14.049863
446.000000	14.035128
447.000000	14.014822
448.000000	13.979063
449.000000	13.945355
450.000000	13.913784
451.000000	13.869169
452.000000	13.831850
453.000000	13.794740
454.000000	13.770307
455.000000	13.753459
456.000000	13.739875
457.000000	13.744505
458.000000	13.755034
459.000000	13.786367
460.000000	13.832845
461.000000	13.897334
462.000000	13.989980
463.000000	14.093351
464.000000	14.216805
465.000000	14.372518
466.000000	14.543875
467.000000	14.731231
468.000000	14.937957
469.000000	15.170813
470.000000	15.430084
471.000000	15.708102
472.000000	16.004383
473.000000	16.311781
474.000000	16.633299
475.000000	16.958577
476.000000	17.286102
477.000000	17.620822
478.000000	17.948482
479.000000	18.266151
480.000000	18.577635
481.000000	18.882030
482.000000	19.175626
483.000000	19.452860
484.000000	19.719686
485.000000	19.954110
486.000000	20.185251
487.000000	20.414562
488.000000	20.634707
489.000000	20.854468
490.000000	21.086081
491.000000	21.322810
492.000000	21.550383
493.000000	21.789064
494.000000	22.044234
495.000000	22.300337
496.000000	22.577132
497.000000	22.867943
498.000000	23.167717
499.000000	23.486027
500.000000	23.816914
501.000000	24.165911
502.000000	24.534783
503.000000	24.919503
504.000000	25.325553
505.000000	25.749429
506.000000	26.181263
507.000000	26.632846
508.000000	27.086566
509.000000	27.577617
510.000000	28.085474
511.000000	28.602647
512.000000	29.146050
513.000000	29.714348
514.000000	30.311035
515.000000	30.896855
516.000000	31.501851
517.000000	32.118239
518.000000	32.748272
519.000000	33.410500
520.000000	34.092366
521.000000	34.803884
522.000000	35.522883
523.000000	36.261163
524.000000	37.021283
525.000000	37.795996
526.000000	38.586118
527.000000	39.399510
528.000000	40.218881
529.000000	41.084769
530.000000	41.971362
531.000000	42.880875
532.000000	43.819772
533.000000	44.771529
534.000000	45.722188
535.000000	46.665885
536.000000	47.604624
537.000000	48.531076
538.000000	49.445630
539.000000	50.354553
540.000000	51.215256
541.000000	52.058949
542.000000	52.870387
543.000000	53.622213
544.000000	54.330001
545.000000	54.994334
546.000000	55.585935
547.000000	56.140528
548.000000	56.623114
549.000000	57.068196
550.000000	57.464413
551.000000	57.825072
552.000000	58.137992
553.000000	58.428770
554.000000	58.692559
555.000000	58.924873
556.000000	59.142246
557.000000	59.364379
558.000000	59.534271
559.000000	59.699528
560.000000	59.898141
561.000000	60.043423
562.000000	60.183976
563.000000	60.308632
564.000000	60.395574
565.000000	60.478244
566.000000	60.523365
567.000000	60.567967
568.000000	60.584653
569.000000	60.598799
570.000000	60.596568
571.000000	60.565193
572.000000	60.532430
573.000000	60.521350
574.000000	60.483404
575.000000	60.427657
576.000000	60.389817
577.000000	60.348935
578.000000	60.311384
579.000000	60.304863
580.000000	60.268574
581.000000	60.237445
582.000000	60.213080
583.000000	60.163673
584.000000	60.132398
585.000000	60.066065
586.000000	60.013027
587.000000	59.951213
588.000000	59.842006
589.000000	59.715187
590.000000	59.570262
591.000000	59.417765
592.000000	59.225262
593.000000	59.024932
594.000000	58.828437
595.000000	58.585828
596.000000	58.377418
597.000000	58.149234
598.000000	57.906316
599.000000	57.678486
600.000000	57.434157
601.000000	57.166904
602.000000	56.906444
603.000000	56.622671
604.000000	56.355970
605.000000	56.041554
606.000000	55.757224
607.000000	55.411847
608.000000	55.070911
609.000000	54.707899
610.000000	54.285698
611.000000	53.832283
612.000000	53.350537
613.000000	52.826201
614.000000	52.276118
615.000000	51.692721
616.000000	51.106470
617.000000	50.473148
618.000000	49.823516
619.000000	49.160789
620.000000	48.510641
621.000000	47.846585
622.000000	47.162382
623.000000	46.520896
624.000000	45.882923
625.000000	45.278679
626.000000	44.688540
627.000000	44.132338
628.000000	43.601718
629.000000	43.107219
630.000000	42.665280
631.000000	42.248235
632.000000	41.903371
633.000000	41.596009
634.000000	41.329564
635.000000	41.147440
636.000000	41.013872
637.000000	40.924882
638.000000	40.905383
639.000000	40.953144
640.000000	41.037845
641.000000	41.192050
642.000000	41.367282
643.000000	41.608453
644.000000	41.886778
645.000000	42.193072
646.000000	42.534476
647.000000	42.893931
648.000000	43.245147
649.000000	43.615837
650.000000	43.989302
651.000000	44.342920
652.000000	44.678791
653.000000	44.984735
654.000000	45.265090
655.000000	45.528786
656.000000	45.763202
657.000000	45.962812
658.000000	46.149796
659.000000	46.304253
660.000000	46.460682
661.000000	46.540796
662.000000	46.642056
663.000000	46.731162
664.000000	46.803057
665.000000	46.853353
666.000000	46.889080
667.000000	46.927085
668.000000	46.978552
669.000000	46.994768
670.000000	46.999382
671.000000	47.013012
672.000000	47.016887
673.000000	47.000574
674.000000	46.993312
675.000000	46.959837
676.000000	46.952878
677.000000	46.906676
678.000000	46.859699
679.000000	46.825654
680.000000	46.802442
681.000000	46.745541
682.000000	46.722248
683.000000	46.696210
684.000000	46.662348
685.000000	46.642966
686.000000	46.678075
687.000000	46.689796
688.000000	46.726762
689.000000	46.776645
690.000000	46.833427
691.000000	46.897689
692.000000	46.953387
693.000000	47.054984
694.000000	47.155009
695.000000	47.270458
696.000000	47.352468
697.000000	47.453335
698.000000	47.554158
699.000000	47.663385
700.000000	47.788234
701.000000	47.886633
702.000000	48.006523
703.000000	48.116495
704.000000	48.218531
705.000000	48.332312
706.000000	48.458721
707.000000	48.586683
708.000000	48.727095
709.000000	48.838726
710.000000	48.943996
711.000000	49.076408
712.000000	49.219496
713.000000	49.336061
714.000000	49.458146
715.000000	49.592524
716.000000	49.726046
717.000000	49.834983
718.000000	49.926989
719.000000	50.054082
720.000000	50.165544
721.000000	50.268670
722.000000	50.386453
723.000000	50.490122
724.000000	50.579594
725.000000	50.678063
726.000000	50.757471
727.000000	50.827354
728.000000	50.887978
729.000000	50.936971
730.000000	51.012839
731.000000	51.085968
732.000000	51.176752
733.000000	51.255749
734.000000	51.320723
735.000000	51.383966
736.000000	51.467020
737.000000	51.554066
738.000000	51.611071
739.000000	51.653427
740.000000	51.725461
741.000000	51.790595
742.000000	51.822766
743.000000	51.862976
744.000000	51.918917
745.000000	51.961195
746.000000	51.990955
747.000000	52.013076
748.000000	52.056719
749.000000	52.104960
750.000000	52.134202
751.000000	52.149788
752.000000	52.177179
753.000000	52.219371
754.000000	52.277132
755.000000	52.336323
756.000000	52.402752
757.000000	52.449983
758.000000	52.499232
759.000000	52.556574
760.000000	52.608607
761.000000	52.685683
762.000000	52.724260
763.000000	52.768873
764.000000	52.844426
765.000000	52.929634
766.000000	52.996458
767.000000	53.052795
768.000000	53.130783
769.000000	53.234490
770.000000	53.299937
771.000000	53.352617
772.000000	53.450604
773.000000	53.555921
774.000000	53.650806
775.000000	53.737637
776.000000	53.814594
777.000000	53.936323
778.000000	54.045789
779.000000	54.132843
780.000000	54.235021
781.000000	54.335878
782.000000	54.441562
783.000000	54.590484
784.000000	54.694914
785.000000	54.780827
786.000000	54.879146
787.000000	54.997540
788.000000	55.096925
789.000000	55.211605
790.000000	55.327641
791.000000	55.427223
792.000000	55.543065
793.000000	55.705598
794.000000	55.800227
795.000000	55.879000
796.000000	55.968251
797.000000	56.097417
798.000000	56.207442
799.000000	56.326102
800.000000	56.463385
801.000000	56.524570
802.000000	56.610226
803.000000	56.732231
804.000000	56.838897
805.000000	56.877191
806.000000	56.992520
807.000000	57.084957
808.000000	57.152225
809.000000	57.221689
810.000000	57.288662
811.000000	57.459741
812.000000	57.509946
813.000000	57.529668
814.000000	57.588019
815.000000	57.616923
816.000000	57.734102
817.000000	57.854679
818.000000	57.834689
819.000000	57.849740
820.000000	57.948173
821.000000	57.940469
822.000000	57.996305
823.000000	58.014159
824.000000	58.084465
825.000000	58.169189
826.000000	58.164319
827.000000	58.180397
828.000000	58.162718
829.000000	58.184122
830.000000	58.249929
831.000000	58.302577
832.000000	58.355348
833.000000	58.383732
834.000000	58.402664
835.000000	58.407141
836.000000	58.365501
837.000000	58.484721
838.000000	58.395063
839.000000	58.496637
840.000000	58.544381
841.000000	58.491751
842.000000	58.485019
843.000000	58.550365
844.000000	58.567935
845.000000	58.597320
846.000000	58.542497
847.000000	58.514991
848.000000	58.379670
849.000000	58.529322
850.000000	58.367982
851.000000	58.294908
852.000000	58.349196
853.000000	58.136351
854.000000	58.101914
855.000000	58.195107
856.000000	58.163660
857.000000	58.414250
858.000000	59.651525
859.000000	58.144475
860.000000	58.091750
861.000000	58.044775
862.000000	58.000950
863.000000	57.940650
864.000000	57.869400
865.000000	57.807975
866.000000	57.829475
867.000000	58.022900
868.000000	58.339750
869.000000	58.704300
870.000000	59.105550
871.000000	59.499625
872.000000	59.875850
873.000000	60.176450
874.000000	60.440075
875.000000	60.717550
876.000000	60.949850
877.000000	61.147625
878.000000	61.338750
879.000000	61.528800
880.000000	61.697650
881.000000	61.829400
882.000000	61.974275
883.000000	62.097200
884.000000	62.200975
885.000000	62.335200
886.000000	62.441725
887.000000	62.526175
888.000000	62.567225
889.000000	62.611200
890.000000	62.648000
891.000000	62.687225
892.000000	62.681550
893.000000	62.703450
894.000000	62.712325
895.000000	62.678075
896.000000	62.640000
897.000000	62.598150
898.000000	62.554850
899.000000	62.498450
900.000000	62.430225
901.000000	62.397650
902.000000	62.344075
903.000000	62.261400
904.000000	62.180125
905.000000	62.094550
906.000000	62.016100
907.000000	61.935200
908.000000	61.878200
909.000000	61.807175
910.000000	61.765075
911.000000	61.688375
912.000000	61.643375
913.000000	61.584200
914.000000	61.530550
915.000000	61.486375
916.000000	61.445450
917.000000	61.403250
918.000000	61.368500
919.000000	61.319150
920.000000	61.267675
921.000000	61.222550
922.000000	61.180750
923.000000	61.099250
924.000000	61.045825
925.000000	60.992625
926.000000	60.940125
927.000000	60.879475
928.000000	60.839050
929.000000	60.758925
930.000000	60.703425
931.000000	60.639775
932.000000	60.561725
933.000000	60.510500
934.000000	60.454825
935.000000	60.398025
936.000000	60.314750
937.000000	60.248750
938.000000	60.197600
939.000000	60.143700
940.000000	60.092025
941.000000	60.041425
942.000000	59.976200
943.000000	59.923700
944.000000	59.862550
945.000000	59.798475
946.000000	59.742600
947.000000	59.671375
948.000000	59.583400
949.000000	59.520575
950.000000	59.440675
951.000000	59.372525
952.000000	59.282475
953.000000	59.191675
954.000000	59.109450
955.000000	59.024925
956.000000	58.931500
957.000000	58.835750
958.000000	58.736200
959.000000	58.641425
960.000000	58.533400
961.000000	58.420675
962.000000	58.328000
963.000000	58.225850
964.000000	58.126100
965.000000	58.024750
966.000000	57.915475
967.000000	57.831100
968.000000	57.742475
969.000000	57.647125
970.000000	57.559925
971.000000	57.462250
972.000000	57.378575
973.000000	57.291875
974.000000	57.201750
975.000000	57.118575
976.000000	57.043825
977.000000	56.964875
978.000000	56.883925
979.000000	56.818825
980.000000	56.739100
981.000000	56.673500
982.000000	56.608600
983.000000	56.537650
984.000000	56.474600
985.000000	56.414125
986.000000	56.350950
987.000000	56.297950
988.000000	56.244525
989.000000	56.189625
990.000000	56.143475
991.000000	56.095625
992.000000	56.053850
993.000000	56.011450
994.000000	55.974825
995.000000	55.935300
996.000000	55.901525
997.000000	55.863275
998.000000	55.831200
999.000000	55.809050
1000.000000	55.780025
1001.000000	55.740650
1002.000000	55.712650
1003.000000	55.685875
1004.000000	55.657475
1005.000000	55.631675
1006.000000	55.598025
1007.000000	55.562800
1008.000000	55.535750
1009.000000	55.500550
1010.000000	55.468475
1011.000000	55.440175
1012.000000	55.412625
1013.000000	55.387600
1014.000000	55.368100
1015.000000	55.355925
1016.000000	55.347250
1017.000000	55.341325
1018.000000	55.343375
1019.000000	55.349675
1020.000000	55.356025
1021.000000	55.370575
1022.000000	55.378250
1023.000000	55.385975
1024.000000	55.392675
1025.000000	55.400400
1026.000000	55.422775
1027.000000	55.434975
1028.000000	55.436050
1029.000000	55.446300
1030.000000	55.453750
1031.000000	55.452325
1032.000000	55.450900
1033.000000	55.451325
1034.000000	55.460125
1035.000000	55.461550
1036.000000	55.456325
1037.000000	55.455375
1038.000000	55.453000
1039.000000	55.446350
1040.000000	55.440250
1041.000000	55.434750
1042.000000	55.430325
1043.000000	55.421000
1044.000000	55.411350
1045.000000	55.416000
1046.000000	55.412950
1047.000000	55.407525
1048.000000	55.409875
1049.000000	55.415300
1050.000000	55.421150
1051.000000	55.419100
1052.000000	55.427500
1053.000000	55.439650
1054.000000	55.457525
1055.000000	55.481325
1056.000000	55.494975
1057.000000	55.513525
1058.000000	55.540750
1059.000000	55.569025
1060.000000	55.592200
1061.000000	55.621000
1062.000000	55.641075
1063.000000	55.670375
1064.000000	55.699050
1065.000000	55.720200
1066.000000	55.745625
1067.000000	55.766450
1068.000000	55.789275
1069.000000	55.823450
1070.000000	55.843725
1071.000000	55.870725
1072.000000	55.901450
1073.000000	55.931950
1074.000000	55.962900
1075.000000	55.988175
1076.000000	56.020200
1077.000000	56.049450
1078.000000	56.080850
1079.000000	56.107325
1080.000000	56.132925
1081.000000	56.164800
1082.000000	56.204650
1083.000000	56.234750
1084.000000	56.262450
1085.000000	56.301350
1086.000000	56.335800
1087.000000	56.368975
1088.000000	56.400650
1089.000000	56.429275
1090.000000	56.455950
1091.000000	56.484975
1092.000000	56.516925
1093.000000	56.538475
1094.000000	56.564625
1095.000000	56.579600
1096.000000	56.598625
1097.000000	56.619300
1098.000000	56.638375
1099.000000	56.659525
1100.000000	56.668300
1101.000000	56.684725
1102.000000	56.696125
1103.000000	56.697625
1104.000000	56.702975
1105.000000	56.712375
1106.000000	56.711025
1107.000000	56.714700
1108.000000	56.710300
1109.000000	56.717025
1110.000000	56.715575
1111.000000	56.715600
1112.000000	56.717900
1113.000000	56.717750
1114.000000	56.716675
1115.000000	56.717425
1116.000000	56.715450
1117.000000	56.717075
1118.000000	56.705625
1119.000000	56.694625
1120.000000	56.665000
1121.000000	56.639700
1122.000000	56.605450
1123.000000	56.558100
1124.000000	56.500725
1125.000000	56.430875
1126.000000	56.354375
1127.000000	56.272100
1128.000000	56.170175
1129.000000	56.052925
1130.000000	55.892800
1131.000000	55.706250
1132.000000	55.499925
1133.000000	55.288825
1134.000000	55.066875
1135.000000	54.808025
1136.000000	54.504375
1137.000000	54.190175
1138.000000	53.869650
1139.000000	53.567225
1140.000000	53.277900
1141.000000	53.002075
1142.000000	52.719150
1143.000000	52.448125
1144.000000	52.198000
1145.000000	51.964825
1146.000000	51.780950
1147.000000	51.657500
1148.000000	51.572225
1149.000000	51.530425
1150.000000	51.514025
1151.000000	51.498900
1152.000000	51.476125
1153.000000	51.448025
1154.000000	51.377025
1155.000000	51.270575
1156.000000	51.108050
1157.000000	50.925075
1158.000000	50.691500
1159.000000	50.427525
1160.000000	50.135950
1161.000000	49.851075
1162.000000	49.526525
1163.000000	49.218225
1164.000000	48.886925
1165.000000	48.552650
1166.000000	48.225975
1167.000000	47.891025
1168.000000	47.572475
1169.000000	47.260400
1170.000000	46.941725
1171.000000	46.624075
1172.000000	46.312350
1173.000000	46.007775
1174.000000	45.714000
1175.000000	45.441850
1176.000000	45.154025
1177.000000	44.859425
1178.000000	44.544600
1179.000000	44.163575
1180.000000	43.751525
1181.000000	43.295125
1182.000000	42.831525
1183.000000	42.402475
1184.000000	42.026575
1185.000000	41.771050
1186.000000	41.626525
1187.000000	41.598350
1188.000000	41.671125
1189.000000	41.874650
1190.000000	42.166225
1191.000000	42.534200
1192.000000	42.927000
1193.000000	43.324500
1194.000000	43.672375
1195.000000	43.984175
1196.000000	44.220825
1197.000000	44.420275
1198.000000	44.561875
1199.000000	44.672075
1200.000000	44.752325
1201.000000	44.804600
1202.000000	44.842250
1203.000000	44.868425
1204.000000	44.899050
1205.000000	44.923375
1206.000000	44.959225
1207.000000	45.000250
1208.000000	45.068450
1209.000000	45.137100
1210.000000	45.221875
1211.000000	45.317925
1212.000000	45.416775
1213.000000	45.518850
1214.000000	45.619975
1215.000000	45.732650
1216.000000	45.854100
1217.000000	45.966975
1218.000000	46.083700
1219.000000	46.218225
1220.000000	46.351900
1221.000000	46.492575
1222.000000	46.632050
1223.000000	46.781875
1224.000000	46.925375
1225.000000	47.080725
1226.000000	47.242950
1227.000000	47.392075
1228.000000	47.540700
1229.000000	47.700175
1230.000000	47.849850
1231.000000	47.997750
1232.000000	48.144575
1233.000000	48.301150
1234.000000	48.438875
1235.000000	48.575250
1236.000000	48.714775
1237.000000	48.856175
1238.000000	48.982000
1239.000000	49.104250
1240.000000	49.229750
1241.000000	49.345550
1242.000000	49.460725
1243.000000	49.585950
1244.000000	49.697175
1245.000000	49.809200
1246.000000	49.903525
1247.000000	49.999700
1248.000000	50.095125
1249.000000	50.172625
1250.000000	50.245850
1251.000000	50.313750
1252.000000	50.382475
1253.000000	50.440150
1254.000000	50.492750
1255.000000	50.537175
1256.000000	50.581450
1257.000000	50.628950
1258.000000	50.671300
1259.000000	50.703625
1260.000000	50.737700
1261.000000	50.773050
1262.000000	50.799750
1263.000000	50.824625
1264.000000	50.855175
1265.000000	50.883775
1266.000000	50.916425
1267.000000	50.946425
1268.000000	50.966500
1269.000000	50.990000
1270.000000	51.015375
1271.000000	51.034800
1272.000000	51.058450
1273.000000	51.077750
1274.000000	51.099400
1275.000000	51.126475
1276.000000	51.153475
1277.000000	51.184325
1278.000000	51.215775
1279.000000	51.254075
1280.000000	51.296675
1281.000000	51.337650
1282.000000	51.377025
1283.000000	51.423100
1284.000000	51.471525
1285.000000	51.518725
1286.000000	51.563300
1287.000000	51.605675
1288.000000	51.640500
1289.000000	51.670775
1290.000000	51.695825
1291.000000	51.717650
1292.000000	51.742550
1293.000000	51.758625
1294.000000	51.772125
1295.000000	51.781750
1296.000000	51.776950
1297.000000	51.778825
1298.000000	51.781425
1299.000000	51.778800
1300.000000	51.771550
1301.000000	51.760650
1302.000000	51.755200
1303.000000	51.747175
1304.000000	51.730925
1305.000000	51.714650
1306.000000	51.694100
1307.000000	51.668200
1308.000000	51.639425
1309.000000	51.605525
1310.000000	51.561825
1311.000000	51.517450
1312.000000	51.469500
1313.000000	51.414925
1314.000000	51.353675
1315.000000	51.286600
1316.000000	51.219125
1317.000000	51.155650
1318.000000	51.084275
1319.000000	51.004525
1320.000000	50.930025
1321.000000	50.849475
1322.000000	50.762725
1323.000000	50.679125
1324.000000	50.589725
1325.000000	50.488175
1326.000000	50.382000
1327.000000	50.277100
1328.000000	50.167725
1329.000000	50.049900
1330.000000	49.923350
1331.000000	49.791275
1332.000000	49.648850
1333.000000	49.494975
1334.000000	49.336950
1335.000000	49.174400
1336.000000	49.002925
1337.000000	48.824025
1338.000000	48.632575
1339.000000	48.430050
1340.000000	48.224600
1341.000000	48.003975
1342.000000	47.769225
1343.000000	47.532150
1344.000000	47.286375
1345.000000	47.015275
1346.000000	46.733100
1347.000000	46.445800
1348.000000	46.147350
1349.000000	45.815450
1350.000000	45.454000
1351.000000	45.060750
1352.000000	44.620825
1353.000000	44.141225
1354.000000	43.701425
1355.000000	43.299300
1356.000000	42.917150
1357.000000	42.615975
1358.000000	42.428850
1359.000000	42.312850
1360.000000	42.228625
1361.000000	42.205675
1362.000000	42.130025
1363.000000	41.999975
1364.000000	41.843475
1365.000000	41.696025
1366.000000	41.515225
1367.000000	41.331075
1368.000000	41.128025
1369.000000	40.881725
1370.000000	40.602075
1371.000000	40.326250
1372.000000	40.020675
1373.000000	39.685275
1374.000000	39.382600
1375.000000	39.114075
1376.000000	38.915825
1377.000000	38.768925
1378.000000	38.653925
1379.000000	38.562475
1380.000000	38.461575
1381.000000	38.341225
1382.000000	38.146825
1383.000000	37.854400
1384.000000	37.480450
1385.000000	37.080500
1386.000000	36.682350
1387.000000	36.326800
1388.000000	36.017150
1389.000000	35.714200
1390.000000	35.415700
1391.000000	35.195725
1392.000000	35.006900
1393.000000	34.803725
1394.000000	34.621925
1395.000000	34.471950
1396.000000	34.300375
1397.000000	34.048800
1398.000000	33.786175
1399.000000	33.556450
1400.000000	33.361425
1401.000000	33.062775
1402.000000	32.709625
1403.000000	32.324300
1404.000000	31.986450
1405.000000	31.642600
1406.000000	31.291275
1407.000000	30.919250
1408.000000	30.584125
1409.000000	30.236675
1410.000000	29.923700
1411.000000	29.590925
1412.000000	29.286475
1413.000000	29.055850
1414.000000	28.846800
1415.000000	28.628575
1416.000000	28.353175
1417.000000	28.094025
1418.000000	27.879350
1419.000000	27.673325
1420.000000	27.448100
1421.000000	27.201450
1422.000000	26.959925
1423.000000	26.744800
1424.000000	26.543375
1425.000000	26.318800
1426.000000	26.116500
1427.000000	25.900525
1428.000000	25.725250
1429.000000	25.550625
1430.000000	25.368100
1431.000000	25.214650
1432.000000	25.085175
1433.000000	24.960650
1434.000000	24.805700
1435.000000	24.673900
1436.000000	24.536275
1437.000000	24.419300
1438.000000	24.304725
1439.000000	24.183150
1440.000000	24.062800
1441.000000	23.939125
1442.000000	23.823650
1443.000000	23.699600
1444.000000	23.574700
1445.000000	23.472250
1446.000000	23.378700
1447.000000	23.263300
1448.000000	23.143100
1449.000000	23.015150
1450.000000	22.931475
1451.000000	22.846025
1452.000000	22.751125
1453.000000	22.659650
1454.000000	22.556275
1455.000000	22.476500
1456.000000	22.396675
1457.000000	22.308750
1458.000000	22.228600
1459.000000	22.151625
1460.000000	22.088125
1461.000000	22.035400
1462.000000	21.975075
1463.000000	21.904125
1464.000000	21.838050
1465.000000	21.794000
1466.000000	21.773475
1467.000000	21.735925
1468.000000	21.695050
1469.000000	21.666500
1470.000000	21.651175
1471.000000	21.631625
1472.000000	21.620175
1473.000000	21.599925
1474.000000	21.571625
1475.000000	21.544875
1476.000000	21.516550
1477.000000	21.498850
1478.000000	21.489800
1479.000000	21.477050
1480.000000	21.460125
1481.000000	21.448075
1482.000000	21.450550
1483.000000	21.432575
1484.000000	21.428850
1485.000000	21.425800
1486.000000	21.431175
1487.000000	21.438700
1488.000000	21.438400
1489.000000	21.441025
1490.000000	21.453200
1491.000000	21.457100
1492.000000	21.463975
1493.000000	21.462375
1494.000000	21.477125
1495.000000	21.493400
1496.000000	21.507275
1497.000000	21.523100
1498.000000	21.536750
1499.000000	21.562550
1500.000000	21.588900
1501.000000	21.615425
1502.000000	21.639500
1503.000000	21.667075
1504.000000	21.701075
1505.000000	21.728450
1506.000000	21.766075
1507.000000	21.794800
1508.000000	21.834225
1509.000000	21.870600
1510.000000	21.902025
1511.000000	21.935000
1512.000000	21.965450
1513.000000	22.001150
1514.000000	22.032050
1515.000000	22.061700
1516.000000	22.098300
1517.000000	22.119825
1518.000000	22.145925
1519.000000	22.180125
1520.000000	22.205300
1521.000000	22.234400
1522.000000	22.264975
1523.000000	22.289400
1524.000000	22.312200
1525.000000	22.335800
1526.000000	22.357900
1527.000000	22.376950
1528.000000	22.402450
1529.000000	22.424750
1530.000000	22.440250
1531.000000	22.456650
1532.000000	22.465575
1533.000000	22.482950
1534.000000	22.492500
1535.000000	22.500350
1536.000000	22.514725
1537.000000	22.518200
1538.000000	22.512225
1539.000000	22.518625
1540.000000	22.521975
1541.000000	22.521450
1542.000000	22.526500
1543.000000	22.526925
1544.000000	22.528075
1545.000000	22.533450
1546.000000	22.541750
1547.000000	22.545000
1548.000000	22.548675
1549.000000	22.560900
1550.000000	22.571625
1551.000000	22.574800
1552.000000	22.580075
1553.000000	22.587875
1554.000000	22.588225
1555.000000	22.586150
1556.000000	22.581250
1557.000000	22.577900
1558.000000	22.572550
1559.000000	22.557575
1560.000000	22.543100
1561.000000	22.528825
1562.000000	22.504250
1563.000000	22.478650
1564.000000	22.462400
1565.000000	22.436875
1566.000000	22.409775
1567.000000	22.390900
1568.000000	22.366000
1569.000000	22.340400
1570.000000	22.313250
1571.000000	22.295950
1572.000000	22.281750
1573.000000	22.265925
1574.000000	22.253275
1575.000000	22.236400
1576.000000	22.229800
1577.000000	22.224650
1578.000000	22.228900
1579.000000	22.240325
1580.000000	22.238925
1581.000000	22.248850
1582.000000	22.269175
1583.000000	22.287300
1584.000000	22.314025
1585.000000	22.341275
1586.000000	22.363050
1587.000000	22.393350
1588.000000	22.420400
1589.000000	22.451500
1590.000000	22.486550
1591.000000	22.529500
1592.000000	22.567000
1593.000000	22.603300
1594.000000	22.648325
1595.000000	22.693525
1596.000000	22.743525
1597.000000	22.788500
1598.000000	22.844025
1599.000000	22.908125
1600.000000	22.962725
1601.000000	23.024775
1602.000000	23.085150
1603.000000	23.142975
1604.000000	23.210550
1605.000000	23.277175
1606.000000	23.342675
1607.000000	23.409700
1608.000000	23.474725
1609.000000	23.536950
1610.000000	23.606700
1611.000000	23.669525
1612.000000	23.729325
1613.000000	23.793475
1614.000000	23.859175
1615.000000	23.940025
1616.000000	24.011025
1617.000000	24.083950
1618.000000	24.150050
1619.000000	24.235900
1620.000000	24.309175
1621.000000	24.382925
1622.000000	24.453725
1623.000000	24.531700
1624.000000	24.620150
1625.000000	24.686400
1626.000000	24.766900
1627.000000	24.855100
1628.000000	24.933275
1629.000000	25.015450
1630.000000	25.098200
1631.000000	25.176075
1632.000000	25.247125
1633.000000	25.326775
1634.000000	25.408975
1635.000000	25.480425
1636.000000	25.547400
1637.000000	25.620925
1638.000000	25.687500
1639.000000	25.754375
1640.000000	25.822450
1641.000000	25.882850
1642.000000	25.937375
1643.000000	26.005000
1644.000000	26.059150
1645.000000	26.123600
1646.000000	26.171350
1647.000000	26.227150
1648.000000	26.275600
1649.000000	26.329100
1650.000000	26.375575
1651.000000	26.408650
1652.000000	26.436325
1653.000000	26.460475
1654.000000	26.480025
1655.000000	26.499325
1656.000000	26.503475
1657.000000	26.502475
1658.000000	26.494650
1659.000000	26.481625
1660.000000	26.454500
1661.000000	26.423275
1662.000000	26.381600
1663.000000	26.328800
1664.000000	26.271425
1665.000000	26.198850
1666.000000	26.120200
1667.000000	26.031800
1668.000000	25.914350
1669.000000	25.783575
1670.000000	25.632625
1671.000000	25.451650
1672.000000	25.247525
1673.000000	25.020600
1674.000000	24.760075
1675.000000	24.437250
1676.000000	24.085075
1677.000000	23.685275
1678.000000	23.218225
1679.000000	22.729100
1680.000000	22.218700
1681.000000	21.746350
1682.000000	21.310125
1683.000000	20.980400
1684.000000	20.755900
1685.000000	20.627675
1686.000000	20.586650
1687.000000	20.568300
1688.000000	20.542350
1689.000000	20.488475
1690.000000	20.394275
1691.000000	20.263775
1692.000000	20.117175
1693.000000	19.975525
1694.000000	19.871300
1695.000000	19.796175
1696.000000	19.776675
1697.000000	19.818175
1698.000000	19.907175
1699.000000	20.030625
1700.000000	20.158750
1701.000000	20.304175
1702.000000	20.431550
1703.000000	20.539475
1704.000000	20.621275
1705.000000	20.676525
1706.000000	20.735075
1707.000000	20.764425
1708.000000	20.786700
1709.000000	20.798950
1710.000000	20.806225
1711.000000	20.802725
1712.000000	20.770950
1713.000000	20.731925
1714.000000	20.683475
1715.000000	20.621700
1716.000000	20.552250
1717.000000	20.497225
1718.000000	20.444700
1719.000000	20.403775
1720.000000	20.382150
1721.000000	20.346250
1722.000000	20.337650
1723.000000	20.308850
1724.000000	20.281700
1725.000000	20.231225
1726.000000	20.158600
1727.000000	20.082150
1728.000000	19.975550
1729.000000	19.866550
1730.000000	19.758675
1731.000000	19.666700
1732.000000	19.574775
1733.000000	19.522775
1734.000000	19.501650
1735.000000	19.505750
1736.000000	19.572375
1737.000000	19.673300
1738.000000	19.812725
1739.000000	19.993025
1740.000000	20.192425
1741.000000	20.388400
1742.000000	20.584025
1743.000000	20.774275
1744.000000	20.948575
1745.000000	21.088800
1746.000000	21.210550
1747.000000	21.310150
1748.000000	21.402125
1749.000000	21.479300
1750.000000	21.536100
1751.000000	21.570750
1752.000000	21.610900
1753.000000	21.627825
1754.000000	21.628450
1755.000000	21.614475
1756.000000	21.583000
1757.000000	21.535600
1758.000000	21.490350
1759.000000	21.426225
1760.000000	21.358550
1761.000000	21.300950
1762.000000	21.267550
1763.000000	21.239475
1764.000000	21.245450
1765.000000	21.274750
1766.000000	21.323250
1767.000000	21.400150
1768.000000	21.493900
1769.000000	21.595500
1770.000000	21.707275
1771.000000	21.823300
1772.000000	21.943925
1773.000000	22.067975
1774.000000	22.179075
1775.000000	22.291050
1776.000000	22.406850
1777.000000	22.505525
1778.000000	22.596275
1779.000000	22.680525
1780.000000	22.769475
1781.000000	22.853725
1782.000000	22.920575
1783.000000	22.992400
1784.000000	23.065275
1785.000000	23.135925
1786.000000	23.205975
1787.000000	23.279775
1788.000000	23.342550
1789.000000	23.403575
1790.000000	23.459700
1791.000000	23.507025
1792.000000	23.565750
1793.000000	23.618025
1794.000000	23.663750
1795.000000	23.713550
1796.000000	23.763000
1797.000000	23.803400
1798.000000	23.840000
1799.000000	23.876425
1800.000000	23.926300
1801.000000	23.985925
1802.000000	24.048625
1803.000000	24.093675
1804.000000	24.125875
1805.000000	24.164725
1806.000000	24.218275
1807.000000	24.275325
1808.000000	24.318450
1809.000000	24.346800
1810.000000	24.381475
1811.000000	24.431250
1812.000000	24.467450
1813.000000	24.487575
1814.000000	24.498000
1815.000000	24.508600
1816.000000	24.529950
1817.000000	24.534675
1818.000000	24.538400
1819.000000	24.557925
1820.000000	24.594875
1821.000000	24.642925
1822.000000	24.683825
1823.000000	24.698275
1824.000000	24.702600
1825.000000	24.735250
1826.000000	24.794300
1827.000000	24.865950
1828.000000	24.943725
1829.000000	25.033500
1830.000000	25.119675
1831.000000	25.203100
1832.000000	25.278075
1833.000000	25.333050
1834.000000	25.393575
1835.000000	25.469400
1836.000000	25.546075
1837.000000	25.623250
1838.000000	25.688625
1839.000000	25.735000
1840.000000	25.785200
1841.000000	25.843100
1842.000000	25.895600
1843.000000	25.920275
1844.000000	25.914250
1845.000000	25.921300
1846.000000	25.959625
1847.000000	26.044850
1848.000000	26.146650
1849.000000	26.226925
1850.000000	26.276000
1851.000000	26.300825
1852.000000	26.315200
1853.000000	26.348575
1854.000000	26.410950
1855.000000	26.456050
1856.000000	26.472650
1857.000000	26.479875
1858.000000	26.484650
1859.000000	26.474800
1860.000000	26.459450
1861.000000	26.426800
1862.000000	26.371050
1863.000000	26.295200
1864.000000	26.216450
1865.000000	26.135725
1866.000000	26.040975
1867.000000	25.944875
1868.000000	25.840950
1869.000000	25.706375
1870.000000	25.523225
1871.000000	25.328200
1872.000000	25.102100
1873.000000	24.846025
1874.000000	24.558675
1875.000000	24.238800
1876.000000	23.903375
1877.000000	23.559750
1878.000000	23.184950
1879.000000	22.780900
1880.000000	22.356050
1881.000000	21.938950
1882.000000	21.501975
1883.000000	21.069600
1884.000000	20.656325
1885.000000	20.250175
1886.000000	19.850550
1887.000000	19.507425
1888.000000	19.184750
1889.000000	18.880750
1890.000000	18.604025
1891.000000	18.341025
1892.000000	18.086600
1893.000000	17.811750
1894.000000	17.555875
1895.000000	17.313125
1896.000000	17.070525
1897.000000	16.854875
1898.000000	16.634475
1899.000000	16.395600
1900.000000	16.177925
1901.000000	15.946350
1902.000000	15.720325
1903.000000	15.515425
1904.000000	15.318125
1905.000000	15.124225
1906.000000	14.925200
1907.000000	14.726150
1908.000000	14.531450
1909.000000	14.354450
1910.000000	14.188675
1911.000000	14.028450
1912.000000	13.872025
1913.000000	13.714900
1914.000000	13.571750
1915.000000	13.406950
1916.000000	13.258775
1917.000000	13.134750
1918.000000	12.991825
1919.000000	12.856075
1920.000000	12.751250
1921.000000	12.635825
1922.000000	12.517950
1923.000000	12.424225
1924.000000	12.318875
1925.000000	12.242450
1926.000000	12.150775
1927.000000	12.083275
1928.000000	12.012975
1929.000000	11.937100
1930.000000	11.882050
1931.000000	11.828525
1932.000000	11.791625
1933.000000	11.739600
1934.000000	11.698250
1935.000000	11.661300
1936.000000	11.648000
1937.000000	11.623825
1938.000000	11.608400
1939.000000	11.616875
1940.000000	11.619450
1941.000000	11.615350
1942.000000	11.622275
1943.000000	11.622000
1944.000000	11.631825
1945.000000	11.656375
1946.000000	11.676325
1947.000000	11.708200
1948.000000	11.738675
1949.000000	11.753950
1950.000000	11.796650
1951.000000	11.822825
1952.000000	11.857350
1953.000000	11.896300
1954.000000	11.933700
1955.000000	11.979025
1956.000000	12.020325
1957.000000	12.069725
1958.000000	12.105350
1959.000000	12.144525
1960.000000	12.188200
1961.000000	12.228200
1962.000000	12.276100
1963.000000	12.326575
1964.000000	12.362650
1965.000000	12.402425
1966.000000	12.453450
1967.000000	12.499175
1968.000000	12.538400
1969.000000	12.577375
1970.000000	12.636200
1971.000000	12.676625
1972.000000	12.723450
1973.000000	12.774125
1974.000000	12.830175
1975.000000	12.874625
1976.000000	12.922475
1977.000000	12.973775
1978.000000	13.023325
1979.000000	13.080850
1980.000000	13.132525
1981.000000	13.190275
1982.000000	13.239525
1983.000000	13.303750
1984.000000	13.344550
1985.000000	13.394725
1986.000000	13.449600
1987.000000	13.503850
1988.000000	13.548250
1989.000000	13.602575
1990.000000	13.651950
1991.000000	13.701000
1992.000000	13.741050
1993.000000	13.785550
1994.000000	13.830000
1995.000000	13.866400
1996.000000	13.898300
1997.000000	13.932850
1998.000000	13.969750
1999.000000	13.999825
2000.000000	14.023625
2001.000000	14.051575
2002.000000	14.075150
2003.000000	14.098050
2004.000000	14.110675
2005.000000	14.129025
2006.000000	14.133925
2007.000000	14.143400
2008.000000	14.138625
2009.000000	14.149850
2010.000000	14.150250
2011.000000	14.146225
2012.000000	14.139700
2013.000000	14.132725
2014.000000	14.117750
2015.000000	14.102825
2016.000000	14.094225
2017.000000	14.058000
2018.000000	14.039150
2019.000000	14.006525
2020.000000	13.969850
2021.000000	13.943725
2022.000000	13.907850
2023.000000	13.862350
2024.000000	13.825000
2025.000000	13.789075
2026.000000	13.747525
2027.000000	13.705125
2028.000000	13.647775
2029.000000	13.604400
2030.000000	13.547375
2031.000000	13.491800
2032.000000	13.434050
2033.000000	13.370325
2034.000000	13.313500
2035.000000	13.230875
2036.000000	13.160000
2037.000000	13.086400
2038.000000	13.005550
2039.000000	12.917225
2040.000000	12.843275
2041.000000	12.755000
2042.000000	12.660950
2043.000000	12.575525
2044.000000	12.488450
2045.000000	12.407850
2046.000000	12.324050
2047.000000	12.243075
2048.000000	12.156150
2049.000000	12.092625
2050.000000	12.028300
2051.000000	11.976800
2052.000000	11.930000
2053.000000	11.881250
2054.000000	11.845950
2055.000000	11.813175
2056.000000	11.796775
2057.000000	11.783075
2058.000000	11.778600
2059.000000	11.771800
2060.000000	11.766875
2061.000000	11.778700
2062.000000	11.792600
2063.000000	11.809850
2064.000000	11.828575
2065.000000	11.852650
2066.000000	11.871975
2067.000000	11.895075
2068.000000	11.922950
2069.000000	11.939475
2070.000000	11.965750
2071.000000	11.991550
2072.000000	12.019000
2073.000000	12.041350
2074.000000	12.063325
2075.000000	12.090050
2076.000000	12.111425
2077.000000	12.128375
2078.000000	12.159300
2079.000000	12.182850
2080.000000	12.193325
2081.000000	12.215075
2082.000000	12.234900
2083.000000	12.257450
2084.000000	12.282075
2085.000000	12.295600
2086.000000	12.308325
2087.000000	12.330125
2088.000000	12.343875
2089.000000	12.353575
2090.000000	12.373800
2091.000000	12.379725
2092.000000	12.390750
2093.000000	12.412575
2094.000000	12.427300
2095.000000	12.439925
2096.000000	12.464300
2097.000000	12.481075
2098.000000	12.492650
2099.000000	12.521850
2100.000000	12.544000
2101.000000	12.566850
2102.000000	12.590300
2103.000000	12.612425
2104.000000	12.636425
2105.000000	12.657700
2106.000000	12.681600
2107.000000	12.707300
2108.000000	12.728075
2109.000000	12.750850
2110.000000	12.779250
2111.000000	12.806500
2112.000000	12.829375
2113.000000	12.847800
2114.000000	12.871175
2115.000000	12.885450
2116.000000	12.898650
2117.000000	12.929325
2118.000000	12.951525
2119.000000	12.966650
2120.000000	12.991825
2121.000000	13.004325
2122.000000	13.016175
2123.000000	13.032000
2124.000000	13.038100
2125.000000	13.051725
2126.000000	13.059000
2127.000000	13.062175
2128.000000	13.066225
2129.000000	13.071975
2130.000000	13.067150
2131.000000	13.062400
2132.000000	13.064350
2133.000000	13.060825
2134.000000	13.048575
2135.000000	13.034150
2136.000000	13.027300
2137.000000	13.020350
2138.000000	13.003525
2139.000000	12.975100
2140.000000	12.948975
2141.000000	12.935125
2142.000000	12.914100
2143.000000	12.896525
2144.000000	12.873925
2145.000000	12.848350
2146.000000	12.826775
2147.000000	12.800650
2148.000000	12.776375
2149.000000	12.752600
2150.000000	12.728250
2151.000000	12.696525
2152.000000	12.666850
2153.000000	12.638825
2154.000000	12.609350
2155.000000	12.582275
2156.000000	12.554225
2157.000000	12.522625
2158.000000	12.502925
2159.000000	12.485200
2160.000000	12.472775
2161.000000	12.455950
2162.000000	12.428650
2163.000000	12.417450
2164.000000	12.399850
2165.000000	12.384025
2166.000000	12.373275
2167.000000	12.358450
2168.000000	12.350675
2169.000000	12.342900
2170.000000	12.330675
2171.000000	12.321500
2172.000000	12.322250
2173.000000	12.326775
2174.000000	12.324950
2175.000000	12.320625
2176.000000	12.316550
2177.000000	12.324400
2178.000000	12.327200
2179.000000	12.338075
2180.000000	12.348150
2181.000000	12.357300
2182.000000	12.374925
2183.000000	12.377625
2184.000000	12.398300
2185.000000	12.410925
2186.000000	12.419400
2187.000000	12.431700
2188.000000	12.449725
2189.000000	12.453500
2190.000000	12.451975
2191.000000	12.465875
2192.000000	12.474325
2193.000000	12.481050
2194.000000	12.498000
2195.000000	12.497725
2196.000000	12.491175
2197.000000	12.508125
2198.000000	12.511575
2199.000000	12.519175
2200.000000	12.530925
2201.000000	12.542900
2202.000000	12.551750
2203.000000	12.556700
2204.000000	12.565675
2205.000000	12.573875
2206.000000	12.589550
2207.000000	12.605775
2208.000000	12.620300
2209.000000	12.616125
2210.000000	12.636425
2211.000000	12.663425
2212.000000	12.675225
2213.000000	12.698300
2214.000000	12.707250
2215.000000	12.730850
2216.000000	12.744900
2217.000000	12.770625
2218.000000	12.784500
2219.000000	12.797650
2220.000000	12.813575
2221.000000	12.825350
2222.000000	12.834400
2223.000000	12.847525
2224.000000	12.843375
2225.000000	12.848175
2226.000000	12.847225
2227.000000	12.846300
2228.000000	12.827400
2229.000000	12.814725
2230.000000	12.790650
2231.000000	12.759550
2232.000000	12.737800
2233.000000	12.684925
2234.000000	12.648125
2235.000000	12.594750
2236.000000	12.531825
2237.000000	12.467875
2238.000000	12.410325
2239.000000	12.339400
2240.000000	12.263025
2241.000000	12.173175
2242.000000	12.085675
2243.000000	11.989300
2244.000000	11.896625
2245.000000	11.778150
2246.000000	11.658825
2247.000000	11.546450
2248.000000	11.414800
2249.000000	11.275175
2250.000000	11.126175
2251.000000	10.968325
2252.000000	10.809200
2253.000000	10.653150
2254.000000	10.470550
2255.000000	10.288825
2256.000000	10.119350
2257.000000	9.935125
2258.000000	9.754000
2259.000000	9.581575
2260.000000	9.426525
2261.000000	9.266825
2262.000000	9.116525
2263.000000	8.971475
2264.000000	8.863225
2265.000000	8.761175
2266.000000	8.677075
2267.000000	8.600675
2268.000000	8.539225
2269.000000	8.486650
2270.000000	8.453375
2271.000000	8.428200
2272.000000	8.416975
2273.000000	8.410550
2274.000000	8.416925
2275.000000	8.413825
2276.000000	8.427450
2277.000000	8.450050
2278.000000	8.472100
2279.000000	8.501000
2280.000000	8.522100
2281.000000	8.549925
2282.000000	8.578225
2283.000000	8.600500
2284.000000	8.618250
2285.000000	8.641450
2286.000000	8.657925
2287.000000	8.657225
2288.000000	8.656125
2289.000000	8.647450
2290.000000	8.629750
2291.000000	8.608600
2292.000000	8.579725
2293.000000	8.538650
2294.000000	8.492725
2295.000000	8.445525
2296.000000	8.390025
2297.000000	8.319650
2298.000000	8.265650
2299.000000	8.188900
2300.000000	8.130375
2301.000000	8.073875
2302.000000	8.019025
2303.000000	7.967775
2304.000000	7.935550
2305.000000	7.906600
2306.000000	7.898650
2307.000000	7.893325
2308.000000	7.909450
2309.000000	7.930175
2310.000000	7.948950
2311.000000	7.992150
2312.000000	8.030450
2313.000000	8.077500
2314.000000	8.133500
2315.000000	8.202250
2316.000000	8.261025
2317.000000	8.331475
2318.000000	8.400925
2319.000000	8.453750
2320.000000	8.513175
2321.000000	8.581550
2322.000000	8.636350
2323.000000	8.690675
2324.000000	8.735125
2325.000000	8.783700
2326.000000	8.824825
2327.000000	8.856500
2328.000000	8.893275
2329.000000	8.933900
2330.000000	8.958575
2331.000000	8.984650
2332.000000	8.999625
2333.000000	9.014750
2334.000000	9.033725
2335.000000	9.036375
2336.000000	9.025125
2337.000000	9.018425
2338.000000	9.019450
2339.000000	9.006325
2340.000000	8.982400
2341.000000	8.951875
2342.000000	8.918325
2343.000000	8.892575
2344.000000	8.864350
2345.000000	8.821975
2346.000000	8.779550
2347.000000	8.750200
2348.000000	8.719475
2349.000000	8.692400
2350.000000	8.667750
2351.000000	8.647325
2352.000000	8.634325
2353.000000	8.628325
2354.000000	8.632600
2355.000000	8.638400
2356.000000	8.652925
2357.000000	8.675700
2358.000000	8.694050
2359.000000	8.721200
2360.000000	8.757875
2361.000000	8.793500
2362.000000	8.820975
2363.000000	8.859750
2364.000000	8.894750
2365.000000	8.925175
2366.000000	8.960825
2367.000000	8.987200
2368.000000	9.010750
2369.000000	9.033275
2370.000000	9.054650
2371.000000	9.071350
2372.000000	9.091325
2373.000000	9.102800
2374.000000	9.113225
2375.000000	9.120150
2376.000000	9.123650
2377.000000	9.135700
2378.000000	9.143550
2379.000000	9.138150
2380.000000	9.134950
2381.000000	9.143625
2382.000000	9.142275
2383.000000	9.132000
2384.000000	9.133950
2385.000000	9.132100
2386.000000	9.126300
2387.000000	9.111550
2388.000000	9.089325
2389.000000	9.076450
2390.000000	9.057250
2391.000000	9.038575
2392.000000	9.018575
2393.000000	8.999500
2394.000000	8.976500
2395.000000	8.956100
2396.000000	8.927650
2397.000000	8.890575
2398.000000	8.868275
2399.000000	8.839800
2400.000000	8.813000
2401.000000	8.779450
2402.000000	8.749650
2403.000000	8.722925
2404.000000	8.701600
2405.000000	8.680050
2406.000000	8.654100
2407.000000	8.634800
2408.000000	8.599575
2409.000000	8.549025
2410.000000	8.485650
2411.000000	8.435125
2412.000000	8.385900
2413.000000	8.359250
2414.000000	8.340400
2415.000000	8.317225
2416.000000	8.296300
2417.000000	8.276325
2418.000000	8.266250
2419.000000	8.243975
2420.000000	8.225725
2421.000000	8.208375
2422.000000	8.187050
2423.000000	8.167175
2424.000000	8.148875
2425.000000	8.119500
2426.000000	8.092050
2427.000000	8.067725
2428.000000	8.041575
2429.000000	8.008500
2430.000000	7.986350
2431.000000	7.942050
2432.000000	7.921850
2433.000000	7.886275
2434.000000	7.852600
2435.000000	7.808125
2436.000000	7.770075
2437.000000	7.724550
2438.000000	7.694675
2439.000000	7.652400
2440.000000	7.605650
2441.000000	7.564000
2442.000000	7.527750
2443.000000	7.463525
2444.000000	7.425400
2445.000000	7.366800
2446.000000	7.327225
2447.000000	7.290550
2448.000000	7.229475
2449.000000	7.182200
2450.000000	7.143950
2451.000000	7.104500
2452.000000	7.061500
2453.000000	7.006325
2454.000000	6.980600
2455.000000	6.941875
2456.000000	6.898075
2457.000000	6.861800
2458.000000	6.845175
2459.000000	6.798825
2460.000000	6.779200
2461.000000	6.740300
2462.000000	6.728025
2463.000000	6.717950
2464.000000	6.680775
2465.000000	6.665825
2466.000000	6.655800
2467.000000	6.643700
2468.000000	6.648825
2469.000000	6.625725
2470.000000	6.651100
2471.000000	6.636500
2472.000000	6.649800
2473.000000	6.635150
2474.000000	6.656150
2475.000000	6.634750
2476.000000	6.640100
2477.000000	6.637150
2478.000000	6.643725
2479.000000	6.622650
2480.000000	6.640375
2481.000000	6.675875
2482.000000	6.671975
2483.000000	6.657200
2484.000000	6.668525
2485.000000	6.650900
2486.000000	6.671050
2487.000000	6.697650
2488.000000	6.695825
2489.000000	6.734300
2490.000000	6.708225
2491.000000	6.680675
2492.000000	6.744325
2493.000000	6.728575
2494.000000	6.739625
2495.000000	6.832850
2496.000000	6.796100
2497.000000	6.843825
2498.000000	6.883425
2499.000000	6.885650
2500.000000	6.851600
