PE UV       SUBTECH     SPECTRUM    ASCII       PEDS        4.00        
   -1
CICIMAUCR0158-5.Sample.ASC
24/04/25
13:52:02.00
24/04/25
13:52:02.00
Vinicio Soto Monge
C. cupreomarginata
250,000000
1
Lambda 1050
1050L1511233
PerkinElmer UV WinLab 6.3.2.0749 / 2.02.05 Lambda 900 UV/VIS/NIR, Aug  7 2015 09:38:08

0
0
3350/servo 860,8/2
0
0
UV/VIS
1
1
1
DoubleDePol,CommonBeamDepol,RBeamAtt,SBeamAtt,60mm sphere, WB InGaAs Detector
0
0
0
0
Program
Program
3350/servo 860,8/2
3350/0,2 860,8/0,2
3350/0,2 860,8/0,2
0
15.00
 
 
 
0
 
860,8
319,2
860,8
Front
100
on
S:100 R:100
0
0
0
0
 
0
 
 
 
0
 
 
0
0
0
0
0
 
 
 
 
0
0


0
0
#HDR
-1
-1
#GR
nm
%R
1.0
0.0
2500,000000
-1,000000
2251
8
68,614000
5,280700
#DATA
250.000000	5.328406
251.000000	5.296427
252.000000	5.279851
253.000000	5.278370
254.000000	5.239777
255.000000	5.243120
256.000000	5.253005
257.000000	5.239538
258.000000	5.205135
259.000000	5.190389
260.000000	5.175139
261.000000	5.143917
262.000000	5.128929
263.000000	5.101395
264.000000	5.085787
265.000000	5.056895
266.000000	5.045170
267.000000	5.017332
268.000000	5.009721
269.000000	4.980965
270.000000	4.963564
271.000000	4.977228
272.000000	4.955616
273.000000	4.920637
274.000000	4.934190
275.000000	4.908591
276.000000	4.879489
277.000000	4.876597
278.000000	4.849998
279.000000	4.856062
280.000000	4.851407
281.000000	4.816026
282.000000	4.819109
283.000000	4.814010
284.000000	4.813755
285.000000	4.809176
286.000000	4.815132
287.000000	4.822164
288.000000	4.794095
289.000000	4.779927
290.000000	4.790413
291.000000	4.792907
292.000000	4.794766
293.000000	4.767908
294.000000	4.810247
295.000000	4.761649
296.000000	4.795741
297.000000	4.774693
298.000000	4.771701
299.000000	4.784105
300.000000	4.774148
301.000000	4.761277
302.000000	4.762692
303.000000	4.778526
304.000000	4.789747
305.000000	4.811500
306.000000	4.788560
307.000000	4.782709
308.000000	4.806853
309.000000	4.818615
310.000000	4.823613
311.000000	4.794755
312.000000	4.813993
313.000000	4.807898
314.000000	4.807323
315.000000	4.830294
316.000000	4.890400
317.000000	5.425909
318.000000	5.270389
319.000000	5.177485
320.000000	5.229423
321.000000	5.165700
322.000000	5.186052
323.000000	5.067396
324.000000	5.083468
325.000000	5.058099
326.000000	5.087535
327.000000	4.945244
328.000000	4.906008
329.000000	5.044586
330.000000	4.929150
331.000000	4.823260
332.000000	4.880907
333.000000	4.920430
334.000000	4.944191
335.000000	4.857076
336.000000	4.863306
337.000000	4.922297
338.000000	4.856926
339.000000	4.857311
340.000000	4.865218
341.000000	4.850845
342.000000	4.924363
343.000000	4.915879
344.000000	4.868692
345.000000	4.864972
346.000000	4.818996
347.000000	4.875488
348.000000	4.870877
349.000000	4.864151
350.000000	4.850462
351.000000	4.904827
352.000000	4.973630
353.000000	4.965215
354.000000	4.981986
355.000000	5.023827
356.000000	5.058095
357.000000	5.034130
358.000000	5.071215
359.000000	5.138524
360.000000	5.258211
361.000000	5.223095
362.000000	5.272203
363.000000	5.294324
364.000000	5.362893
365.000000	5.379041
366.000000	5.403313
367.000000	5.487939
368.000000	5.587202
369.000000	5.664950
370.000000	5.665959
371.000000	5.713703
372.000000	5.776122
373.000000	5.875763
374.000000	5.917198
375.000000	6.141487
376.000000	6.483317
377.000000	6.573506
378.000000	6.720402
379.000000	6.878043
380.000000	7.043273
381.000000	7.230009
382.000000	7.407520
383.000000	7.588717
384.000000	7.786243
385.000000	7.998222
386.000000	8.195639
387.000000	8.401792
388.000000	8.613329
389.000000	8.820402
390.000000	9.030300
391.000000	9.243407
392.000000	9.446855
393.000000	9.647875
394.000000	9.839112
395.000000	10.035856
396.000000	10.218950
397.000000	10.408546
398.000000	10.582418
399.000000	10.747038
400.000000	10.904842
401.000000	11.050369
402.000000	11.194593
403.000000	11.328912
404.000000	11.461212
405.000000	11.575655
406.000000	11.685483
407.000000	11.795466
408.000000	11.893724
409.000000	11.978469
410.000000	12.050413
411.000000	12.117732
412.000000	12.181591
413.000000	12.243569
414.000000	12.293827
415.000000	12.339012
416.000000	12.369648
417.000000	12.391060
418.000000	12.404374
419.000000	12.414765
420.000000	12.422335
421.000000	12.420789
422.000000	12.413522
423.000000	12.403374
424.000000	12.383669
425.000000	12.360834
426.000000	12.345852
427.000000	12.323857
428.000000	12.305679
429.000000	12.292962
430.000000	12.288718
431.000000	12.290206
432.000000	12.308778
433.000000	12.322676
434.000000	12.354895
435.000000	12.405644
436.000000	12.478982
437.000000	12.554869
438.000000	12.651957
439.000000	12.782874
440.000000	12.916388
441.000000	13.072129
442.000000	13.252576
443.000000	13.457986
444.000000	13.680319
445.000000	13.905040
446.000000	14.140813
447.000000	14.386770
448.000000	14.640500
449.000000	14.915205
450.000000	15.184588
451.000000	15.450117
452.000000	15.709999
453.000000	15.980912
454.000000	16.236358
455.000000	16.481127
456.000000	16.717732
457.000000	16.938019
458.000000	17.159361
459.000000	17.354050
460.000000	17.547751
461.000000	17.741098
462.000000	17.926459
463.000000	18.096172
464.000000	18.270294
465.000000	18.437085
466.000000	18.600745
467.000000	18.765576
468.000000	18.938143
469.000000	19.111081
470.000000	19.286134
471.000000	19.474727
472.000000	19.677746
473.000000	19.872556
474.000000	20.082307
475.000000	20.300176
476.000000	20.531859
477.000000	20.770314
478.000000	21.019200
479.000000	21.277684
480.000000	21.547868
481.000000	21.833724
482.000000	22.134680
483.000000	22.440180
484.000000	22.753637
485.000000	23.057583
486.000000	23.365809
487.000000	23.687635
488.000000	24.011015
489.000000	24.343373
490.000000	24.687700
491.000000	25.045198
492.000000	25.375046
493.000000	25.716072
494.000000	26.051125
495.000000	26.402447
496.000000	26.766265
497.000000	27.113876
498.000000	27.440174
499.000000	27.794371
500.000000	28.155447
501.000000	28.521816
502.000000	28.884702
503.000000	29.264850
504.000000	29.650447
505.000000	30.041207
506.000000	30.449065
507.000000	30.861634
508.000000	31.286436
509.000000	31.739563
510.000000	32.212918
511.000000	32.699692
512.000000	33.203425
513.000000	33.727256
514.000000	34.256748
515.000000	34.798101
516.000000	35.348185
517.000000	35.923192
518.000000	36.492209
519.000000	37.080599
520.000000	37.688125
521.000000	38.309015
522.000000	38.945239
523.000000	39.580488
524.000000	40.233640
525.000000	40.892887
526.000000	41.556432
527.000000	42.222966
528.000000	42.897426
529.000000	43.577809
530.000000	44.275465
531.000000	44.970756
532.000000	45.679485
533.000000	46.406658
534.000000	47.126667
535.000000	47.833670
536.000000	48.536226
537.000000	49.212508
538.000000	49.879489
539.000000	50.520686
540.000000	51.148023
541.000000	51.750303
542.000000	52.328406
543.000000	52.864762
544.000000	53.375141
545.000000	53.830780
546.000000	54.261275
547.000000	54.655836
548.000000	55.004797
549.000000	55.299453
550.000000	55.579334
551.000000	55.835410
552.000000	56.039732
553.000000	56.213786
554.000000	56.361030
555.000000	56.502018
556.000000	56.624767
557.000000	56.743991
558.000000	56.810073
559.000000	56.876558
560.000000	56.932946
561.000000	56.992030
562.000000	57.028707
563.000000	57.074836
564.000000	57.121224
565.000000	57.134034
566.000000	57.159646
567.000000	57.144453
568.000000	57.115864
569.000000	57.061292
570.000000	56.993120
571.000000	56.912777
572.000000	56.822390
573.000000	56.720310
574.000000	56.622939
575.000000	56.506025
576.000000	56.383433
577.000000	56.258265
578.000000	56.143228
579.000000	56.006593
580.000000	55.873548
581.000000	55.709606
582.000000	55.579789
583.000000	55.446077
584.000000	55.301243
585.000000	55.144284
586.000000	54.998430
587.000000	54.884627
588.000000	54.751209
589.000000	54.599245
590.000000	54.446907
591.000000	54.296872
592.000000	54.143276
593.000000	53.961673
594.000000	53.805677
595.000000	53.617329
596.000000	53.428224
597.000000	53.236711
598.000000	53.003805
599.000000	52.784287
600.000000	52.526189
601.000000	52.258901
602.000000	51.960831
603.000000	51.638900
604.000000	51.321446
605.000000	50.980377
606.000000	50.650265
607.000000	50.317443
608.000000	49.977799
609.000000	49.645333
610.000000	49.286051
611.000000	48.952690
612.000000	48.595264
613.000000	48.237547
614.000000	47.921707
615.000000	47.586990
616.000000	47.283521
617.000000	46.942658
618.000000	46.621078
619.000000	46.308262
620.000000	45.979261
621.000000	45.657474
622.000000	45.324660
623.000000	44.998724
624.000000	44.677715
625.000000	44.373857
626.000000	44.085705
627.000000	43.820028
628.000000	43.569834
629.000000	43.346892
630.000000	43.134705
631.000000	42.976353
632.000000	42.850862
633.000000	42.751416
634.000000	42.703210
635.000000	42.707140
636.000000	42.737722
637.000000	42.818737
638.000000	42.955327
639.000000	43.092764
640.000000	43.262731
641.000000	43.450738
642.000000	43.687906
643.000000	43.936915
644.000000	44.193392
645.000000	44.441302
646.000000	44.726246
647.000000	45.024200
648.000000	45.270630
649.000000	45.544462
650.000000	45.810668
651.000000	46.084677
652.000000	46.363967
653.000000	46.619788
654.000000	46.860051
655.000000	47.101167
656.000000	47.329268
657.000000	47.537049
658.000000	47.750537
659.000000	47.927177
660.000000	48.119632
661.000000	48.270105
662.000000	48.413488
663.000000	48.553376
664.000000	48.678002
665.000000	48.785441
666.000000	48.881282
667.000000	48.958078
668.000000	49.031118
669.000000	49.083058
670.000000	49.133438
671.000000	49.191486
672.000000	49.213835
673.000000	49.241204
674.000000	49.269909
675.000000	49.303635
676.000000	49.351828
677.000000	49.368881
678.000000	49.406859
679.000000	49.420777
680.000000	49.434434
681.000000	49.462816
682.000000	49.502563
683.000000	49.522551
684.000000	49.557101
685.000000	49.613869
686.000000	49.643317
687.000000	49.668429
688.000000	49.713235
689.000000	49.798328
690.000000	49.850961
691.000000	49.912681
692.000000	49.981842
693.000000	50.072654
694.000000	50.163783
695.000000	50.275520
696.000000	50.386626
697.000000	50.497585
698.000000	50.589231
699.000000	50.701273
700.000000	50.841796
701.000000	50.980874
702.000000	51.121520
703.000000	51.257889
704.000000	51.397557
705.000000	51.533518
706.000000	51.672990
707.000000	51.798431
708.000000	51.916882
709.000000	52.060840
710.000000	52.213774
711.000000	52.311539
712.000000	52.446129
713.000000	52.560255
714.000000	52.656152
715.000000	52.802079
716.000000	52.918652
717.000000	53.009816
718.000000	53.108760
719.000000	53.222637
720.000000	53.285555
721.000000	53.369733
722.000000	53.475143
723.000000	53.551355
724.000000	53.583877
725.000000	53.661383
726.000000	53.742451
727.000000	53.795267
728.000000	53.860371
729.000000	53.930003
730.000000	53.968308
731.000000	54.016272
732.000000	54.082248
733.000000	54.147093
734.000000	54.183946
735.000000	54.247752
736.000000	54.312990
737.000000	54.360180
738.000000	54.421424
739.000000	54.468118
740.000000	54.519426
741.000000	54.582564
742.000000	54.631653
743.000000	54.670239
744.000000	54.725353
745.000000	54.814110
746.000000	54.858403
747.000000	54.950409
748.000000	55.025465
749.000000	55.098354
750.000000	55.178096
751.000000	55.265703
752.000000	55.335903
753.000000	55.417217
754.000000	55.505651
755.000000	55.585052
756.000000	55.683238
757.000000	55.781500
758.000000	55.867126
759.000000	55.983567
760.000000	56.091756
761.000000	56.214291
762.000000	56.294457
763.000000	56.394296
764.000000	56.522239
765.000000	56.616528
766.000000	56.725816
767.000000	56.855253
768.000000	56.942377
769.000000	57.045586
770.000000	57.206578
771.000000	57.334469
772.000000	57.462493
773.000000	57.591095
774.000000	57.716903
775.000000	57.792628
776.000000	57.880477
777.000000	57.984772
778.000000	58.115234
779.000000	58.186620
780.000000	58.267835
781.000000	58.348996
782.000000	58.419579
783.000000	58.476837
784.000000	58.571491
785.000000	58.648777
786.000000	58.777275
787.000000	58.861514
788.000000	58.893995
789.000000	58.950063
790.000000	59.029266
791.000000	59.093663
792.000000	59.167715
793.000000	59.237668
794.000000	59.242382
795.000000	59.284225
796.000000	59.297438
797.000000	59.385430
798.000000	59.418319
799.000000	59.485697
800.000000	59.546483
801.000000	59.545297
802.000000	59.618050
803.000000	59.643021
804.000000	59.724360
805.000000	59.763696
806.000000	59.763838
807.000000	59.825713
808.000000	59.864615
809.000000	59.917386
810.000000	59.981404
811.000000	60.013761
812.000000	60.060837
813.000000	60.075029
814.000000	60.038498
815.000000	60.158422
816.000000	60.248986
817.000000	60.215108
818.000000	60.249788
819.000000	60.233629
820.000000	60.297509
821.000000	60.318811
822.000000	60.311375
823.000000	60.338059
824.000000	60.293156
825.000000	60.416142
826.000000	60.402611
827.000000	60.368832
828.000000	60.396178
829.000000	60.374117
830.000000	60.312776
831.000000	60.260112
832.000000	60.224711
833.000000	60.306574
834.000000	60.184375
835.000000	60.103515
836.000000	60.109691
837.000000	60.019536
838.000000	60.006223
839.000000	59.913832
840.000000	59.989273
841.000000	59.846490
842.000000	59.752759
843.000000	59.827517
844.000000	59.645800
845.000000	59.424155
846.000000	59.477615
847.000000	59.166424
848.000000	59.121351
849.000000	59.005292
850.000000	58.941709
851.000000	58.902760
852.000000	58.865682
853.000000	58.804929
854.000000	58.629810
855.000000	58.574465
856.000000	58.311692
857.000000	58.612105
858.000000	59.371400
859.000000	58.302375
860.000000	58.462250
861.000000	58.466800
862.000000	58.397450
863.000000	58.418600
864.000000	58.437950
865.000000	58.243850
866.000000	58.230450
867.000000	58.440875
868.000000	58.574750
869.000000	59.021075
870.000000	59.198075
871.000000	59.428650
872.000000	59.505675
873.000000	59.892725
874.000000	60.016400
875.000000	60.059025
876.000000	60.286375
877.000000	60.388450
878.000000	60.463775
879.000000	60.618875
880.000000	60.688150
881.000000	60.748825
882.000000	60.768625
883.000000	60.856900
884.000000	61.010550
885.000000	61.082300
886.000000	60.962350
887.000000	61.027575
888.000000	61.087175
889.000000	61.124425
890.000000	61.155725
891.000000	61.103675
892.000000	61.061025
893.000000	61.065350
894.000000	61.112450
895.000000	61.025425
896.000000	60.994225
897.000000	60.998000
898.000000	60.963525
899.000000	60.918475
900.000000	60.899650
901.000000	60.936025
902.000000	60.875750
903.000000	60.796425
904.000000	60.750900
905.000000	60.742050
906.000000	60.679850
907.000000	60.646525
908.000000	60.624000
909.000000	60.583075
910.000000	60.555000
911.000000	60.508400
912.000000	60.443175
913.000000	60.385950
914.000000	60.355425
915.000000	60.384500
916.000000	60.428475
917.000000	60.394775
918.000000	60.399175
919.000000	60.418500
920.000000	60.390825
921.000000	60.375000
922.000000	60.359825
923.000000	60.338975
924.000000	60.339925
925.000000	60.346350
926.000000	60.362700
927.000000	60.374800
928.000000	60.391175
929.000000	60.380825
930.000000	60.384775
931.000000	60.374125
932.000000	60.371350
933.000000	60.393850
934.000000	60.384550
935.000000	60.375750
936.000000	60.383900
937.000000	60.377575
938.000000	60.388125
939.000000	60.391800
940.000000	60.385650
941.000000	60.407600
942.000000	60.408325
943.000000	60.420875
944.000000	60.421825
945.000000	60.393600
946.000000	60.425725
947.000000	60.439000
948.000000	60.445925
949.000000	60.437525
950.000000	60.438850
951.000000	60.449700
952.000000	60.439550
953.000000	60.404725
954.000000	60.404275
955.000000	60.407200
956.000000	60.402475
957.000000	60.374825
958.000000	60.371100
959.000000	60.371725
960.000000	60.357475
961.000000	60.372050
962.000000	60.383325
963.000000	60.377875
964.000000	60.411575
965.000000	60.390500
966.000000	60.397325
967.000000	60.398450
968.000000	60.406200
969.000000	60.428725
970.000000	60.454175
971.000000	60.473600
972.000000	60.480025
973.000000	60.519775
974.000000	60.534075
975.000000	60.555850
976.000000	60.584200
977.000000	60.598075
978.000000	60.612725
979.000000	60.664150
980.000000	60.692775
981.000000	60.721825
982.000000	60.738575
983.000000	60.794675
984.000000	60.837300
985.000000	60.859025
986.000000	60.883500
987.000000	60.908900
988.000000	60.943050
989.000000	60.984325
990.000000	61.021900
991.000000	61.077325
992.000000	61.113725
993.000000	61.149350
994.000000	61.190125
995.000000	61.231325
996.000000	61.267925
997.000000	61.304325
998.000000	61.351325
999.000000	61.382825
1000.000000	61.425075
1001.000000	61.460425
1002.000000	61.504150
1003.000000	61.527625
1004.000000	61.568975
1005.000000	61.618150
1006.000000	61.650175
1007.000000	61.677250
1008.000000	61.723075
1009.000000	61.745500
1010.000000	61.778750
1011.000000	61.810400
1012.000000	61.838400
1013.000000	61.865100
1014.000000	61.902875
1015.000000	61.928475
1016.000000	61.952525
1017.000000	62.011900
1018.000000	62.048075
1019.000000	62.061950
1020.000000	62.106025
1021.000000	62.136200
1022.000000	62.167850
1023.000000	62.203125
1024.000000	62.231800
1025.000000	62.258150
1026.000000	62.301200
1027.000000	62.330475
1028.000000	62.376825
1029.000000	62.403425
1030.000000	62.442400
1031.000000	62.469325
1032.000000	62.498875
1033.000000	62.527975
1034.000000	62.565300
1035.000000	62.600025
1036.000000	62.647500
1037.000000	62.669650
1038.000000	62.695325
1039.000000	62.714900
1040.000000	62.739400
1041.000000	62.769275
1042.000000	62.805400
1043.000000	62.830325
1044.000000	62.867250
1045.000000	62.900925
1046.000000	62.938925
1047.000000	62.961800
1048.000000	62.985100
1049.000000	63.037125
1050.000000	63.054900
1051.000000	63.087000
1052.000000	63.126600
1053.000000	63.161875
1054.000000	63.201425
1055.000000	63.228775
1056.000000	63.258475
1057.000000	63.304050
1058.000000	63.334900
1059.000000	63.388150
1060.000000	63.425275
1061.000000	63.457275
1062.000000	63.494200
1063.000000	63.523700
1064.000000	63.568275
1065.000000	63.595750
1066.000000	63.646975
1067.000000	63.682475
1068.000000	63.720750
1069.000000	63.768950
1070.000000	63.806175
1071.000000	63.842225
1072.000000	63.878350
1073.000000	63.915075
1074.000000	63.958225
1075.000000	63.998075
1076.000000	64.036625
1077.000000	64.057350
1078.000000	64.102700
1079.000000	64.137900
1080.000000	64.169750
1081.000000	64.218700
1082.000000	64.247750
1083.000000	64.273775
1084.000000	64.301975
1085.000000	64.339875
1086.000000	64.378250
1087.000000	64.406175
1088.000000	64.449675
1089.000000	64.469975
1090.000000	64.499875
1091.000000	64.525875
1092.000000	64.546775
1093.000000	64.581725
1094.000000	64.597850
1095.000000	64.627050
1096.000000	64.640575
1097.000000	64.656250
1098.000000	64.678925
1099.000000	64.698725
1100.000000	64.718250
1101.000000	64.740175
1102.000000	64.757875
1103.000000	64.757275
1104.000000	64.779375
1105.000000	64.793750
1106.000000	64.814775
1107.000000	64.826900
1108.000000	64.839325
1109.000000	64.841025
1110.000000	64.853200
1111.000000	64.867725
1112.000000	64.876025
1113.000000	64.880275
1114.000000	64.888100
1115.000000	64.901200
1116.000000	64.915650
1117.000000	64.916875
1118.000000	64.928325
1119.000000	64.938000
1120.000000	64.928525
1121.000000	64.924400
1122.000000	64.934250
1123.000000	64.937825
1124.000000	64.921225
1125.000000	64.887450
1126.000000	64.865950
1127.000000	64.817000
1128.000000	64.794625
1129.000000	64.761050
1130.000000	64.709875
1131.000000	64.642400
1132.000000	64.581150
1133.000000	64.523175
1134.000000	64.503075
1135.000000	64.461500
1136.000000	64.354025
1137.000000	64.264600
1138.000000	64.169075
1139.000000	64.090925
1140.000000	64.023975
1141.000000	63.953125
1142.000000	63.892550
1143.000000	63.826300
1144.000000	63.792675
1145.000000	63.743500
1146.000000	63.696750
1147.000000	63.649675
1148.000000	63.585850
1149.000000	63.539100
1150.000000	63.492950
1151.000000	63.445850
1152.000000	63.398300
1153.000000	63.360400
1154.000000	63.277100
1155.000000	63.217900
1156.000000	63.146850
1157.000000	63.084825
1158.000000	63.006775
1159.000000	62.916600
1160.000000	62.815850
1161.000000	62.723700
1162.000000	62.645725
1163.000000	62.550050
1164.000000	62.451375
1165.000000	62.367100
1166.000000	62.275075
1167.000000	62.179150
1168.000000	62.098450
1169.000000	62.016850
1170.000000	61.936950
1171.000000	61.872175
1172.000000	61.809625
1173.000000	61.757275
1174.000000	61.717100
1175.000000	61.655225
1176.000000	61.610300
1177.000000	61.571350
1178.000000	61.523750
1179.000000	61.482275
1180.000000	61.436475
1181.000000	61.388325
1182.000000	61.362350
1183.000000	61.325875
1184.000000	61.301725
1185.000000	61.285550
1186.000000	61.280125
1187.000000	61.278925
1188.000000	61.284175
1189.000000	61.309400
1190.000000	61.345050
1191.000000	61.390950
1192.000000	61.443350
1193.000000	61.494925
1194.000000	61.544600
1195.000000	61.602900
1196.000000	61.656475
1197.000000	61.703775
1198.000000	61.751975
1199.000000	61.801125
1200.000000	61.847625
1201.000000	61.898825
1202.000000	61.937550
1203.000000	61.994425
1204.000000	62.036100
1205.000000	62.074475
1206.000000	62.114425
1207.000000	62.160775
1208.000000	62.200225
1209.000000	62.239000
1210.000000	62.285325
1211.000000	62.327975
1212.000000	62.357725
1213.000000	62.393350
1214.000000	62.426525
1215.000000	62.454700
1216.000000	62.485350
1217.000000	62.522100
1218.000000	62.544950
1219.000000	62.567675
1220.000000	62.587725
1221.000000	62.620650
1222.000000	62.641900
1223.000000	62.666625
1224.000000	62.681775
1225.000000	62.695275
1226.000000	62.713525
1227.000000	62.733475
1228.000000	62.757125
1229.000000	62.769900
1230.000000	62.775775
1231.000000	62.793725
1232.000000	62.802600
1233.000000	62.816100
1234.000000	62.828050
1235.000000	62.846625
1236.000000	62.853750
1237.000000	62.864275
1238.000000	62.880325
1239.000000	62.892550
1240.000000	62.911150
1241.000000	62.929675
1242.000000	62.940300
1243.000000	62.963925
1244.000000	62.988750
1245.000000	63.017325
1246.000000	63.030725
1247.000000	63.055200
1248.000000	63.081350
1249.000000	63.098050
1250.000000	63.117600
1251.000000	63.129075
1252.000000	63.148300
1253.000000	63.153525
1254.000000	63.163750
1255.000000	63.172425
1256.000000	63.174950
1257.000000	63.170700
1258.000000	63.167725
1259.000000	63.163600
1260.000000	63.156975
1261.000000	63.153175
1262.000000	63.140025
1263.000000	63.131400
1264.000000	63.123050
1265.000000	63.121950
1266.000000	63.112150
1267.000000	63.103575
1268.000000	63.090450
1269.000000	63.076525
1270.000000	63.058975
1271.000000	63.052225
1272.000000	63.047875
1273.000000	63.046100
1274.000000	63.038975
1275.000000	63.026125
1276.000000	63.020550
1277.000000	63.024600
1278.000000	63.033975
1279.000000	63.038875
1280.000000	63.042150
1281.000000	63.056175
1282.000000	63.069200
1283.000000	63.081225
1284.000000	63.095175
1285.000000	63.103375
1286.000000	63.121750
1287.000000	63.126725
1288.000000	63.141150
1289.000000	63.158375
1290.000000	63.162200
1291.000000	63.167400
1292.000000	63.176875
1293.000000	63.182925
1294.000000	63.184175
1295.000000	63.189925
1296.000000	63.194525
1297.000000	63.189975
1298.000000	63.183425
1299.000000	63.183075
1300.000000	63.183550
1301.000000	63.178625
1302.000000	63.169700
1303.000000	63.167550
1304.000000	63.167575
1305.000000	63.156550
1306.000000	63.132250
1307.000000	63.112725
1308.000000	63.101575
1309.000000	63.073425
1310.000000	63.048025
1311.000000	63.034225
1312.000000	63.009275
1313.000000	62.980850
1314.000000	62.955075
1315.000000	62.925600
1316.000000	62.879725
1317.000000	62.845100
1318.000000	62.815025
1319.000000	62.780275
1320.000000	62.749700
1321.000000	62.708975
1322.000000	62.667225
1323.000000	62.627325
1324.000000	62.575150
1325.000000	62.522875
1326.000000	62.475800
1327.000000	62.425750
1328.000000	62.375825
1329.000000	62.314550
1330.000000	62.251950
1331.000000	62.195300
1332.000000	62.127625
1333.000000	62.056450
1334.000000	61.969925
1335.000000	61.898000
1336.000000	61.816675
1337.000000	61.732075
1338.000000	61.639750
1339.000000	61.538800
1340.000000	61.449675
1341.000000	61.355550
1342.000000	61.243100
1343.000000	61.133275
1344.000000	61.028275
1345.000000	60.907125
1346.000000	60.774225
1347.000000	60.670575
1348.000000	60.585000
1349.000000	60.445800
1350.000000	60.311850
1351.000000	60.182800
1352.000000	60.062300
1353.000000	59.915550
1354.000000	59.860200
1355.000000	59.830050
1356.000000	59.721500
1357.000000	59.595425
1358.000000	59.522500
1359.000000	59.466125
1360.000000	59.418475
1361.000000	59.432250
1362.000000	59.431850
1363.000000	59.290100
1364.000000	59.172925
1365.000000	59.158125
1366.000000	59.024250
1367.000000	58.930325
1368.000000	58.894300
1369.000000	58.776800
1370.000000	58.639050
1371.000000	58.577900
1372.000000	58.476275
1373.000000	58.348300
1374.000000	58.208775
1375.000000	58.108400
1376.000000	58.016225
1377.000000	57.915225
1378.000000	57.795525
1379.000000	57.716100
1380.000000	57.620450
1381.000000	57.553750
1382.000000	57.432625
1383.000000	57.298575
1384.000000	57.039950
1385.000000	56.837725
1386.000000	56.555900
1387.000000	56.316250
1388.000000	56.129075
1389.000000	55.840275
1390.000000	55.519425
1391.000000	55.281550
1392.000000	55.061250
1393.000000	54.785850
1394.000000	54.509850
1395.000000	54.347225
1396.000000	54.107300
1397.000000	53.699000
1398.000000	53.314625
1399.000000	53.082550
1400.000000	52.922275
1401.000000	52.635275
1402.000000	52.200375
1403.000000	51.811050
1404.000000	51.533150
1405.000000	51.225450
1406.000000	50.891550
1407.000000	50.571100
1408.000000	50.257225
1409.000000	49.945075
1410.000000	49.624900
1411.000000	49.232200
1412.000000	48.891850
1413.000000	48.654750
1414.000000	48.426450
1415.000000	48.157500
1416.000000	47.806625
1417.000000	47.528050
1418.000000	47.324175
1419.000000	47.133650
1420.000000	46.913925
1421.000000	46.649700
1422.000000	46.429300
1423.000000	46.255250
1424.000000	46.081825
1425.000000	45.883075
1426.000000	45.695350
1427.000000	45.516575
1428.000000	45.384400
1429.000000	45.234250
1430.000000	45.073075
1431.000000	44.944425
1432.000000	44.850275
1433.000000	44.723575
1434.000000	44.595650
1435.000000	44.476950
1436.000000	44.364425
1437.000000	44.275300
1438.000000	44.192275
1439.000000	44.096825
1440.000000	44.002600
1441.000000	43.897375
1442.000000	43.827700
1443.000000	43.748675
1444.000000	43.652425
1445.000000	43.609700
1446.000000	43.561075
1447.000000	43.461550
1448.000000	43.361275
1449.000000	43.280450
1450.000000	43.238850
1451.000000	43.184675
1452.000000	43.096425
1453.000000	43.018750
1454.000000	42.931050
1455.000000	42.860750
1456.000000	42.800125
1457.000000	42.723675
1458.000000	42.646300
1459.000000	42.567375
1460.000000	42.504075
1461.000000	42.437000
1462.000000	42.373825
1463.000000	42.301600
1464.000000	42.249100
1465.000000	42.183900
1466.000000	42.142400
1467.000000	42.083675
1468.000000	42.012725
1469.000000	41.957650
1470.000000	41.928875
1471.000000	41.892050
1472.000000	41.847850
1473.000000	41.802825
1474.000000	41.745150
1475.000000	41.699675
1476.000000	41.665175
1477.000000	41.645900
1478.000000	41.620025
1479.000000	41.595125
1480.000000	41.575875
1481.000000	41.556525
1482.000000	41.535275
1483.000000	41.505000
1484.000000	41.478200
1485.000000	41.459400
1486.000000	41.438100
1487.000000	41.420675
1488.000000	41.401525
1489.000000	41.388825
1490.000000	41.368150
1491.000000	41.349500
1492.000000	41.333375
1493.000000	41.323450
1494.000000	41.324600
1495.000000	41.328875
1496.000000	41.332175
1497.000000	41.347250
1498.000000	41.363175
1499.000000	41.393675
1500.000000	41.422575
1501.000000	41.452300
1502.000000	41.490525
1503.000000	41.534725
1504.000000	41.586575
1505.000000	41.637825
1506.000000	41.687125
1507.000000	41.737525
1508.000000	41.794325
1509.000000	41.852775
1510.000000	41.902400
1511.000000	41.958850
1512.000000	42.018925
1513.000000	42.078550
1514.000000	42.131775
1515.000000	42.186900
1516.000000	42.247500
1517.000000	42.295000
1518.000000	42.355600
1519.000000	42.419825
1520.000000	42.472725
1521.000000	42.522275
1522.000000	42.576075
1523.000000	42.623350
1524.000000	42.678725
1525.000000	42.735950
1526.000000	42.780525
1527.000000	42.827600
1528.000000	42.871975
1529.000000	42.924850
1530.000000	42.977050
1531.000000	43.021650
1532.000000	43.072750
1533.000000	43.111225
1534.000000	43.152150
1535.000000	43.189525
1536.000000	43.231375
1537.000000	43.261350
1538.000000	43.298325
1539.000000	43.333725
1540.000000	43.362100
1541.000000	43.400650
1542.000000	43.445650
1543.000000	43.479450
1544.000000	43.521425
1545.000000	43.564800
1546.000000	43.626150
1547.000000	43.681300
1548.000000	43.739750
1549.000000	43.803650
1550.000000	43.873050
1551.000000	43.939275
1552.000000	44.002725
1553.000000	44.072425
1554.000000	44.128475
1555.000000	44.172900
1556.000000	44.219125
1557.000000	44.268700
1558.000000	44.291925
1559.000000	44.321450
1560.000000	44.345100
1561.000000	44.365225
1562.000000	44.375950
1563.000000	44.381150
1564.000000	44.366625
1565.000000	44.368525
1566.000000	44.377750
1567.000000	44.365650
1568.000000	44.342650
1569.000000	44.336500
1570.000000	44.324225
1571.000000	44.328225
1572.000000	44.320150
1573.000000	44.317300
1574.000000	44.317450
1575.000000	44.332350
1576.000000	44.351050
1577.000000	44.363850
1578.000000	44.376475
1579.000000	44.396650
1580.000000	44.429625
1581.000000	44.461300
1582.000000	44.483750
1583.000000	44.517450
1584.000000	44.558600
1585.000000	44.600750
1586.000000	44.638075
1587.000000	44.679050
1588.000000	44.718825
1589.000000	44.762750
1590.000000	44.800200
1591.000000	44.840250
1592.000000	44.879575
1593.000000	44.929925
1594.000000	44.981375
1595.000000	45.029200
1596.000000	45.077375
1597.000000	45.122950
1598.000000	45.180125
1599.000000	45.236125
1600.000000	45.295975
1601.000000	45.366375
1602.000000	45.420200
1603.000000	45.477000
1604.000000	45.534875
1605.000000	45.584775
1606.000000	45.648150
1607.000000	45.700025
1608.000000	45.757275
1609.000000	45.803125
1610.000000	45.851475
1611.000000	45.891800
1612.000000	45.936650
1613.000000	45.974300
1614.000000	46.004150
1615.000000	46.042975
1616.000000	46.072525
1617.000000	46.101025
1618.000000	46.130525
1619.000000	46.154700
1620.000000	46.172475
1621.000000	46.205325
1622.000000	46.227675
1623.000000	46.262550
1624.000000	46.304400
1625.000000	46.338050
1626.000000	46.374975
1627.000000	46.403150
1628.000000	46.445025
1629.000000	46.476475
1630.000000	46.514175
1631.000000	46.553200
1632.000000	46.585950
1633.000000	46.614000
1634.000000	46.645675
1635.000000	46.684275
1636.000000	46.705475
1637.000000	46.715625
1638.000000	46.736800
1639.000000	46.742350
1640.000000	46.752325
1641.000000	46.756050
1642.000000	46.774500
1643.000000	46.775950
1644.000000	46.791000
1645.000000	46.807600
1646.000000	46.814175
1647.000000	46.828850
1648.000000	46.846450
1649.000000	46.835875
1650.000000	46.841000
1651.000000	46.846600
1652.000000	46.833875
1653.000000	46.813900
1654.000000	46.797875
1655.000000	46.766225
1656.000000	46.741325
1657.000000	46.706775
1658.000000	46.641175
1659.000000	46.577850
1660.000000	46.514750
1661.000000	46.448225
1662.000000	46.366650
1663.000000	46.263875
1664.000000	46.157650
1665.000000	46.063875
1666.000000	45.956225
1667.000000	45.854675
1668.000000	45.695150
1669.000000	45.565075
1670.000000	45.436050
1671.000000	45.296500
1672.000000	45.162450
1673.000000	45.022675
1674.000000	44.893400
1675.000000	44.753800
1676.000000	44.618725
1677.000000	44.474525
1678.000000	44.330000
1679.000000	44.170200
1680.000000	44.013025
1681.000000	43.846325
1682.000000	43.665000
1683.000000	43.486875
1684.000000	43.335350
1685.000000	43.163850
1686.000000	43.033925
1687.000000	42.921325
1688.000000	42.839550
1689.000000	42.808150
1690.000000	42.805325
1691.000000	42.820350
1692.000000	42.850325
1693.000000	42.882675
1694.000000	42.925175
1695.000000	42.961550
1696.000000	42.985475
1697.000000	42.995925
1698.000000	43.006975
1699.000000	43.001650
1700.000000	42.999650
1701.000000	42.993550
1702.000000	42.991975
1703.000000	42.966550
1704.000000	42.947850
1705.000000	42.917350
1706.000000	42.895700
1707.000000	42.853600
1708.000000	42.783775
1709.000000	42.707300
1710.000000	42.611000
1711.000000	42.532050
1712.000000	42.417900
1713.000000	42.303725
1714.000000	42.183750
1715.000000	42.038000
1716.000000	41.869200
1717.000000	41.713450
1718.000000	41.538525
1719.000000	41.383350
1720.000000	41.235250
1721.000000	41.099900
1722.000000	40.994450
1723.000000	40.919625
1724.000000	40.878975
1725.000000	40.846650
1726.000000	40.849125
1727.000000	40.852150
1728.000000	40.862625
1729.000000	40.869125
1730.000000	40.887275
1731.000000	40.917750
1732.000000	40.939200
1733.000000	40.966025
1734.000000	40.993425
1735.000000	41.020100
1736.000000	41.044500
1737.000000	41.078200
1738.000000	41.111825
1739.000000	41.152725
1740.000000	41.202800
1741.000000	41.248850
1742.000000	41.296075
1743.000000	41.343050
1744.000000	41.385575
1745.000000	41.433500
1746.000000	41.477975
1747.000000	41.522150
1748.000000	41.559325
1749.000000	41.589875
1750.000000	41.615475
1751.000000	41.641325
1752.000000	41.662250
1753.000000	41.660425
1754.000000	41.666000
1755.000000	41.680275
1756.000000	41.673350
1757.000000	41.678875
1758.000000	41.678325
1759.000000	41.681375
1760.000000	41.684325
1761.000000	41.690200
1762.000000	41.692450
1763.000000	41.706800
1764.000000	41.741825
1765.000000	41.761725
1766.000000	41.786975
1767.000000	41.812250
1768.000000	41.843350
1769.000000	41.872350
1770.000000	41.904225
1771.000000	41.929125
1772.000000	41.948800
1773.000000	41.985150
1774.000000	42.022625
1775.000000	42.054250
1776.000000	42.086450
1777.000000	42.111700
1778.000000	42.134700
1779.000000	42.163500
1780.000000	42.169175
1781.000000	42.185550
1782.000000	42.193250
1783.000000	42.191250
1784.000000	42.198750
1785.000000	42.206175
1786.000000	42.203700
1787.000000	42.199825
1788.000000	42.190150
1789.000000	42.186775
1790.000000	42.196475
1791.000000	42.205150
1792.000000	42.211000
1793.000000	42.228325
1794.000000	42.240500
1795.000000	42.247325
1796.000000	42.263475
1797.000000	42.287800
1798.000000	42.284275
1799.000000	42.298575
1800.000000	42.334200
1801.000000	42.366725
1802.000000	42.393600
1803.000000	42.393875
1804.000000	42.379800
1805.000000	42.407850
1806.000000	42.462625
1807.000000	42.480500
1808.000000	42.475475
1809.000000	42.467325
1810.000000	42.492125
1811.000000	42.543700
1812.000000	42.577000
1813.000000	42.580325
1814.000000	42.570900
1815.000000	42.583925
1816.000000	42.622775
1817.000000	42.615125
1818.000000	42.622150
1819.000000	42.638975
1820.000000	42.715225
1821.000000	42.738900
1822.000000	42.724075
1823.000000	42.667600
1824.000000	42.608750
1825.000000	42.615675
1826.000000	42.701225
1827.000000	42.717875
1828.000000	42.713800
1829.000000	42.758275
1830.000000	42.812350
1831.000000	42.837050
1832.000000	42.816200
1833.000000	42.830050
1834.000000	42.865425
1835.000000	42.962325
1836.000000	43.037525
1837.000000	43.047400
1838.000000	43.037850
1839.000000	43.052100
1840.000000	43.105475
1841.000000	43.117900
1842.000000	43.189300
1843.000000	43.097425
1844.000000	43.034150
1845.000000	43.024875
1846.000000	43.077975
1847.000000	43.248825
1848.000000	43.286500
1849.000000	43.167325
1850.000000	43.065550
1851.000000	43.026125
1852.000000	42.971325
1853.000000	43.038450
1854.000000	43.075050
1855.000000	42.916700
1856.000000	42.878675
1857.000000	42.910950
1858.000000	42.803200
1859.000000	42.731425
1860.000000	42.747875
1861.000000	42.636900
1862.000000	42.454150
1863.000000	42.350125
1864.000000	42.339200
1865.000000	42.245450
1866.000000	42.081925
1867.000000	42.068725
1868.000000	42.057100
1869.000000	41.881525
1870.000000	41.693000
1871.000000	41.623475
1872.000000	41.340475
1873.000000	41.155850
1874.000000	40.899175
1875.000000	40.568250
1876.000000	40.315950
1877.000000	40.112825
1878.000000	39.807225
1879.000000	39.461625
1880.000000	39.165475
1881.000000	38.894275
1882.000000	38.535250
1883.000000	38.147500
1884.000000	37.825375
1885.000000	37.358925
1886.000000	36.911050
1887.000000	36.484050
1888.000000	35.992300
1889.000000	35.551625
1890.000000	35.103900
1891.000000	34.571975
1892.000000	34.032525
1893.000000	33.475900
1894.000000	32.948600
1895.000000	32.444100
1896.000000	31.958650
1897.000000	31.511325
1898.000000	31.055625
1899.000000	30.543850
1900.000000	30.089150
1901.000000	29.446575
1902.000000	29.023650
1903.000000	28.592300
1904.000000	28.152975
1905.000000	27.744725
1906.000000	27.318700
1907.000000	26.884975
1908.000000	26.466700
1909.000000	26.123425
1910.000000	25.836950
1911.000000	25.595825
1912.000000	25.280775
1913.000000	25.019700
1914.000000	24.745500
1915.000000	24.449050
1916.000000	24.189750
1917.000000	23.979825
1918.000000	23.740275
1919.000000	23.540925
1920.000000	23.438550
1921.000000	23.284250
1922.000000	23.043950
1923.000000	22.878575
1924.000000	22.760500
1925.000000	22.649025
1926.000000	22.518325
1927.000000	22.452100
1928.000000	22.372175
1929.000000	22.270575
1930.000000	22.185475
1931.000000	22.135625
1932.000000	22.074625
1933.000000	22.042200
1934.000000	22.004375
1935.000000	21.960950
1936.000000	21.963475
1937.000000	21.983625
1938.000000	21.971625
1939.000000	22.005775
1940.000000	22.029600
1941.000000	22.046600
1942.000000	22.077300
1943.000000	22.092300
1944.000000	22.151375
1945.000000	22.214300
1946.000000	22.265100
1947.000000	22.325950
1948.000000	22.398850
1949.000000	22.466525
1950.000000	22.532825
1951.000000	22.612125
1952.000000	22.695225
1953.000000	22.779025
1954.000000	22.863650
1955.000000	22.953050
1956.000000	23.048300
1957.000000	23.119950
1958.000000	23.209600
1959.000000	23.311050
1960.000000	23.405050
1961.000000	23.484000
1962.000000	23.576675
1963.000000	23.653225
1964.000000	23.723525
1965.000000	23.821875
1966.000000	23.908175
1967.000000	24.005725
1968.000000	24.090050
1969.000000	24.170825
1970.000000	24.250875
1971.000000	24.335400
1972.000000	24.443075
1973.000000	24.524625
1974.000000	24.598500
1975.000000	24.695350
1976.000000	24.791525
1977.000000	24.889575
1978.000000	24.995775
1979.000000	25.082750
1980.000000	25.177850
1981.000000	25.284725
1982.000000	25.381900
1983.000000	25.481000
1984.000000	25.587850
1985.000000	25.685175
1986.000000	25.774825
1987.000000	25.866700
1988.000000	25.975175
1989.000000	26.080900
1990.000000	26.172950
1991.000000	26.255475
1992.000000	26.336675
1993.000000	26.414200
1994.000000	26.492675
1995.000000	26.583425
1996.000000	26.672975
1997.000000	26.757725
1998.000000	26.814475
1999.000000	26.898500
2000.000000	27.002075
2001.000000	27.059125
2002.000000	27.126825
2003.000000	27.173050
2004.000000	27.215175
2005.000000	27.263525
2006.000000	27.292850
2007.000000	27.340550
2008.000000	27.379925
2009.000000	27.397300
2010.000000	27.429225
2011.000000	27.429400
2012.000000	27.432800
2013.000000	27.456425
2014.000000	27.475050
2015.000000	27.461650
2016.000000	27.469975
2017.000000	27.458650
2018.000000	27.446350
2019.000000	27.403800
2020.000000	27.374325
2021.000000	27.365675
2022.000000	27.330400
2023.000000	27.273250
2024.000000	27.228850
2025.000000	27.184225
2026.000000	27.160425
2027.000000	27.106025
2028.000000	27.059225
2029.000000	26.978800
2030.000000	26.901300
2031.000000	26.857500
2032.000000	26.771775
2033.000000	26.661800
2034.000000	26.585000
2035.000000	26.493725
2036.000000	26.410775
2037.000000	26.301900
2038.000000	26.182325
2039.000000	26.108650
2040.000000	26.001700
2041.000000	25.875450
2042.000000	25.747125
2043.000000	25.647425
2044.000000	25.516550
2045.000000	25.395075
2046.000000	25.263625
2047.000000	25.151625
2048.000000	25.013525
2049.000000	24.943500
2050.000000	24.893600
2051.000000	24.809750
2052.000000	24.752525
2053.000000	24.757175
2054.000000	24.705425
2055.000000	24.706825
2056.000000	24.762875
2057.000000	24.787875
2058.000000	24.852400
2059.000000	24.907925
2060.000000	24.971150
2061.000000	25.095275
2062.000000	25.164650
2063.000000	25.265100
2064.000000	25.336300
2065.000000	25.439475
2066.000000	25.561425
2067.000000	25.661400
2068.000000	25.792550
2069.000000	25.844150
2070.000000	25.975550
2071.000000	26.098925
2072.000000	26.191875
2073.000000	26.272575
2074.000000	26.338725
2075.000000	26.422125
2076.000000	26.480725
2077.000000	26.564200
2078.000000	26.648450
2079.000000	26.717900
2080.000000	26.718300
2081.000000	26.793000
2082.000000	26.837475
2083.000000	26.855550
2084.000000	26.839000
2085.000000	26.892625
2086.000000	26.875350
2087.000000	26.902125
2088.000000	26.993475
2089.000000	26.994325
2090.000000	26.892700
2091.000000	26.878650
2092.000000	26.898475
2093.000000	26.938375
2094.000000	26.884750
2095.000000	26.894550
2096.000000	26.941525
2097.000000	26.922875
2098.000000	26.856750
2099.000000	26.948200
2100.000000	26.862225
2101.000000	26.873250
2102.000000	26.915475
2103.000000	26.821400
2104.000000	26.835550
2105.000000	26.925400
2106.000000	26.883250
2107.000000	26.949200
2108.000000	26.881750
2109.000000	26.898675
2110.000000	26.885525
2111.000000	26.872250
2112.000000	26.895500
2113.000000	26.844200
2114.000000	26.882925
2115.000000	26.876800
2116.000000	26.844550
2117.000000	26.806350
2118.000000	26.710100
2119.000000	26.741175
2120.000000	26.685350
2121.000000	26.658775
2122.000000	26.694525
2123.000000	26.553600
2124.000000	26.611550
2125.000000	26.607700
2126.000000	26.452975
2127.000000	26.455925
2128.000000	26.433350
2129.000000	26.322850
2130.000000	26.286300
2131.000000	26.206550
2132.000000	26.210050
2133.000000	26.004050
2134.000000	26.050750
2135.000000	25.989050
2136.000000	25.883400
2137.000000	25.836475
2138.000000	25.681675
2139.000000	25.545500
2140.000000	25.476075
2141.000000	25.249300
2142.000000	25.351275
2143.000000	25.175625
2144.000000	25.094475
2145.000000	25.025500
2146.000000	25.031650
2147.000000	24.925950
2148.000000	24.682650
2149.000000	24.709575
2150.000000	24.459000
2151.000000	24.369275
2152.000000	24.336850
2153.000000	24.207675
2154.000000	24.161750
2155.000000	24.050500
2156.000000	23.969075
2157.000000	23.841700
2158.000000	23.747975
2159.000000	23.738550
2160.000000	23.692075
2161.000000	23.570250
2162.000000	23.516975
2163.000000	23.502250
2164.000000	23.386700
2165.000000	23.263225
2166.000000	23.327750
2167.000000	23.321425
2168.000000	23.277250
2169.000000	23.316225
2170.000000	23.329600
2171.000000	23.195450
2172.000000	23.144600
2173.000000	23.157275
2174.000000	23.120100
2175.000000	23.202225
2176.000000	23.190850
2177.000000	23.192825
2178.000000	23.264125
2179.000000	23.289650
2180.000000	23.214600
2181.000000	23.269525
2182.000000	23.222625
2183.000000	23.224800
2184.000000	23.299350
2185.000000	23.309975
2186.000000	23.379175
2187.000000	23.338675
2188.000000	23.401875
2189.000000	23.457475
2190.000000	23.502350
2191.000000	23.505800
2192.000000	23.469725
2193.000000	23.472400
2194.000000	23.523725
2195.000000	23.475925
2196.000000	23.427750
2197.000000	23.521150
2198.000000	23.564000
2199.000000	23.579500
2200.000000	23.684700
2201.000000	23.761200
2202.000000	23.717500
2203.000000	23.763850
2204.000000	23.851550
2205.000000	23.864050
2206.000000	23.861675
2207.000000	23.952075
2208.000000	23.966150
2209.000000	24.009625
2210.000000	24.077025
2211.000000	24.113900
2212.000000	24.222475
2213.000000	24.232750
2214.000000	24.328900
2215.000000	24.400150
2216.000000	24.493775
2217.000000	24.567100
2218.000000	24.623650
2219.000000	24.708825
2220.000000	24.768375
2221.000000	24.819850
2222.000000	24.900850
2223.000000	24.966375
2224.000000	25.037300
2225.000000	25.127100
2226.000000	25.148175
2227.000000	25.218525
2228.000000	25.255200
2229.000000	25.309575
2230.000000	25.293750
2231.000000	25.308950
2232.000000	25.306225
2233.000000	25.381600
2234.000000	25.346000
2235.000000	25.263400
2236.000000	25.337900
2237.000000	25.333550
2238.000000	25.248175
2239.000000	25.173375
2240.000000	25.162000
2241.000000	25.092900
2242.000000	24.943675
2243.000000	24.885225
2244.000000	24.772750
2245.000000	24.700675
2246.000000	24.597275
2247.000000	24.422125
2248.000000	24.387800
2249.000000	24.291850
2250.000000	24.135825
2251.000000	24.022075
2252.000000	23.879225
2253.000000	23.713750
2254.000000	23.587650
2255.000000	23.456675
2256.000000	23.254125
2257.000000	23.096550
2258.000000	22.985050
2259.000000	22.865450
2260.000000	22.746550
2261.000000	22.625775
2262.000000	22.592700
2263.000000	22.524775
2264.000000	22.349725
2265.000000	22.264375
2266.000000	22.244575
2267.000000	22.129375
2268.000000	22.104125
2269.000000	22.117825
2270.000000	22.069150
2271.000000	21.984350
2272.000000	21.933825
2273.000000	21.996400
2274.000000	21.974275
2275.000000	21.903875
2276.000000	21.831425
2277.000000	21.882775
2278.000000	21.833325
2279.000000	21.662225
2280.000000	21.640575
2281.000000	21.708525
2282.000000	21.612625
2283.000000	21.573075
2284.000000	21.629725
2285.000000	21.549350
2286.000000	21.461200
2287.000000	21.435725
2288.000000	21.487800
2289.000000	21.393875
2290.000000	21.387975
2291.000000	21.369125
2292.000000	21.319900
2293.000000	21.321850
2294.000000	21.271475
2295.000000	21.257125
2296.000000	21.247900
2297.000000	21.233425
2298.000000	21.229100
2299.000000	21.244975
2300.000000	21.273725
2301.000000	21.323050
2302.000000	21.308400
2303.000000	21.385800
2304.000000	21.375350
2305.000000	21.230325
2306.000000	21.302300
2307.000000	21.403500
2308.000000	21.347625
2309.000000	21.412300
2310.000000	21.518575
2311.000000	21.508075
2312.000000	21.532950
2313.000000	21.612925
2314.000000	21.665225
2315.000000	21.691150
2316.000000	21.646875
2317.000000	21.728775
2318.000000	21.809600
2319.000000	21.797700
2320.000000	21.716825
2321.000000	21.661150
2322.000000	21.704275
2323.000000	21.698600
2324.000000	21.810175
2325.000000	21.718975
2326.000000	21.634700
2327.000000	21.734500
2328.000000	21.626575
2329.000000	21.443325
2330.000000	21.470950
2331.000000	21.493100
2332.000000	21.507275
2333.000000	21.568625
2334.000000	21.597225
2335.000000	21.474425
2336.000000	21.545850
2337.000000	21.431225
2338.000000	21.400300
2339.000000	21.598975
2340.000000	21.507950
2341.000000	21.571400
2342.000000	21.501125
2343.000000	21.368350
2344.000000	21.379750
2345.000000	21.363175
2346.000000	21.420350
2347.000000	21.265225
2348.000000	21.507550
2349.000000	21.468000
2350.000000	21.568150
2351.000000	21.481475
2352.000000	21.519525
2353.000000	21.461750
2354.000000	21.455625
2355.000000	21.506125
2356.000000	21.550200
2357.000000	21.571450
2358.000000	21.676875
2359.000000	21.647275
2360.000000	21.588550
2361.000000	21.539975
2362.000000	21.661475
2363.000000	21.818000
2364.000000	21.726950
2365.000000	21.544375
2366.000000	21.513900
2367.000000	21.604550
2368.000000	21.465000
2369.000000	21.501125
2370.000000	21.750425
2371.000000	21.680475
2372.000000	21.775425
2373.000000	21.654175
2374.000000	21.651300
2375.000000	21.651600
2376.000000	21.509025
2377.000000	21.564050
2378.000000	21.543475
2379.000000	21.639675
2380.000000	21.672900
2381.000000	21.661775
2382.000000	21.698300
2383.000000	21.657100
2384.000000	21.640550
2385.000000	21.702150
2386.000000	21.567250
2387.000000	21.654725
2388.000000	21.566975
2389.000000	21.573775
2390.000000	21.734025
2391.000000	21.825075
2392.000000	21.430275
2393.000000	21.533600
2394.000000	21.388525
2395.000000	21.573925
2396.000000	21.333325
2397.000000	21.367925
2398.000000	21.573175
2399.000000	21.510300
2400.000000	21.125850
2401.000000	19.564367
2402.000000	19.524500
2403.000000	19.493867
2404.000000	19.468100
2405.000000	19.433567
2406.000000	19.401400
2407.000000	19.366767
2408.000000	19.315700
2409.000000	19.258300
2410.000000	19.191367
2411.000000	19.126400
2412.000000	19.075100
2413.000000	19.032167
2414.000000	18.985667
2415.000000	18.927600
2416.000000	18.878933
2417.000000	18.827100
2418.000000	18.765233
2419.000000	18.712067
2420.000000	18.657233
2421.000000	18.601233
2422.000000	18.542533
2423.000000	18.475567
2424.000000	18.408067
2425.000000	18.341567
2426.000000	18.276767
2427.000000	18.218667
2428.000000	18.147833
2429.000000	18.071567
2430.000000	17.992267
2431.000000	17.913533
2432.000000	17.833967
2433.000000	17.745800
2434.000000	17.669467
2435.000000	17.590467
2436.000000	17.508067
2437.000000	17.421433
2438.000000	17.330800
2439.000000	17.240167
2440.000000	17.150433
2441.000000	17.070467
2442.000000	16.974567
2443.000000	16.878233
2444.000000	16.794000
2445.000000	16.703600
2446.000000	16.613300
2447.000000	16.517800
2448.000000	16.426767
2449.000000	16.342800
2450.000000	16.258000
2451.000000	16.174900
2452.000000	16.099900
2453.000000	16.010200
2454.000000	15.938700
2455.000000	15.858300
2456.000000	15.785467
2457.000000	15.725367
2458.000000	15.673933
2459.000000	15.609500
2460.000000	15.543833
2461.000000	15.494000
2462.000000	15.454733
2463.000000	15.415467
2464.000000	15.377100
2465.000000	15.323800
2466.000000	15.270967
2467.000000	15.228267
2468.000000	15.204133
2469.000000	15.173600
2470.000000	15.116167
2471.000000	15.099067
2472.000000	15.046100
2473.000000	15.030867
2474.000000	14.986333
2475.000000	14.984100
2476.000000	14.950667
2477.000000	14.945433
2478.000000	14.932867
2479.000000	14.895033
2480.000000	14.907533
2481.000000	14.872000
2482.000000	14.892900
2483.000000	14.833300
2484.000000	14.809633
2485.000000	14.852367
2486.000000	14.814900
2487.000000	14.825700
2488.000000	14.830200
2489.000000	14.814167
2490.000000	14.846333
2491.000000	14.860033
2492.000000	14.848500
2493.000000	14.851133
2494.000000	14.907300
2495.000000	14.916233
2496.000000	14.900300
2497.000000	14.914400
2498.000000	14.912467
2499.000000	14.901500
2500.000000	15.003333
