PE UV       SUBTECH     SPECTRUM    ASCII       PEDS        4.00        
   -1
CICIMAUCR0020-5.Sample.ASC
24/04/25
10:32:19.00
24/04/25
10:32:19.00
Vinicio Soto Monge
C. resplendens
250,000000
1
Lambda 1050
1050L1511233
PerkinElmer UV WinLab 6.3.2.0749 / 2.02.05 Lambda 900 UV/VIS/NIR, Aug  7 2015 09:38:08

0
0
3350/servo 860,8/2
0
0
UV/VIS
1
1
1
DoubleDePol,CommonBeamDepol,RBeamAtt,SBeamAtt,60mm sphere, WB InGaAs Detector
0
0
0
0
Program
Program
3350/servo 860,8/2
3350/0,2 860,8/0,2
3350/0,2 860,8/0,2
0
15.00
 
 
 
0
 
860,8
319,2
860,8
Front
100
on
S:100 R:100
0
0
0
0
 
0
 
 
 
0
 
 
0
0
0
0
0
 
 
 
 
0
0


0
0
#HDR
-1
-1
#GR
nm
%R
1.0
0.0
2500,000000
-1,000000
2251
8
88,766800
5,704900
#DATA
250.000000	4.646208
251.000000	4.626321
252.000000	4.626746
253.000000	4.622792
254.000000	4.597605
255.000000	4.590329
256.000000	4.579502
257.000000	4.590706
258.000000	4.576165
259.000000	4.557945
260.000000	4.526392
261.000000	4.510090
262.000000	4.494700
263.000000	4.492294
264.000000	4.476801
265.000000	4.441205
266.000000	4.437595
267.000000	4.427528
268.000000	4.417987
269.000000	4.397885
270.000000	4.422681
271.000000	4.398583
272.000000	4.387261
273.000000	4.359954
274.000000	4.357233
275.000000	4.383089
276.000000	4.383806
277.000000	4.381940
278.000000	4.357322
279.000000	4.361245
280.000000	4.359372
281.000000	4.353607
282.000000	4.352809
283.000000	4.360223
284.000000	4.356176
285.000000	4.368376
286.000000	4.354338
287.000000	4.355818
288.000000	4.356530
289.000000	4.351434
290.000000	4.365398
291.000000	4.370866
292.000000	4.341177
293.000000	4.356824
294.000000	4.357065
295.000000	4.343810
296.000000	4.352478
297.000000	4.328787
298.000000	4.331931
299.000000	4.347913
300.000000	4.329610
301.000000	4.352827
302.000000	4.339362
303.000000	4.355911
304.000000	4.337379
305.000000	4.327054
306.000000	4.327857
307.000000	4.336886
308.000000	4.329535
309.000000	4.329294
310.000000	4.345446
311.000000	4.336685
312.000000	4.342119
313.000000	4.348986
314.000000	4.298202
315.000000	4.320836
316.000000	4.356230
317.000000	4.767812
318.000000	4.588833
319.000000	4.502381
320.000000	4.539034
321.000000	4.688851
322.000000	4.573553
323.000000	4.475253
324.000000	4.540095
325.000000	4.492670
326.000000	4.504322
327.000000	4.431771
328.000000	4.403368
329.000000	4.368139
330.000000	4.442060
331.000000	4.532659
332.000000	4.450364
333.000000	4.557276
334.000000	4.459043
335.000000	4.510564
336.000000	4.469514
337.000000	4.458132
338.000000	4.428357
339.000000	4.497482
340.000000	4.473714
341.000000	4.499856
342.000000	4.520962
343.000000	4.531680
344.000000	4.551270
345.000000	4.607029
346.000000	4.634145
347.000000	4.601965
348.000000	4.619767
349.000000	4.601708
350.000000	4.653639
351.000000	4.689138
352.000000	4.702019
353.000000	4.709170
354.000000	4.717930
355.000000	4.773805
356.000000	4.797292
357.000000	4.825432
358.000000	4.844259
359.000000	4.878573
360.000000	4.934599
361.000000	4.951515
362.000000	4.921931
363.000000	4.961513
364.000000	5.021025
365.000000	5.057496
366.000000	5.081977
367.000000	5.153926
368.000000	5.155782
369.000000	5.201449
370.000000	5.199107
371.000000	5.217701
372.000000	5.278289
373.000000	5.286257
374.000000	5.312087
375.000000	5.370911
376.000000	5.587552
377.000000	5.620666
378.000000	5.679775
379.000000	5.744485
380.000000	5.815418
381.000000	5.891835
382.000000	5.976716
383.000000	6.069161
384.000000	6.158981
385.000000	6.260183
386.000000	6.357209
387.000000	6.457645
388.000000	6.563195
389.000000	6.684845
390.000000	6.809439
391.000000	6.935425
392.000000	7.073537
393.000000	7.217498
394.000000	7.367672
395.000000	7.515837
396.000000	7.673106
397.000000	7.841954
398.000000	8.019296
399.000000	8.192066
400.000000	8.376580
401.000000	8.576468
402.000000	8.778964
403.000000	8.982254
404.000000	9.192696
405.000000	9.416934
406.000000	9.648311
407.000000	9.886685
408.000000	10.122335
409.000000	10.361874
410.000000	10.609404
411.000000	10.863957
412.000000	11.127666
413.000000	11.382511
414.000000	11.643484
415.000000	11.918324
416.000000	12.188301
417.000000	12.447122
418.000000	12.709649
419.000000	12.974744
420.000000	13.233324
421.000000	13.480593
422.000000	13.738349
423.000000	13.992807
424.000000	14.231514
425.000000	14.470442
426.000000	14.705044
427.000000	14.927075
428.000000	15.147693
429.000000	15.361317
430.000000	15.554553
431.000000	15.751019
432.000000	15.947779
433.000000	16.126321
434.000000	16.302584
435.000000	16.471126
436.000000	16.626940
437.000000	16.770652
438.000000	16.915335
439.000000	17.054893
440.000000	17.187898
441.000000	17.306577
442.000000	17.419547
443.000000	17.527294
444.000000	17.630116
445.000000	17.705478
446.000000	17.760165
447.000000	17.814192
448.000000	17.860455
449.000000	17.904630
450.000000	17.943602
451.000000	17.973903
452.000000	18.000296
453.000000	18.012649
454.000000	18.011954
455.000000	18.018804
456.000000	18.024768
457.000000	18.021973
458.000000	18.008947
459.000000	17.997561
460.000000	17.981997
461.000000	17.962827
462.000000	17.939962
463.000000	17.913283
464.000000	17.887646
465.000000	17.860745
466.000000	17.837107
467.000000	17.812231
468.000000	17.795943
469.000000	17.787957
470.000000	17.778317
471.000000	17.782985
472.000000	17.803642
473.000000	17.837897
474.000000	17.893691
475.000000	17.960624
476.000000	18.045691
477.000000	18.159567
478.000000	18.294174
479.000000	18.444849
480.000000	18.638870
481.000000	18.881116
482.000000	19.151425
483.000000	19.440930
484.000000	19.743160
485.000000	20.061652
486.000000	20.414782
487.000000	20.796649
488.000000	21.210558
489.000000	21.649261
490.000000	22.111876
491.000000	22.604949
492.000000	23.114732
493.000000	23.640394
494.000000	24.183305
495.000000	24.738879
496.000000	25.291915
497.000000	25.847328
498.000000	26.403062
499.000000	26.967690
500.000000	27.530389
501.000000	28.089003
502.000000	28.656361
503.000000	29.226118
504.000000	29.781563
505.000000	30.337798
506.000000	30.879753
507.000000	31.416136
508.000000	31.952665
509.000000	32.491829
510.000000	33.030442
511.000000	33.563682
512.000000	34.098060
513.000000	34.630402
514.000000	35.160160
515.000000	35.683930
516.000000	36.205690
517.000000	36.717404
518.000000	37.226830
519.000000	37.743685
520.000000	38.249830
521.000000	38.763195
522.000000	39.267874
523.000000	39.765654
524.000000	40.291399
525.000000	40.797839
526.000000	41.303720
527.000000	41.821462
528.000000	42.341822
529.000000	42.874189
530.000000	43.423957
531.000000	43.990925
532.000000	44.562739
533.000000	45.137720
534.000000	45.733390
535.000000	46.324506
536.000000	46.921644
537.000000	47.518915
538.000000	48.104836
539.000000	48.702219
540.000000	49.283993
541.000000	49.844857
542.000000	50.400386
543.000000	50.931131
544.000000	51.463589
545.000000	51.968357
546.000000	52.466621
547.000000	52.921796
548.000000	53.348644
549.000000	53.751558
550.000000	54.116737
551.000000	54.483632
552.000000	54.829345
553.000000	55.137029
554.000000	55.427641
555.000000	55.700003
556.000000	55.949043
557.000000	56.182038
558.000000	56.397040
559.000000	56.582219
560.000000	56.665277
561.000000	56.838326
562.000000	57.004580
563.000000	57.157623
564.000000	57.264394
565.000000	57.369676
566.000000	57.472018
567.000000	57.544265
568.000000	57.623372
569.000000	57.679857
570.000000	57.743022
571.000000	57.779617
572.000000	57.809986
573.000000	57.837540
574.000000	57.865027
575.000000	57.909622
576.000000	57.923265
577.000000	57.939430
578.000000	57.927151
579.000000	57.918386
580.000000	57.926277
581.000000	57.906731
582.000000	57.904522
583.000000	57.886128
584.000000	57.831155
585.000000	57.799885
586.000000	57.728421
587.000000	57.675984
588.000000	57.576135
589.000000	57.488801
590.000000	57.368622
591.000000	57.267783
592.000000	57.096872
593.000000	56.944977
594.000000	56.771496
595.000000	56.577970
596.000000	56.400658
597.000000	56.177522
598.000000	55.948834
599.000000	55.698057
600.000000	55.436233
601.000000	55.169408
602.000000	54.871545
603.000000	54.578842
604.000000	54.270129
605.000000	53.972009
606.000000	53.640663
607.000000	53.312866
608.000000	52.999599
609.000000	52.668340
610.000000	52.357143
611.000000	52.020681
612.000000	51.683312
613.000000	51.356665
614.000000	51.032990
615.000000	50.710706
616.000000	50.383170
617.000000	50.062741
618.000000	49.751307
619.000000	49.422064
620.000000	49.089796
621.000000	48.741741
622.000000	48.391345
623.000000	48.050252
624.000000	47.697280
625.000000	47.344945
626.000000	46.968470
627.000000	46.603773
628.000000	46.239446
629.000000	45.846444
630.000000	45.467641
631.000000	45.081479
632.000000	44.705486
633.000000	44.321268
634.000000	43.967081
635.000000	43.634024
636.000000	43.324017
637.000000	43.010091
638.000000	42.765679
639.000000	42.495553
640.000000	42.303404
641.000000	42.114764
642.000000	41.968383
643.000000	41.856852
644.000000	41.797363
645.000000	41.773365
646.000000	41.749242
647.000000	41.827128
648.000000	41.912635
649.000000	42.044858
650.000000	42.217769
651.000000	42.415090
652.000000	42.642433
653.000000	42.910422
654.000000	43.197148
655.000000	43.506279
656.000000	43.823342
657.000000	44.175528
658.000000	44.543661
659.000000	44.926793
660.000000	45.330768
661.000000	45.733160
662.000000	46.125685
663.000000	46.564765
664.000000	47.008146
665.000000	47.437415
666.000000	47.863836
667.000000	48.309154
668.000000	48.726280
669.000000	49.149004
670.000000	49.555505
671.000000	49.974082
672.000000	50.392439
673.000000	50.799443
674.000000	51.176313
675.000000	51.531855
676.000000	51.898542
677.000000	52.219234
678.000000	52.558815
679.000000	52.886786
680.000000	53.189871
681.000000	53.466388
682.000000	53.739319
683.000000	54.000589
684.000000	54.261753
685.000000	54.478584
686.000000	54.702910
687.000000	54.899626
688.000000	55.059538
689.000000	55.246931
690.000000	55.436538
691.000000	55.590322
692.000000	55.751768
693.000000	55.909563
694.000000	56.042570
695.000000	56.151164
696.000000	56.266683
697.000000	56.369049
698.000000	56.467421
699.000000	56.529180
700.000000	56.615453
701.000000	56.707061
702.000000	56.754363
703.000000	56.797120
704.000000	56.865078
705.000000	56.921525
706.000000	56.962668
707.000000	56.999389
708.000000	57.027853
709.000000	57.056759
710.000000	57.110061
711.000000	57.121791
712.000000	57.143525
713.000000	57.146783
714.000000	57.152151
715.000000	57.160925
716.000000	57.176913
717.000000	57.200202
718.000000	57.214741
719.000000	57.215815
720.000000	57.241990
721.000000	57.253676
722.000000	57.284061
723.000000	57.319812
724.000000	57.330882
725.000000	57.365498
726.000000	57.380063
727.000000	57.435095
728.000000	57.514433
729.000000	57.560221
730.000000	57.630306
731.000000	57.682377
732.000000	57.744236
733.000000	57.837841
734.000000	57.934853
735.000000	58.016130
736.000000	58.114985
737.000000	58.201070
738.000000	58.292332
739.000000	58.392504
740.000000	58.507074
741.000000	58.639715
742.000000	58.759318
743.000000	58.901469
744.000000	58.998931
745.000000	59.100909
746.000000	59.242583
747.000000	59.377085
748.000000	59.493843
749.000000	59.598634
750.000000	59.714317
751.000000	59.849016
752.000000	59.968316
753.000000	60.086036
754.000000	60.215449
755.000000	60.341107
756.000000	60.455441
757.000000	60.569961
758.000000	60.696282
759.000000	60.792973
760.000000	60.878864
761.000000	60.947468
762.000000	61.050167
763.000000	61.164311
764.000000	61.230966
765.000000	61.304005
766.000000	61.382101
767.000000	61.423616
768.000000	61.474700
769.000000	61.563786
770.000000	61.669783
771.000000	61.727600
772.000000	61.769841
773.000000	61.826738
774.000000	61.864320
775.000000	61.876967
776.000000	61.903939
777.000000	61.910508
778.000000	61.941325
779.000000	61.972277
780.000000	62.000526
781.000000	62.000637
782.000000	61.984143
783.000000	61.978570
784.000000	62.000340
785.000000	61.994256
786.000000	61.981432
787.000000	61.950662
788.000000	61.924769
789.000000	61.916491
790.000000	61.899989
791.000000	61.866001
792.000000	61.766963
793.000000	61.741311
794.000000	61.720127
795.000000	61.696741
796.000000	61.640852
797.000000	61.565230
798.000000	61.505875
799.000000	61.465013
800.000000	61.337618
801.000000	61.269485
802.000000	61.203496
803.000000	61.121901
804.000000	61.053639
805.000000	60.977606
806.000000	60.897826
807.000000	60.776232
808.000000	60.702626
809.000000	60.648690
810.000000	60.485041
811.000000	60.405282
812.000000	60.308617
813.000000	60.267305
814.000000	60.123898
815.000000	60.083840
816.000000	59.990783
817.000000	59.815870
818.000000	59.816045
819.000000	59.754156
820.000000	59.669267
821.000000	59.536135
822.000000	59.470683
823.000000	59.424877
824.000000	59.302737
825.000000	59.243982
826.000000	59.195580
827.000000	59.130807
828.000000	59.045325
829.000000	59.006502
830.000000	58.945528
831.000000	58.836653
832.000000	58.790129
833.000000	58.758171
834.000000	58.701155
835.000000	58.637064
836.000000	58.497092
837.000000	58.436533
838.000000	58.324367
839.000000	58.388366
840.000000	58.281007
841.000000	58.211146
842.000000	58.245672
843.000000	58.180689
844.000000	58.017485
845.000000	57.957712
846.000000	58.032699
847.000000	57.882416
848.000000	57.924420
849.000000	57.757482
850.000000	57.692823
851.000000	57.709075
852.000000	57.509070
853.000000	57.268567
854.000000	57.104958
855.000000	57.083444
856.000000	56.817491
857.000000	56.968416
858.000000	57.905120
859.000000	56.781400
860.000000	56.718520
861.000000	56.694080
862.000000	56.663780
863.000000	56.637000
864.000000	56.555220
865.000000	56.497920
866.000000	56.418220
867.000000	56.399080
868.000000	56.444140
869.000000	56.564740
870.000000	56.686640
871.000000	56.786080
872.000000	56.883280
873.000000	56.903560
874.000000	56.972520
875.000000	57.013200
876.000000	57.050820
877.000000	57.077840
878.000000	57.111220
879.000000	57.125160
880.000000	57.145880
881.000000	57.143620
882.000000	57.147120
883.000000	57.193920
884.000000	57.206540
885.000000	57.197860
886.000000	57.224720
887.000000	57.241300
888.000000	57.217520
889.000000	57.211900
890.000000	57.224680
891.000000	57.222760
892.000000	57.234140
893.000000	57.252540
894.000000	57.253980
895.000000	57.271820
896.000000	57.268020
897.000000	57.253260
898.000000	57.257780
899.000000	57.241080
900.000000	57.235840
901.000000	57.227960
902.000000	57.227460
903.000000	57.224260
904.000000	57.221740
905.000000	57.222840
906.000000	57.219460
907.000000	57.189680
908.000000	57.206680
909.000000	57.202000
910.000000	57.199020
911.000000	57.184840
912.000000	57.184700
913.000000	57.192860
914.000000	57.189640
915.000000	57.187600
916.000000	57.185660
917.000000	57.186900
918.000000	57.165740
919.000000	57.155960
920.000000	57.145240
921.000000	57.121720
922.000000	57.094520
923.000000	57.086700
924.000000	57.072780
925.000000	57.052020
926.000000	57.027260
927.000000	56.997020
928.000000	56.963600
929.000000	56.937840
930.000000	56.915080
931.000000	56.881280
932.000000	56.838300
933.000000	56.786100
934.000000	56.739360
935.000000	56.665480
936.000000	56.614580
937.000000	56.546900
938.000000	56.488860
939.000000	56.446500
940.000000	56.415380
941.000000	56.358240
942.000000	56.312340
943.000000	56.262220
944.000000	56.198480
945.000000	56.149700
946.000000	56.103100
947.000000	56.050740
948.000000	56.018820
949.000000	55.963780
950.000000	55.915240
951.000000	55.869860
952.000000	55.824340
953.000000	55.776800
954.000000	55.723660
955.000000	55.684320
956.000000	55.652260
957.000000	55.623920
958.000000	55.597680
959.000000	55.558140
960.000000	55.528500
961.000000	55.508440
962.000000	55.486520
963.000000	55.464040
964.000000	55.434220
965.000000	55.412260
966.000000	55.398880
967.000000	55.391320
968.000000	55.386560
969.000000	55.355120
970.000000	55.354120
971.000000	55.341260
972.000000	55.325160
973.000000	55.313840
974.000000	55.309260
975.000000	55.300240
976.000000	55.283740
977.000000	55.270380
978.000000	55.254040
979.000000	55.248520
980.000000	55.248460
981.000000	55.228880
982.000000	55.204960
983.000000	55.193280
984.000000	55.189320
985.000000	55.171560
986.000000	55.161820
987.000000	55.159760
988.000000	55.151560
989.000000	55.138920
990.000000	55.125760
991.000000	55.114100
992.000000	55.103320
993.000000	55.099540
994.000000	55.094460
995.000000	55.101460
996.000000	55.101860
997.000000	55.093840
998.000000	55.095740
999.000000	55.097280
1000.000000	55.092600
1001.000000	55.089020
1002.000000	55.087040
1003.000000	55.088480
1004.000000	55.089820
1005.000000	55.083800
1006.000000	55.080640
1007.000000	55.082700
1008.000000	55.084080
1009.000000	55.079240
1010.000000	55.068000
1011.000000	55.048940
1012.000000	55.041880
1013.000000	55.042940
1014.000000	55.034760
1015.000000	55.030620
1016.000000	55.035860
1017.000000	55.030700
1018.000000	55.021640
1019.000000	55.018180
1020.000000	55.018100
1021.000000	55.017960
1022.000000	55.019340
1023.000000	55.013020
1024.000000	55.007020
1025.000000	55.009620
1026.000000	55.013780
1027.000000	55.011820
1028.000000	55.010280
1029.000000	55.009720
1030.000000	55.007900
1031.000000	55.011060
1032.000000	55.006380
1033.000000	54.999680
1034.000000	54.991640
1035.000000	54.985640
1036.000000	54.991680
1037.000000	54.993480
1038.000000	54.992640
1039.000000	55.001080
1040.000000	55.009260
1041.000000	55.012860
1042.000000	55.019180
1043.000000	55.025020
1044.000000	55.036660
1045.000000	55.049320
1046.000000	55.063780
1047.000000	55.088800
1048.000000	55.116020
1049.000000	55.141320
1050.000000	55.166280
1051.000000	55.201620
1052.000000	55.239300
1053.000000	55.268480
1054.000000	55.303260
1055.000000	55.346240
1056.000000	55.391180
1057.000000	55.437740
1058.000000	55.484940
1059.000000	55.536020
1060.000000	55.579900
1061.000000	55.614100
1062.000000	55.647680
1063.000000	55.692880
1064.000000	55.736640
1065.000000	55.780900
1066.000000	55.821640
1067.000000	55.871420
1068.000000	55.916580
1069.000000	55.956940
1070.000000	55.995400
1071.000000	56.031880
1072.000000	56.069240
1073.000000	56.098100
1074.000000	56.124860
1075.000000	56.152820
1076.000000	56.179860
1077.000000	56.211400
1078.000000	56.234140
1079.000000	56.253540
1080.000000	56.278400
1081.000000	56.299500
1082.000000	56.320640
1083.000000	56.338140
1084.000000	56.351920
1085.000000	56.360040
1086.000000	56.378520
1087.000000	56.402320
1088.000000	56.424740
1089.000000	56.442020
1090.000000	56.466220
1091.000000	56.473160
1092.000000	56.486380
1093.000000	56.507500
1094.000000	56.522520
1095.000000	56.524800
1096.000000	56.529940
1097.000000	56.543460
1098.000000	56.562480
1099.000000	56.572740
1100.000000	56.580140
1101.000000	56.581300
1102.000000	56.597000
1103.000000	56.612280
1104.000000	56.626460
1105.000000	56.633720
1106.000000	56.637160
1107.000000	56.643680
1108.000000	56.656500
1109.000000	56.681860
1110.000000	56.682560
1111.000000	56.689740
1112.000000	56.689440
1113.000000	56.710760
1114.000000	56.731100
1115.000000	56.748280
1116.000000	56.763800
1117.000000	56.775400
1118.000000	56.783660
1119.000000	56.788660
1120.000000	56.800020
1121.000000	56.796060
1122.000000	56.782180
1123.000000	56.756340
1124.000000	56.736300
1125.000000	56.708380
1126.000000	56.681260
1127.000000	56.631140
1128.000000	56.586060
1129.000000	56.533580
1130.000000	56.447380
1131.000000	56.355380
1132.000000	56.262760
1133.000000	56.175680
1134.000000	56.076680
1135.000000	55.917260
1136.000000	55.723200
1137.000000	55.559260
1138.000000	55.397300
1139.000000	55.249460
1140.000000	55.112940
1141.000000	54.965900
1142.000000	54.815480
1143.000000	54.690000
1144.000000	54.563100
1145.000000	54.450920
1146.000000	54.374080
1147.000000	54.298900
1148.000000	54.235880
1149.000000	54.219780
1150.000000	54.205760
1151.000000	54.198740
1152.000000	54.179940
1153.000000	54.160880
1154.000000	54.109640
1155.000000	54.049580
1156.000000	53.968600
1157.000000	53.849840
1158.000000	53.729560
1159.000000	53.591940
1160.000000	53.447240
1161.000000	53.277780
1162.000000	53.107960
1163.000000	52.925960
1164.000000	52.750240
1165.000000	52.566160
1166.000000	52.384040
1167.000000	52.208160
1168.000000	52.030540
1169.000000	51.861100
1170.000000	51.689520
1171.000000	51.525040
1172.000000	51.367020
1173.000000	51.211600
1174.000000	51.063280
1175.000000	50.923880
1176.000000	50.781000
1177.000000	50.635040
1178.000000	50.479520
1179.000000	50.298500
1180.000000	50.083880
1181.000000	49.845240
1182.000000	49.623400
1183.000000	49.402860
1184.000000	49.223760
1185.000000	49.092440
1186.000000	49.034000
1187.000000	49.041080
1188.000000	49.099140
1189.000000	49.221960
1190.000000	49.401700
1191.000000	49.612580
1192.000000	49.859340
1193.000000	50.081780
1194.000000	50.289500
1195.000000	50.465340
1196.000000	50.611180
1197.000000	50.725440
1198.000000	50.821220
1199.000000	50.908780
1200.000000	50.977200
1201.000000	51.021700
1202.000000	51.058260
1203.000000	51.101760
1204.000000	51.129820
1205.000000	51.156260
1206.000000	51.190760
1207.000000	51.238480
1208.000000	51.278160
1209.000000	51.334120
1210.000000	51.390520
1211.000000	51.470040
1212.000000	51.542000
1213.000000	51.599960
1214.000000	51.664140
1215.000000	51.734940
1216.000000	51.803000
1217.000000	51.874120
1218.000000	51.944760
1219.000000	52.012220
1220.000000	52.093240
1221.000000	52.165120
1222.000000	52.250760
1223.000000	52.335980
1224.000000	52.428300
1225.000000	52.514160
1226.000000	52.596760
1227.000000	52.685340
1228.000000	52.763880
1229.000000	52.848380
1230.000000	52.929140
1231.000000	53.014500
1232.000000	53.097620
1233.000000	53.177620
1234.000000	53.267700
1235.000000	53.341560
1236.000000	53.421320
1237.000000	53.498720
1238.000000	53.567720
1239.000000	53.640480
1240.000000	53.720420
1241.000000	53.787860
1242.000000	53.861440
1243.000000	53.936420
1244.000000	54.009180
1245.000000	54.089140
1246.000000	54.150740
1247.000000	54.212840
1248.000000	54.276920
1249.000000	54.324260
1250.000000	54.367240
1251.000000	54.428260
1252.000000	54.471800
1253.000000	54.514260
1254.000000	54.575160
1255.000000	54.614320
1256.000000	54.640620
1257.000000	54.663400
1258.000000	54.688680
1259.000000	54.722900
1260.000000	54.756540
1261.000000	54.783480
1262.000000	54.810580
1263.000000	54.841200
1264.000000	54.871500
1265.000000	54.901880
1266.000000	54.922320
1267.000000	54.942340
1268.000000	54.964160
1269.000000	54.984020
1270.000000	55.004060
1271.000000	55.030460
1272.000000	55.060560
1273.000000	55.089180
1274.000000	55.114100
1275.000000	55.137460
1276.000000	55.162160
1277.000000	55.192920
1278.000000	55.227540
1279.000000	55.257520
1280.000000	55.295380
1281.000000	55.334060
1282.000000	55.371980
1283.000000	55.407040
1284.000000	55.441880
1285.000000	55.482640
1286.000000	55.520620
1287.000000	55.561860
1288.000000	55.601000
1289.000000	55.634880
1290.000000	55.661400
1291.000000	55.681920
1292.000000	55.699620
1293.000000	55.723300
1294.000000	55.751960
1295.000000	55.780880
1296.000000	55.795920
1297.000000	55.794600
1298.000000	55.793540
1299.000000	55.798860
1300.000000	55.803260
1301.000000	55.809820
1302.000000	55.817020
1303.000000	55.814320
1304.000000	55.807200
1305.000000	55.799080
1306.000000	55.790400
1307.000000	55.779300
1308.000000	55.759120
1309.000000	55.731400
1310.000000	55.706020
1311.000000	55.684700
1312.000000	55.656100
1313.000000	55.619160
1314.000000	55.583960
1315.000000	55.542180
1316.000000	55.493120
1317.000000	55.449060
1318.000000	55.410100
1319.000000	55.356860
1320.000000	55.301160
1321.000000	55.247260
1322.000000	55.189160
1323.000000	55.131140
1324.000000	55.063480
1325.000000	54.995500
1326.000000	54.920740
1327.000000	54.836000
1328.000000	54.754280
1329.000000	54.673640
1330.000000	54.584320
1331.000000	54.493820
1332.000000	54.398260
1333.000000	54.290920
1334.000000	54.176080
1335.000000	54.063980
1336.000000	53.947880
1337.000000	53.824300
1338.000000	53.684200
1339.000000	53.537080
1340.000000	53.386260
1341.000000	53.228760
1342.000000	53.061480
1343.000000	52.898040
1344.000000	52.732080
1345.000000	52.532780
1346.000000	52.335580
1347.000000	52.142660
1348.000000	51.927440
1349.000000	51.693320
1350.000000	51.475060
1351.000000	51.226300
1352.000000	50.942860
1353.000000	50.663340
1354.000000	50.407040
1355.000000	50.113820
1356.000000	49.853260
1357.000000	49.676080
1358.000000	49.574440
1359.000000	49.512760
1360.000000	49.492960
1361.000000	49.466720
1362.000000	49.315880
1363.000000	49.188920
1364.000000	49.121340
1365.000000	48.993000
1366.000000	48.860520
1367.000000	48.766880
1368.000000	48.588320
1369.000000	48.387740
1370.000000	48.238840
1371.000000	48.049060
1372.000000	47.789620
1373.000000	47.593160
1374.000000	47.397200
1375.000000	47.233060
1376.000000	47.083500
1377.000000	46.985520
1378.000000	46.896120
1379.000000	46.868400
1380.000000	46.782780
1381.000000	46.711460
1382.000000	46.497440
1383.000000	46.220220
1384.000000	45.943960
1385.000000	45.641680
1386.000000	45.373720
1387.000000	45.128620
1388.000000	44.852300
1389.000000	44.514020
1390.000000	44.299440
1391.000000	44.161620
1392.000000	43.933080
1393.000000	43.689760
1394.000000	43.553120
1395.000000	43.406180
1396.000000	43.078460
1397.000000	42.748580
1398.000000	42.551580
1399.000000	42.455060
1400.000000	42.220200
1401.000000	41.827000
1402.000000	41.433520
1403.000000	41.196560
1404.000000	40.900320
1405.000000	40.546340
1406.000000	40.219540
1407.000000	39.913420
1408.000000	39.586440
1409.000000	39.276240
1410.000000	38.908780
1411.000000	38.604540
1412.000000	38.351980
1413.000000	38.157440
1414.000000	37.915360
1415.000000	37.615060
1416.000000	37.362020
1417.000000	37.157400
1418.000000	36.975280
1419.000000	36.744840
1420.000000	36.507320
1421.000000	36.275700
1422.000000	36.068200
1423.000000	35.878720
1424.000000	35.670220
1425.000000	35.465440
1426.000000	35.285460
1427.000000	35.097760
1428.000000	34.933020
1429.000000	34.765000
1430.000000	34.617960
1431.000000	34.499640
1432.000000	34.338840
1433.000000	34.212980
1434.000000	34.086980
1435.000000	33.950060
1436.000000	33.837620
1437.000000	33.726500
1438.000000	33.632000
1439.000000	33.500900
1440.000000	33.399380
1441.000000	33.281320
1442.000000	33.176120
1443.000000	33.060920
1444.000000	32.974620
1445.000000	32.895460
1446.000000	32.777060
1447.000000	32.652720
1448.000000	32.551860
1449.000000	32.471840
1450.000000	32.392320
1451.000000	32.294500
1452.000000	32.202640
1453.000000	32.106400
1454.000000	32.016600
1455.000000	31.934520
1456.000000	31.846340
1457.000000	31.770180
1458.000000	31.689800
1459.000000	31.610700
1460.000000	31.549920
1461.000000	31.470160
1462.000000	31.412320
1463.000000	31.346120
1464.000000	31.285500
1465.000000	31.226280
1466.000000	31.177900
1467.000000	31.122820
1468.000000	31.085080
1469.000000	31.047880
1470.000000	31.003860
1471.000000	30.966000
1472.000000	30.917080
1473.000000	30.873360
1474.000000	30.831760
1475.000000	30.790440
1476.000000	30.752060
1477.000000	30.720120
1478.000000	30.688960
1479.000000	30.660480
1480.000000	30.634800
1481.000000	30.598860
1482.000000	30.570400
1483.000000	30.545940
1484.000000	30.523860
1485.000000	30.501640
1486.000000	30.489920
1487.000000	30.468820
1488.000000	30.452180
1489.000000	30.441380
1490.000000	30.425740
1491.000000	30.410400
1492.000000	30.396440
1493.000000	30.383420
1494.000000	30.370780
1495.000000	30.368220
1496.000000	30.371160
1497.000000	30.375520
1498.000000	30.391460
1499.000000	30.407820
1500.000000	30.427440
1501.000000	30.462400
1502.000000	30.488020
1503.000000	30.513640
1504.000000	30.548080
1505.000000	30.578000
1506.000000	30.608520
1507.000000	30.641720
1508.000000	30.688220
1509.000000	30.727140
1510.000000	30.764560
1511.000000	30.809060
1512.000000	30.854260
1513.000000	30.890240
1514.000000	30.935160
1515.000000	30.971800
1516.000000	31.008500
1517.000000	31.049940
1518.000000	31.084400
1519.000000	31.125000
1520.000000	31.175960
1521.000000	31.214980
1522.000000	31.248340
1523.000000	31.285740
1524.000000	31.331480
1525.000000	31.370580
1526.000000	31.402680
1527.000000	31.437240
1528.000000	31.476800
1529.000000	31.504600
1530.000000	31.536320
1531.000000	31.573360
1532.000000	31.609720
1533.000000	31.640740
1534.000000	31.663120
1535.000000	31.683820
1536.000000	31.704040
1537.000000	31.723780
1538.000000	31.750860
1539.000000	31.773340
1540.000000	31.796440
1541.000000	31.821020
1542.000000	31.842260
1543.000000	31.862400
1544.000000	31.888300
1545.000000	31.917360
1546.000000	31.945040
1547.000000	31.977500
1548.000000	32.016180
1549.000000	32.055560
1550.000000	32.094160
1551.000000	32.135620
1552.000000	32.170120
1553.000000	32.202840
1554.000000	32.237820
1555.000000	32.269500
1556.000000	32.290400
1557.000000	32.307860
1558.000000	32.323360
1559.000000	32.330240
1560.000000	32.333260
1561.000000	32.331840
1562.000000	32.330940
1563.000000	32.331340
1564.000000	32.322100
1565.000000	32.320800
1566.000000	32.308280
1567.000000	32.288680
1568.000000	32.272300
1569.000000	32.251800
1570.000000	32.242480
1571.000000	32.234780
1572.000000	32.221180
1573.000000	32.210760
1574.000000	32.209700
1575.000000	32.213640
1576.000000	32.222020
1577.000000	32.231880
1578.000000	32.239880
1579.000000	32.251700
1580.000000	32.267520
1581.000000	32.290760
1582.000000	32.322940
1583.000000	32.349100
1584.000000	32.379940
1585.000000	32.412680
1586.000000	32.441540
1587.000000	32.476940
1588.000000	32.517620
1589.000000	32.554460
1590.000000	32.592700
1591.000000	32.633500
1592.000000	32.679800
1593.000000	32.722120
1594.000000	32.766700
1595.000000	32.818900
1596.000000	32.871380
1597.000000	32.925200
1598.000000	32.974920
1599.000000	33.031160
1600.000000	33.087040
1601.000000	33.148780
1602.000000	33.212340
1603.000000	33.278600
1604.000000	33.350860
1605.000000	33.416020
1606.000000	33.481380
1607.000000	33.537140
1608.000000	33.590600
1609.000000	33.653980
1610.000000	33.705900
1611.000000	33.773620
1612.000000	33.824500
1613.000000	33.878100
1614.000000	33.936760
1615.000000	33.983740
1616.000000	34.032740
1617.000000	34.088660
1618.000000	34.136640
1619.000000	34.195440
1620.000000	34.256920
1621.000000	34.307400
1622.000000	34.363800
1623.000000	34.419260
1624.000000	34.480880
1625.000000	34.538800
1626.000000	34.593680
1627.000000	34.656400
1628.000000	34.724280
1629.000000	34.791860
1630.000000	34.848740
1631.000000	34.901620
1632.000000	34.953260
1633.000000	35.008680
1634.000000	35.068080
1635.000000	35.114800
1636.000000	35.170380
1637.000000	35.214380
1638.000000	35.251580
1639.000000	35.296800
1640.000000	35.333820
1641.000000	35.363760
1642.000000	35.404320
1643.000000	35.439380
1644.000000	35.480000
1645.000000	35.521680
1646.000000	35.549580
1647.000000	35.572940
1648.000000	35.604240
1649.000000	35.627600
1650.000000	35.651820
1651.000000	35.663020
1652.000000	35.671600
1653.000000	35.670120
1654.000000	35.666080
1655.000000	35.659280
1656.000000	35.655480
1657.000000	35.626040
1658.000000	35.590940
1659.000000	35.547020
1660.000000	35.505500
1661.000000	35.438640
1662.000000	35.373420
1663.000000	35.305920
1664.000000	35.216500
1665.000000	35.122400
1666.000000	35.006380
1667.000000	34.909280
1668.000000	34.785960
1669.000000	34.643960
1670.000000	34.492380
1671.000000	34.328940
1672.000000	34.146640
1673.000000	33.945820
1674.000000	33.724740
1675.000000	33.493100
1676.000000	33.225140
1677.000000	32.921940
1678.000000	32.569860
1679.000000	32.210780
1680.000000	31.819180
1681.000000	31.433880
1682.000000	31.081600
1683.000000	30.807060
1684.000000	30.609040
1685.000000	30.473000
1686.000000	30.387100
1687.000000	30.329860
1688.000000	30.281440
1689.000000	30.236380
1690.000000	30.184560
1691.000000	30.102020
1692.000000	30.020160
1693.000000	29.944000
1694.000000	29.887320
1695.000000	29.849620
1696.000000	29.857880
1697.000000	29.895640
1698.000000	29.964540
1699.000000	30.046100
1700.000000	30.151320
1701.000000	30.252720
1702.000000	30.328820
1703.000000	30.385940
1704.000000	30.440260
1705.000000	30.486900
1706.000000	30.506680
1707.000000	30.506380
1708.000000	30.502380
1709.000000	30.494560
1710.000000	30.462360
1711.000000	30.422800
1712.000000	30.368520
1713.000000	30.288760
1714.000000	30.210100
1715.000000	30.109260
1716.000000	30.009860
1717.000000	29.915800
1718.000000	29.821400
1719.000000	29.735740
1720.000000	29.651580
1721.000000	29.587960
1722.000000	29.541120
1723.000000	29.499840
1724.000000	29.462560
1725.000000	29.422440
1726.000000	29.377120
1727.000000	29.337800
1728.000000	29.274780
1729.000000	29.210420
1730.000000	29.150580
1731.000000	29.095720
1732.000000	29.046160
1733.000000	29.021840
1734.000000	29.016080
1735.000000	29.042280
1736.000000	29.091660
1737.000000	29.178220
1738.000000	29.292600
1739.000000	29.426940
1740.000000	29.568020
1741.000000	29.723740
1742.000000	29.866960
1743.000000	30.029380
1744.000000	30.155460
1745.000000	30.273940
1746.000000	30.370220
1747.000000	30.458340
1748.000000	30.529180
1749.000000	30.602460
1750.000000	30.653100
1751.000000	30.693740
1752.000000	30.723780
1753.000000	30.741660
1754.000000	30.749320
1755.000000	30.748320
1756.000000	30.736660
1757.000000	30.714420
1758.000000	30.685240
1759.000000	30.650580
1760.000000	30.622420
1761.000000	30.588780
1762.000000	30.565220
1763.000000	30.558240
1764.000000	30.576460
1765.000000	30.607340
1766.000000	30.657120
1767.000000	30.703700
1768.000000	30.771720
1769.000000	30.850080
1770.000000	30.936500
1771.000000	31.020240
1772.000000	31.101400
1773.000000	31.186960
1774.000000	31.278500
1775.000000	31.363500
1776.000000	31.438860
1777.000000	31.510860
1778.000000	31.580940
1779.000000	31.634520
1780.000000	31.682040
1781.000000	31.728500
1782.000000	31.777440
1783.000000	31.831020
1784.000000	31.887280
1785.000000	31.930060
1786.000000	31.967580
1787.000000	32.011260
1788.000000	32.048740
1789.000000	32.084020
1790.000000	32.119860
1791.000000	32.160620
1792.000000	32.194160
1793.000000	32.227180
1794.000000	32.262120
1795.000000	32.290740
1796.000000	32.323860
1797.000000	32.354840
1798.000000	32.399420
1799.000000	32.446240
1800.000000	32.490320
1801.000000	32.527560
1802.000000	32.537700
1803.000000	32.561300
1804.000000	32.606720
1805.000000	32.643260
1806.000000	32.671580
1807.000000	32.696180
1808.000000	32.735380
1809.000000	32.800800
1810.000000	32.842820
1811.000000	32.861640
1812.000000	32.871980
1813.000000	32.894640
1814.000000	32.927360
1815.000000	32.940000
1816.000000	32.931440
1817.000000	32.938640
1818.000000	33.005520
1819.000000	33.079820
1820.000000	33.083920
1821.000000	33.012960
1822.000000	32.955740
1823.000000	32.982240
1824.000000	33.067060
1825.000000	33.149100
1826.000000	33.196020
1827.000000	33.209060
1828.000000	33.249540
1829.000000	33.323140
1830.000000	33.357420
1831.000000	33.363280
1832.000000	33.406020
1833.000000	33.511960
1834.000000	33.664580
1835.000000	33.768000
1836.000000	33.793340
1837.000000	33.784400
1838.000000	33.801060
1839.000000	33.862780
1840.000000	33.904120
1841.000000	33.885640
1842.000000	33.819400
1843.000000	33.792460
1844.000000	33.890700
1845.000000	34.070180
1846.000000	34.198300
1847.000000	34.191840
1848.000000	34.073960
1849.000000	33.983240
1850.000000	34.015800
1851.000000	34.128620
1852.000000	34.190220
1853.000000	34.198860
1854.000000	34.203580
1855.000000	34.172140
1856.000000	34.158340
1857.000000	34.200780
1858.000000	34.202580
1859.000000	34.120920
1860.000000	34.021660
1861.000000	33.935480
1862.000000	33.868600
1863.000000	33.825700
1864.000000	33.819620
1865.000000	33.813740
1866.000000	33.783320
1867.000000	33.755660
1868.000000	33.671320
1869.000000	33.528220
1870.000000	33.277600
1871.000000	33.013300
1872.000000	32.760500
1873.000000	32.461560
1874.000000	32.163980
1875.000000	31.882320
1876.000000	31.571580
1877.000000	31.267700
1878.000000	30.953960
1879.000000	30.615540
1880.000000	30.293040
1881.000000	29.980260
1882.000000	29.592940
1883.000000	29.184860
1884.000000	28.763860
1885.000000	28.302640
1886.000000	27.857840
1887.000000	27.485820
1888.000000	27.167040
1889.000000	26.823080
1890.000000	26.443880
1891.000000	26.034200
1892.000000	25.569020
1893.000000	25.126340
1894.000000	24.761040
1895.000000	24.432100
1896.000000	24.171000
1897.000000	23.906400
1898.000000	23.550240
1899.000000	23.141160
1900.000000	22.722220
1901.000000	22.339900
1902.000000	22.027720
1903.000000	21.756760
1904.000000	21.476520
1905.000000	21.117040
1906.000000	20.716060
1907.000000	20.381800
1908.000000	20.101800
1909.000000	19.893520
1910.000000	19.743940
1911.000000	19.546220
1912.000000	19.307020
1913.000000	19.045100
1914.000000	18.757480
1915.000000	18.510300
1916.000000	18.328780
1917.000000	18.207320
1918.000000	18.095380
1919.000000	17.927880
1920.000000	17.758420
1921.000000	17.567260
1922.000000	17.370120
1923.000000	17.223700
1924.000000	17.131400
1925.000000	17.066860
1926.000000	16.951560
1927.000000	16.847320
1928.000000	16.752640
1929.000000	16.657420
1930.000000	16.568920
1931.000000	16.508340
1932.000000	16.459480
1933.000000	16.423660
1934.000000	16.384620
1935.000000	16.368820
1936.000000	16.356020
1937.000000	16.349100
1938.000000	16.330040
1939.000000	16.312180
1940.000000	16.303700
1941.000000	16.322880
1942.000000	16.338560
1943.000000	16.372140
1944.000000	16.393460
1945.000000	16.439120
1946.000000	16.465840
1947.000000	16.502020
1948.000000	16.560460
1949.000000	16.603700
1950.000000	16.651240
1951.000000	16.699000
1952.000000	16.769260
1953.000000	16.821620
1954.000000	16.885800
1955.000000	16.941880
1956.000000	17.006780
1957.000000	17.072700
1958.000000	17.128440
1959.000000	17.201400
1960.000000	17.271940
1961.000000	17.339040
1962.000000	17.390360
1963.000000	17.469200
1964.000000	17.521020
1965.000000	17.573360
1966.000000	17.652720
1967.000000	17.705980
1968.000000	17.769400
1969.000000	17.837300
1970.000000	17.914340
1971.000000	17.968740
1972.000000	18.038780
1973.000000	18.099180
1974.000000	18.182480
1975.000000	18.246140
1976.000000	18.313460
1977.000000	18.390700
1978.000000	18.467540
1979.000000	18.536300
1980.000000	18.607280
1981.000000	18.674040
1982.000000	18.750280
1983.000000	18.823980
1984.000000	18.911680
1985.000000	18.975880
1986.000000	19.054140
1987.000000	19.133000
1988.000000	19.196760
1989.000000	19.281680
1990.000000	19.348000
1991.000000	19.409380
1992.000000	19.470000
1993.000000	19.541840
1994.000000	19.591540
1995.000000	19.655960
1996.000000	19.724680
1997.000000	19.778440
1998.000000	19.824460
1999.000000	19.877340
2000.000000	19.922580
2001.000000	19.965840
2002.000000	20.000860
2003.000000	20.041860
2004.000000	20.067460
2005.000000	20.097840
2006.000000	20.123480
2007.000000	20.142180
2008.000000	20.161640
2009.000000	20.174160
2010.000000	20.184940
2011.000000	20.200740
2012.000000	20.191700
2013.000000	20.191800
2014.000000	20.180560
2015.000000	20.166220
2016.000000	20.140340
2017.000000	20.123660
2018.000000	20.097840
2019.000000	20.078100
2020.000000	20.049220
2021.000000	20.010660
2022.000000	19.973780
2023.000000	19.929180
2024.000000	19.886020
2025.000000	19.844820
2026.000000	19.795100
2027.000000	19.739860
2028.000000	19.683220
2029.000000	19.615220
2030.000000	19.552440
2031.000000	19.479820
2032.000000	19.408840
2033.000000	19.334700
2034.000000	19.256020
2035.000000	19.166560
2036.000000	19.077000
2037.000000	18.982700
2038.000000	18.887720
2039.000000	18.786320
2040.000000	18.676420
2041.000000	18.568200
2042.000000	18.454540
2043.000000	18.352880
2044.000000	18.253940
2045.000000	18.140480
2046.000000	18.029240
2047.000000	17.934400
2048.000000	17.841400
2049.000000	17.751360
2050.000000	17.676380
2051.000000	17.609280
2052.000000	17.549580
2053.000000	17.496700
2054.000000	17.466240
2055.000000	17.438540
2056.000000	17.425580
2057.000000	17.424340
2058.000000	17.430740
2059.000000	17.447980
2060.000000	17.468120
2061.000000	17.498240
2062.000000	17.531300
2063.000000	17.579880
2064.000000	17.626280
2065.000000	17.669880
2066.000000	17.718740
2067.000000	17.777680
2068.000000	17.824880
2069.000000	17.869280
2070.000000	17.921840
2071.000000	17.976640
2072.000000	18.025740
2073.000000	18.077600
2074.000000	18.127380
2075.000000	18.166120
2076.000000	18.209820
2077.000000	18.249440
2078.000000	18.289360
2079.000000	18.322760
2080.000000	18.354920
2081.000000	18.386560
2082.000000	18.419760
2083.000000	18.442940
2084.000000	18.457600
2085.000000	18.474420
2086.000000	18.481640
2087.000000	18.487600
2088.000000	18.502840
2089.000000	18.512540
2090.000000	18.515940
2091.000000	18.525060
2092.000000	18.529180
2093.000000	18.534460
2094.000000	18.545700
2095.000000	18.554200
2096.000000	18.563700
2097.000000	18.568380
2098.000000	18.567000
2099.000000	18.572880
2100.000000	18.586980
2101.000000	18.606040
2102.000000	18.621360
2103.000000	18.632580
2104.000000	18.644140
2105.000000	18.658760
2106.000000	18.663220
2107.000000	18.671740
2108.000000	18.687300
2109.000000	18.693180
2110.000000	18.702740
2111.000000	18.717880
2112.000000	18.733260
2113.000000	18.742460
2114.000000	18.747940
2115.000000	18.751260
2116.000000	18.756020
2117.000000	18.755700
2118.000000	18.762660
2119.000000	18.762140
2120.000000	18.762020
2121.000000	18.755940
2122.000000	18.740500
2123.000000	18.737660
2124.000000	18.728900
2125.000000	18.710000
2126.000000	18.691520
2127.000000	18.672400
2128.000000	18.646440
2129.000000	18.622480
2130.000000	18.595480
2131.000000	18.570800
2132.000000	18.532480
2133.000000	18.506380
2134.000000	18.471160
2135.000000	18.432100
2136.000000	18.382800
2137.000000	18.337440
2138.000000	18.293900
2139.000000	18.246460
2140.000000	18.194860
2141.000000	18.154080
2142.000000	18.104560
2143.000000	18.056360
2144.000000	18.003420
2145.000000	17.950600
2146.000000	17.899140
2147.000000	17.839540
2148.000000	17.778900
2149.000000	17.714800
2150.000000	17.661280
2151.000000	17.600320
2152.000000	17.544480
2153.000000	17.488540
2154.000000	17.441080
2155.000000	17.381420
2156.000000	17.324880
2157.000000	17.285020
2158.000000	17.229680
2159.000000	17.182320
2160.000000	17.151800
2161.000000	17.116520
2162.000000	17.079820
2163.000000	17.039320
2164.000000	17.018560
2165.000000	16.989260
2166.000000	16.972920
2167.000000	16.950900
2168.000000	16.925040
2169.000000	16.917540
2170.000000	16.912060
2171.000000	16.893360
2172.000000	16.886180
2173.000000	16.891400
2174.000000	16.888560
2175.000000	16.889000
2176.000000	16.898900
2177.000000	16.884720
2178.000000	16.897580
2179.000000	16.911620
2180.000000	16.930820
2181.000000	16.945960
2182.000000	16.954820
2183.000000	16.961580
2184.000000	16.978220
2185.000000	17.003160
2186.000000	17.018880
2187.000000	17.038520
2188.000000	17.062420
2189.000000	17.077700
2190.000000	17.093020
2191.000000	17.109260
2192.000000	17.127920
2193.000000	17.138420
2194.000000	17.153380
2195.000000	17.176240
2196.000000	17.187400
2197.000000	17.217760
2198.000000	17.235300
2199.000000	17.249860
2200.000000	17.271120
2201.000000	17.287340
2202.000000	17.308920
2203.000000	17.328660
2204.000000	17.347060
2205.000000	17.365000
2206.000000	17.396460
2207.000000	17.425860
2208.000000	17.462440
2209.000000	17.486460
2210.000000	17.519400
2211.000000	17.551200
2212.000000	17.588480
2213.000000	17.625240
2214.000000	17.661500
2215.000000	17.698100
2216.000000	17.731060
2217.000000	17.767060
2218.000000	17.807140
2219.000000	17.837400
2220.000000	17.879100
2221.000000	17.921060
2222.000000	17.952700
2223.000000	17.968560
2224.000000	18.018160
2225.000000	18.044860
2226.000000	18.054220
2227.000000	18.070420
2228.000000	18.081300
2229.000000	18.080580
2230.000000	18.082620
2231.000000	18.067500
2232.000000	18.069260
2233.000000	18.043200
2234.000000	18.013600
2235.000000	17.972020
2236.000000	17.920840
2237.000000	17.884580
2238.000000	17.829840
2239.000000	17.774940
2240.000000	17.689280
2241.000000	17.608680
2242.000000	17.539340
2243.000000	17.444280
2244.000000	17.338740
2245.000000	17.237160
2246.000000	17.115900
2247.000000	16.991240
2248.000000	16.854680
2249.000000	16.721100
2250.000000	16.574740
2251.000000	16.406460
2252.000000	16.243560
2253.000000	16.076580
2254.000000	15.899480
2255.000000	15.715580
2256.000000	15.538800
2257.000000	15.356160
2258.000000	15.173860
2259.000000	14.999640
2260.000000	14.829460
2261.000000	14.667060
2262.000000	14.521940
2263.000000	14.392340
2264.000000	14.271580
2265.000000	14.163320
2266.000000	14.062460
2267.000000	13.981260
2268.000000	13.925080
2269.000000	13.862780
2270.000000	13.823680
2271.000000	13.796180
2272.000000	13.775140
2273.000000	13.749580
2274.000000	13.746140
2275.000000	13.754940
2276.000000	13.763400
2277.000000	13.762340
2278.000000	13.765180
2279.000000	13.782880
2280.000000	13.802920
2281.000000	13.810400
2282.000000	13.820040
2283.000000	13.839460
2284.000000	13.848620
2285.000000	13.845340
2286.000000	13.850020
2287.000000	13.857800
2288.000000	13.853540
2289.000000	13.842960
2290.000000	13.831220
2291.000000	13.818840
2292.000000	13.794480
2293.000000	13.756740
2294.000000	13.730740
2295.000000	13.690000
2296.000000	13.638780
2297.000000	13.591800
2298.000000	13.558520
2299.000000	13.504740
2300.000000	13.456860
2301.000000	13.410580
2302.000000	13.367240
2303.000000	13.338060
2304.000000	13.311560
2305.000000	13.297800
2306.000000	13.284180
2307.000000	13.280760
2308.000000	13.300220
2309.000000	13.326940
2310.000000	13.347200
2311.000000	13.384200
2312.000000	13.433560
2313.000000	13.483420
2314.000000	13.525940
2315.000000	13.581720
2316.000000	13.642620
2317.000000	13.694180
2318.000000	13.752600
2319.000000	13.815160
2320.000000	13.864000
2321.000000	13.912580
2322.000000	13.957640
2323.000000	13.995360
2324.000000	14.029420
2325.000000	14.066200
2326.000000	14.091600
2327.000000	14.120160
2328.000000	14.140360
2329.000000	14.161720
2330.000000	14.179980
2331.000000	14.182820
2332.000000	14.190060
2333.000000	14.207240
2334.000000	14.225580
2335.000000	14.228080
2336.000000	14.228200
2337.000000	14.221620
2338.000000	14.211640
2339.000000	14.204500
2340.000000	14.189780
2341.000000	14.169460
2342.000000	14.148960
2343.000000	14.123560
2344.000000	14.102580
2345.000000	14.089200
2346.000000	14.058460
2347.000000	14.020800
2348.000000	13.996620
2349.000000	13.970560
2350.000000	13.952800
2351.000000	13.947620
2352.000000	13.939500
2353.000000	13.928500
2354.000000	13.922540
2355.000000	13.928240
2356.000000	13.942960
2357.000000	13.964320
2358.000000	13.984160
2359.000000	14.005880
2360.000000	14.030380
2361.000000	14.055460
2362.000000	14.084560
2363.000000	14.113200
2364.000000	14.148800
2365.000000	14.176620
2366.000000	14.201860
2367.000000	14.226200
2368.000000	14.252180
2369.000000	14.274760
2370.000000	14.286060
2371.000000	14.305380
2372.000000	14.319140
2373.000000	14.327840
2374.000000	14.345540
2375.000000	14.360100
2376.000000	14.361000
2377.000000	14.363500
2378.000000	14.377280
2379.000000	14.395740
2380.000000	14.394200
2381.000000	14.397820
2382.000000	14.404580
2383.000000	14.398880
2384.000000	14.397760
2385.000000	14.402360
2386.000000	14.396620
2387.000000	14.376960
2388.000000	14.365680
2389.000000	14.362760
2390.000000	14.334840
2391.000000	14.322780
2392.000000	14.320280
2393.000000	14.299820
2394.000000	14.277700
2395.000000	14.253520
2396.000000	14.235620
2397.000000	14.214320
2398.000000	14.188400
2399.000000	14.158820
2400.000000	14.134420
2401.000000	14.108340
2402.000000	14.081740
2403.000000	14.053640
2404.000000	14.025300
2405.000000	13.997720
2406.000000	13.975180
2407.000000	13.961060
2408.000000	13.924420
2409.000000	13.894260
2410.000000	13.846100
2411.000000	13.810680
2412.000000	13.790260
2413.000000	13.748400
2414.000000	13.705000
2415.000000	13.670440
2416.000000	13.643420
2417.000000	13.609120
2418.000000	13.585600
2419.000000	13.529340
2420.000000	13.489520
2421.000000	13.460600
2422.000000	13.407540
2423.000000	13.359300
2424.000000	13.312080
2425.000000	13.264580
2426.000000	13.222280
2427.000000	13.183000
2428.000000	13.143660
2429.000000	13.096900
2430.000000	13.051100
2431.000000	12.994420
2432.000000	12.939700
2433.000000	12.882320
2434.000000	12.830600
2435.000000	12.775280
2436.000000	12.717080
2437.000000	12.661000
2438.000000	12.600200
2439.000000	12.525560
2440.000000	12.461880
2441.000000	12.397860
2442.000000	12.331380
2443.000000	12.266840
2444.000000	12.201800
2445.000000	12.137780
2446.000000	12.056860
2447.000000	11.988880
2448.000000	11.917640
2449.000000	11.842940
2450.000000	11.794640
2451.000000	11.713340
2452.000000	11.648720
2453.000000	11.576060
2454.000000	11.529080
2455.000000	11.477580
2456.000000	11.407060
2457.000000	11.350220
2458.000000	11.302060
2459.000000	11.247160
2460.000000	11.206860
2461.000000	11.161560
2462.000000	11.128880
2463.000000	11.087020
2464.000000	11.060920
2465.000000	11.029860
2466.000000	11.005580
2467.000000	10.967720
2468.000000	10.941880
2469.000000	10.942660
2470.000000	10.917300
2471.000000	10.885520
2472.000000	10.881200
2473.000000	10.889240
2474.000000	10.883040
2475.000000	10.862940
2476.000000	10.830460
2477.000000	10.831820
2478.000000	10.829260
2479.000000	10.818420
2480.000000	10.811560
2481.000000	10.828740
2482.000000	10.818860
2483.000000	10.807320
2484.000000	10.800760
2485.000000	10.814960
2486.000000	10.819780
2487.000000	10.833880
2488.000000	10.844200
2489.000000	10.818900
2490.000000	10.893060
2491.000000	10.839040
2492.000000	10.856960
2493.000000	10.922560
2494.000000	10.866560
2495.000000	10.921100
2496.000000	10.907320
2497.000000	10.944960
2498.000000	10.976040
2499.000000	11.015140
2500.000000	11.047580
