PE UV       SUBTECH     SPECTRUM    ASCII       PEDS        4.00        
   -1
CICIMAUCR0019-7.Sample.ASC
24/04/25
16:57:29.00
24/04/25
16:57:29.00
Vinicio Soto Monge
C. cupreomarginata
250,000000
1
Lambda 1050
1050L1511233
PerkinElmer UV WinLab 6.3.2.0749 / 2.02.05 Lambda 900 UV/VIS/NIR, Aug  7 2015 09:38:08

0
0
3350/servo 860,8/2
0
0
UV/VIS
1
1
1
DoubleDePol,CommonBeamDepol,RBeamAtt,SBeamAtt,60mm sphere, WB InGaAs Detector
0
0
0
0
Program
Program
3350/servo 860,8/2
3350/0,2 860,8/0,2
3350/0,2 860,8/0,2
0
15.00
 
 
 
0
 
860,8
319,2
860,8
Front
100
on
S:100 R:100
0
0
0
0
 
0
 
 
 
0
 
 
0
0
0
0
0
 
 
 
 
0
0


0
0
#HDR
-1
-1
#GR
nm
%R
1.0
0.0
2500,000000
-1,000000
2251
8
70,963300
5,343700
#DATA
250.000000	6.042550
251.000000	6.031275
252.000000	6.023850
253.000000	5.988675
254.000000	5.980500
255.000000	5.962750
256.000000	5.943025
257.000000	5.905600
258.000000	5.931450
259.000000	5.899525
260.000000	5.878075
261.000000	5.866875
262.000000	5.814050
263.000000	5.793975
264.000000	5.778200
265.000000	5.733400
266.000000	5.717200
267.000000	5.687500
268.000000	5.660475
269.000000	5.652275
270.000000	5.638600
271.000000	5.614050
272.000000	5.593250
273.000000	5.564500
274.000000	5.562500
275.000000	5.567125
276.000000	5.567625
277.000000	5.519450
278.000000	5.515425
279.000000	5.528525
280.000000	5.503025
281.000000	5.500375
282.000000	5.498050
283.000000	5.473475
284.000000	5.432500
285.000000	5.434325
286.000000	5.408825
287.000000	5.458825
288.000000	5.437825
289.000000	5.412250
290.000000	5.424325
291.000000	5.422475
292.000000	5.413150
293.000000	5.378825
294.000000	5.368875
295.000000	5.379250
296.000000	5.394075
297.000000	5.372450
298.000000	5.340800
299.000000	5.371650
300.000000	5.334600
301.000000	5.358525
302.000000	5.326500
303.000000	5.323525
304.000000	5.298275
305.000000	5.308125
306.000000	5.312375
307.000000	5.323700
308.000000	5.306575
309.000000	5.292300
310.000000	5.294150
311.000000	5.270675
312.000000	5.289525
313.000000	5.277350
314.000000	5.305100
315.000000	5.287400
316.000000	5.319850
317.000000	6.066450
318.000000	5.728050
319.000000	5.691225
320.000000	5.888300
321.000000	5.546300
322.000000	5.746375
323.000000	5.626000
324.000000	5.584550
325.000000	5.394050
326.000000	5.448375
327.000000	5.475425
328.000000	5.431050
329.000000	5.469775
330.000000	5.391600
331.000000	5.446900
332.000000	5.491300
333.000000	5.471775
334.000000	5.349600
335.000000	5.290650
336.000000	5.327375
337.000000	5.318550
338.000000	5.323250
339.000000	5.310225
340.000000	5.351000
341.000000	5.401350
342.000000	5.322925
343.000000	5.286275
344.000000	5.343450
345.000000	5.398325
346.000000	5.388725
347.000000	5.350950
348.000000	5.378525
349.000000	5.432600
350.000000	5.443350
351.000000	5.454125
352.000000	5.446700
353.000000	5.392575
354.000000	5.413175
355.000000	5.433500
356.000000	5.417450
357.000000	5.431050
358.000000	5.443150
359.000000	5.399700
360.000000	5.513275
361.000000	5.564125
362.000000	5.526750
363.000000	5.520750
364.000000	5.610425
365.000000	5.648200
366.000000	5.614350
367.000000	5.643650
368.000000	5.716775
369.000000	5.741325
370.000000	5.788525
371.000000	5.820875
372.000000	5.720800
373.000000	5.733900
374.000000	5.746450
375.000000	5.918025
376.000000	6.194175
377.000000	6.346525
378.000000	6.440425
379.000000	6.538200
380.000000	6.647650
381.000000	6.760050
382.000000	6.875875
383.000000	6.998300
384.000000	7.136975
385.000000	7.285100
386.000000	7.428900
387.000000	7.576550
388.000000	7.725125
389.000000	7.888600
390.000000	8.050325
391.000000	8.216750
392.000000	8.403325
393.000000	8.574350
394.000000	8.741100
395.000000	8.929350
396.000000	9.110500
397.000000	9.283050
398.000000	9.458675
399.000000	9.638075
400.000000	9.812025
401.000000	9.988400
402.000000	10.161550
403.000000	10.325850
404.000000	10.483600
405.000000	10.660525
406.000000	10.824900
407.000000	10.981350
408.000000	11.130500
409.000000	11.271450
410.000000	11.410475
411.000000	11.542325
412.000000	11.677850
413.000000	11.809750
414.000000	11.932600
415.000000	12.055925
416.000000	12.179800
417.000000	12.286300
418.000000	12.380450
419.000000	12.479400
420.000000	12.564225
421.000000	12.637725
422.000000	12.726300
423.000000	12.809000
424.000000	12.880150
425.000000	12.956325
426.000000	13.018150
427.000000	13.074450
428.000000	13.129850
429.000000	13.184275
430.000000	13.231400
431.000000	13.273850
432.000000	13.325175
433.000000	13.368775
434.000000	13.404400
435.000000	13.448625
436.000000	13.489975
437.000000	13.529425
438.000000	13.572500
439.000000	13.612450
440.000000	13.660050
441.000000	13.713050
442.000000	13.766650
443.000000	13.819575
444.000000	13.880050
445.000000	13.963825
446.000000	14.049075
447.000000	14.133975
448.000000	14.235975
449.000000	14.346925
450.000000	14.464175
451.000000	14.591475
452.000000	14.730325
453.000000	14.884550
454.000000	15.058725
455.000000	15.237025
456.000000	15.431125
457.000000	15.640525
458.000000	15.849000
459.000000	16.071050
460.000000	16.315600
461.000000	16.568125
462.000000	16.823500
463.000000	17.087675
464.000000	17.365525
465.000000	17.657150
466.000000	17.937125
467.000000	18.223575
468.000000	18.518175
469.000000	18.824275
470.000000	19.130350
471.000000	19.432675
472.000000	19.738900
473.000000	20.041400
474.000000	20.355600
475.000000	20.663950
476.000000	20.966675
477.000000	21.280225
478.000000	21.589900
479.000000	21.907450
480.000000	22.234600
481.000000	22.550825
482.000000	22.870950
483.000000	23.197675
484.000000	23.537625
485.000000	23.879925
486.000000	24.230125
487.000000	24.586950
488.000000	24.946450
489.000000	25.329225
490.000000	25.712650
491.000000	26.116400
492.000000	26.535675
493.000000	26.968000
494.000000	27.415750
495.000000	27.888025
496.000000	28.374125
497.000000	28.862950
498.000000	29.366850
499.000000	29.881875
500.000000	30.413100
501.000000	30.971150
502.000000	31.533175
503.000000	32.135600
504.000000	32.749275
505.000000	33.368600
506.000000	34.004025
507.000000	34.648550
508.000000	35.328650
509.000000	36.036625
510.000000	36.759825
511.000000	37.495475
512.000000	38.254450
513.000000	39.043150
514.000000	39.849125
515.000000	40.667100
516.000000	41.517925
517.000000	42.393525
518.000000	43.274750
519.000000	44.179275
520.000000	45.100850
521.000000	46.063775
522.000000	47.039050
523.000000	48.020000
524.000000	49.026375
525.000000	50.036925
526.000000	51.049725
527.000000	52.050825
528.000000	53.048650
529.000000	54.045050
530.000000	55.039900
531.000000	56.016175
532.000000	56.978425
533.000000	57.916250
534.000000	58.844575
535.000000	59.722300
536.000000	60.572425
537.000000	61.388575
538.000000	62.165550
539.000000	62.895950
540.000000	63.577800
541.000000	64.243725
542.000000	64.852375
543.000000	65.401625
544.000000	65.917200
545.000000	66.392475
546.000000	66.811875
547.000000	67.199875
548.000000	67.562200
549.000000	67.881775
550.000000	68.157275
551.000000	68.404525
552.000000	68.655325
553.000000	68.845150
554.000000	69.043350
555.000000	69.186750
556.000000	69.325300
557.000000	69.432025
558.000000	69.535550
559.000000	69.618175
560.000000	69.720525
561.000000	69.802500
562.000000	69.851225
563.000000	69.898625
564.000000	69.919525
565.000000	69.933375
566.000000	69.944275
567.000000	69.930000
568.000000	69.914150
569.000000	69.857325
570.000000	69.801400
571.000000	69.680325
572.000000	69.591225
573.000000	69.450250
574.000000	69.293275
575.000000	69.128500
576.000000	68.944175
577.000000	68.733375
578.000000	68.526250
579.000000	68.304575
580.000000	68.035750
581.000000	67.794225
582.000000	67.531775
583.000000	67.266350
584.000000	66.966775
585.000000	66.698625
586.000000	66.385775
587.000000	66.056750
588.000000	65.776025
589.000000	65.429625
590.000000	65.104500
591.000000	64.782625
592.000000	64.414175
593.000000	64.060950
594.000000	63.689875
595.000000	63.253975
596.000000	62.844025
597.000000	62.407850
598.000000	61.934650
599.000000	61.442350
600.000000	60.931500
601.000000	60.384575
602.000000	59.824150
603.000000	59.204425
604.000000	58.606300
605.000000	57.955150
606.000000	57.317175
607.000000	56.671900
608.000000	56.023750
609.000000	55.380825
610.000000	54.756150
611.000000	54.124950
612.000000	53.525425
613.000000	52.930500
614.000000	52.355775
615.000000	51.787950
616.000000	51.269750
617.000000	50.765850
618.000000	50.289125
619.000000	49.842100
620.000000	49.440175
621.000000	49.062350
622.000000	48.680125
623.000000	48.336625
624.000000	48.050575
625.000000	47.757750
626.000000	47.526625
627.000000	47.369450
628.000000	47.225400
629.000000	47.138225
630.000000	47.091200
631.000000	47.099900
632.000000	47.151600
633.000000	47.224375
634.000000	47.369700
635.000000	47.540325
636.000000	47.749625
637.000000	47.967675
638.000000	48.204725
639.000000	48.444425
640.000000	48.703375
641.000000	48.939750
642.000000	49.167500
643.000000	49.401725
644.000000	49.637200
645.000000	49.827950
646.000000	50.041675
647.000000	50.206225
648.000000	50.399175
649.000000	50.559275
650.000000	50.721500
651.000000	50.895750
652.000000	51.052200
653.000000	51.216525
654.000000	51.366250
655.000000	51.511125
656.000000	51.660150
657.000000	51.731175
658.000000	51.847275
659.000000	51.953000
660.000000	52.031400
661.000000	52.124375
662.000000	52.196525
663.000000	52.288200
664.000000	52.343525
665.000000	52.403900
666.000000	52.465300
667.000000	52.528650
668.000000	52.604200
669.000000	52.684950
670.000000	52.773775
671.000000	52.841875
672.000000	52.936925
673.000000	53.040100
674.000000	53.153775
675.000000	53.273400
676.000000	53.400200
677.000000	53.532625
678.000000	53.685225
679.000000	53.815150
680.000000	53.954200
681.000000	54.125775
682.000000	54.306200
683.000000	54.434725
684.000000	54.600500
685.000000	54.764025
686.000000	54.902075
687.000000	55.076800
688.000000	55.244050
689.000000	55.392950
690.000000	55.533075
691.000000	55.715300
692.000000	55.890075
693.000000	56.045800
694.000000	56.223025
695.000000	56.398600
696.000000	56.550750
697.000000	56.696300
698.000000	56.867750
699.000000	57.038050
700.000000	57.192500
701.000000	57.329725
702.000000	57.441975
703.000000	57.587150
704.000000	57.706750
705.000000	57.810725
706.000000	57.910125
707.000000	58.001875
708.000000	58.082525
709.000000	58.189625
710.000000	58.279050
711.000000	58.355975
712.000000	58.449450
713.000000	58.534825
714.000000	58.591400
715.000000	58.669800
716.000000	58.728650
717.000000	58.771625
718.000000	58.842275
719.000000	58.874525
720.000000	58.931225
721.000000	58.994450
722.000000	59.021925
723.000000	59.052025
724.000000	59.105475
725.000000	59.139150
726.000000	59.156000
727.000000	59.211200
728.000000	59.232625
729.000000	59.234900
730.000000	59.273475
731.000000	59.307750
732.000000	59.335625
733.000000	59.399500
734.000000	59.438400
735.000000	59.464900
736.000000	59.533950
737.000000	59.587725
738.000000	59.630275
739.000000	59.681475
740.000000	59.729550
741.000000	59.775500
742.000000	59.814675
743.000000	59.866525
744.000000	59.933325
745.000000	60.004050
746.000000	60.047250
747.000000	60.111600
748.000000	60.174950
749.000000	60.227850
750.000000	60.337575
751.000000	60.433700
752.000000	60.472325
753.000000	60.530825
754.000000	60.622775
755.000000	60.717050
756.000000	60.749850
757.000000	60.792875
758.000000	60.893025
759.000000	60.957075
760.000000	61.021250
761.000000	61.069875
762.000000	61.154900
763.000000	61.236625
764.000000	61.284350
765.000000	61.298850
766.000000	61.365825
767.000000	61.428950
768.000000	61.447025
769.000000	61.522825
770.000000	61.607675
771.000000	61.668125
772.000000	61.737725
773.000000	61.776200
774.000000	61.834775
775.000000	61.876325
776.000000	61.895025
777.000000	61.957350
778.000000	62.039925
779.000000	62.092700
780.000000	62.120075
781.000000	62.141475
782.000000	62.218450
783.000000	62.300325
784.000000	62.383825
785.000000	62.457300
786.000000	62.503775
787.000000	62.589675
788.000000	62.703925
789.000000	62.793850
790.000000	62.836450
791.000000	62.897250
792.000000	62.969875
793.000000	63.035450
794.000000	63.074475
795.000000	63.169375
796.000000	63.241300
797.000000	63.360900
798.000000	63.448050
799.000000	63.450350
800.000000	63.534850
801.000000	63.616650
802.000000	63.709975
803.000000	63.829900
804.000000	63.903575
805.000000	63.998175
806.000000	64.097625
807.000000	64.092875
808.000000	64.227625
809.000000	64.305400
810.000000	64.396725
811.000000	64.485475
812.000000	64.629975
813.000000	64.654925
814.000000	64.839250
815.000000	64.933275
816.000000	64.982525
817.000000	65.051350
818.000000	65.155700
819.000000	65.211300
820.000000	65.352000
821.000000	65.449625
822.000000	65.534625
823.000000	65.637700
824.000000	65.728500
825.000000	65.772400
826.000000	65.859400
827.000000	65.996425
828.000000	66.040900
829.000000	66.093425
830.000000	66.108475
831.000000	66.217675
832.000000	66.402625
833.000000	66.383000
834.000000	66.430125
835.000000	66.461375
836.000000	66.456225
837.000000	66.539500
838.000000	66.513775
839.000000	66.624775
840.000000	66.733075
841.000000	66.753250
842.000000	66.797600
843.000000	66.765800
844.000000	66.650825
845.000000	66.638750
846.000000	66.713950
847.000000	66.605325
848.000000	66.655550
849.000000	66.771425
850.000000	66.569325
851.000000	66.498000
852.000000	66.577525
853.000000	66.726900
854.000000	66.608100
855.000000	66.529625
856.000000	66.422950
857.000000	66.424350
858.000000	66.458975
859.000000	64.605802
860.000000	64.575049
861.000000	64.545199
862.000000	64.492416
863.000000	64.426630
864.000000	64.369009
865.000000	64.376117
866.000000	64.563187
867.000000	65.003626
868.000000	65.478887
869.000000	66.026123
870.000000	66.513497
871.000000	67.027401
872.000000	67.425823
873.000000	67.818869
874.000000	68.091270
875.000000	68.440975
876.000000	68.694455
877.000000	69.005203
878.000000	69.221981
879.000000	69.501996
880.000000	69.685267
881.000000	69.914687
882.000000	70.090963
883.000000	70.230998
884.000000	70.420200
885.000000	70.530701
886.000000	70.665179
887.000000	70.768260
888.000000	70.862360
889.000000	70.932087
890.000000	71.000706
891.000000	71.069139
892.000000	71.121560
893.000000	71.141955
894.000000	71.186767
895.000000	71.176266
896.000000	71.162221
897.000000	71.145291
898.000000	71.150324
899.000000	71.118155
900.000000	71.098866
901.000000	71.066088
902.000000	71.025323
903.000000	71.004342
904.000000	70.948104
905.000000	70.888929
906.000000	70.845343
907.000000	70.805617
908.000000	70.780321
909.000000	70.740117
910.000000	70.713612
911.000000	70.682233
912.000000	70.658133
913.000000	70.653484
914.000000	70.598714
915.000000	70.585361
916.000000	70.585643
917.000000	70.528039
918.000000	70.501307
919.000000	70.490756
920.000000	70.462296
921.000000	70.384093
922.000000	70.354396
923.000000	70.304321
924.000000	70.255523
925.000000	70.216722
926.000000	70.185030
927.000000	70.102719
928.000000	70.064156
929.000000	70.033848
930.000000	69.982803
931.000000	69.947406
932.000000	69.861446
933.000000	69.828797
934.000000	69.757096
935.000000	69.712040
936.000000	69.679293
937.000000	69.605384
938.000000	69.570829
939.000000	69.537777
940.000000	69.494579
941.000000	69.449738
942.000000	69.427943
943.000000	69.389458
944.000000	69.349913
945.000000	69.315180
946.000000	69.296310
947.000000	69.254481
948.000000	69.223364
949.000000	69.198156
950.000000	69.168043
951.000000	69.130262
952.000000	69.111577
953.000000	69.079435
954.000000	69.042064
955.000000	69.005532
956.000000	68.976934
957.000000	68.941535
958.000000	68.905804
959.000000	68.855237
960.000000	68.816936
961.000000	68.773386
962.000000	68.722111
963.000000	68.698097
964.000000	68.646553
965.000000	68.615442
966.000000	68.579839
967.000000	68.557184
968.000000	68.530260
969.000000	68.506940
970.000000	68.471748
971.000000	68.456652
972.000000	68.425139
973.000000	68.391109
974.000000	68.361197
975.000000	68.345119
976.000000	68.326093
977.000000	68.293717
978.000000	68.262443
979.000000	68.241291
980.000000	68.197678
981.000000	68.178801
982.000000	68.172575
983.000000	68.138659
984.000000	68.106077
985.000000	68.079690
986.000000	68.061752
987.000000	68.034717
988.000000	68.014870
989.000000	67.994614
990.000000	67.971777
991.000000	67.957018
992.000000	67.939804
993.000000	67.938497
994.000000	67.932928
995.000000	67.913018
996.000000	67.900104
997.000000	67.896216
998.000000	67.892392
999.000000	67.887352
1000.000000	67.881485
1001.000000	67.873403
1002.000000	67.883595
1003.000000	67.886227
1004.000000	67.879851
1005.000000	67.875891
1006.000000	67.868647
1007.000000	67.864716
1008.000000	67.863793
1009.000000	67.857043
1010.000000	67.854024
1011.000000	67.865465
1012.000000	67.884277
1013.000000	67.897763
1014.000000	67.924788
1015.000000	67.959903
1016.000000	68.001277
1017.000000	68.052049
1018.000000	68.108505
1019.000000	68.160227
1020.000000	68.218247
1021.000000	68.282947
1022.000000	68.353358
1023.000000	68.415421
1024.000000	68.480393
1025.000000	68.556784
1026.000000	68.626422
1027.000000	68.693821
1028.000000	68.767506
1029.000000	68.831256
1030.000000	68.893383
1031.000000	68.962910
1032.000000	69.038158
1033.000000	69.093195
1034.000000	69.143709
1035.000000	69.210863
1036.000000	69.268071
1037.000000	69.323470
1038.000000	69.380927
1039.000000	69.439820
1040.000000	69.488549
1041.000000	69.535820
1042.000000	69.587244
1043.000000	69.637295
1044.000000	69.686642
1045.000000	69.735267
1046.000000	69.791539
1047.000000	69.837519
1048.000000	69.895062
1049.000000	69.956991
1050.000000	69.999752
1051.000000	70.054453
1052.000000	70.122863
1053.000000	70.183732
1054.000000	70.244311
1055.000000	70.309632
1056.000000	70.377748
1057.000000	70.448701
1058.000000	70.523300
1059.000000	70.584016
1060.000000	70.640538
1061.000000	70.710799
1062.000000	70.777256
1063.000000	70.842283
1064.000000	70.903537
1065.000000	70.959671
1066.000000	71.023788
1067.000000	71.079391
1068.000000	71.141513
1069.000000	71.199813
1070.000000	71.255378
1071.000000	71.312659
1072.000000	71.369490
1073.000000	71.419918
1074.000000	71.473285
1075.000000	71.533641
1076.000000	71.588897
1077.000000	71.644421
1078.000000	71.705602
1079.000000	71.754665
1080.000000	71.799756
1081.000000	71.853701
1082.000000	71.915482
1083.000000	71.970491
1084.000000	72.025559
1085.000000	72.079421
1086.000000	72.136125
1087.000000	72.199752
1088.000000	72.249561
1089.000000	72.294697
1090.000000	72.358723
1091.000000	72.405615
1092.000000	72.447968
1093.000000	72.498839
1094.000000	72.536187
1095.000000	72.574106
1096.000000	72.623780
1097.000000	72.663263
1098.000000	72.696330
1099.000000	72.729830
1100.000000	72.755615
1101.000000	72.787473
1102.000000	72.806892
1103.000000	72.841709
1104.000000	72.866045
1105.000000	72.887606
1106.000000	72.905941
1107.000000	72.932954
1108.000000	72.950515
1109.000000	72.961929
1110.000000	72.984587
1111.000000	73.004106
1112.000000	73.016427
1113.000000	73.032487
1114.000000	73.056940
1115.000000	73.071527
1116.000000	73.083116
1117.000000	73.105818
1118.000000	73.107579
1119.000000	73.101232
1120.000000	73.082728
1121.000000	73.055468
1122.000000	73.036605
1123.000000	72.999671
1124.000000	72.939365
1125.000000	72.864468
1126.000000	72.793687
1127.000000	72.688645
1128.000000	72.584328
1129.000000	72.437471
1130.000000	72.253294
1131.000000	72.037667
1132.000000	71.793965
1133.000000	71.516223
1134.000000	71.271805
1135.000000	70.958178
1136.000000	70.576494
1137.000000	70.211984
1138.000000	69.815174
1139.000000	69.447424
1140.000000	69.102467
1141.000000	68.753593
1142.000000	68.423409
1143.000000	68.080062
1144.000000	67.776543
1145.000000	67.524161
1146.000000	67.316041
1147.000000	67.174849
1148.000000	67.096015
1149.000000	67.069984
1150.000000	67.073740
1151.000000	67.065942
1152.000000	67.051492
1153.000000	67.022437
1154.000000	66.947147
1155.000000	66.816308
1156.000000	66.616461
1157.000000	66.379693
1158.000000	66.077518
1159.000000	65.751112
1160.000000	65.396372
1161.000000	65.026447
1162.000000	64.641048
1163.000000	64.263916
1164.000000	63.843939
1165.000000	63.437628
1166.000000	63.041610
1167.000000	62.638941
1168.000000	62.245782
1169.000000	61.863965
1170.000000	61.478231
1171.000000	61.085907
1172.000000	60.707211
1173.000000	60.344977
1174.000000	60.000379
1175.000000	59.660082
1176.000000	59.322205
1177.000000	58.963855
1178.000000	58.559015
1179.000000	58.098865
1180.000000	57.562776
1181.000000	57.014335
1182.000000	56.451280
1183.000000	55.942875
1184.000000	55.494001
1185.000000	55.213551
1186.000000	55.066237
1187.000000	55.072058
1188.000000	55.204943
1189.000000	55.495960
1190.000000	55.889481
1191.000000	56.360259
1192.000000	56.858796
1193.000000	57.361926
1194.000000	57.805285
1195.000000	58.166817
1196.000000	58.456290
1197.000000	58.675701
1198.000000	58.849677
1199.000000	58.984832
1200.000000	59.081626
1201.000000	59.146846
1202.000000	59.188304
1203.000000	59.222411
1204.000000	59.261285
1205.000000	59.294462
1206.000000	59.338336
1207.000000	59.399279
1208.000000	59.481861
1209.000000	59.576089
1210.000000	59.674845
1211.000000	59.778546
1212.000000	59.913216
1213.000000	60.044421
1214.000000	60.173036
1215.000000	60.315077
1216.000000	60.455823
1217.000000	60.609996
1218.000000	60.768095
1219.000000	60.934211
1220.000000	61.097071
1221.000000	61.278350
1222.000000	61.459198
1223.000000	61.650584
1224.000000	61.852560
1225.000000	62.043721
1226.000000	62.238005
1227.000000	62.437105
1228.000000	62.639958
1229.000000	62.840167
1230.000000	63.034807
1231.000000	63.225591
1232.000000	63.432246
1233.000000	63.614832
1234.000000	63.808985
1235.000000	63.990010
1236.000000	64.173146
1237.000000	64.351599
1238.000000	64.528799
1239.000000	64.695187
1240.000000	64.863161
1241.000000	65.033427
1242.000000	65.189803
1243.000000	65.348351
1244.000000	65.495100
1245.000000	65.639843
1246.000000	65.779904
1247.000000	65.898061
1248.000000	66.012976
1249.000000	66.126340
1250.000000	66.229966
1251.000000	66.320442
1252.000000	66.407622
1253.000000	66.485992
1254.000000	66.565961
1255.000000	66.635807
1256.000000	66.703799
1257.000000	66.763608
1258.000000	66.822502
1259.000000	66.877629
1260.000000	66.943182
1261.000000	66.990718
1262.000000	67.036160
1263.000000	67.086794
1264.000000	67.140992
1265.000000	67.192424
1266.000000	67.242670
1267.000000	67.295359
1268.000000	67.338246
1269.000000	67.388207
1270.000000	67.435272
1271.000000	67.474945
1272.000000	67.507615
1273.000000	67.551896
1274.000000	67.600574
1275.000000	67.645989
1276.000000	67.699878
1277.000000	67.756198
1278.000000	67.814854
1279.000000	67.880682
1280.000000	67.943517
1281.000000	68.009278
1282.000000	68.086040
1283.000000	68.157655
1284.000000	68.228015
1285.000000	68.294086
1286.000000	68.356102
1287.000000	68.417551
1288.000000	68.470230
1289.000000	68.522127
1290.000000	68.572654
1291.000000	68.606245
1292.000000	68.633321
1293.000000	68.663336
1294.000000	68.681455
1295.000000	68.694470
1296.000000	68.709796
1297.000000	68.728470
1298.000000	68.736823
1299.000000	68.734857
1300.000000	68.734013
1301.000000	68.740197
1302.000000	68.731308
1303.000000	68.718973
1304.000000	68.705941
1305.000000	68.683111
1306.000000	68.659429
1307.000000	68.623954
1308.000000	68.580832
1309.000000	68.537114
1310.000000	68.486755
1311.000000	68.422890
1312.000000	68.352395
1313.000000	68.283508
1314.000000	68.213191
1315.000000	68.134208
1316.000000	68.049051
1317.000000	67.956121
1318.000000	67.857147
1319.000000	67.762701
1320.000000	67.661107
1321.000000	67.554478
1322.000000	67.437899
1323.000000	67.321144
1324.000000	67.199335
1325.000000	67.064377
1326.000000	66.927236
1327.000000	66.776087
1328.000000	66.627358
1329.000000	66.467294
1330.000000	66.291443
1331.000000	66.110961
1332.000000	65.919323
1333.000000	65.715867
1334.000000	65.503066
1335.000000	65.276278
1336.000000	65.048954
1337.000000	64.797406
1338.000000	64.531042
1339.000000	64.271010
1340.000000	63.993766
1341.000000	63.699463
1342.000000	63.385616
1343.000000	63.075620
1344.000000	62.747314
1345.000000	62.375965
1346.000000	61.989611
1347.000000	61.610736
1348.000000	61.214876
1349.000000	60.762786
1350.000000	60.288966
1351.000000	59.764083
1352.000000	59.175504
1353.000000	58.530896
1354.000000	58.000321
1355.000000	57.474793
1356.000000	56.980295
1357.000000	56.619494
1358.000000	56.400492
1359.000000	56.267612
1360.000000	56.159659
1361.000000	56.134835
1362.000000	56.032711
1363.000000	55.847847
1364.000000	55.650979
1365.000000	55.450572
1366.000000	55.214318
1367.000000	54.980480
1368.000000	54.720224
1369.000000	54.397517
1370.000000	54.044140
1371.000000	53.688844
1372.000000	53.269625
1373.000000	52.847378
1374.000000	52.470831
1375.000000	52.161078
1376.000000	51.917093
1377.000000	51.748054
1378.000000	51.607381
1379.000000	51.519962
1380.000000	51.386264
1381.000000	51.238606
1382.000000	50.967312
1383.000000	50.579834
1384.000000	50.123484
1385.000000	49.621967
1386.000000	49.123064
1387.000000	48.687563
1388.000000	48.315872
1389.000000	47.914423
1390.000000	47.564013
1391.000000	47.308495
1392.000000	47.058650
1393.000000	46.785678
1394.000000	46.571141
1395.000000	46.392588
1396.000000	46.164121
1397.000000	45.801139
1398.000000	45.461971
1399.000000	45.199330
1400.000000	44.921982
1401.000000	44.497695
1402.000000	43.989465
1403.000000	43.513745
1404.000000	43.055015
1405.000000	42.628464
1406.000000	42.154789
1407.000000	41.681343
1408.000000	41.253493
1409.000000	40.805394
1410.000000	40.410795
1411.000000	39.979560
1412.000000	39.604796
1413.000000	39.330601
1414.000000	39.069263
1415.000000	38.764887
1416.000000	38.429886
1417.000000	38.106403
1418.000000	37.855751
1419.000000	37.579363
1420.000000	37.283966
1421.000000	36.953946
1422.000000	36.640684
1423.000000	36.389575
1424.000000	36.111297
1425.000000	35.836958
1426.000000	35.553555
1427.000000	35.269405
1428.000000	35.046208
1429.000000	34.817328
1430.000000	34.581323
1431.000000	34.383140
1432.000000	34.204582
1433.000000	34.027738
1434.000000	33.850039
1435.000000	33.676618
1436.000000	33.506871
1437.000000	33.360437
1438.000000	33.217702
1439.000000	33.049549
1440.000000	32.887940
1441.000000	32.723419
1442.000000	32.565670
1443.000000	32.410353
1444.000000	32.254094
1445.000000	32.116042
1446.000000	31.997406
1447.000000	31.824532
1448.000000	31.668594
1449.000000	31.508271
1450.000000	31.400065
1451.000000	31.296024
1452.000000	31.162057
1453.000000	31.021790
1454.000000	30.903103
1455.000000	30.778999
1456.000000	30.676189
1457.000000	30.568003
1458.000000	30.452806
1459.000000	30.359419
1460.000000	30.259514
1461.000000	30.180386
1462.000000	30.109821
1463.000000	30.049701
1464.000000	29.980919
1465.000000	29.914017
1466.000000	29.864362
1467.000000	29.814018
1468.000000	29.769811
1469.000000	29.720123
1470.000000	29.690790
1471.000000	29.663305
1472.000000	29.621386
1473.000000	29.569074
1474.000000	29.534535
1475.000000	29.488735
1476.000000	29.461673
1477.000000	29.429429
1478.000000	29.400294
1479.000000	29.368009
1480.000000	29.352147
1481.000000	29.335246
1482.000000	29.319100
1483.000000	29.291083
1484.000000	29.271210
1485.000000	29.263005
1486.000000	29.271584
1487.000000	29.273922
1488.000000	29.279414
1489.000000	29.266524
1490.000000	29.272299
1491.000000	29.269104
1492.000000	29.272474
1493.000000	29.289026
1494.000000	29.285339
1495.000000	29.300487
1496.000000	29.319979
1497.000000	29.341328
1498.000000	29.366460
1499.000000	29.390646
1500.000000	29.421469
1501.000000	29.448985
1502.000000	29.480235
1503.000000	29.522578
1504.000000	29.563489
1505.000000	29.611278
1506.000000	29.654355
1507.000000	29.694084
1508.000000	29.742631
1509.000000	29.784931
1510.000000	29.838341
1511.000000	29.884546
1512.000000	29.924149
1513.000000	29.970716
1514.000000	30.014215
1515.000000	30.059441
1516.000000	30.106028
1517.000000	30.147604
1518.000000	30.187039
1519.000000	30.219507
1520.000000	30.258669
1521.000000	30.299278
1522.000000	30.338240
1523.000000	30.384841
1524.000000	30.418903
1525.000000	30.454979
1526.000000	30.483364
1527.000000	30.520646
1528.000000	30.552523
1529.000000	30.571881
1530.000000	30.592988
1531.000000	30.611731
1532.000000	30.640453
1533.000000	30.666406
1534.000000	30.692628
1535.000000	30.708835
1536.000000	30.721246
1537.000000	30.732358
1538.000000	30.736637
1539.000000	30.740027
1540.000000	30.746965
1541.000000	30.753665
1542.000000	30.764062
1543.000000	30.770810
1544.000000	30.777677
1545.000000	30.787163
1546.000000	30.797632
1547.000000	30.811579
1548.000000	30.829457
1549.000000	30.846982
1550.000000	30.862828
1551.000000	30.881234
1552.000000	30.898117
1553.000000	30.911827
1554.000000	30.920146
1555.000000	30.920993
1556.000000	30.924442
1557.000000	30.922443
1558.000000	30.912800
1559.000000	30.904233
1560.000000	30.890528
1561.000000	30.872084
1562.000000	30.853097
1563.000000	30.830183
1564.000000	30.800670
1565.000000	30.772060
1566.000000	30.739853
1567.000000	30.708983
1568.000000	30.681107
1569.000000	30.651651
1570.000000	30.626917
1571.000000	30.609305
1572.000000	30.591791
1573.000000	30.570501
1574.000000	30.560403
1575.000000	30.559366
1576.000000	30.558154
1577.000000	30.555183
1578.000000	30.556861
1579.000000	30.568806
1580.000000	30.583728
1581.000000	30.599804
1582.000000	30.622441
1583.000000	30.651409
1584.000000	30.684988
1585.000000	30.723299
1586.000000	30.763984
1587.000000	30.811645
1588.000000	30.861418
1589.000000	30.912557
1590.000000	30.957134
1591.000000	31.001719
1592.000000	31.056712
1593.000000	31.115443
1594.000000	31.173657
1595.000000	31.237970
1596.000000	31.301980
1597.000000	31.367427
1598.000000	31.449561
1599.000000	31.529576
1600.000000	31.607148
1601.000000	31.681941
1602.000000	31.760717
1603.000000	31.845451
1604.000000	31.928852
1605.000000	32.011311
1606.000000	32.098899
1607.000000	32.193348
1608.000000	32.273369
1609.000000	32.362969
1610.000000	32.452238
1611.000000	32.524853
1612.000000	32.600993
1613.000000	32.687562
1614.000000	32.788827
1615.000000	32.871403
1616.000000	32.966131
1617.000000	33.054694
1618.000000	33.141252
1619.000000	33.241193
1620.000000	33.333776
1621.000000	33.429993
1622.000000	33.530445
1623.000000	33.625766
1624.000000	33.727409
1625.000000	33.827700
1626.000000	33.929604
1627.000000	34.024047
1628.000000	34.123928
1629.000000	34.225262
1630.000000	34.323826
1631.000000	34.421193
1632.000000	34.527990
1633.000000	34.619657
1634.000000	34.710658
1635.000000	34.803426
1636.000000	34.884188
1637.000000	34.968444
1638.000000	35.068368
1639.000000	35.142422
1640.000000	35.220978
1641.000000	35.299050
1642.000000	35.360311
1643.000000	35.435149
1644.000000	35.498836
1645.000000	35.571869
1646.000000	35.630386
1647.000000	35.706742
1648.000000	35.759105
1649.000000	35.812766
1650.000000	35.863457
1651.000000	35.895016
1652.000000	35.932872
1653.000000	35.957571
1654.000000	35.970335
1655.000000	35.986433
1656.000000	35.984341
1657.000000	35.982331
1658.000000	35.961381
1659.000000	35.934155
1660.000000	35.892127
1661.000000	35.838995
1662.000000	35.780973
1663.000000	35.695620
1664.000000	35.611504
1665.000000	35.512083
1666.000000	35.393470
1667.000000	35.270543
1668.000000	35.099341
1669.000000	34.913315
1670.000000	34.706868
1671.000000	34.463786
1672.000000	34.190070
1673.000000	33.883553
1674.000000	33.536943
1675.000000	33.119489
1676.000000	32.632950
1677.000000	32.103724
1678.000000	31.484369
1679.000000	30.831452
1680.000000	30.146936
1681.000000	29.516293
1682.000000	28.951018
1683.000000	28.516725
1684.000000	28.229566
1685.000000	28.083497
1686.000000	28.014223
1687.000000	27.994011
1688.000000	27.955421
1689.000000	27.867744
1690.000000	27.745698
1691.000000	27.566098
1692.000000	27.373958
1693.000000	27.199451
1694.000000	27.057182
1695.000000	26.977085
1696.000000	26.981220
1697.000000	27.044893
1698.000000	27.163120
1699.000000	27.341659
1700.000000	27.528780
1701.000000	27.722198
1702.000000	27.889908
1703.000000	28.025187
1704.000000	28.128816
1705.000000	28.216021
1706.000000	28.273326
1707.000000	28.320212
1708.000000	28.354493
1709.000000	28.371535
1710.000000	28.375293
1711.000000	28.352015
1712.000000	28.311411
1713.000000	28.247824
1714.000000	28.174092
1715.000000	28.090115
1716.000000	28.005667
1717.000000	27.926286
1718.000000	27.861978
1719.000000	27.812778
1720.000000	27.764513
1721.000000	27.737251
1722.000000	27.719724
1723.000000	27.684724
1724.000000	27.644153
1725.000000	27.577284
1726.000000	27.494929
1727.000000	27.388879
1728.000000	27.266714
1729.000000	27.126132
1730.000000	26.995865
1731.000000	26.862986
1732.000000	26.766566
1733.000000	26.707085
1734.000000	26.692712
1735.000000	26.736684
1736.000000	26.855575
1737.000000	27.013627
1738.000000	27.218337
1739.000000	27.481158
1740.000000	27.738652
1741.000000	28.025147
1742.000000	28.298395
1743.000000	28.557286
1744.000000	28.785278
1745.000000	28.985596
1746.000000	29.158929
1747.000000	29.312743
1748.000000	29.436962
1749.000000	29.537940
1750.000000	29.617405
1751.000000	29.685634
1752.000000	29.724953
1753.000000	29.744730
1754.000000	29.759332
1755.000000	29.742433
1756.000000	29.705788
1757.000000	29.649127
1758.000000	29.585300
1759.000000	29.512480
1760.000000	29.429075
1761.000000	29.352682
1762.000000	29.306709
1763.000000	29.291997
1764.000000	29.302488
1765.000000	29.355995
1766.000000	29.441690
1767.000000	29.542519
1768.000000	29.657585
1769.000000	29.801992
1770.000000	29.950852
1771.000000	30.103695
1772.000000	30.268688
1773.000000	30.435003
1774.000000	30.585725
1775.000000	30.741754
1776.000000	30.884149
1777.000000	31.029644
1778.000000	31.149828
1779.000000	31.264328
1780.000000	31.373058
1781.000000	31.472687
1782.000000	31.566004
1783.000000	31.657291
1784.000000	31.767367
1785.000000	31.866225
1786.000000	31.949288
1787.000000	32.036916
1788.000000	32.133796
1789.000000	32.199826
1790.000000	32.265176
1791.000000	32.344554
1792.000000	32.417257
1793.000000	32.484322
1794.000000	32.543219
1795.000000	32.603798
1796.000000	32.672566
1797.000000	32.730200
1798.000000	32.782455
1799.000000	32.831007
1800.000000	32.894718
1801.000000	32.969308
1802.000000	33.042613
1803.000000	33.106286
1804.000000	33.148294
1805.000000	33.205640
1806.000000	33.278056
1807.000000	33.343132
1808.000000	33.388338
1809.000000	33.437310
1810.000000	33.482294
1811.000000	33.530565
1812.000000	33.576930
1813.000000	33.603679
1814.000000	33.623274
1815.000000	33.642508
1816.000000	33.658452
1817.000000	33.658742
1818.000000	33.666513
1819.000000	33.695674
1820.000000	33.747780
1821.000000	33.795240
1822.000000	33.833271
1823.000000	33.844959
1824.000000	33.854184
1825.000000	33.904935
1826.000000	33.990643
1827.000000	34.074304
1828.000000	34.166504
1829.000000	34.287433
1830.000000	34.386290
1831.000000	34.480890
1832.000000	34.570132
1833.000000	34.651542
1834.000000	34.743590
1835.000000	34.847993
1836.000000	34.954114
1837.000000	35.030990
1838.000000	35.094321
1839.000000	35.151924
1840.000000	35.209816
1841.000000	35.272977
1842.000000	35.325378
1843.000000	35.340681
1844.000000	35.347694
1845.000000	35.387071
1846.000000	35.468245
1847.000000	35.576969
1848.000000	35.671330
1849.000000	35.742487
1850.000000	35.792938
1851.000000	35.829425
1852.000000	35.864298
1853.000000	35.922381
1854.000000	35.991907
1855.000000	36.029891
1856.000000	36.055437
1857.000000	36.076873
1858.000000	36.076203
1859.000000	36.060711
1860.000000	36.032759
1861.000000	35.970661
1862.000000	35.887008
1863.000000	35.790446
1864.000000	35.714543
1865.000000	35.624187
1866.000000	35.512680
1867.000000	35.408478
1868.000000	35.263214
1869.000000	35.082063
1870.000000	34.825687
1871.000000	34.550921
1872.000000	34.243889
1873.000000	33.895032
1874.000000	33.510793
1875.000000	33.087122
1876.000000	32.649674
1877.000000	32.191921
1878.000000	31.688586
1879.000000	31.156325
1880.000000	30.632528
1881.000000	30.103426
1882.000000	29.508383
1883.000000	28.950852
1884.000000	28.394461
1885.000000	27.824755
1886.000000	27.309002
1887.000000	26.844349
1888.000000	26.427619
1889.000000	26.019814
1890.000000	25.647073
1891.000000	25.277278
1892.000000	24.879840
1893.000000	24.478665
1894.000000	24.132751
1895.000000	23.798648
1896.000000	23.485856
1897.000000	23.188405
1898.000000	22.865496
1899.000000	22.525140
1900.000000	22.169118
1901.000000	21.833428
1902.000000	21.520362
1903.000000	21.220817
1904.000000	20.930221
1905.000000	20.638436
1906.000000	20.322617
1907.000000	20.018338
1908.000000	19.740296
1909.000000	19.495994
1910.000000	19.277882
1911.000000	19.035374
1912.000000	18.812610
1913.000000	18.575795
1914.000000	18.341102
1915.000000	18.098143
1916.000000	17.890606
1917.000000	17.711292
1918.000000	17.538831
1919.000000	17.352319
1920.000000	17.197307
1921.000000	17.031882
1922.000000	16.847174
1923.000000	16.693289
1924.000000	16.567525
1925.000000	16.446738
1926.000000	16.319795
1927.000000	16.213218
1928.000000	16.127175
1929.000000	16.031205
1930.000000	15.950762
1931.000000	15.881355
1932.000000	15.809265
1933.000000	15.755252
1934.000000	15.719022
1935.000000	15.667934
1936.000000	15.645985
1937.000000	15.642478
1938.000000	15.627049
1939.000000	15.628547
1940.000000	15.625084
1941.000000	15.635564
1942.000000	15.662022
1943.000000	15.664993
1944.000000	15.696030
1945.000000	15.721905
1946.000000	15.778549
1947.000000	15.813823
1948.000000	15.867917
1949.000000	15.927920
1950.000000	15.965446
1951.000000	16.027475
1952.000000	16.103029
1953.000000	16.165689
1954.000000	16.221139
1955.000000	16.286680
1956.000000	16.360330
1957.000000	16.434752
1958.000000	16.507661
1959.000000	16.577801
1960.000000	16.645166
1961.000000	16.716326
1962.000000	16.799324
1963.000000	16.872609
1964.000000	16.946800
1965.000000	17.025779
1966.000000	17.090245
1967.000000	17.164361
1968.000000	17.239480
1969.000000	17.309638
1970.000000	17.392527
1971.000000	17.467323
1972.000000	17.547731
1973.000000	17.628794
1974.000000	17.712442
1975.000000	17.775175
1976.000000	17.871444
1977.000000	17.960849
1978.000000	18.041319
1979.000000	18.121723
1980.000000	18.202344
1981.000000	18.286360
1982.000000	18.386093
1983.000000	18.462433
1984.000000	18.538542
1985.000000	18.621191
1986.000000	18.713414
1987.000000	18.778457
1988.000000	18.865335
1989.000000	18.936715
1990.000000	19.009442
1991.000000	19.084561
1992.000000	19.149560
1993.000000	19.214084
1994.000000	19.270043
1995.000000	19.326854
1996.000000	19.392262
1997.000000	19.454569
1998.000000	19.495598
1999.000000	19.537639
2000.000000	19.583479
2001.000000	19.618274
2002.000000	19.649707
2003.000000	19.682584
2004.000000	19.705338
2005.000000	19.724275
2006.000000	19.744052
2007.000000	19.756298
2008.000000	19.759174
2009.000000	19.753719
2010.000000	19.758759
2011.000000	19.768766
2012.000000	19.738146
2013.000000	19.720288
2014.000000	19.702703
2015.000000	19.678140
2016.000000	19.641713
2017.000000	19.588721
2018.000000	19.544513
2019.000000	19.508135
2020.000000	19.456134
2021.000000	19.400955
2022.000000	19.333372
2023.000000	19.279038
2024.000000	19.226807
2025.000000	19.157435
2026.000000	19.088725
2027.000000	19.011703
2028.000000	18.935313
2029.000000	18.857686
2030.000000	18.780369
2031.000000	18.673704
2032.000000	18.579607
2033.000000	18.496211
2034.000000	18.384582
2035.000000	18.288069
2036.000000	18.170664
2037.000000	18.051300
2038.000000	17.931715
2039.000000	17.795291
2040.000000	17.669950
2041.000000	17.536108
2042.000000	17.392973
2043.000000	17.258713
2044.000000	17.118430
2045.000000	16.998611
2046.000000	16.877749
2047.000000	16.750118
2048.000000	16.630269
2049.000000	16.525722
2050.000000	16.414465
2051.000000	16.334659
2052.000000	16.252438
2053.000000	16.186254
2054.000000	16.132083
2055.000000	16.088316
2056.000000	16.059642
2057.000000	16.040635
2058.000000	16.024252
2059.000000	16.022355
2060.000000	16.032095
2061.000000	16.038689
2062.000000	16.052898
2063.000000	16.080865
2064.000000	16.101876
2065.000000	16.125706
2066.000000	16.150174
2067.000000	16.190291
2068.000000	16.232735
2069.000000	16.261923
2070.000000	16.292777
2071.000000	16.322920
2072.000000	16.361631
2073.000000	16.404868
2074.000000	16.435181
2075.000000	16.465056
2076.000000	16.489275
2077.000000	16.517036
2078.000000	16.555551
2079.000000	16.579996
2080.000000	16.597179
2081.000000	16.622279
2082.000000	16.643240
2083.000000	16.662770
2084.000000	16.685417
2085.000000	16.699437
2086.000000	16.712598
2087.000000	16.735996
2088.000000	16.746823
2089.000000	16.763811
2090.000000	16.784453
2091.000000	16.802439
2092.000000	16.808737
2093.000000	16.810983
2094.000000	16.828254
2095.000000	16.849921
2096.000000	16.867897
2097.000000	16.886431
2098.000000	16.910543
2099.000000	16.936330
2100.000000	16.955990
2101.000000	16.980369
2102.000000	17.009492
2103.000000	17.032307
2104.000000	17.057370
2105.000000	17.087734
2106.000000	17.114368
2107.000000	17.147169
2108.000000	17.171519
2109.000000	17.192483
2110.000000	17.223295
2111.000000	17.245728
2112.000000	17.271321
2113.000000	17.295535
2114.000000	17.316243
2115.000000	17.349453
2116.000000	17.374688
2117.000000	17.404578
2118.000000	17.427669
2119.000000	17.437925
2120.000000	17.449088
2121.000000	17.460311
2122.000000	17.470366
2123.000000	17.487452
2124.000000	17.492460
2125.000000	17.495714
2126.000000	17.499215
2127.000000	17.505985
2128.000000	17.506694
2129.000000	17.491040
2130.000000	17.480739
2131.000000	17.482325
2132.000000	17.460185
2133.000000	17.444196
2134.000000	17.429102
2135.000000	17.394583
2136.000000	17.367690
2137.000000	17.353088
2138.000000	17.330766
2139.000000	17.295197
2140.000000	17.257405
2141.000000	17.222354
2142.000000	17.180870
2143.000000	17.141545
2144.000000	17.119576
2145.000000	17.079836
2146.000000	17.044562
2147.000000	17.006954
2148.000000	16.963368
2149.000000	16.925593
2150.000000	16.881234
2151.000000	16.833594
2152.000000	16.799438
2153.000000	16.750474
2154.000000	16.693318
2155.000000	16.659199
2156.000000	16.619112
2157.000000	16.580576
2158.000000	16.531858
2159.000000	16.509892
2160.000000	16.476312
2161.000000	16.444643
2162.000000	16.410318
2163.000000	16.394591
2164.000000	16.372190
2165.000000	16.370451
2166.000000	16.344416
2167.000000	16.316793
2168.000000	16.306335
2169.000000	16.294382
2170.000000	16.273471
2171.000000	16.264199
2172.000000	16.261294
2173.000000	16.263829
2174.000000	16.262176
2175.000000	16.255090
2176.000000	16.262479
2177.000000	16.267138
2178.000000	16.275445
2179.000000	16.290868
2180.000000	16.311278
2181.000000	16.320946
2182.000000	16.334568
2183.000000	16.353629
2184.000000	16.370045
2185.000000	16.390276
2186.000000	16.410548
2187.000000	16.424360
2188.000000	16.441634
2189.000000	16.461402
2190.000000	16.470447
2191.000000	16.487305
2192.000000	16.498199
2193.000000	16.509025
2194.000000	16.524604
2195.000000	16.532217
2196.000000	16.544767
2197.000000	16.558509
2198.000000	16.563202
2199.000000	16.582774
2200.000000	16.590055
2201.000000	16.595687
2202.000000	16.621727
2203.000000	16.639587
2204.000000	16.662669
2205.000000	16.668357
2206.000000	16.686126
2207.000000	16.701384
2208.000000	16.720592
2209.000000	16.760020
2210.000000	16.776733
2211.000000	16.796272
2212.000000	16.809182
2213.000000	16.847053
2214.000000	16.867898
2215.000000	16.905923
2216.000000	16.926623
2217.000000	16.960836
2218.000000	16.997626
2219.000000	17.024827
2220.000000	17.028563
2221.000000	17.057326
2222.000000	17.079729
2223.000000	17.102571
2224.000000	17.099614
2225.000000	17.097405
2226.000000	17.085629
2227.000000	17.079527
2228.000000	17.077924
2229.000000	17.042271
2230.000000	17.014140
2231.000000	16.985125
2232.000000	16.928449
2233.000000	16.876745
2234.000000	16.815358
2235.000000	16.746412
2236.000000	16.669567
2237.000000	16.591981
2238.000000	16.487339
2239.000000	16.380750
2240.000000	16.287139
2241.000000	16.151083
2242.000000	16.038842
2243.000000	15.913831
2244.000000	15.756825
2245.000000	15.599033
2246.000000	15.449693
2247.000000	15.269627
2248.000000	15.075523
2249.000000	14.879909
2250.000000	14.674060
2251.000000	14.449071
2252.000000	14.214360
2253.000000	13.967380
2254.000000	13.715354
2255.000000	13.471413
2256.000000	13.201849
2257.000000	12.953369
2258.000000	12.695221
2259.000000	12.457239
2260.000000	12.221960
2261.000000	11.995231
2262.000000	11.791636
2263.000000	11.600197
2264.000000	11.447318
2265.000000	11.295207
2266.000000	11.162543
2267.000000	11.055801
2268.000000	10.963188
2269.000000	10.889778
2270.000000	10.845494
2271.000000	10.809422
2272.000000	10.788082
2273.000000	10.776960
2274.000000	10.784940
2275.000000	10.791008
2276.000000	10.818663
2277.000000	10.863483
2278.000000	10.896420
2279.000000	10.925311
2280.000000	10.962741
2281.000000	11.006350
2282.000000	11.043234
2283.000000	11.079818
2284.000000	11.115539
2285.000000	11.139048
2286.000000	11.159007
2287.000000	11.182106
2288.000000	11.182045
2289.000000	11.174075
2290.000000	11.161390
2291.000000	11.123955
2292.000000	11.089094
2293.000000	11.027522
2294.000000	10.970615
2295.000000	10.905721
2296.000000	10.817703
2297.000000	10.728169
2298.000000	10.645716
2299.000000	10.565341
2300.000000	10.476684
2301.000000	10.380853
2302.000000	10.310651
2303.000000	10.246781
2304.000000	10.188166
2305.000000	10.161283
2306.000000	10.133335
2307.000000	10.127606
2308.000000	10.139844
2309.000000	10.169945
2310.000000	10.212756
2311.000000	10.277749
2312.000000	10.340824
2313.000000	10.410802
2314.000000	10.496735
2315.000000	10.597708
2316.000000	10.680047
2317.000000	10.780445
2318.000000	10.881206
2319.000000	10.973270
2320.000000	11.078010
2321.000000	11.173926
2322.000000	11.252396
2323.000000	11.334638
2324.000000	11.407598
2325.000000	11.472862
2326.000000	11.535913
2327.000000	11.592954
2328.000000	11.648232
2329.000000	11.689253
2330.000000	11.729824
2331.000000	11.774594
2332.000000	11.802773
2333.000000	11.817129
2334.000000	11.833865
2335.000000	11.841038
2336.000000	11.848772
2337.000000	11.849190
2338.000000	11.834666
2339.000000	11.799809
2340.000000	11.780663
2341.000000	11.759938
2342.000000	11.718939
2343.000000	11.663752
2344.000000	11.611789
2345.000000	11.562663
2346.000000	11.521368
2347.000000	11.473206
2348.000000	11.419768
2349.000000	11.373598
2350.000000	11.340696
2351.000000	11.314992
2352.000000	11.297638
2353.000000	11.291804
2354.000000	11.286818
2355.000000	11.299288
2356.000000	11.334342
2357.000000	11.360637
2358.000000	11.384480
2359.000000	11.425647
2360.000000	11.476420
2361.000000	11.524782
2362.000000	11.566302
2363.000000	11.620478
2364.000000	11.676587
2365.000000	11.717767
2366.000000	11.762298
2367.000000	11.803147
2368.000000	11.839007
2369.000000	11.872597
2370.000000	11.907244
2371.000000	11.929150
2372.000000	11.949014
2373.000000	11.978853
2374.000000	12.001485
2375.000000	12.005451
2376.000000	12.014726
2377.000000	12.035455
2378.000000	12.034612
2379.000000	12.030502
2380.000000	12.045522
2381.000000	12.046358
2382.000000	12.043007
2383.000000	12.039536
2384.000000	12.030235
2385.000000	12.028655
2386.000000	12.018789
2387.000000	12.007836
2388.000000	11.988370
2389.000000	11.964162
2390.000000	11.940969
2391.000000	11.915365
2392.000000	11.884022
2393.000000	11.858149
2394.000000	11.817386
2395.000000	11.787477
2396.000000	11.753800
2397.000000	11.714496
2398.000000	11.683344
2399.000000	11.637927
2400.000000	11.589528
2401.000000	11.569953
2402.000000	11.529599
2403.000000	11.476345
2404.000000	11.440367
2405.000000	11.416119
2406.000000	11.393043
2407.000000	11.358930
2408.000000	11.301858
2409.000000	11.230289
2410.000000	11.157664
2411.000000	11.097147
2412.000000	11.056542
2413.000000	11.027192
2414.000000	11.001919
2415.000000	10.981229
2416.000000	10.954003
2417.000000	10.918275
2418.000000	10.893485
2419.000000	10.869564
2420.000000	10.844271
2421.000000	10.815379
2422.000000	10.787715
2423.000000	10.757986
2424.000000	10.719650
2425.000000	10.699320
2426.000000	10.667882
2427.000000	10.619513
2428.000000	10.583883
2429.000000	10.543616
2430.000000	10.508083
2431.000000	10.454595
2432.000000	10.403864
2433.000000	10.350620
2434.000000	10.307542
2435.000000	10.258113
2436.000000	10.197465
2437.000000	10.141368
2438.000000	10.083411
2439.000000	10.026944
2440.000000	9.961980
2441.000000	9.875777
2442.000000	9.825065
2443.000000	9.752904
2444.000000	9.693703
2445.000000	9.633868
2446.000000	9.587228
2447.000000	9.509343
2448.000000	9.428570
2449.000000	9.361163
2450.000000	9.296099
2451.000000	9.230376
2452.000000	9.172055
2453.000000	9.108062
2454.000000	9.043780
2455.000000	8.991207
2456.000000	8.936806
2457.000000	8.886183
2458.000000	8.821152
2459.000000	8.776935
2460.000000	8.754043
2461.000000	8.725974
2462.000000	8.673438
2463.000000	8.635327
2464.000000	8.611000
2465.000000	8.590663
2466.000000	8.591700
2467.000000	8.560832
2468.000000	8.560475
2469.000000	8.554681
2470.000000	8.519200
2471.000000	8.528509
2472.000000	8.529003
2473.000000	8.534692
2474.000000	8.521038
2475.000000	8.512431
2476.000000	8.518416
2477.000000	8.529742
2478.000000	8.552517
2479.000000	8.535476
2480.000000	8.531927
2481.000000	8.507134
2482.000000	8.537059
2483.000000	8.526806
2484.000000	8.512692
2485.000000	8.553228
2486.000000	8.543141
2487.000000	8.549338
2488.000000	8.522959
2489.000000	8.580672
2490.000000	8.607685
2491.000000	8.600511
2492.000000	8.587879
2493.000000	8.632792
2494.000000	8.698522
2495.000000	8.674534
2496.000000	8.683804
2497.000000	8.755441
2498.000000	8.741796
2499.000000	8.767864
2500.000000	8.820091
