PE UV       SUBTECH     SPECTRUM    ASCII       PEDS        4.00        
   -1
CICIMAUCR0008-5.Sample.ASC
24/04/25
10:02:58.00
24/04/25
10:02:58.00
Vinicio Soto Monge
C. kalinini
250,000000
1
Lambda 1050
1050L1511233
PerkinElmer UV WinLab 6.3.2.0749 / 2.02.05 Lambda 900 UV/VIS/NIR, Aug  7 2015 09:38:08

0
0
3350/servo 860,8/2
0
0
UV/VIS
1
1
1
DoubleDePol,CommonBeamDepol,RBeamAtt,SBeamAtt,60mm sphere, WB InGaAs Detector
0
0
0
0
Program
Program
3350/servo 860,8/2
3350/0,2 860,8/0,2
3350/0,2 860,8/0,2
0
15.00
 
 
 
0
 
860,8
319,2
860,8
Front
100
on
S:100 R:100
0
0
0
0
 
0
 
 
 
0
 
 
0
0
0
0
0
 
 
 
 
0
0


0
0
#HDR
-1
-1
#GR
nm
%R
1.0
0.0
2500,000000
-1,000000
2251
8
95,184700
4,916500
#DATA
250.000000	4.028624
251.000000	4.016586
252.000000	4.002044
253.000000	4.011385
254.000000	3.999264
255.000000	4.015047
256.000000	4.001298
257.000000	3.993015
258.000000	3.982776
259.000000	3.975357
260.000000	3.959119
261.000000	3.968492
262.000000	3.949881
263.000000	3.934370
264.000000	3.911131
265.000000	3.894796
266.000000	3.885257
267.000000	3.883045
268.000000	3.879855
269.000000	3.872508
270.000000	3.842990
271.000000	3.826273
272.000000	3.834183
273.000000	3.829575
274.000000	3.818416
275.000000	3.809228
276.000000	3.802185
277.000000	3.811806
278.000000	3.785887
279.000000	3.805372
280.000000	3.783046
281.000000	3.787445
282.000000	3.774818
283.000000	3.778981
284.000000	3.769576
285.000000	3.764810
286.000000	3.745627
287.000000	3.766449
288.000000	3.740181
289.000000	3.754287
290.000000	3.761916
291.000000	3.732269
292.000000	3.778030
293.000000	3.751343
294.000000	3.763442
295.000000	3.740196
296.000000	3.753438
297.000000	3.763924
298.000000	3.762058
299.000000	3.759077
300.000000	3.712764
301.000000	3.734612
302.000000	3.745517
303.000000	3.738898
304.000000	3.750268
305.000000	3.739240
306.000000	3.733262
307.000000	3.739060
308.000000	3.758108
309.000000	3.746986
310.000000	3.736074
311.000000	3.740740
312.000000	3.728360
313.000000	3.733954
314.000000	3.726227
315.000000	3.734830
316.000000	3.797865
317.000000	4.169926
318.000000	4.028334
319.000000	4.055852
320.000000	3.971564
321.000000	4.058399
322.000000	4.063262
323.000000	4.061392
324.000000	4.071126
325.000000	4.072970
326.000000	3.928796
327.000000	3.967548
328.000000	3.954214
329.000000	3.957784
330.000000	3.944108
331.000000	3.992600
332.000000	3.995388
333.000000	4.013285
334.000000	4.007034
335.000000	3.979637
336.000000	3.993950
337.000000	4.011532
338.000000	3.990269
339.000000	3.989451
340.000000	4.076419
341.000000	4.069235
342.000000	3.979964
343.000000	4.032320
344.000000	4.069983
345.000000	4.074576
346.000000	4.057229
347.000000	4.104996
348.000000	4.130082
349.000000	4.122251
350.000000	4.146121
351.000000	4.182808
352.000000	4.160167
353.000000	4.188594
354.000000	4.282610
355.000000	4.253832
356.000000	4.269468
357.000000	4.308518
358.000000	4.353547
359.000000	4.376786
360.000000	4.374716
361.000000	4.430099
362.000000	4.483097
363.000000	4.480707
364.000000	4.523344
365.000000	4.529582
366.000000	4.604407
367.000000	4.594453
368.000000	4.634287
369.000000	4.684708
370.000000	4.683396
371.000000	4.732766
372.000000	4.819543
373.000000	4.866399
374.000000	4.886385
375.000000	4.976887
376.000000	5.123220
377.000000	5.095774
378.000000	5.176205
379.000000	5.267989
380.000000	5.354145
381.000000	5.457348
382.000000	5.552873
383.000000	5.655900
384.000000	5.770122
385.000000	5.894134
386.000000	6.022854
387.000000	6.163162
388.000000	6.301368
389.000000	6.442495
390.000000	6.603014
391.000000	6.766205
392.000000	6.934520
393.000000	7.114831
394.000000	7.310227
395.000000	7.500754
396.000000	7.691634
397.000000	7.899959
398.000000	8.111371
399.000000	8.321478
400.000000	8.544019
401.000000	8.783372
402.000000	9.015029
403.000000	9.255195
404.000000	9.504981
405.000000	9.755502
406.000000	10.003210
407.000000	10.256096
408.000000	10.510799
409.000000	10.768223
410.000000	11.024357
411.000000	11.285207
412.000000	11.551177
413.000000	11.816536
414.000000	12.078642
415.000000	12.336622
416.000000	12.582354
417.000000	12.830229
418.000000	13.073725
419.000000	13.309367
420.000000	13.547460
421.000000	13.775427
422.000000	13.997168
423.000000	14.208994
424.000000	14.413768
425.000000	14.607928
426.000000	14.792162
427.000000	14.975411
428.000000	15.138418
429.000000	15.297596
430.000000	15.459962
431.000000	15.610786
432.000000	15.753824
433.000000	15.885301
434.000000	16.009390
435.000000	16.136864
436.000000	16.252222
437.000000	16.357804
438.000000	16.466922
439.000000	16.566206
440.000000	16.660722
441.000000	16.751329
442.000000	16.836003
443.000000	16.921139
444.000000	16.994068
445.000000	17.039742
446.000000	17.081848
447.000000	17.129430
448.000000	17.169771
449.000000	17.212049
450.000000	17.261679
451.000000	17.305820
452.000000	17.340620
453.000000	17.375825
454.000000	17.407451
455.000000	17.434673
456.000000	17.466463
457.000000	17.497011
458.000000	17.533056
459.000000	17.569590
460.000000	17.607151
461.000000	17.653141
462.000000	17.701600
463.000000	17.756674
464.000000	17.814678
465.000000	17.882886
466.000000	17.965532
467.000000	18.065601
468.000000	18.166793
469.000000	18.278617
470.000000	18.415649
471.000000	18.561772
472.000000	18.719054
473.000000	18.896705
474.000000	19.085786
475.000000	19.292988
476.000000	19.514370
477.000000	19.752025
478.000000	20.003701
479.000000	20.261159
480.000000	20.559727
481.000000	20.892120
482.000000	21.226039
483.000000	21.558767
484.000000	21.878746
485.000000	22.194043
486.000000	22.507523
487.000000	22.831871
488.000000	23.151490
489.000000	23.469517
490.000000	23.784735
491.000000	24.100455
492.000000	24.402719
493.000000	24.694202
494.000000	24.982739
495.000000	25.267596
496.000000	25.549849
497.000000	25.825524
498.000000	26.103828
499.000000	26.373424
500.000000	26.647250
501.000000	26.929242
502.000000	27.226882
503.000000	27.526631
504.000000	27.850099
505.000000	28.167606
506.000000	28.482672
507.000000	28.813965
508.000000	29.157530
509.000000	29.522503
510.000000	29.893022
511.000000	30.285390
512.000000	30.679256
513.000000	31.091051
514.000000	31.519195
515.000000	31.957492
516.000000	32.405284
517.000000	32.839619
518.000000	33.292674
519.000000	33.740423
520.000000	34.197890
521.000000	34.657511
522.000000	35.109029
523.000000	35.557853
524.000000	36.006249
525.000000	36.452842
526.000000	36.878794
527.000000	37.314817
528.000000	37.756196
529.000000	38.179779
530.000000	38.582846
531.000000	38.965275
532.000000	39.355645
533.000000	39.743219
534.000000	40.116736
535.000000	40.467673
536.000000	40.819105
537.000000	41.161441
538.000000	41.488241
539.000000	41.804259
540.000000	42.099737
541.000000	42.384698
542.000000	42.667572
543.000000	42.921385
544.000000	43.190995
545.000000	43.431064
546.000000	43.642631
547.000000	43.865285
548.000000	44.079439
549.000000	44.290838
550.000000	44.488049
551.000000	44.676469
552.000000	44.836814
553.000000	44.996225
554.000000	45.150754
555.000000	45.281941
556.000000	45.413971
557.000000	45.524277
558.000000	45.633390
559.000000	45.721010
560.000000	45.584304
561.000000	45.652558
562.000000	45.729714
563.000000	45.800400
564.000000	45.860299
565.000000	45.901784
566.000000	45.923360
567.000000	45.946089
568.000000	45.951894
569.000000	45.974841
570.000000	45.987248
571.000000	45.989009
572.000000	45.989039
573.000000	45.988471
574.000000	45.958480
575.000000	45.912518
576.000000	45.871463
577.000000	45.808447
578.000000	45.723280
579.000000	45.658248
580.000000	45.582354
581.000000	45.490151
582.000000	45.380365
583.000000	45.265525
584.000000	45.150190
585.000000	45.006998
586.000000	44.857095
587.000000	44.703898
588.000000	44.531885
589.000000	44.365075
590.000000	44.204940
591.000000	44.032096
592.000000	43.868318
593.000000	43.670746
594.000000	43.520083
595.000000	43.357409
596.000000	43.190907
597.000000	43.016124
598.000000	42.845380
599.000000	42.650796
600.000000	42.454427
601.000000	42.282076
602.000000	42.088569
603.000000	41.913956
604.000000	41.726565
605.000000	41.553040
606.000000	41.377332
607.000000	41.234436
608.000000	41.091251
609.000000	40.962265
610.000000	40.848520
611.000000	40.739170
612.000000	40.638109
613.000000	40.532551
614.000000	40.446201
615.000000	40.356630
616.000000	40.306661
617.000000	40.269203
618.000000	40.233838
619.000000	40.199666
620.000000	40.198311
621.000000	40.189512
622.000000	40.184482
623.000000	40.201441
624.000000	40.238316
625.000000	40.302491
626.000000	40.365646
627.000000	40.466308
628.000000	40.582731
629.000000	40.715911
630.000000	40.874888
631.000000	41.045179
632.000000	41.235053
633.000000	41.435938
634.000000	41.648858
635.000000	41.879090
636.000000	42.114423
637.000000	42.348662
638.000000	42.601249
639.000000	42.868508
640.000000	43.131601
641.000000	43.398296
642.000000	43.652430
643.000000	43.936210
644.000000	44.204077
645.000000	44.466630
646.000000	44.731015
647.000000	44.954405
648.000000	45.214765
649.000000	45.439737
650.000000	45.682243
651.000000	45.903359
652.000000	46.128118
653.000000	46.356208
654.000000	46.562290
655.000000	46.773360
656.000000	46.970158
657.000000	47.180004
658.000000	47.373884
659.000000	47.568404
660.000000	47.768066
661.000000	47.953414
662.000000	48.159349
663.000000	48.364709
664.000000	48.569437
665.000000	48.783074
666.000000	49.004654
667.000000	49.229414
668.000000	49.475949
669.000000	49.724135
670.000000	49.993068
671.000000	50.285754
672.000000	50.559693
673.000000	50.860968
674.000000	51.162962
675.000000	51.484119
676.000000	51.802529
677.000000	52.126645
678.000000	52.451572
679.000000	52.776716
680.000000	53.113380
681.000000	53.434546
682.000000	53.748680
683.000000	54.086965
684.000000	54.420774
685.000000	54.748845
686.000000	55.060911
687.000000	55.334812
688.000000	55.579858
689.000000	55.859077
690.000000	56.130591
691.000000	56.387849
692.000000	56.660020
693.000000	56.901950
694.000000	57.117886
695.000000	57.327730
696.000000	57.544146
697.000000	57.713327
698.000000	57.877707
699.000000	58.048758
700.000000	58.224632
701.000000	58.374710
702.000000	58.548100
703.000000	58.707185
704.000000	58.854566
705.000000	58.993685
706.000000	59.123202
707.000000	59.231971
708.000000	59.337385
709.000000	59.463218
710.000000	59.578095
711.000000	59.669504
712.000000	59.756839
713.000000	59.884114
714.000000	60.000021
715.000000	60.103291
716.000000	60.188699
717.000000	60.269877
718.000000	60.338215
719.000000	60.427303
720.000000	60.520109
721.000000	60.620168
722.000000	60.706986
723.000000	60.786121
724.000000	60.866671
725.000000	60.909313
726.000000	60.989066
727.000000	61.074030
728.000000	61.105689
729.000000	61.147436
730.000000	61.225570
731.000000	61.281678
732.000000	61.337721
733.000000	61.359285
734.000000	61.372706
735.000000	61.398000
736.000000	61.423840
737.000000	61.454832
738.000000	61.473511
739.000000	61.483226
740.000000	61.497994
741.000000	61.507768
742.000000	61.514711
743.000000	61.511846
744.000000	61.479879
745.000000	61.437792
746.000000	61.422682
747.000000	61.408545
748.000000	61.379289
749.000000	61.333655
750.000000	61.294835
751.000000	61.232351
752.000000	61.156940
753.000000	61.089304
754.000000	61.019029
755.000000	60.956243
756.000000	60.847262
757.000000	60.762871
758.000000	60.708699
759.000000	60.626995
760.000000	60.514573
761.000000	60.389916
762.000000	60.255514
763.000000	60.130451
764.000000	60.006876
765.000000	59.858376
766.000000	59.713460
767.000000	59.553371
768.000000	59.400400
769.000000	59.292574
770.000000	59.156819
771.000000	58.952832
772.000000	58.748883
773.000000	58.570358
774.000000	58.376465
775.000000	58.205444
776.000000	57.999160
777.000000	57.804399
778.000000	57.615067
779.000000	57.401355
780.000000	57.168395
781.000000	56.933261
782.000000	56.700802
783.000000	56.459433
784.000000	56.219940
785.000000	55.947852
786.000000	55.733239
787.000000	55.528090
788.000000	55.276402
789.000000	55.039614
790.000000	54.779771
791.000000	54.538475
792.000000	54.276538
793.000000	54.008171
794.000000	53.777731
795.000000	53.564619
796.000000	53.293203
797.000000	53.036944
798.000000	52.814943
799.000000	52.594070
800.000000	52.388096
801.000000	52.148973
802.000000	51.843137
803.000000	51.656417
804.000000	51.446192
805.000000	51.195961
806.000000	50.965874
807.000000	50.762096
808.000000	50.542259
809.000000	50.329890
810.000000	50.104753
811.000000	49.911149
812.000000	49.712441
813.000000	49.545160
814.000000	49.371869
815.000000	49.174753
816.000000	49.006486
817.000000	48.862784
818.000000	48.709785
819.000000	48.523501
820.000000	48.418562
821.000000	48.313093
822.000000	48.187874
823.000000	48.038056
824.000000	47.976198
825.000000	47.849597
826.000000	47.711955
827.000000	47.659437
828.000000	47.607244
829.000000	47.541167
830.000000	47.513744
831.000000	47.456550
832.000000	47.339639
833.000000	47.266586
834.000000	47.262592
835.000000	47.187564
836.000000	47.165950
837.000000	47.077265
838.000000	47.015891
839.000000	46.984528
840.000000	46.940232
841.000000	46.881522
842.000000	46.774141
843.000000	46.676507
844.000000	46.540065
845.000000	46.522615
846.000000	46.510702
847.000000	46.354604
848.000000	46.361296
849.000000	46.278930
850.000000	46.083506
851.000000	46.094593
852.000000	45.939319
853.000000	45.833098
854.000000	45.575720
855.000000	45.553601
856.000000	45.564102
857.000000	45.561920
858.000000	46.110000
859.000000	45.524080
860.000000	45.391840
861.000000	45.254800
862.000000	45.131720
863.000000	44.995980
864.000000	44.874900
865.000000	44.750780
866.000000	44.599980
867.000000	44.469340
868.000000	44.382580
869.000000	44.384160
870.000000	44.422600
871.000000	44.457640
872.000000	44.502040
873.000000	44.517460
874.000000	44.529700
875.000000	44.526140
876.000000	44.513160
877.000000	44.493380
878.000000	44.486100
879.000000	44.468160
880.000000	44.440700
881.000000	44.418080
882.000000	44.396780
883.000000	44.382460
884.000000	44.372660
885.000000	44.350560
886.000000	44.277260
887.000000	44.222800
888.000000	44.212580
889.000000	44.175180
890.000000	44.138400
891.000000	44.104140
892.000000	44.070000
893.000000	43.994080
894.000000	43.927700
895.000000	43.867700
896.000000	43.824060
897.000000	43.779740
898.000000	43.703160
899.000000	43.638920
900.000000	43.573840
901.000000	43.496440
902.000000	43.435440
903.000000	43.365800
904.000000	43.305520
905.000000	43.253080
906.000000	43.191180
907.000000	43.127340
908.000000	43.063960
909.000000	43.018240
910.000000	42.982400
911.000000	42.947040
912.000000	42.905160
913.000000	42.855600
914.000000	42.832040
915.000000	42.814940
916.000000	42.799760
917.000000	42.784340
918.000000	42.727800
919.000000	42.706360
920.000000	42.690740
921.000000	42.665180
922.000000	42.645060
923.000000	42.616140
924.000000	42.604040
925.000000	42.577160
926.000000	42.573520
927.000000	42.572420
928.000000	42.555020
929.000000	42.548420
930.000000	42.549040
931.000000	42.534460
932.000000	42.521520
933.000000	42.503080
934.000000	42.493660
935.000000	42.471780
936.000000	42.463120
937.000000	42.454100
938.000000	42.450500
939.000000	42.452140
940.000000	42.449600
941.000000	42.458980
942.000000	42.456060
943.000000	42.458920
944.000000	42.475500
945.000000	42.483340
946.000000	42.509620
947.000000	42.515720
948.000000	42.525740
949.000000	42.533380
950.000000	42.550720
951.000000	42.564080
952.000000	42.571980
953.000000	42.581940
954.000000	42.590800
955.000000	42.614340
956.000000	42.606740
957.000000	42.617120
958.000000	42.614680
959.000000	42.632420
960.000000	42.641380
961.000000	42.653220
962.000000	42.654740
963.000000	42.664340
964.000000	42.686660
965.000000	42.706140
966.000000	42.727360
967.000000	42.742380
968.000000	42.762620
969.000000	42.796720
970.000000	42.819840
971.000000	42.840260
972.000000	42.861940
973.000000	42.879900
974.000000	42.905800
975.000000	42.926400
976.000000	42.957780
977.000000	42.981660
978.000000	43.006520
979.000000	43.029900
980.000000	43.057340
981.000000	43.077700
982.000000	43.100380
983.000000	43.127220
984.000000	43.145940
985.000000	43.171180
986.000000	43.205160
987.000000	43.225880
988.000000	43.246680
989.000000	43.268640
990.000000	43.294700
991.000000	43.323020
992.000000	43.346140
993.000000	43.380400
994.000000	43.414680
995.000000	43.433060
996.000000	43.470960
997.000000	43.507240
998.000000	43.532080
999.000000	43.556880
1000.000000	43.590020
1001.000000	43.625440
1002.000000	43.661780
1003.000000	43.698400
1004.000000	43.721360
1005.000000	43.749760
1006.000000	43.777600
1007.000000	43.805800
1008.000000	43.832580
1009.000000	43.859940
1010.000000	43.894480
1011.000000	43.929340
1012.000000	43.963260
1013.000000	44.000940
1014.000000	44.042980
1015.000000	44.096640
1016.000000	44.154600
1017.000000	44.201000
1018.000000	44.259300
1019.000000	44.321920
1020.000000	44.391060
1021.000000	44.458520
1022.000000	44.524300
1023.000000	44.593320
1024.000000	44.649540
1025.000000	44.717840
1026.000000	44.791100
1027.000000	44.857580
1028.000000	44.929020
1029.000000	44.992000
1030.000000	45.057760
1031.000000	45.127620
1032.000000	45.190560
1033.000000	45.249220
1034.000000	45.313780
1035.000000	45.370060
1036.000000	45.419300
1037.000000	45.483020
1038.000000	45.548520
1039.000000	45.601000
1040.000000	45.653060
1041.000000	45.708920
1042.000000	45.756740
1043.000000	45.809220
1044.000000	45.867900
1045.000000	45.924540
1046.000000	45.982080
1047.000000	46.041040
1048.000000	46.099460
1049.000000	46.152640
1050.000000	46.217100
1051.000000	46.281520
1052.000000	46.332640
1053.000000	46.385560
1054.000000	46.451580
1055.000000	46.523880
1056.000000	46.588140
1057.000000	46.650020
1058.000000	46.718240
1059.000000	46.787800
1060.000000	46.854160
1061.000000	46.913940
1062.000000	46.977500
1063.000000	47.048780
1064.000000	47.108640
1065.000000	47.172920
1066.000000	47.235480
1067.000000	47.293740
1068.000000	47.355740
1069.000000	47.418140
1070.000000	47.473500
1071.000000	47.531540
1072.000000	47.592380
1073.000000	47.654320
1074.000000	47.709060
1075.000000	47.762920
1076.000000	47.823540
1077.000000	47.880180
1078.000000	47.934720
1079.000000	47.988800
1080.000000	48.044040
1081.000000	48.099360
1082.000000	48.158240
1083.000000	48.217300
1084.000000	48.274300
1085.000000	48.330640
1086.000000	48.398840
1087.000000	48.457700
1088.000000	48.515220
1089.000000	48.574820
1090.000000	48.634060
1091.000000	48.685260
1092.000000	48.739220
1093.000000	48.789960
1094.000000	48.846240
1095.000000	48.896140
1096.000000	48.946260
1097.000000	49.000240
1098.000000	49.049480
1099.000000	49.090100
1100.000000	49.144500
1101.000000	49.179800
1102.000000	49.209940
1103.000000	49.243380
1104.000000	49.277720
1105.000000	49.314080
1106.000000	49.344760
1107.000000	49.380400
1108.000000	49.410080
1109.000000	49.436980
1110.000000	49.458900
1111.000000	49.489140
1112.000000	49.519420
1113.000000	49.545700
1114.000000	49.569320
1115.000000	49.596640
1116.000000	49.627520
1117.000000	49.649780
1118.000000	49.662600
1119.000000	49.666660
1120.000000	49.662460
1121.000000	49.656120
1122.000000	49.649900
1123.000000	49.627420
1124.000000	49.602240
1125.000000	49.563560
1126.000000	49.529720
1127.000000	49.477880
1128.000000	49.422560
1129.000000	49.333340
1130.000000	49.215900
1131.000000	49.082440
1132.000000	48.927740
1133.000000	48.778320
1134.000000	48.619060
1135.000000	48.406560
1136.000000	48.161760
1137.000000	47.917960
1138.000000	47.677680
1139.000000	47.442420
1140.000000	47.210720
1141.000000	46.987900
1142.000000	46.761960
1143.000000	46.561700
1144.000000	46.360200
1145.000000	46.187840
1146.000000	46.044500
1147.000000	45.949040
1148.000000	45.905260
1149.000000	45.884260
1150.000000	45.903100
1151.000000	45.910440
1152.000000	45.931800
1153.000000	45.925600
1154.000000	45.880040
1155.000000	45.823160
1156.000000	45.704840
1157.000000	45.563620
1158.000000	45.367580
1159.000000	45.150760
1160.000000	44.919440
1161.000000	44.680720
1162.000000	44.415060
1163.000000	44.164420
1164.000000	43.888960
1165.000000	43.616000
1166.000000	43.331920
1167.000000	43.058520
1168.000000	42.806520
1169.000000	42.543380
1170.000000	42.290360
1171.000000	42.026160
1172.000000	41.781180
1173.000000	41.535460
1174.000000	41.309120
1175.000000	41.082820
1176.000000	40.872360
1177.000000	40.646880
1178.000000	40.389120
1179.000000	40.108160
1180.000000	39.772540
1181.000000	39.425220
1182.000000	39.074720
1183.000000	38.727480
1184.000000	38.448860
1185.000000	38.247560
1186.000000	38.134220
1187.000000	38.106460
1188.000000	38.168520
1189.000000	38.328440
1190.000000	38.568380
1191.000000	38.863300
1192.000000	39.191660
1193.000000	39.516580
1194.000000	39.817860
1195.000000	40.071240
1196.000000	40.288500
1197.000000	40.458340
1198.000000	40.598300
1199.000000	40.704960
1200.000000	40.778200
1201.000000	40.840440
1202.000000	40.880080
1203.000000	40.910720
1204.000000	40.950880
1205.000000	40.974960
1206.000000	41.009900
1207.000000	41.059240
1208.000000	41.115080
1209.000000	41.174020
1210.000000	41.255380
1211.000000	41.341000
1212.000000	41.431760
1213.000000	41.533780
1214.000000	41.622980
1215.000000	41.712420
1216.000000	41.815540
1217.000000	41.921520
1218.000000	42.029760
1219.000000	42.144280
1220.000000	42.273440
1221.000000	42.389080
1222.000000	42.517940
1223.000000	42.651320
1224.000000	42.792520
1225.000000	42.930440
1226.000000	43.059000
1227.000000	43.197980
1228.000000	43.337120
1229.000000	43.467100
1230.000000	43.602380
1231.000000	43.737720
1232.000000	43.874560
1233.000000	43.996640
1234.000000	44.130400
1235.000000	44.255400
1236.000000	44.376580
1237.000000	44.504240
1238.000000	44.611380
1239.000000	44.727140
1240.000000	44.839260
1241.000000	44.949520
1242.000000	45.059480
1243.000000	45.168120
1244.000000	45.272900
1245.000000	45.374720
1246.000000	45.478380
1247.000000	45.566520
1248.000000	45.644900
1249.000000	45.728680
1250.000000	45.807300
1251.000000	45.877600
1252.000000	45.939860
1253.000000	46.001500
1254.000000	46.056320
1255.000000	46.106560
1256.000000	46.160200
1257.000000	46.212320
1258.000000	46.257860
1259.000000	46.299900
1260.000000	46.329780
1261.000000	46.361800
1262.000000	46.400100
1263.000000	46.435120
1264.000000	46.471800
1265.000000	46.507920
1266.000000	46.547040
1267.000000	46.581820
1268.000000	46.613140
1269.000000	46.649320
1270.000000	46.685380
1271.000000	46.711860
1272.000000	46.739360
1273.000000	46.770260
1274.000000	46.799920
1275.000000	46.835040
1276.000000	46.878940
1277.000000	46.923320
1278.000000	46.970420
1279.000000	47.023560
1280.000000	47.072940
1281.000000	47.121340
1282.000000	47.176700
1283.000000	47.236160
1284.000000	47.291500
1285.000000	47.346060
1286.000000	47.396740
1287.000000	47.444140
1288.000000	47.491580
1289.000000	47.533780
1290.000000	47.565660
1291.000000	47.597840
1292.000000	47.625760
1293.000000	47.645260
1294.000000	47.665260
1295.000000	47.674560
1296.000000	47.679180
1297.000000	47.691860
1298.000000	47.703880
1299.000000	47.707060
1300.000000	47.715680
1301.000000	47.726180
1302.000000	47.725160
1303.000000	47.726380
1304.000000	47.731520
1305.000000	47.723040
1306.000000	47.712660
1307.000000	47.699380
1308.000000	47.675520
1309.000000	47.649580
1310.000000	47.619340
1311.000000	47.587940
1312.000000	47.551960
1313.000000	47.513400
1314.000000	47.470220
1315.000000	47.423840
1316.000000	47.369080
1317.000000	47.307080
1318.000000	47.252220
1319.000000	47.194620
1320.000000	47.127320
1321.000000	47.057640
1322.000000	46.983800
1323.000000	46.904320
1324.000000	46.823480
1325.000000	46.744740
1326.000000	46.663880
1327.000000	46.574820
1328.000000	46.481860
1329.000000	46.378120
1330.000000	46.266320
1331.000000	46.157140
1332.000000	46.034120
1333.000000	45.893800
1334.000000	45.749200
1335.000000	45.606220
1336.000000	45.455720
1337.000000	45.298620
1338.000000	45.131860
1339.000000	44.951120
1340.000000	44.763680
1341.000000	44.571280
1342.000000	44.355340
1343.000000	44.135660
1344.000000	43.905240
1345.000000	43.654080
1346.000000	43.381540
1347.000000	43.124720
1348.000000	42.841720
1349.000000	42.524800
1350.000000	42.193520
1351.000000	41.827640
1352.000000	41.415720
1353.000000	40.989860
1354.000000	40.606460
1355.000000	40.218540
1356.000000	39.837760
1357.000000	39.571880
1358.000000	39.400640
1359.000000	39.282420
1360.000000	39.227440
1361.000000	39.191920
1362.000000	39.093760
1363.000000	38.969660
1364.000000	38.855420
1365.000000	38.718460
1366.000000	38.552880
1367.000000	38.400520
1368.000000	38.229120
1369.000000	38.005020
1370.000000	37.779540
1371.000000	37.545860
1372.000000	37.270240
1373.000000	36.987980
1374.000000	36.743560
1375.000000	36.530700
1376.000000	36.359980
1377.000000	36.243340
1378.000000	36.150300
1379.000000	36.093620
1380.000000	36.022560
1381.000000	35.950460
1382.000000	35.834060
1383.000000	35.626020
1384.000000	35.371120
1385.000000	35.062560
1386.000000	34.783280
1387.000000	34.558080
1388.000000	34.336560
1389.000000	34.099320
1390.000000	33.873040
1391.000000	33.723580
1392.000000	33.579300
1393.000000	33.399440
1394.000000	33.280220
1395.000000	33.204000
1396.000000	33.051980
1397.000000	32.816880
1398.000000	32.632840
1399.000000	32.487940
1400.000000	32.342400
1401.000000	32.078320
1402.000000	31.750800
1403.000000	31.450660
1404.000000	31.172020
1405.000000	30.881140
1406.000000	30.579240
1407.000000	30.282100
1408.000000	30.003180
1409.000000	29.738360
1410.000000	29.451340
1411.000000	29.172000
1412.000000	28.943680
1413.000000	28.763760
1414.000000	28.596360
1415.000000	28.390240
1416.000000	28.167900
1417.000000	27.963880
1418.000000	27.801420
1419.000000	27.632660
1420.000000	27.445980
1421.000000	27.224940
1422.000000	27.034160
1423.000000	26.859460
1424.000000	26.692700
1425.000000	26.490340
1426.000000	26.313380
1427.000000	26.145800
1428.000000	25.999460
1429.000000	25.838640
1430.000000	25.698780
1431.000000	25.582360
1432.000000	25.454520
1433.000000	25.330480
1434.000000	25.232640
1435.000000	25.114360
1436.000000	25.009100
1437.000000	24.921900
1438.000000	24.813400
1439.000000	24.711100
1440.000000	24.615700
1441.000000	24.508720
1442.000000	24.409940
1443.000000	24.293700
1444.000000	24.207600
1445.000000	24.126080
1446.000000	24.035680
1447.000000	23.925100
1448.000000	23.826740
1449.000000	23.720940
1450.000000	23.660740
1451.000000	23.581520
1452.000000	23.500300
1453.000000	23.402060
1454.000000	23.314960
1455.000000	23.226120
1456.000000	23.147880
1457.000000	23.080300
1458.000000	23.001680
1459.000000	22.933540
1460.000000	22.852960
1461.000000	22.790600
1462.000000	22.718800
1463.000000	22.661200
1464.000000	22.599340
1465.000000	22.542300
1466.000000	22.500220
1467.000000	22.454220
1468.000000	22.401760
1469.000000	22.355660
1470.000000	22.318940
1471.000000	22.280020
1472.000000	22.238760
1473.000000	22.192900
1474.000000	22.148360
1475.000000	22.107740
1476.000000	22.072000
1477.000000	22.035900
1478.000000	22.002040
1479.000000	21.968100
1480.000000	21.949100
1481.000000	21.915140
1482.000000	21.884000
1483.000000	21.859040
1484.000000	21.840880
1485.000000	21.817480
1486.000000	21.801900
1487.000000	21.786980
1488.000000	21.769420
1489.000000	21.757320
1490.000000	21.739960
1491.000000	21.730220
1492.000000	21.723260
1493.000000	21.712080
1494.000000	21.703300
1495.000000	21.701220
1496.000000	21.703620
1497.000000	21.706060
1498.000000	21.707640
1499.000000	21.712740
1500.000000	21.720200
1501.000000	21.731420
1502.000000	21.751920
1503.000000	21.769580
1504.000000	21.782080
1505.000000	21.808060
1506.000000	21.828580
1507.000000	21.849940
1508.000000	21.875820
1509.000000	21.897260
1510.000000	21.922020
1511.000000	21.943060
1512.000000	21.966660
1513.000000	21.995160
1514.000000	22.016980
1515.000000	22.040080
1516.000000	22.065020
1517.000000	22.085840
1518.000000	22.107000
1519.000000	22.125880
1520.000000	22.149900
1521.000000	22.170740
1522.000000	22.190260
1523.000000	22.207620
1524.000000	22.229440
1525.000000	22.248700
1526.000000	22.264920
1527.000000	22.285000
1528.000000	22.292100
1529.000000	22.300320
1530.000000	22.321260
1531.000000	22.333320
1532.000000	22.345280
1533.000000	22.355960
1534.000000	22.364360
1535.000000	22.371220
1536.000000	22.371140
1537.000000	22.368600
1538.000000	22.374280
1539.000000	22.377400
1540.000000	22.377440
1541.000000	22.377920
1542.000000	22.376560
1543.000000	22.383140
1544.000000	22.384480
1545.000000	22.389360
1546.000000	22.391700
1547.000000	22.400800
1548.000000	22.414820
1549.000000	22.429820
1550.000000	22.446140
1551.000000	22.459780
1552.000000	22.467540
1553.000000	22.476980
1554.000000	22.484420
1555.000000	22.487960
1556.000000	22.490500
1557.000000	22.484760
1558.000000	22.478380
1559.000000	22.474260
1560.000000	22.467060
1561.000000	22.456680
1562.000000	22.439780
1563.000000	22.420380
1564.000000	22.399820
1565.000000	22.380420
1566.000000	22.361600
1567.000000	22.334800
1568.000000	22.315720
1569.000000	22.295060
1570.000000	22.270280
1571.000000	22.251500
1572.000000	22.235360
1573.000000	22.220980
1574.000000	22.207640
1575.000000	22.198700
1576.000000	22.190620
1577.000000	22.188900
1578.000000	22.185160
1579.000000	22.183780
1580.000000	22.193460
1581.000000	22.202080
1582.000000	22.217100
1583.000000	22.230420
1584.000000	22.243540
1585.000000	22.260080
1586.000000	22.277100
1587.000000	22.303700
1588.000000	22.329680
1589.000000	22.354500
1590.000000	22.387560
1591.000000	22.414500
1592.000000	22.445140
1593.000000	22.487180
1594.000000	22.531820
1595.000000	22.566100
1596.000000	22.604300
1597.000000	22.643880
1598.000000	22.691700
1599.000000	22.741240
1600.000000	22.790900
1601.000000	22.840140
1602.000000	22.889000
1603.000000	22.939940
1604.000000	22.994800
1605.000000	23.055180
1606.000000	23.099980
1607.000000	23.152420
1608.000000	23.215000
1609.000000	23.266400
1610.000000	23.322480
1611.000000	23.366980
1612.000000	23.413220
1613.000000	23.465340
1614.000000	23.509740
1615.000000	23.563700
1616.000000	23.618240
1617.000000	23.663480
1618.000000	23.719940
1619.000000	23.767780
1620.000000	23.818460
1621.000000	23.874420
1622.000000	23.928420
1623.000000	23.976040
1624.000000	24.030480
1625.000000	24.077740
1626.000000	24.135380
1627.000000	24.194000
1628.000000	24.250180
1629.000000	24.302820
1630.000000	24.362380
1631.000000	24.414140
1632.000000	24.459580
1633.000000	24.507160
1634.000000	24.554040
1635.000000	24.589520
1636.000000	24.638000
1637.000000	24.684920
1638.000000	24.716940
1639.000000	24.761480
1640.000000	24.806540
1641.000000	24.836740
1642.000000	24.878000
1643.000000	24.912300
1644.000000	24.941460
1645.000000	24.969240
1646.000000	25.003560
1647.000000	25.030560
1648.000000	25.045680
1649.000000	25.070580
1650.000000	25.090880
1651.000000	25.111780
1652.000000	25.124380
1653.000000	25.127880
1654.000000	25.134300
1655.000000	25.126660
1656.000000	25.117040
1657.000000	25.098380
1658.000000	25.069300
1659.000000	25.040320
1660.000000	24.991720
1661.000000	24.958460
1662.000000	24.904480
1663.000000	24.844080
1664.000000	24.774240
1665.000000	24.702520
1666.000000	24.622720
1667.000000	24.538080
1668.000000	24.422400
1669.000000	24.305580
1670.000000	24.178380
1671.000000	24.038500
1672.000000	23.877360
1673.000000	23.695100
1674.000000	23.500680
1675.000000	23.294580
1676.000000	23.040100
1677.000000	22.770220
1678.000000	22.456080
1679.000000	22.126360
1680.000000	21.789940
1681.000000	21.450620
1682.000000	21.139180
1683.000000	20.901340
1684.000000	20.726420
1685.000000	20.607540
1686.000000	20.538620
1687.000000	20.512560
1688.000000	20.492600
1689.000000	20.462440
1690.000000	20.416240
1691.000000	20.345540
1692.000000	20.274160
1693.000000	20.210580
1694.000000	20.151540
1695.000000	20.108820
1696.000000	20.093600
1697.000000	20.117760
1698.000000	20.159420
1699.000000	20.223220
1700.000000	20.300900
1701.000000	20.372180
1702.000000	20.442200
1703.000000	20.497120
1704.000000	20.533600
1705.000000	20.556700
1706.000000	20.583840
1707.000000	20.582640
1708.000000	20.583580
1709.000000	20.582180
1710.000000	20.573240
1711.000000	20.542460
1712.000000	20.514700
1713.000000	20.480200
1714.000000	20.415040
1715.000000	20.359640
1716.000000	20.290040
1717.000000	20.228500
1718.000000	20.170860
1719.000000	20.125740
1720.000000	20.077740
1721.000000	20.046980
1722.000000	20.025540
1723.000000	20.009980
1724.000000	19.991960
1725.000000	19.978180
1726.000000	19.946940
1727.000000	19.915200
1728.000000	19.872760
1729.000000	19.821700
1730.000000	19.769640
1731.000000	19.722760
1732.000000	19.685640
1733.000000	19.663100
1734.000000	19.647920
1735.000000	19.674220
1736.000000	19.705740
1737.000000	19.773140
1738.000000	19.864180
1739.000000	19.982100
1740.000000	20.104740
1741.000000	20.233260
1742.000000	20.372420
1743.000000	20.501080
1744.000000	20.616100
1745.000000	20.726840
1746.000000	20.814060
1747.000000	20.889520
1748.000000	20.962180
1749.000000	21.022840
1750.000000	21.063780
1751.000000	21.095080
1752.000000	21.120760
1753.000000	21.137180
1754.000000	21.135920
1755.000000	21.138460
1756.000000	21.140940
1757.000000	21.117520
1758.000000	21.094500
1759.000000	21.061080
1760.000000	21.023420
1761.000000	20.994780
1762.000000	20.960560
1763.000000	20.941180
1764.000000	20.951480
1765.000000	20.962500
1766.000000	20.999700
1767.000000	21.045120
1768.000000	21.104940
1769.000000	21.175440
1770.000000	21.245740
1771.000000	21.322940
1772.000000	21.403520
1773.000000	21.476080
1774.000000	21.556880
1775.000000	21.629000
1776.000000	21.705080
1777.000000	21.781800
1778.000000	21.849540
1779.000000	21.912100
1780.000000	21.966340
1781.000000	22.015160
1782.000000	22.065480
1783.000000	22.105780
1784.000000	22.152780
1785.000000	22.202780
1786.000000	22.238600
1787.000000	22.272480
1788.000000	22.310700
1789.000000	22.350300
1790.000000	22.381580
1791.000000	22.415280
1792.000000	22.448320
1793.000000	22.479980
1794.000000	22.509720
1795.000000	22.545760
1796.000000	22.575780
1797.000000	22.598660
1798.000000	22.613960
1799.000000	22.639140
1800.000000	22.668920
1801.000000	22.708180
1802.000000	22.742260
1803.000000	22.763140
1804.000000	22.788560
1805.000000	22.812700
1806.000000	22.841140
1807.000000	22.868780
1808.000000	22.883140
1809.000000	22.898160
1810.000000	22.928900
1811.000000	22.965580
1812.000000	22.989740
1813.000000	23.003100
1814.000000	23.006460
1815.000000	23.016760
1816.000000	23.018220
1817.000000	23.008280
1818.000000	23.006060
1819.000000	23.016940
1820.000000	23.049460
1821.000000	23.075980
1822.000000	23.084240
1823.000000	23.086580
1824.000000	23.094500
1825.000000	23.115900
1826.000000	23.157400
1827.000000	23.199260
1828.000000	23.246780
1829.000000	23.317100
1830.000000	23.377220
1831.000000	23.422080
1832.000000	23.470500
1833.000000	23.520940
1834.000000	23.580720
1835.000000	23.645420
1836.000000	23.700140
1837.000000	23.746100
1838.000000	23.784400
1839.000000	23.825880
1840.000000	23.874140
1841.000000	23.919780
1842.000000	23.948380
1843.000000	23.954920
1844.000000	23.962660
1845.000000	23.993820
1846.000000	24.050660
1847.000000	24.123220
1848.000000	24.171920
1849.000000	24.211580
1850.000000	24.244940
1851.000000	24.276500
1852.000000	24.308660
1853.000000	24.344860
1854.000000	24.388740
1855.000000	24.421440
1856.000000	24.448140
1857.000000	24.473140
1858.000000	24.480680
1859.000000	24.481340
1860.000000	24.481260
1861.000000	24.466560
1862.000000	24.444220
1863.000000	24.405580
1864.000000	24.374100
1865.000000	24.339560
1866.000000	24.293900
1867.000000	24.251240
1868.000000	24.186740
1869.000000	24.084920
1870.000000	23.965580
1871.000000	23.833300
1872.000000	23.682840
1873.000000	23.517220
1874.000000	23.336380
1875.000000	23.137880
1876.000000	22.924440
1877.000000	22.700500
1878.000000	22.464040
1879.000000	22.192820
1880.000000	21.912260
1881.000000	21.631460
1882.000000	21.327960
1883.000000	21.027500
1884.000000	20.728800
1885.000000	20.409380
1886.000000	20.102240
1887.000000	19.829360
1888.000000	19.563560
1889.000000	19.297280
1890.000000	19.057080
1891.000000	18.820140
1892.000000	18.552380
1893.000000	18.285660
1894.000000	18.029620
1895.000000	17.776080
1896.000000	17.547200
1897.000000	17.322460
1898.000000	17.061700
1899.000000	16.817680
1900.000000	16.551700
1901.000000	16.288000
1902.000000	16.049440
1903.000000	15.824940
1904.000000	15.615100
1905.000000	15.398520
1906.000000	15.148460
1907.000000	14.919120
1908.000000	14.718000
1909.000000	14.534100
1910.000000	14.372640
1911.000000	14.189740
1912.000000	14.038700
1913.000000	13.873040
1914.000000	13.701220
1915.000000	13.525560
1916.000000	13.389040
1917.000000	13.259220
1918.000000	13.131520
1919.000000	13.006280
1920.000000	12.915080
1921.000000	12.795860
1922.000000	12.679940
1923.000000	12.572960
1924.000000	12.479180
1925.000000	12.407000
1926.000000	12.331680
1927.000000	12.266480
1928.000000	12.207180
1929.000000	12.150800
1930.000000	12.092160
1931.000000	12.051320
1932.000000	12.005020
1933.000000	11.976760
1934.000000	11.943800
1935.000000	11.935640
1936.000000	11.912880
1937.000000	11.901960
1938.000000	11.901760
1939.000000	11.907600
1940.000000	11.907780
1941.000000	11.921760
1942.000000	11.930560
1943.000000	11.941860
1944.000000	11.971880
1945.000000	11.986740
1946.000000	12.013700
1947.000000	12.045980
1948.000000	12.076680
1949.000000	12.112240
1950.000000	12.143820
1951.000000	12.173540
1952.000000	12.212740
1953.000000	12.258600
1954.000000	12.308940
1955.000000	12.348820
1956.000000	12.397740
1957.000000	12.438200
1958.000000	12.476520
1959.000000	12.516300
1960.000000	12.565600
1961.000000	12.615620
1962.000000	12.666100
1963.000000	12.709800
1964.000000	12.748860
1965.000000	12.790360
1966.000000	12.837920
1967.000000	12.881080
1968.000000	12.929420
1969.000000	12.961600
1970.000000	13.016520
1971.000000	13.060740
1972.000000	13.113040
1973.000000	13.165880
1974.000000	13.208000
1975.000000	13.248200
1976.000000	13.295200
1977.000000	13.344220
1978.000000	13.404740
1979.000000	13.445720
1980.000000	13.510260
1981.000000	13.554400
1982.000000	13.600340
1983.000000	13.654140
1984.000000	13.712900
1985.000000	13.758740
1986.000000	13.803560
1987.000000	13.846280
1988.000000	13.896200
1989.000000	13.955700
1990.000000	13.995880
1991.000000	14.039680
1992.000000	14.088100
1993.000000	14.121300
1994.000000	14.161480
1995.000000	14.195420
1996.000000	14.238640
1997.000000	14.265540
1998.000000	14.294120
1999.000000	14.321520
2000.000000	14.341440
2001.000000	14.367360
2002.000000	14.384140
2003.000000	14.400480
2004.000000	14.422840
2005.000000	14.436240
2006.000000	14.452900
2007.000000	14.445840
2008.000000	14.452540
2009.000000	14.454620
2010.000000	14.455100
2011.000000	14.444560
2012.000000	14.435160
2013.000000	14.423580
2014.000000	14.404140
2015.000000	14.387100
2016.000000	14.358780
2017.000000	14.336580
2018.000000	14.312700
2019.000000	14.285140
2020.000000	14.256300
2021.000000	14.219960
2022.000000	14.177440
2023.000000	14.135720
2024.000000	14.092020
2025.000000	14.056840
2026.000000	14.009500
2027.000000	13.953720
2028.000000	13.909040
2029.000000	13.858860
2030.000000	13.814320
2031.000000	13.759160
2032.000000	13.692260
2033.000000	13.623780
2034.000000	13.561200
2035.000000	13.494780
2036.000000	13.429340
2037.000000	13.347400
2038.000000	13.264580
2039.000000	13.186400
2040.000000	13.106380
2041.000000	13.023200
2042.000000	12.936960
2043.000000	12.854180
2044.000000	12.760860
2045.000000	12.683500
2046.000000	12.602540
2047.000000	12.520460
2048.000000	12.442740
2049.000000	12.380640
2050.000000	12.312660
2051.000000	12.252100
2052.000000	12.205640
2053.000000	12.160900
2054.000000	12.124720
2055.000000	12.101060
2056.000000	12.083500
2057.000000	12.065960
2058.000000	12.062060
2059.000000	12.063980
2060.000000	12.064200
2061.000000	12.072000
2062.000000	12.081560
2063.000000	12.089060
2064.000000	12.107080
2065.000000	12.122220
2066.000000	12.137820
2067.000000	12.154340
2068.000000	12.175800
2069.000000	12.195080
2070.000000	12.215580
2071.000000	12.233760
2072.000000	12.251020
2073.000000	12.264020
2074.000000	12.279900
2075.000000	12.295080
2076.000000	12.307400
2077.000000	12.321120
2078.000000	12.334780
2079.000000	12.343080
2080.000000	12.353020
2081.000000	12.357320
2082.000000	12.360820
2083.000000	12.367420
2084.000000	12.363720
2085.000000	12.365520
2086.000000	12.366420
2087.000000	12.360020
2088.000000	12.361940
2089.000000	12.360280
2090.000000	12.351820
2091.000000	12.348220
2092.000000	12.346160
2093.000000	12.341400
2094.000000	12.337000
2095.000000	12.331380
2096.000000	12.330960
2097.000000	12.332520
2098.000000	12.327900
2099.000000	12.332680
2100.000000	12.330800
2101.000000	12.330600
2102.000000	12.334600
2103.000000	12.333280
2104.000000	12.340140
2105.000000	12.345800
2106.000000	12.349500
2107.000000	12.354480
2108.000000	12.355420
2109.000000	12.363700
2110.000000	12.370000
2111.000000	12.378520
2112.000000	12.390200
2113.000000	12.390480
2114.000000	12.389480
2115.000000	12.394240
2116.000000	12.397500
2117.000000	12.404560
2118.000000	12.415780
2119.000000	12.416380
2120.000000	12.417020
2121.000000	12.414660
2122.000000	12.411040
2123.000000	12.412560
2124.000000	12.416580
2125.000000	12.412920
2126.000000	12.399820
2127.000000	12.394740
2128.000000	12.387620
2129.000000	12.385720
2130.000000	12.377020
2131.000000	12.358640
2132.000000	12.345160
2133.000000	12.323180
2134.000000	12.304260
2135.000000	12.298040
2136.000000	12.279040
2137.000000	12.254520
2138.000000	12.227340
2139.000000	12.206320
2140.000000	12.178000
2141.000000	12.154460
2142.000000	12.130660
2143.000000	12.103540
2144.000000	12.077560
2145.000000	12.057260
2146.000000	12.029940
2147.000000	12.001480
2148.000000	11.973120
2149.000000	11.939680
2150.000000	11.917500
2151.000000	11.891520
2152.000000	11.866600
2153.000000	11.837380
2154.000000	11.812160
2155.000000	11.781160
2156.000000	11.762000
2157.000000	11.733380
2158.000000	11.704980
2159.000000	11.689240
2160.000000	11.667480
2161.000000	11.649900
2162.000000	11.637040
2163.000000	11.623320
2164.000000	11.615080
2165.000000	11.605900
2166.000000	11.582620
2167.000000	11.577680
2168.000000	11.566900
2169.000000	11.560380
2170.000000	11.559880
2171.000000	11.552580
2172.000000	11.551620
2173.000000	11.548400
2174.000000	11.541380
2175.000000	11.548180
2176.000000	11.557000
2177.000000	11.556300
2178.000000	11.567320
2179.000000	11.577360
2180.000000	11.584300
2181.000000	11.584120
2182.000000	11.599680
2183.000000	11.607760
2184.000000	11.616580
2185.000000	11.638100
2186.000000	11.648100
2187.000000	11.650180
2188.000000	11.665940
2189.000000	11.671660
2190.000000	11.681580
2191.000000	11.684120
2192.000000	11.695900
2193.000000	11.701620
2194.000000	11.711800
2195.000000	11.715660
2196.000000	11.728120
2197.000000	11.737680
2198.000000	11.744780
2199.000000	11.761880
2200.000000	11.766760
2201.000000	11.782500
2202.000000	11.791820
2203.000000	11.811180
2204.000000	11.822300
2205.000000	11.833560
2206.000000	11.853400
2207.000000	11.867120
2208.000000	11.885220
2209.000000	11.895320
2210.000000	11.914880
2211.000000	11.938180
2212.000000	11.964260
2213.000000	11.976920
2214.000000	11.995080
2215.000000	12.024140
2216.000000	12.046160
2217.000000	12.064540
2218.000000	12.088000
2219.000000	12.119340
2220.000000	12.131120
2221.000000	12.152360
2222.000000	12.170900
2223.000000	12.186160
2224.000000	12.188000
2225.000000	12.205820
2226.000000	12.211420
2227.000000	12.212940
2228.000000	12.208420
2229.000000	12.202280
2230.000000	12.201040
2231.000000	12.195300
2232.000000	12.175920
2233.000000	12.148080
2234.000000	12.120600
2235.000000	12.093040
2236.000000	12.058200
2237.000000	12.017240
2238.000000	11.976180
2239.000000	11.939680
2240.000000	11.877140
2241.000000	11.831240
2242.000000	11.768860
2243.000000	11.700580
2244.000000	11.626900
2245.000000	11.543820
2246.000000	11.469360
2247.000000	11.391500
2248.000000	11.292040
2249.000000	11.189140
2250.000000	11.104880
2251.000000	11.004100
2252.000000	10.891320
2253.000000	10.778120
2254.000000	10.665360
2255.000000	10.545860
2256.000000	10.423540
2257.000000	10.318240
2258.000000	10.198940
2259.000000	10.082920
2260.000000	9.976020
2261.000000	9.875340
2262.000000	9.782600
2263.000000	9.697100
2264.000000	9.615140
2265.000000	9.545520
2266.000000	9.491060
2267.000000	9.432200
2268.000000	9.389700
2269.000000	9.365500
2270.000000	9.335520
2271.000000	9.307700
2272.000000	9.296840
2273.000000	9.283260
2274.000000	9.290660
2275.000000	9.296800
2276.000000	9.287060
2277.000000	9.285060
2278.000000	9.306400
2279.000000	9.303880
2280.000000	9.316480
2281.000000	9.326360
2282.000000	9.333640
2283.000000	9.346540
2284.000000	9.341360
2285.000000	9.351220
2286.000000	9.359060
2287.000000	9.351700
2288.000000	9.340100
2289.000000	9.337480
2290.000000	9.344400
2291.000000	9.327820
2292.000000	9.311560
2293.000000	9.298820
2294.000000	9.277320
2295.000000	9.257140
2296.000000	9.236240
2297.000000	9.196320
2298.000000	9.168680
2299.000000	9.135700
2300.000000	9.116480
2301.000000	9.083780
2302.000000	9.060000
2303.000000	9.040980
2304.000000	9.020160
2305.000000	9.005180
2306.000000	8.990300
2307.000000	8.985920
2308.000000	8.987320
2309.000000	8.995140
2310.000000	9.002040
2311.000000	9.023760
2312.000000	9.040040
2313.000000	9.061800
2314.000000	9.091100
2315.000000	9.103820
2316.000000	9.133240
2317.000000	9.153260
2318.000000	9.184700
2319.000000	9.218560
2320.000000	9.243820
2321.000000	9.265360
2322.000000	9.277620
2323.000000	9.288200
2324.000000	9.312080
2325.000000	9.331340
2326.000000	9.348780
2327.000000	9.354260
2328.000000	9.370300
2329.000000	9.379080
2330.000000	9.383380
2331.000000	9.386540
2332.000000	9.405020
2333.000000	9.419880
2334.000000	9.421920
2335.000000	9.420880
2336.000000	9.424120
2337.000000	9.429040
2338.000000	9.436560
2339.000000	9.440140
2340.000000	9.438300
2341.000000	9.433600
2342.000000	9.432940
2343.000000	9.426140
2344.000000	9.417440
2345.000000	9.410440
2346.000000	9.404200
2347.000000	9.394480
2348.000000	9.389320
2349.000000	9.383740
2350.000000	9.379580
2351.000000	9.372500
2352.000000	9.372800
2353.000000	9.369960
2354.000000	9.379660
2355.000000	9.398740
2356.000000	9.409760
2357.000000	9.420880
2358.000000	9.434540
2359.000000	9.453240
2360.000000	9.476840
2361.000000	9.494160
2362.000000	9.512740
2363.000000	9.535740
2364.000000	9.557020
2365.000000	9.578980
2366.000000	9.602340
2367.000000	9.626580
2368.000000	9.644200
2369.000000	9.653520
2370.000000	9.676100
2371.000000	9.695740
2372.000000	9.708160
2373.000000	9.721540
2374.000000	9.737460
2375.000000	9.750280
2376.000000	9.765300
2377.000000	9.787260
2378.000000	9.794680
2379.000000	9.796760
2380.000000	9.811440
2381.000000	9.821320
2382.000000	9.825240
2383.000000	9.837740
2384.000000	9.844700
2385.000000	9.848400
2386.000000	9.857900
2387.000000	9.859700
2388.000000	9.854460
2389.000000	9.857480
2390.000000	9.861600
2391.000000	9.854660
2392.000000	9.850360
2393.000000	9.851640
2394.000000	9.848040
2395.000000	9.843640
2396.000000	9.838020
2397.000000	9.829860
2398.000000	9.823080
2399.000000	9.812220
2400.000000	9.806640
2401.000000	9.793460
2402.000000	9.787820
2403.000000	9.775900
2404.000000	9.768680
2405.000000	9.760760
2406.000000	9.745020
2407.000000	9.738240
2408.000000	9.722600
2409.000000	9.706880
2410.000000	9.692980
2411.000000	9.677600
2412.000000	9.665180
2413.000000	9.650540
2414.000000	9.648860
2415.000000	9.635980
2416.000000	9.632400
2417.000000	9.604760
2418.000000	9.576160
2419.000000	9.563040
2420.000000	9.549020
2421.000000	9.521520
2422.000000	9.501980
2423.000000	9.473640
2424.000000	9.452620
2425.000000	9.424160
2426.000000	9.399820
2427.000000	9.370980
2428.000000	9.336000
2429.000000	9.315700
2430.000000	9.283560
2431.000000	9.242480
2432.000000	9.195660
2433.000000	9.147740
2434.000000	9.102440
2435.000000	9.057000
2436.000000	9.018040
2437.000000	8.970460
2438.000000	8.926860
2439.000000	8.877120
2440.000000	8.829000
2441.000000	8.781020
2442.000000	8.724740
2443.000000	8.678960
2444.000000	8.634640
2445.000000	8.579340
2446.000000	8.528820
2447.000000	8.488120
2448.000000	8.428600
2449.000000	8.389760
2450.000000	8.330860
2451.000000	8.281640
2452.000000	8.232320
2453.000000	8.186260
2454.000000	8.147880
2455.000000	8.105880
2456.000000	8.059080
2457.000000	8.025400
2458.000000	7.965040
2459.000000	7.922900
2460.000000	7.882600
2461.000000	7.850020
2462.000000	7.803380
2463.000000	7.782720
2464.000000	7.761620
2465.000000	7.735340
2466.000000	7.707720
2467.000000	7.663700
2468.000000	7.648340
2469.000000	7.634740
2470.000000	7.625120
2471.000000	7.586360
2472.000000	7.590040
2473.000000	7.568320
2474.000000	7.572880
2475.000000	7.540480
2476.000000	7.522800
2477.000000	7.513880
2478.000000	7.518760
2479.000000	7.492820
2480.000000	7.497160
2481.000000	7.484800
2482.000000	7.499740
2483.000000	7.498560
2484.000000	7.493700
2485.000000	7.501100
2486.000000	7.480700
2487.000000	7.516680
2488.000000	7.537500
2489.000000	7.539820
2490.000000	7.513440
2491.000000	7.531360
2492.000000	7.536220
2493.000000	7.573240
2494.000000	7.581380
2495.000000	7.603900
2496.000000	7.579740
2497.000000	7.618680
2498.000000	7.655940
2499.000000	7.608320
2500.000000	7.643940
