PE UV       SUBTECH     SPECTRUM    ASCII       PEDS        4.00        
   -1
CICIMAUCR0001-5.Sample.ASC
24/04/23
10:47:46.00
24/04/23
10:47:46.00
Vinicio Soto Monge
C. kalinini
250,000000
1
Lambda 1050
1050L1511233
PerkinElmer UV WinLab 6.3.2.0749 / 2.02.05 Lambda 900 UV/VIS/NIR, Aug  7 2015 09:38:08

0
0
3350/servo 860,8/2
0
0
UV/VIS
1
1
1
DoubleDePol,CommonBeamDepol,RBeamAtt,SBeamAtt,60mm sphere, WB InGaAs Detector
0
0
0
0
Program
Program
3350/servo 860,8/2
3350/0,2 860,8/0,2
3350/0,2 860,8/0,2
0
15.00
 
 
 
0
 
860,8
319,2
860,8
Front
100
on
S:100 R:100
0
0
0
0
 
0
 
 
 
0
 
 
0
0
0
0
0
 
 
 
 
0
0


0
0
#HDR
-1
-1
#GR
nm
%R
1.0
0.0
2500,000000
-1,000000
2251
8
101,472100
5,465400
#DATA
250.000000	5.468532
251.000000	5.472617
252.000000	5.466957
253.000000	5.422095
254.000000	5.410353
255.000000	5.414941
256.000000	5.398120
257.000000	5.376224
258.000000	5.362801
259.000000	5.350841
260.000000	5.315738
261.000000	5.300607
262.000000	5.273271
263.000000	5.257825
264.000000	5.223395
265.000000	5.202170
266.000000	5.194113
267.000000	5.162389
268.000000	5.178657
269.000000	5.151314
270.000000	5.110532
271.000000	5.097506
272.000000	5.115020
273.000000	5.074619
274.000000	5.079960
275.000000	5.066046
276.000000	5.034406
277.000000	5.041850
278.000000	5.043432
279.000000	5.043160
280.000000	5.043358
281.000000	5.034940
282.000000	5.014975
283.000000	5.012455
284.000000	4.990983
285.000000	5.014397
286.000000	4.986664
287.000000	4.991206
288.000000	5.002006
289.000000	5.013701
290.000000	5.007567
291.000000	5.002500
292.000000	5.003210
293.000000	4.990004
294.000000	4.981793
295.000000	4.995948
296.000000	5.008007
297.000000	5.019945
298.000000	5.029902
299.000000	4.982027
300.000000	4.986020
301.000000	4.984569
302.000000	4.979110
303.000000	4.966730
304.000000	4.963694
305.000000	4.972647
306.000000	4.975723
307.000000	4.956580
308.000000	4.976079
309.000000	4.959440
310.000000	4.977466
311.000000	4.979570
312.000000	4.952146
313.000000	4.951613
314.000000	4.956662
315.000000	4.933626
316.000000	5.083910
317.000000	5.242636
318.000000	5.173724
319.000000	5.126041
320.000000	5.193940
321.000000	5.213494
322.000000	5.211138
323.000000	5.160865
324.000000	5.176251
325.000000	5.237243
326.000000	5.179583
327.000000	5.152713
328.000000	5.152614
329.000000	5.155525
330.000000	5.143827
331.000000	5.107264
332.000000	5.141710
333.000000	5.152446
334.000000	5.069633
335.000000	5.085413
336.000000	5.095200
337.000000	5.114410
338.000000	5.137620
339.000000	5.124943
340.000000	5.089979
341.000000	5.068483
342.000000	5.142245
343.000000	5.144277
344.000000	5.155584
345.000000	5.152674
346.000000	5.102190
347.000000	5.097993
348.000000	5.138458
349.000000	5.166509
350.000000	5.196815
351.000000	5.211955
352.000000	5.259019
353.000000	5.261147
354.000000	5.274514
355.000000	5.270091
356.000000	5.288407
357.000000	5.332849
358.000000	5.359412
359.000000	5.374903
360.000000	5.388409
361.000000	5.440166
362.000000	5.452123
363.000000	5.493347
364.000000	5.504286
365.000000	5.508408
366.000000	5.510438
367.000000	5.559531
368.000000	5.596379
369.000000	5.564021
370.000000	5.575715
371.000000	5.639429
372.000000	5.623884
373.000000	5.571471
374.000000	5.626264
375.000000	5.757210
376.000000	5.842855
377.000000	5.899641
378.000000	5.922351
379.000000	5.948807
380.000000	5.974181
381.000000	6.004935
382.000000	6.031952
383.000000	6.072826
384.000000	6.109850
385.000000	6.142522
386.000000	6.178498
387.000000	6.211320
388.000000	6.251983
389.000000	6.290100
390.000000	6.321466
391.000000	6.363480
392.000000	6.404301
393.000000	6.445665
394.000000	6.489036
395.000000	6.527679
396.000000	6.576664
397.000000	6.623969
398.000000	6.669712
399.000000	6.727497
400.000000	6.791238
401.000000	6.855111
402.000000	6.914407
403.000000	6.989465
404.000000	7.065775
405.000000	7.150749
406.000000	7.244088
407.000000	7.343849
408.000000	7.451363
409.000000	7.559199
410.000000	7.679328
411.000000	7.809352
412.000000	7.952399
413.000000	8.093457
414.000000	8.244981
415.000000	8.415946
416.000000	8.597644
417.000000	8.790714
418.000000	8.991387
419.000000	9.201170
420.000000	9.430645
421.000000	9.671533
422.000000	9.919072
423.000000	10.184829
424.000000	10.456678
425.000000	10.748085
426.000000	11.053918
427.000000	11.370017
428.000000	11.701790
429.000000	12.046551
430.000000	12.403552
431.000000	12.763896
432.000000	13.144553
433.000000	13.538298
434.000000	13.932289
435.000000	14.337083
436.000000	14.751358
437.000000	15.168601
438.000000	15.571427
439.000000	15.994288
440.000000	16.422065
441.000000	16.851938
442.000000	17.290078
443.000000	17.710797
444.000000	18.129120
445.000000	18.531883
446.000000	18.937646
447.000000	19.329635
448.000000	19.722221
449.000000	20.107453
450.000000	20.472104
451.000000	20.835843
452.000000	21.188901
453.000000	21.528730
454.000000	21.863405
455.000000	22.193380
456.000000	22.515013
457.000000	22.813287
458.000000	23.109464
459.000000	23.381128
460.000000	23.660383
461.000000	23.941432
462.000000	24.212704
463.000000	24.462015
464.000000	24.719696
465.000000	24.962678
466.000000	25.205394
467.000000	25.438244
468.000000	25.666281
469.000000	25.905021
470.000000	26.131708
471.000000	26.365673
472.000000	26.600220
473.000000	26.835540
474.000000	27.059232
475.000000	27.287912
476.000000	27.519281
477.000000	27.758999
478.000000	27.990298
479.000000	28.236118
480.000000	28.492676
481.000000	28.763588
482.000000	29.043706
483.000000	29.281920
484.000000	29.512014
485.000000	29.754349
486.000000	29.983094
487.000000	30.215485
488.000000	30.452863
489.000000	30.704581
490.000000	30.949900
491.000000	31.215829
492.000000	31.499865
493.000000	31.799314
494.000000	32.109222
495.000000	32.424368
496.000000	32.745840
497.000000	33.072411
498.000000	33.432954
499.000000	33.809999
500.000000	34.178604
501.000000	34.594958
502.000000	35.016336
503.000000	35.446614
504.000000	35.912242
505.000000	36.356510
506.000000	36.822530
507.000000	37.304735
508.000000	37.808964
509.000000	38.338680
510.000000	38.867761
511.000000	39.422545
512.000000	40.013717
513.000000	40.627782
514.000000	41.272536
515.000000	41.919274
516.000000	42.593428
517.000000	43.277829
518.000000	44.004843
519.000000	44.747301
520.000000	45.501691
521.000000	46.273880
522.000000	47.072364
523.000000	47.887650
524.000000	48.699366
525.000000	49.514621
526.000000	50.338366
527.000000	51.148869
528.000000	51.958973
529.000000	52.764059
530.000000	53.548632
531.000000	54.332174
532.000000	55.076339
533.000000	55.808715
534.000000	56.512532
535.000000	57.196103
536.000000	57.824060
537.000000	58.433076
538.000000	58.984644
539.000000	59.512531
540.000000	60.016691
541.000000	60.489957
542.000000	60.923524
543.000000	61.346308
544.000000	61.723728
545.000000	62.094904
546.000000	62.434881
547.000000	62.724195
548.000000	63.006553
549.000000	63.262056
550.000000	63.505532
551.000000	63.729315
552.000000	63.925556
553.000000	64.127829
554.000000	64.308497
555.000000	64.474791
556.000000	64.630750
557.000000	64.743092
558.000000	64.856434
559.000000	64.973080
560.000000	65.036748
561.000000	65.127335
562.000000	65.202323
563.000000	65.243383
564.000000	65.286018
565.000000	65.328887
566.000000	65.352027
567.000000	65.361779
568.000000	65.328482
569.000000	65.289328
570.000000	65.249525
571.000000	65.178011
572.000000	65.086935
573.000000	64.967149
574.000000	64.857083
575.000000	64.741346
576.000000	64.614359
577.000000	64.442388
578.000000	64.257386
579.000000	64.048213
580.000000	63.831475
581.000000	63.595909
582.000000	63.299468
583.000000	63.023882
584.000000	62.712137
585.000000	62.390715
586.000000	62.038425
587.000000	61.653205
588.000000	61.249758
589.000000	60.830210
590.000000	60.384970
591.000000	59.914995
592.000000	59.439360
593.000000	58.957208
594.000000	58.466232
595.000000	57.964805
596.000000	57.461902
597.000000	56.974380
598.000000	56.467477
599.000000	55.967412
600.000000	55.481433
601.000000	55.004827
602.000000	54.542988
603.000000	54.094370
604.000000	53.662003
605.000000	53.274291
606.000000	52.915000
607.000000	52.567383
608.000000	52.261663
609.000000	51.993611
610.000000	51.731581
611.000000	51.508555
612.000000	51.310150
613.000000	51.170019
614.000000	51.053098
615.000000	50.959723
616.000000	50.864903
617.000000	50.808947
618.000000	50.767203
619.000000	50.751653
620.000000	50.762393
621.000000	50.792807
622.000000	50.844879
623.000000	50.915184
624.000000	51.007479
625.000000	51.154562
626.000000	51.312289
627.000000	51.499347
628.000000	51.707983
629.000000	51.914520
630.000000	52.150433
631.000000	52.391385
632.000000	52.659684
633.000000	52.927088
634.000000	53.195901
635.000000	53.443579
636.000000	53.690233
637.000000	53.901147
638.000000	54.113537
639.000000	54.286966
640.000000	54.481344
641.000000	54.626644
642.000000	54.721909
643.000000	54.814844
644.000000	54.891503
645.000000	54.956405
646.000000	55.022136
647.000000	55.080620
648.000000	55.152156
649.000000	55.253264
650.000000	55.351925
651.000000	55.470120
652.000000	55.625849
653.000000	55.795316
654.000000	56.007678
655.000000	56.252479
656.000000	56.512115
657.000000	56.787632
658.000000	57.074673
659.000000	57.389571
660.000000	57.749587
661.000000	58.079240
662.000000	58.427798
663.000000	58.775526
664.000000	59.126913
665.000000	59.481658
666.000000	59.826213
667.000000	60.171969
668.000000	60.535882
669.000000	60.872518
670.000000	61.260552
671.000000	61.629616
672.000000	62.015010
673.000000	62.400066
674.000000	62.803402
675.000000	63.199450
676.000000	63.621842
677.000000	64.073588
678.000000	64.539646
679.000000	65.006758
680.000000	65.432920
681.000000	65.915196
682.000000	66.415504
683.000000	66.882743
684.000000	67.350746
685.000000	67.826387
686.000000	68.269020
687.000000	68.693618
688.000000	69.101052
689.000000	69.505469
690.000000	69.935803
691.000000	70.341065
692.000000	70.727402
693.000000	71.109731
694.000000	71.464683
695.000000	71.809390
696.000000	72.177299
697.000000	72.564011
698.000000	72.939786
699.000000	73.343251
700.000000	73.741755
701.000000	74.139896
702.000000	74.572649
703.000000	75.014496
704.000000	75.441595
705.000000	75.891439
706.000000	76.347980
707.000000	76.818115
708.000000	77.274318
709.000000	77.741585
710.000000	78.184543
711.000000	78.605568
712.000000	79.033874
713.000000	79.456050
714.000000	79.824286
715.000000	80.197487
716.000000	80.575681
717.000000	80.897795
718.000000	81.205617
719.000000	81.525909
720.000000	81.852882
721.000000	82.154720
722.000000	82.414214
723.000000	82.700875
724.000000	82.970974
725.000000	83.209073
726.000000	83.469490
727.000000	83.683222
728.000000	83.953442
729.000000	84.231151
730.000000	84.412008
731.000000	84.648398
732.000000	84.877120
733.000000	85.116478
734.000000	85.303353
735.000000	85.530551
736.000000	85.704416
737.000000	85.863891
738.000000	86.021539
739.000000	86.246017
740.000000	86.373790
741.000000	86.509177
742.000000	86.669371
743.000000	86.800066
744.000000	86.901697
745.000000	87.036112
746.000000	87.083629
747.000000	87.206575
748.000000	87.315800
749.000000	87.427210
750.000000	87.452667
751.000000	87.533951
752.000000	87.640666
753.000000	87.672850
754.000000	87.764867
755.000000	87.853801
756.000000	87.870988
757.000000	87.989978
758.000000	87.978493
759.000000	88.073510
760.000000	88.082126
761.000000	88.106042
762.000000	88.118978
763.000000	88.109503
764.000000	88.146996
765.000000	88.156557
766.000000	88.106289
767.000000	88.070183
768.000000	88.072160
769.000000	87.987102
770.000000	87.880986
771.000000	87.861529
772.000000	87.787993
773.000000	87.725654
774.000000	87.651441
775.000000	87.478078
776.000000	87.403804
777.000000	87.302841
778.000000	87.125274
779.000000	87.063209
780.000000	86.911248
781.000000	86.764113
782.000000	86.617406
783.000000	86.428443
784.000000	86.245880
785.000000	86.116954
786.000000	86.023352
787.000000	85.820115
788.000000	85.717651
789.000000	85.475230
790.000000	85.235955
791.000000	85.052668
792.000000	84.909884
793.000000	84.626461
794.000000	84.362442
795.000000	84.104358
796.000000	83.951922
797.000000	83.682610
798.000000	83.443310
799.000000	83.153806
800.000000	82.799338
801.000000	82.586358
802.000000	82.257343
803.000000	81.827744
804.000000	81.603328
805.000000	81.314562
806.000000	81.026043
807.000000	80.743327
808.000000	80.417878
809.000000	80.155655
810.000000	79.754985
811.000000	79.419874
812.000000	79.051520
813.000000	78.795032
814.000000	78.515379
815.000000	78.076407
816.000000	77.729611
817.000000	77.482250
818.000000	77.207763
819.000000	76.779150
820.000000	76.372363
821.000000	76.020440
822.000000	75.652411
823.000000	75.290531
824.000000	75.010893
825.000000	74.592361
826.000000	74.306238
827.000000	74.002550
828.000000	73.543434
829.000000	73.308043
830.000000	72.971700
831.000000	72.659981
832.000000	72.239779
833.000000	71.949290
834.000000	71.666027
835.000000	71.374170
836.000000	71.124596
837.000000	70.893874
838.000000	70.649056
839.000000	70.344383
840.000000	70.138862
841.000000	69.895487
842.000000	69.673937
843.000000	69.609855
844.000000	69.225940
845.000000	69.041562
846.000000	68.930888
847.000000	68.636045
848.000000	68.506377
849.000000	68.270013
850.000000	68.344995
851.000000	68.104856
852.000000	67.890543
853.000000	67.762213
854.000000	67.630020
855.000000	67.431242
856.000000	67.349931
857.000000	67.259820
858.000000	66.435225
859.000000	67.254300
860.000000	67.536525
861.000000	67.900975
862.000000	67.772825
863.000000	67.710400
864.000000	67.627075
865.000000	67.798875
866.000000	68.096900
867.000000	68.151775
868.000000	67.907025
869.000000	68.082825
870.000000	68.116175
871.000000	68.088750
872.000000	67.991500
873.000000	67.935900
874.000000	67.959025
875.000000	67.933550
876.000000	68.028000
877.000000	67.866725
878.000000	67.745325
879.000000	67.668950
880.000000	67.698550
881.000000	67.662575
882.000000	67.591225
883.000000	67.467150
884.000000	67.398875
885.000000	67.441450
886.000000	67.302250
887.000000	67.124325
888.000000	67.018350
889.000000	67.018475
890.000000	66.900500
891.000000	66.731100
892.000000	66.699075
893.000000	66.695350
894.000000	66.749925
895.000000	66.700250
896.000000	66.523300
897.000000	66.446650
898.000000	66.450250
899.000000	66.335075
900.000000	66.204450
901.000000	66.198825
902.000000	66.175050
903.000000	66.142125
904.000000	66.062300
905.000000	65.975375
906.000000	65.952350
907.000000	65.903900
908.000000	65.832625
909.000000	65.733300
910.000000	65.727025
911.000000	65.726775
912.000000	65.615450
913.000000	65.625225
914.000000	65.584725
915.000000	65.495575
916.000000	65.420375
917.000000	65.452325
918.000000	65.373675
919.000000	65.336400
920.000000	65.314150
921.000000	65.231225
922.000000	65.224850
923.000000	65.249125
924.000000	65.212600
925.000000	65.197000
926.000000	65.123775
927.000000	65.102750
928.000000	65.118850
929.000000	65.149875
930.000000	65.151025
931.000000	65.133325
932.000000	65.132950
933.000000	65.116725
934.000000	65.105525
935.000000	65.063500
936.000000	65.014975
937.000000	65.038500
938.000000	65.031575
939.000000	65.012650
940.000000	64.993450
941.000000	64.974900
942.000000	65.021900
943.000000	65.005050
944.000000	64.992950
945.000000	64.964550
946.000000	64.917750
947.000000	64.866225
948.000000	64.880800
949.000000	64.903500
950.000000	64.896700
951.000000	64.874350
952.000000	64.865975
953.000000	64.854250
954.000000	64.828025
955.000000	64.817775
956.000000	64.803725
957.000000	64.801275
958.000000	64.792875
959.000000	64.799225
960.000000	64.774250
961.000000	64.756550
962.000000	64.756700
963.000000	64.734425
964.000000	64.740175
965.000000	64.720750
966.000000	64.699825
967.000000	64.693175
968.000000	64.664200
969.000000	64.684525
970.000000	64.650625
971.000000	64.650075
972.000000	64.654550
973.000000	64.681200
974.000000	64.652500
975.000000	64.654075
976.000000	64.648175
977.000000	64.647250
978.000000	64.637300
979.000000	64.634575
980.000000	64.633975
981.000000	64.622600
982.000000	64.628725
983.000000	64.596125
984.000000	64.604950
985.000000	64.618500
986.000000	64.610775
987.000000	64.586550
988.000000	64.586325
989.000000	64.598900
990.000000	64.611625
991.000000	64.616225
992.000000	64.625775
993.000000	64.608875
994.000000	64.613350
995.000000	64.610100
996.000000	64.608525
997.000000	64.612200
998.000000	64.647250
999.000000	64.647275
1000.000000	64.645125
1001.000000	64.663000
1002.000000	64.680675
1003.000000	64.666475
1004.000000	64.675350
1005.000000	64.687700
1006.000000	64.702550
1007.000000	64.726675
1008.000000	64.749725
1009.000000	64.736575
1010.000000	64.727225
1011.000000	64.750150
1012.000000	64.755650
1013.000000	64.776075
1014.000000	64.784725
1015.000000	64.784875
1016.000000	64.796050
1017.000000	64.811075
1018.000000	64.813350
1019.000000	64.837575
1020.000000	64.857050
1021.000000	64.865750
1022.000000	64.887150
1023.000000	64.897150
1024.000000	64.911200
1025.000000	64.943325
1026.000000	64.946350
1027.000000	64.964925
1028.000000	64.977725
1029.000000	65.012875
1030.000000	65.049300
1031.000000	65.064950
1032.000000	65.085850
1033.000000	65.105675
1034.000000	65.124600
1035.000000	65.132850
1036.000000	65.176250
1037.000000	65.207800
1038.000000	65.217275
1039.000000	65.234875
1040.000000	65.271875
1041.000000	65.277525
1042.000000	65.294425
1043.000000	65.312875
1044.000000	65.355700
1045.000000	65.378625
1046.000000	65.383700
1047.000000	65.429125
1048.000000	65.439450
1049.000000	65.493850
1050.000000	65.491500
1051.000000	65.533750
1052.000000	65.566550
1053.000000	65.594450
1054.000000	65.643725
1055.000000	65.669025
1056.000000	65.698875
1057.000000	65.743150
1058.000000	65.776675
1059.000000	65.816875
1060.000000	65.842775
1061.000000	65.882200
1062.000000	65.918225
1063.000000	65.962500
1064.000000	65.987975
1065.000000	66.021925
1066.000000	66.046625
1067.000000	66.083125
1068.000000	66.131225
1069.000000	66.158350
1070.000000	66.198625
1071.000000	66.226000
1072.000000	66.277175
1073.000000	66.293900
1074.000000	66.320050
1075.000000	66.349700
1076.000000	66.399325
1077.000000	66.422525
1078.000000	66.454450
1079.000000	66.481700
1080.000000	66.521325
1081.000000	66.565975
1082.000000	66.584350
1083.000000	66.604425
1084.000000	66.639400
1085.000000	66.693675
1086.000000	66.706850
1087.000000	66.743200
1088.000000	66.786200
1089.000000	66.822125
1090.000000	66.859025
1091.000000	66.887650
1092.000000	66.923850
1093.000000	66.964100
1094.000000	67.000100
1095.000000	67.018200
1096.000000	67.050675
1097.000000	67.071575
1098.000000	67.103625
1099.000000	67.141075
1100.000000	67.158675
1101.000000	67.183650
1102.000000	67.228800
1103.000000	67.254300
1104.000000	67.274475
1105.000000	67.301500
1106.000000	67.318675
1107.000000	67.339700
1108.000000	67.357450
1109.000000	67.378825
1110.000000	67.407375
1111.000000	67.435900
1112.000000	67.462375
1113.000000	67.479725
1114.000000	67.501475
1115.000000	67.521425
1116.000000	67.547150
1117.000000	67.565475
1118.000000	67.569925
1119.000000	67.603475
1120.000000	67.611400
1121.000000	67.626300
1122.000000	67.660875
1123.000000	67.663000
1124.000000	67.645575
1125.000000	67.628450
1126.000000	67.622600
1127.000000	67.601025
1128.000000	67.576375
1129.000000	67.552400
1130.000000	67.519250
1131.000000	67.449700
1132.000000	67.400075
1133.000000	67.356200
1134.000000	67.354075
1135.000000	67.300550
1136.000000	67.192225
1137.000000	67.098550
1138.000000	67.002825
1139.000000	66.935475
1140.000000	66.874100
1141.000000	66.814075
1142.000000	66.755775
1143.000000	66.707625
1144.000000	66.667850
1145.000000	66.644925
1146.000000	66.618050
1147.000000	66.575825
1148.000000	66.531825
1149.000000	66.489100
1150.000000	66.447675
1151.000000	66.402950
1152.000000	66.368275
1153.000000	66.312325
1154.000000	66.252125
1155.000000	66.190975
1156.000000	66.108425
1157.000000	66.028775
1158.000000	65.947550
1159.000000	65.858300
1160.000000	65.761725
1161.000000	65.658700
1162.000000	65.564850
1163.000000	65.469500
1164.000000	65.350150
1165.000000	65.244850
1166.000000	65.150950
1167.000000	65.055875
1168.000000	64.970875
1169.000000	64.878025
1170.000000	64.783475
1171.000000	64.705800
1172.000000	64.641900
1173.000000	64.579100
1174.000000	64.522100
1175.000000	64.462725
1176.000000	64.413325
1177.000000	64.363050
1178.000000	64.314625
1179.000000	64.264450
1180.000000	64.221100
1181.000000	64.170025
1182.000000	64.137725
1183.000000	64.102225
1184.000000	64.074850
1185.000000	64.073525
1186.000000	64.070775
1187.000000	64.083775
1188.000000	64.094500
1189.000000	64.131650
1190.000000	64.180075
1191.000000	64.233950
1192.000000	64.301650
1193.000000	64.362175
1194.000000	64.435700
1195.000000	64.513725
1196.000000	64.588600
1197.000000	64.663475
1198.000000	64.736400
1199.000000	64.799825
1200.000000	64.865450
1201.000000	64.932575
1202.000000	64.987525
1203.000000	65.048050
1204.000000	65.113575
1205.000000	65.176050
1206.000000	65.235600
1207.000000	65.302300
1208.000000	65.359650
1209.000000	65.419475
1210.000000	65.488400
1211.000000	65.547075
1212.000000	65.606700
1213.000000	65.655825
1214.000000	65.710750
1215.000000	65.754275
1216.000000	65.791050
1217.000000	65.822475
1218.000000	65.866225
1219.000000	65.909950
1220.000000	65.952075
1221.000000	65.998750
1222.000000	66.041325
1223.000000	66.074475
1224.000000	66.104850
1225.000000	66.147850
1226.000000	66.188675
1227.000000	66.222375
1228.000000	66.264050
1229.000000	66.303675
1230.000000	66.336575
1231.000000	66.373825
1232.000000	66.409725
1233.000000	66.454375
1234.000000	66.491925
1235.000000	66.524800
1236.000000	66.554625
1237.000000	66.583750
1238.000000	66.621025
1239.000000	66.662075
1240.000000	66.706500
1241.000000	66.749250
1242.000000	66.788675
1243.000000	66.833825
1244.000000	66.886650
1245.000000	66.939775
1246.000000	66.979275
1247.000000	67.021925
1248.000000	67.060350
1249.000000	67.114850
1250.000000	67.150125
1251.000000	67.176850
1252.000000	67.214050
1253.000000	67.240275
1254.000000	67.252725
1255.000000	67.267050
1256.000000	67.285175
1257.000000	67.287825
1258.000000	67.298600
1259.000000	67.296200
1260.000000	67.306600
1261.000000	67.309950
1262.000000	67.304750
1263.000000	67.305025
1264.000000	67.308875
1265.000000	67.306775
1266.000000	67.317775
1267.000000	67.317050
1268.000000	67.322225
1269.000000	67.319100
1270.000000	67.319075
1271.000000	67.313025
1272.000000	67.298875
1273.000000	67.300375
1274.000000	67.297625
1275.000000	67.301250
1276.000000	67.315150
1277.000000	67.330825
1278.000000	67.347500
1279.000000	67.367250
1280.000000	67.386175
1281.000000	67.410175
1282.000000	67.432750
1283.000000	67.459725
1284.000000	67.493850
1285.000000	67.514175
1286.000000	67.547300
1287.000000	67.572675
1288.000000	67.593250
1289.000000	67.618075
1290.000000	67.638375
1291.000000	67.665400
1292.000000	67.681300
1293.000000	67.696325
1294.000000	67.708075
1295.000000	67.713475
1296.000000	67.722675
1297.000000	67.733100
1298.000000	67.723850
1299.000000	67.734850
1300.000000	67.736800
1301.000000	67.732400
1302.000000	67.730250
1303.000000	67.725650
1304.000000	67.716275
1305.000000	67.707300
1306.000000	67.690000
1307.000000	67.686275
1308.000000	67.676775
1309.000000	67.647575
1310.000000	67.634450
1311.000000	67.607075
1312.000000	67.587150
1313.000000	67.549600
1314.000000	67.519750
1315.000000	67.483750
1316.000000	67.449900
1317.000000	67.417475
1318.000000	67.376775
1319.000000	67.340825
1320.000000	67.302650
1321.000000	67.253575
1322.000000	67.210775
1323.000000	67.148425
1324.000000	67.113275
1325.000000	67.066450
1326.000000	66.999400
1327.000000	66.936900
1328.000000	66.881450
1329.000000	66.817925
1330.000000	66.740300
1331.000000	66.668300
1332.000000	66.580700
1333.000000	66.498775
1334.000000	66.422600
1335.000000	66.330600
1336.000000	66.228625
1337.000000	66.117900
1338.000000	66.014050
1339.000000	65.888025
1340.000000	65.779775
1341.000000	65.652775
1342.000000	65.509875
1343.000000	65.376675
1344.000000	65.241600
1345.000000	65.089875
1346.000000	64.914575
1347.000000	64.797575
1348.000000	64.658350
1349.000000	64.479725
1350.000000	64.311200
1351.000000	64.140100
1352.000000	63.993175
1353.000000	63.830800
1354.000000	63.746625
1355.000000	63.663050
1356.000000	63.542000
1357.000000	63.453425
1358.000000	63.371275
1359.000000	63.287700
1360.000000	63.234200
1361.000000	63.301550
1362.000000	63.279800
1363.000000	63.054775
1364.000000	62.975300
1365.000000	62.943775
1366.000000	62.786500
1367.000000	62.703475
1368.000000	62.658850
1369.000000	62.495450
1370.000000	62.375200
1371.000000	62.323300
1372.000000	62.209750
1373.000000	62.036975
1374.000000	61.891025
1375.000000	61.771425
1376.000000	61.690075
1377.000000	61.587475
1378.000000	61.456575
1379.000000	61.348325
1380.000000	61.287000
1381.000000	61.184850
1382.000000	61.084325
1383.000000	60.902250
1384.000000	60.649075
1385.000000	60.396575
1386.000000	60.076500
1387.000000	59.840775
1388.000000	59.635625
1389.000000	59.288800
1390.000000	58.922825
1391.000000	58.675150
1392.000000	58.440175
1393.000000	58.092725
1394.000000	57.821575
1395.000000	57.641825
1396.000000	57.347775
1397.000000	56.898900
1398.000000	56.468000
1399.000000	56.178850
1400.000000	55.993475
1401.000000	55.670625
1402.000000	55.153325
1403.000000	54.717175
1404.000000	54.388875
1405.000000	54.016875
1406.000000	53.615500
1407.000000	53.242100
1408.000000	52.852125
1409.000000	52.482500
1410.000000	52.100225
1411.000000	51.658575
1412.000000	51.254400
1413.000000	50.951525
1414.000000	50.682650
1415.000000	50.337225
1416.000000	49.934825
1417.000000	49.603375
1418.000000	49.369250
1419.000000	49.121350
1420.000000	48.835075
1421.000000	48.529275
1422.000000	48.239625
1423.000000	48.034525
1424.000000	47.818600
1425.000000	47.563225
1426.000000	47.335100
1427.000000	47.122825
1428.000000	46.950600
1429.000000	46.770575
1430.000000	46.584075
1431.000000	46.415175
1432.000000	46.276450
1433.000000	46.134650
1434.000000	45.976700
1435.000000	45.829350
1436.000000	45.680025
1437.000000	45.573125
1438.000000	45.479075
1439.000000	45.339600
1440.000000	45.230325
1441.000000	45.118825
1442.000000	45.027600
1443.000000	44.922425
1444.000000	44.813050
1445.000000	44.756950
1446.000000	44.697925
1447.000000	44.552000
1448.000000	44.439125
1449.000000	44.340500
1450.000000	44.293875
1451.000000	44.233275
1452.000000	44.134175
1453.000000	44.027475
1454.000000	43.937350
1455.000000	43.850350
1456.000000	43.767275
1457.000000	43.674875
1458.000000	43.579525
1459.000000	43.489125
1460.000000	43.412325
1461.000000	43.327400
1462.000000	43.235325
1463.000000	43.148475
1464.000000	43.081250
1465.000000	42.999850
1466.000000	42.927550
1467.000000	42.858750
1468.000000	42.782900
1469.000000	42.717300
1470.000000	42.672325
1471.000000	42.619650
1472.000000	42.553300
1473.000000	42.499475
1474.000000	42.425150
1475.000000	42.364300
1476.000000	42.316400
1477.000000	42.289300
1478.000000	42.262525
1479.000000	42.221325
1480.000000	42.191250
1481.000000	42.168975
1482.000000	42.149750
1483.000000	42.111875
1484.000000	42.086175
1485.000000	42.063400
1486.000000	42.054800
1487.000000	42.030575
1488.000000	42.009850
1489.000000	41.982100
1490.000000	41.958375
1491.000000	41.942375
1492.000000	41.927875
1493.000000	41.911175
1494.000000	41.904700
1495.000000	41.905175
1496.000000	41.913225
1497.000000	41.925500
1498.000000	41.939075
1499.000000	41.967675
1500.000000	41.999300
1501.000000	42.029550
1502.000000	42.067700
1503.000000	42.112550
1504.000000	42.163750
1505.000000	42.214175
1506.000000	42.265550
1507.000000	42.328275
1508.000000	42.396525
1509.000000	42.449550
1510.000000	42.508450
1511.000000	42.561500
1512.000000	42.621450
1513.000000	42.689900
1514.000000	42.755650
1515.000000	42.812100
1516.000000	42.873200
1517.000000	42.928500
1518.000000	42.982775
1519.000000	43.041300
1520.000000	43.093775
1521.000000	43.151475
1522.000000	43.206325
1523.000000	43.262125
1524.000000	43.322575
1525.000000	43.376775
1526.000000	43.427600
1527.000000	43.476975
1528.000000	43.529500
1529.000000	43.574475
1530.000000	43.636675
1531.000000	43.682425
1532.000000	43.732900
1533.000000	43.774325
1534.000000	43.817675
1535.000000	43.863175
1536.000000	43.911975
1537.000000	43.939800
1538.000000	43.967175
1539.000000	44.000350
1540.000000	44.036050
1541.000000	44.081175
1542.000000	44.123775
1543.000000	44.161525
1544.000000	44.210325
1545.000000	44.262375
1546.000000	44.322975
1547.000000	44.391750
1548.000000	44.465650
1549.000000	44.537400
1550.000000	44.622950
1551.000000	44.694975
1552.000000	44.773925
1553.000000	44.846250
1554.000000	44.907975
1555.000000	44.965125
1556.000000	45.015400
1557.000000	45.057675
1558.000000	45.095625
1559.000000	45.125850
1560.000000	45.147550
1561.000000	45.156450
1562.000000	45.168175
1563.000000	45.170450
1564.000000	45.168375
1565.000000	45.153750
1566.000000	45.138450
1567.000000	45.123700
1568.000000	45.103250
1569.000000	45.083600
1570.000000	45.069800
1571.000000	45.058650
1572.000000	45.049200
1573.000000	45.052750
1574.000000	45.050825
1575.000000	45.055725
1576.000000	45.050325
1577.000000	45.051775
1578.000000	45.074600
1579.000000	45.090950
1580.000000	45.110275
1581.000000	45.135975
1582.000000	45.148000
1583.000000	45.180400
1584.000000	45.224550
1585.000000	45.258675
1586.000000	45.295375
1587.000000	45.331425
1588.000000	45.372875
1589.000000	45.407100
1590.000000	45.451000
1591.000000	45.495475
1592.000000	45.526675
1593.000000	45.573750
1594.000000	45.607575
1595.000000	45.647450
1596.000000	45.695200
1597.000000	45.750875
1598.000000	45.803850
1599.000000	45.874850
1600.000000	45.929050
1601.000000	45.993625
1602.000000	46.053800
1603.000000	46.116675
1604.000000	46.186500
1605.000000	46.248750
1606.000000	46.305125
1607.000000	46.365150
1608.000000	46.415475
1609.000000	46.467400
1610.000000	46.520550
1611.000000	46.567525
1612.000000	46.591675
1613.000000	46.646300
1614.000000	46.681325
1615.000000	46.704675
1616.000000	46.740650
1617.000000	46.769075
1618.000000	46.794575
1619.000000	46.824750
1620.000000	46.867625
1621.000000	46.885625
1622.000000	46.917100
1623.000000	46.958250
1624.000000	46.989025
1625.000000	47.031750
1626.000000	47.060375
1627.000000	47.091475
1628.000000	47.132775
1629.000000	47.167000
1630.000000	47.192425
1631.000000	47.250350
1632.000000	47.290475
1633.000000	47.326900
1634.000000	47.348450
1635.000000	47.383625
1636.000000	47.394175
1637.000000	47.417175
1638.000000	47.424550
1639.000000	47.447275
1640.000000	47.451100
1641.000000	47.463725
1642.000000	47.459475
1643.000000	47.471700
1644.000000	47.489425
1645.000000	47.504275
1646.000000	47.511675
1647.000000	47.531000
1648.000000	47.552925
1649.000000	47.563700
1650.000000	47.556400
1651.000000	47.535475
1652.000000	47.532700
1653.000000	47.518250
1654.000000	47.490050
1655.000000	47.434650
1656.000000	47.394950
1657.000000	47.343125
1658.000000	47.272525
1659.000000	47.185150
1660.000000	47.098075
1661.000000	47.003625
1662.000000	46.902050
1663.000000	46.776225
1664.000000	46.665550
1665.000000	46.545375
1666.000000	46.405675
1667.000000	46.269550
1668.000000	46.108625
1669.000000	45.952025
1670.000000	45.781375
1671.000000	45.611425
1672.000000	45.445150
1673.000000	45.286175
1674.000000	45.119000
1675.000000	44.952125
1676.000000	44.814650
1677.000000	44.657275
1678.000000	44.464425
1679.000000	44.273675
1680.000000	44.087800
1681.000000	43.887450
1682.000000	43.667500
1683.000000	43.463825
1684.000000	43.271225
1685.000000	43.103000
1686.000000	42.950800
1687.000000	42.838750
1688.000000	42.754375
1689.000000	42.732550
1690.000000	42.746400
1691.000000	42.803275
1692.000000	42.857600
1693.000000	42.909675
1694.000000	42.960050
1695.000000	43.025825
1696.000000	43.060975
1697.000000	43.076675
1698.000000	43.078475
1699.000000	43.093275
1700.000000	43.091050
1701.000000	43.067300
1702.000000	43.048300
1703.000000	43.034375
1704.000000	43.000250
1705.000000	42.960675
1706.000000	42.902775
1707.000000	42.832150
1708.000000	42.743350
1709.000000	42.650325
1710.000000	42.549375
1711.000000	42.417000
1712.000000	42.285475
1713.000000	42.129800
1714.000000	41.950500
1715.000000	41.766725
1716.000000	41.563425
1717.000000	41.357400
1718.000000	41.159375
1719.000000	40.956250
1720.000000	40.771925
1721.000000	40.612350
1722.000000	40.489100
1723.000000	40.415000
1724.000000	40.378250
1725.000000	40.367475
1726.000000	40.377600
1727.000000	40.394825
1728.000000	40.412675
1729.000000	40.442925
1730.000000	40.476075
1731.000000	40.511725
1732.000000	40.553350
1733.000000	40.588625
1734.000000	40.624225
1735.000000	40.658450
1736.000000	40.705625
1737.000000	40.752275
1738.000000	40.800275
1739.000000	40.858025
1740.000000	40.925150
1741.000000	40.993825
1742.000000	41.060675
1743.000000	41.132975
1744.000000	41.192800
1745.000000	41.249800
1746.000000	41.306100
1747.000000	41.353150
1748.000000	41.408150
1749.000000	41.449075
1750.000000	41.475100
1751.000000	41.508350
1752.000000	41.534000
1753.000000	41.539150
1754.000000	41.541975
1755.000000	41.556850
1756.000000	41.569725
1757.000000	41.572075
1758.000000	41.563925
1759.000000	41.569250
1760.000000	41.588575
1761.000000	41.600000
1762.000000	41.627425
1763.000000	41.648025
1764.000000	41.659875
1765.000000	41.690050
1766.000000	41.733575
1767.000000	41.765650
1768.000000	41.805850
1769.000000	41.849275
1770.000000	41.876900
1771.000000	41.927050
1772.000000	41.971100
1773.000000	42.009875
1774.000000	42.055075
1775.000000	42.103950
1776.000000	42.152875
1777.000000	42.189075
1778.000000	42.222225
1779.000000	42.266400
1780.000000	42.276875
1781.000000	42.294475
1782.000000	42.314475
1783.000000	42.319975
1784.000000	42.344200
1785.000000	42.358175
1786.000000	42.359300
1787.000000	42.352825
1788.000000	42.346550
1789.000000	42.338600
1790.000000	42.347350
1791.000000	42.359800
1792.000000	42.378675
1793.000000	42.404075
1794.000000	42.415675
1795.000000	42.446200
1796.000000	42.475500
1797.000000	42.488950
1798.000000	42.507225
1799.000000	42.532075
1800.000000	42.571725
1801.000000	42.626400
1802.000000	42.648150
1803.000000	42.670125
1804.000000	42.649500
1805.000000	42.675450
1806.000000	42.739375
1807.000000	42.782450
1808.000000	42.771800
1809.000000	42.783850
1810.000000	42.834100
1811.000000	42.885800
1812.000000	42.923250
1813.000000	42.905150
1814.000000	42.916500
1815.000000	42.994150
1816.000000	42.992750
1817.000000	42.972825
1818.000000	42.951925
1819.000000	42.986925
1820.000000	43.111500
1821.000000	43.133500
1822.000000	43.088925
1823.000000	43.010750
1824.000000	42.917425
1825.000000	42.955375
1826.000000	43.059175
1827.000000	43.049775
1828.000000	43.079475
1829.000000	43.111000
1830.000000	43.145550
1831.000000	43.206275
1832.000000	43.215825
1833.000000	43.172475
1834.000000	43.208775
1835.000000	43.306275
1836.000000	43.473125
1837.000000	43.533675
1838.000000	43.471775
1839.000000	43.462325
1840.000000	43.507450
1841.000000	43.616100
1842.000000	43.660075
1843.000000	43.545450
1844.000000	43.443075
1845.000000	43.406525
1846.000000	43.497950
1847.000000	43.732750
1848.000000	43.790775
1849.000000	43.637125
1850.000000	43.552525
1851.000000	43.424575
1852.000000	43.392000
1853.000000	43.493575
1854.000000	43.443025
1855.000000	43.346250
1856.000000	43.345850
1857.000000	43.306100
1858.000000	43.167750
1859.000000	43.191750
1860.000000	43.210300
1861.000000	43.007325
1862.000000	42.785150
1863.000000	42.722775
1864.000000	42.684100
1865.000000	42.507550
1866.000000	42.383350
1867.000000	42.390675
1868.000000	42.356200
1869.000000	42.190925
1870.000000	42.030550
1871.000000	41.828400
1872.000000	41.602325
1873.000000	41.453125
1874.000000	41.131175
1875.000000	40.800375
1876.000000	40.551350
1877.000000	40.291475
1878.000000	39.861550
1879.000000	39.516150
1880.000000	39.201700
1881.000000	38.834100
1882.000000	38.435675
1883.000000	38.043375
1884.000000	37.668375
1885.000000	37.151225
1886.000000	36.636225
1887.000000	36.123525
1888.000000	35.579225
1889.000000	35.099900
1890.000000	34.574150
1891.000000	34.018425
1892.000000	33.427325
1893.000000	32.824225
1894.000000	32.191075
1895.000000	31.612225
1896.000000	31.036800
1897.000000	30.538550
1898.000000	30.035025
1899.000000	29.568675
1900.000000	28.884175
1901.000000	28.302800
1902.000000	27.743425
1903.000000	27.287900
1904.000000	26.827425
1905.000000	26.457500
1906.000000	25.977425
1907.000000	25.417250
1908.000000	24.972725
1909.000000	24.612675
1910.000000	24.298625
1911.000000	23.976625
1912.000000	23.666050
1913.000000	23.402800
1914.000000	23.104950
1915.000000	22.763825
1916.000000	22.543950
1917.000000	22.270100
1918.000000	22.001075
1919.000000	21.826300
1920.000000	21.769900
1921.000000	21.548500
1922.000000	21.262675
1923.000000	21.156075
1924.000000	21.004025
1925.000000	20.876575
1926.000000	20.777200
1927.000000	20.709225
1928.000000	20.586725
1929.000000	20.497150
1930.000000	20.432250
1931.000000	20.352750
1932.000000	20.288850
1933.000000	20.265725
1934.000000	20.207250
1935.000000	20.173200
1936.000000	20.174000
1937.000000	20.208700
1938.000000	20.237975
1939.000000	20.247150
1940.000000	20.269350
1941.000000	20.303700
1942.000000	20.311725
1943.000000	20.341050
1944.000000	20.398000
1945.000000	20.487825
1946.000000	20.545175
1947.000000	20.622400
1948.000000	20.678775
1949.000000	20.747775
1950.000000	20.849375
1951.000000	20.926275
1952.000000	21.019400
1953.000000	21.135800
1954.000000	21.245625
1955.000000	21.325650
1956.000000	21.400200
1957.000000	21.479675
1958.000000	21.577950
1959.000000	21.667125
1960.000000	21.779975
1961.000000	21.893225
1962.000000	21.966100
1963.000000	22.053450
1964.000000	22.140625
1965.000000	22.250650
1966.000000	22.347300
1967.000000	22.438725
1968.000000	22.524975
1969.000000	22.633150
1970.000000	22.709200
1971.000000	22.807425
1972.000000	22.907775
1973.000000	23.009225
1974.000000	23.097575
1975.000000	23.188350
1976.000000	23.285875
1977.000000	23.380550
1978.000000	23.485250
1979.000000	23.580200
1980.000000	23.684200
1981.000000	23.796825
1982.000000	23.895875
1983.000000	23.988225
1984.000000	24.087400
1985.000000	24.197875
1986.000000	24.337675
1987.000000	24.406275
1988.000000	24.472650
1989.000000	24.611250
1990.000000	24.716075
1991.000000	24.802925
1992.000000	24.908500
1993.000000	25.024975
1994.000000	25.102200
1995.000000	25.148600
1996.000000	25.247175
1997.000000	25.352825
1998.000000	25.425025
1999.000000	25.482850
2000.000000	25.526550
2001.000000	25.592025
2002.000000	25.682950
2003.000000	25.744700
2004.000000	25.756950
2005.000000	25.812525
2006.000000	25.870925
2007.000000	25.910500
2008.000000	25.926300
2009.000000	25.951850
2010.000000	25.960575
2011.000000	25.991425
2012.000000	26.020375
2013.000000	26.001875
2014.000000	25.971325
2015.000000	25.981875
2016.000000	25.986300
2017.000000	25.976125
2018.000000	25.972625
2019.000000	25.914750
2020.000000	25.890550
2021.000000	25.838800
2022.000000	25.797125
2023.000000	25.762450
2024.000000	25.701350
2025.000000	25.622825
2026.000000	25.595650
2027.000000	25.557175
2028.000000	25.506625
2029.000000	25.393600
2030.000000	25.293450
2031.000000	25.266525
2032.000000	25.171075
2033.000000	25.042750
2034.000000	24.916675
2035.000000	24.808900
2036.000000	24.728550
2037.000000	24.573050
2038.000000	24.480200
2039.000000	24.359775
2040.000000	24.238525
2041.000000	24.073075
2042.000000	23.968475
2043.000000	23.868750
2044.000000	23.679125
2045.000000	23.494875
2046.000000	23.370400
2047.000000	23.286325
2048.000000	23.152825
2049.000000	23.096625
2050.000000	23.028675
2051.000000	22.872175
2052.000000	22.810925
2053.000000	22.826625
2054.000000	22.829550
2055.000000	22.790750
2056.000000	22.836125
2057.000000	22.866875
2058.000000	22.916600
2059.000000	22.994225
2060.000000	23.124425
2061.000000	23.187825
2062.000000	23.240475
2063.000000	23.365375
2064.000000	23.401700
2065.000000	23.510225
2066.000000	23.715075
2067.000000	23.808700
2068.000000	23.863000
2069.000000	24.030000
2070.000000	24.171375
2071.000000	24.233050
2072.000000	24.330150
2073.000000	24.401925
2074.000000	24.520325
2075.000000	24.582250
2076.000000	24.605600
2077.000000	24.670375
2078.000000	24.746475
2079.000000	24.789550
2080.000000	24.850275
2081.000000	24.868075
2082.000000	24.869000
2083.000000	24.944150
2084.000000	24.960225
2085.000000	25.044550
2086.000000	24.975075
2087.000000	25.073075
2088.000000	25.001250
2089.000000	24.989550
2090.000000	24.988450
2091.000000	24.997300
2092.000000	25.004575
2093.000000	24.921000
2094.000000	24.799750
2095.000000	24.895275
2096.000000	24.878700
2097.000000	25.074975
2098.000000	24.956375
2099.000000	25.002650
2100.000000	24.992550
2101.000000	25.026300
2102.000000	25.013575
2103.000000	25.006275
2104.000000	25.007475
2105.000000	25.040775
2106.000000	24.921850
2107.000000	24.849525
2108.000000	24.979150
2109.000000	25.036400
2110.000000	24.960250
2111.000000	25.020125
2112.000000	24.957900
2113.000000	24.894950
2114.000000	24.901300
2115.000000	24.943475
2116.000000	24.956300
2117.000000	24.816850
2118.000000	24.903925
2119.000000	24.960600
2120.000000	24.761625
2121.000000	24.845475
2122.000000	24.777875
2123.000000	24.640125
2124.000000	24.808000
2125.000000	24.665475
2126.000000	24.554675
2127.000000	24.531200
2128.000000	24.586225
2129.000000	24.516575
2130.000000	24.421575
2131.000000	24.334450
2132.000000	24.139850
2133.000000	24.178900
2134.000000	24.192650
2135.000000	24.019150
2136.000000	23.934925
2137.000000	24.004425
2138.000000	23.783625
2139.000000	23.512575
2140.000000	23.696225
2141.000000	23.615625
2142.000000	23.598050
2143.000000	23.297850
2144.000000	23.270575
2145.000000	23.073950
2146.000000	23.104700
2147.000000	23.063375
2148.000000	22.958700
2149.000000	22.903425
2150.000000	22.546700
2151.000000	22.431700
2152.000000	22.419100
2153.000000	22.403500
2154.000000	22.167075
2155.000000	22.300825
2156.000000	22.004450
2157.000000	21.930125
2158.000000	21.886950
2159.000000	21.813150
2160.000000	21.678425
2161.000000	21.592275
2162.000000	21.629825
2163.000000	21.608850
2164.000000	21.536700
2165.000000	21.401275
2166.000000	21.328450
2167.000000	21.284125
2168.000000	21.265725
2169.000000	21.376950
2170.000000	21.388600
2171.000000	21.316175
2172.000000	21.200375
2173.000000	21.118000
2174.000000	21.176600
2175.000000	21.262150
2176.000000	21.149550
2177.000000	21.311375
2178.000000	21.274750
2179.000000	21.246950
2180.000000	21.134775
2181.000000	21.255050
2182.000000	21.279400
2183.000000	21.326475
2184.000000	21.237225
2185.000000	21.263625
2186.000000	21.186225
2187.000000	21.303625
2188.000000	21.157950
2189.000000	21.247700
2190.000000	21.370175
2191.000000	21.326375
2192.000000	21.314300
2193.000000	21.443125
2194.000000	21.487200
2195.000000	21.509475
2196.000000	21.418950
2197.000000	21.462200
2198.000000	21.418200
2199.000000	21.473500
2200.000000	21.533325
2201.000000	21.443400
2202.000000	21.594725
2203.000000	21.685350
2204.000000	21.656825
2205.000000	21.649700
2206.000000	21.728150
2207.000000	21.725025
2208.000000	21.837875
2209.000000	21.913150
2210.000000	21.857925
2211.000000	21.938700
2212.000000	22.064125
2213.000000	22.066125
2214.000000	22.128350
2215.000000	22.293775
2216.000000	22.328200
2217.000000	22.473275
2218.000000	22.599425
2219.000000	22.555575
2220.000000	22.633825
2221.000000	22.727375
2222.000000	22.765875
2223.000000	22.734325
2224.000000	22.803425
2225.000000	22.897650
2226.000000	23.024700
2227.000000	23.103600
2228.000000	23.175400
2229.000000	23.254900
2230.000000	23.333500
2231.000000	23.306800
2232.000000	23.168125
2233.000000	23.178900
2234.000000	23.167325
2235.000000	23.112050
2236.000000	23.093900
2237.000000	23.160925
2238.000000	23.157850
2239.000000	23.028475
2240.000000	22.945075
2241.000000	22.832750
2242.000000	22.808425
2243.000000	22.751100
2244.000000	22.688100
2245.000000	22.604325
2246.000000	22.476675
2247.000000	22.419450
2248.000000	22.283800
2249.000000	22.119600
2250.000000	22.011475
2251.000000	21.835300
2252.000000	21.669750
2253.000000	21.493275
2254.000000	21.386900
2255.000000	21.267200
2256.000000	21.104275
2257.000000	20.917750
2258.000000	20.808075
2259.000000	20.720275
2260.000000	20.516700
2261.000000	20.271200
2262.000000	20.302000
2263.000000	20.345275
2264.000000	20.299275
2265.000000	20.177425
2266.000000	20.030100
2267.000000	19.986600
2268.000000	19.948250
2269.000000	19.931750
2270.000000	19.872425
2271.000000	19.787750
2272.000000	19.811625
2273.000000	19.738800
2274.000000	19.643875
2275.000000	19.743175
2276.000000	19.767275
2277.000000	19.800450
2278.000000	19.771975
2279.000000	19.714800
2280.000000	19.745425
2281.000000	19.655650
2282.000000	19.556825
2283.000000	19.489300
2284.000000	19.391700
2285.000000	19.409375
2286.000000	19.454800
2287.000000	19.386900
2288.000000	19.322475
2289.000000	19.376675
2290.000000	19.316500
2291.000000	19.337550
2292.000000	19.345225
2293.000000	19.316150
2294.000000	19.286350
2295.000000	19.331425
2296.000000	19.433725
2297.000000	19.377175
2298.000000	19.268575
2299.000000	19.273000
2300.000000	19.272000
2301.000000	19.318750
2302.000000	19.344125
2303.000000	19.397650
2304.000000	19.225175
2305.000000	19.269375
2306.000000	19.449525
2307.000000	19.554375
2308.000000	19.613550
2309.000000	19.667900
2310.000000	19.464125
2311.000000	19.558000
2312.000000	19.562875
2313.000000	19.612400
2314.000000	19.777025
2315.000000	19.747025
2316.000000	19.748200
2317.000000	19.893175
2318.000000	20.009775
2319.000000	19.979000
2320.000000	19.875300
2321.000000	19.851200
2322.000000	19.949875
2323.000000	19.916250
2324.000000	19.817875
2325.000000	19.775925
2326.000000	19.829875
2327.000000	19.694275
2328.000000	19.672925
2329.000000	19.762475
2330.000000	19.743150
2331.000000	19.645575
2332.000000	19.613175
2333.000000	19.704625
2334.000000	19.730225
2335.000000	19.731725
2336.000000	19.703600
2337.000000	19.732075
2338.000000	19.764500
2339.000000	19.767350
2340.000000	19.832150
2341.000000	19.911650
2342.000000	19.905900
2343.000000	19.945725
2344.000000	19.933050
2345.000000	19.853700
2346.000000	19.933550
2347.000000	19.896350
2348.000000	20.085475
2349.000000	20.097400
2350.000000	20.074225
2351.000000	19.798125
2352.000000	19.842675
2353.000000	20.043275
2354.000000	20.021325
2355.000000	19.965250
2356.000000	20.087575
2357.000000	19.891375
2358.000000	20.067825
2359.000000	20.276200
2360.000000	19.921600
2361.000000	19.948600
2362.000000	19.902950
2363.000000	20.148275
2364.000000	20.110625
2365.000000	20.278325
2366.000000	20.266150
2367.000000	20.123825
2368.000000	20.296075
2369.000000	20.094900
2370.000000	20.070100
2371.000000	20.193400
2372.000000	19.944300
2373.000000	20.135925
2374.000000	19.846475
2375.000000	20.236775
2376.000000	20.296725
2377.000000	20.232150
2378.000000	20.317975
2379.000000	20.184500
2380.000000	19.835175
2381.000000	20.201325
2382.000000	20.649525
2383.000000	20.421200
2384.000000	20.198700
2385.000000	20.564625
2386.000000	20.378350
2387.000000	20.104250
2388.000000	20.626725
2389.000000	20.484875
2390.000000	19.978225
2391.000000	20.364650
2392.000000	19.992150
2393.000000	20.314250
2394.000000	19.910200
2395.000000	20.416375
2396.000000	20.330325
2397.000000	20.363850
2398.000000	20.318450
2399.000000	19.993675
2400.000000	20.083825
2401.000000	18.893550
2402.000000	18.865800
2403.000000	18.833600
2404.000000	18.784050
2405.000000	18.734450
2406.000000	18.694700
2407.000000	18.657700
2408.000000	18.612850
2409.000000	18.560100
2410.000000	18.511350
2411.000000	18.471800
2412.000000	18.407250
2413.000000	18.344300
2414.000000	18.291250
2415.000000	18.237550
2416.000000	18.169250
2417.000000	18.086700
2418.000000	18.003550
2419.000000	17.944500
2420.000000	17.874700
2421.000000	17.805850
2422.000000	17.735000
2423.000000	17.644550
2424.000000	17.537950
2425.000000	17.446900
2426.000000	17.383100
2427.000000	17.303800
2428.000000	17.217500
2429.000000	17.129650
2430.000000	17.041450
2431.000000	16.949650
2432.000000	16.860050
2433.000000	16.763600
2434.000000	16.675850
2435.000000	16.575550
2436.000000	16.470200
2437.000000	16.375450
2438.000000	16.271600
2439.000000	16.182550
2440.000000	16.086450
2441.000000	15.981950
2442.000000	15.871350
2443.000000	15.772200
2444.000000	15.664950
2445.000000	15.564100
2446.000000	15.477450
2447.000000	15.377800
2448.000000	15.282700
2449.000000	15.177200
2450.000000	15.088100
2451.000000	14.989950
2452.000000	14.888850
2453.000000	14.814850
2454.000000	14.718850
2455.000000	14.657350
2456.000000	14.577350
2457.000000	14.501700
2458.000000	14.428050
2459.000000	14.364950
2460.000000	14.291350
2461.000000	14.231450
2462.000000	14.180700
2463.000000	14.112450
2464.000000	14.076650
2465.000000	14.038450
2466.000000	13.968250
2467.000000	13.932550
2468.000000	13.870700
2469.000000	13.832600
2470.000000	13.790700
2471.000000	13.749950
2472.000000	13.701900
2473.000000	13.683600
2474.000000	13.676050
2475.000000	13.629750
2476.000000	13.591600
2477.000000	13.558000
2478.000000	13.544150
2479.000000	13.507350
2480.000000	13.511650
2481.000000	13.493200
2482.000000	13.486000
2483.000000	13.481600
2484.000000	13.480600
2485.000000	13.457500
2486.000000	13.499600
2487.000000	13.423750
2488.000000	13.464850
2489.000000	13.457050
2490.000000	13.472300
2491.000000	13.472400
2492.000000	13.505000
2493.000000	13.458500
2494.000000	13.536850
2495.000000	13.566600
2496.000000	13.537400
2497.000000	13.541200
2498.000000	13.528100
2499.000000	13.615350
2500.000000	13.617700
