PE UV       SUBTECH     SPECTRUM    ASCII       PEDS        4.00        
   -1
CICIMAUCR0070-3.Sample.ASC
24/04/18
13:44:03.00
24/04/18
13:44:03.00
Vinicio Soto Monge
C. resplendens
250,000000
1
Lambda 1050
1050L1511233
PerkinElmer UV WinLab 6.3.2.0749 / 2.02.05 Lambda 900 UV/VIS/NIR, Aug  7 2015 09:38:08

0
0
3350/servo 860,8/2
0
0
UV/VIS
1
1
1
DoubleDePol,CommonBeamDepol,RBeamAtt,SBeamAtt,60mm sphere, WB InGaAs Detector
0
0
0
0
Program
Program
3350/servo 860,8/2
3350/0,2 860,8/0,2
3350/0,2 860,8/0,2
0
15.00
 
 
 
0
 
860,8
319,2
860,8
Front
100
on
S:100 R:100
0
0
0
0
 
0
 
 
 
0
 
 
0
0
0
0
0
 
 
 
 
0
0


0
0
#HDR
-1
-1
#GR
nm
%R
1.0
0.0
2500,000000
-1,000000
2251
8
85,171500
5,254500
#DATA
250.000000	5.486122
251.000000	5.488945
252.000000	5.472655
253.000000	5.488091
254.000000	5.452876
255.000000	5.438612
256.000000	5.448520
257.000000	5.411351
258.000000	5.369915
259.000000	5.400310
260.000000	5.363932
261.000000	5.331116
262.000000	5.316748
263.000000	5.289561
264.000000	5.255246
265.000000	5.248599
266.000000	5.223796
267.000000	5.177061
268.000000	5.214930
269.000000	5.139617
270.000000	5.127867
271.000000	5.104218
272.000000	5.094065
273.000000	5.089913
274.000000	5.076788
275.000000	5.061870
276.000000	5.058382
277.000000	5.009598
278.000000	5.054666
279.000000	5.027015
280.000000	4.994866
281.000000	5.010578
282.000000	4.986812
283.000000	4.992290
284.000000	4.980076
285.000000	4.975691
286.000000	4.968361
287.000000	4.941871
288.000000	4.950307
289.000000	4.926071
290.000000	4.926514
291.000000	4.907591
292.000000	4.903785
293.000000	4.886073
294.000000	4.882097
295.000000	4.895012
296.000000	4.872124
297.000000	4.854480
298.000000	4.876784
299.000000	4.835252
300.000000	4.853241
301.000000	4.870184
302.000000	4.850121
303.000000	4.824594
304.000000	4.822806
305.000000	4.840578
306.000000	4.837434
307.000000	4.851345
308.000000	4.823158
309.000000	4.820669
310.000000	4.805711
311.000000	4.846055
312.000000	4.825509
313.000000	4.816866
314.000000	4.828882
315.000000	4.864430
316.000000	4.828921
317.000000	5.103771
318.000000	5.042118
319.000000	5.014511
320.000000	5.025331
321.000000	4.944048
322.000000	4.875122
323.000000	4.859857
324.000000	4.958272
325.000000	4.943342
326.000000	4.842929
327.000000	4.814851
328.000000	4.814168
329.000000	4.761731
330.000000	4.765462
331.000000	4.781110
332.000000	4.881565
333.000000	4.732006
334.000000	4.772997
335.000000	4.711387
336.000000	4.719655
337.000000	4.688199
338.000000	4.704307
339.000000	4.747606
340.000000	4.706764
341.000000	4.693387
342.000000	4.759510
343.000000	4.711152
344.000000	4.756747
345.000000	4.777671
346.000000	4.704050
347.000000	4.717264
348.000000	4.726661
349.000000	4.736152
350.000000	4.716991
351.000000	4.718121
352.000000	4.703223
353.000000	4.713312
354.000000	4.729337
355.000000	4.735297
356.000000	4.727378
357.000000	4.705607
358.000000	4.720952
359.000000	4.742485
360.000000	4.740791
361.000000	4.733865
362.000000	4.701280
363.000000	4.733072
364.000000	4.726792
365.000000	4.695358
366.000000	4.696897
367.000000	4.710987
368.000000	4.711903
369.000000	4.719869
370.000000	4.725896
371.000000	4.685421
372.000000	4.666242
373.000000	4.595671
374.000000	4.587493
375.000000	4.613043
376.000000	4.773918
377.000000	4.853970
378.000000	4.853831
379.000000	4.852187
380.000000	4.860069
381.000000	4.867689
382.000000	4.865395
383.000000	4.872428
384.000000	4.880126
385.000000	4.887763
386.000000	4.893185
387.000000	4.895043
388.000000	4.909593
389.000000	4.913789
390.000000	4.918942
391.000000	4.925723
392.000000	4.927291
393.000000	4.927327
394.000000	4.937421
395.000000	4.943181
396.000000	4.946092
397.000000	4.945489
398.000000	4.952127
399.000000	4.962555
400.000000	4.974454
401.000000	4.978179
402.000000	4.988659
403.000000	5.004454
404.000000	5.016109
405.000000	5.033026
406.000000	5.052164
407.000000	5.070383
408.000000	5.093522
409.000000	5.111053
410.000000	5.132722
411.000000	5.155686
412.000000	5.179670
413.000000	5.214439
414.000000	5.253672
415.000000	5.293961
416.000000	5.338286
417.000000	5.386402
418.000000	5.441925
419.000000	5.497103
420.000000	5.563797
421.000000	5.633442
422.000000	5.703044
423.000000	5.781254
424.000000	5.869336
425.000000	5.967122
426.000000	6.074554
427.000000	6.184174
428.000000	6.302009
429.000000	6.435538
430.000000	6.573231
431.000000	6.720655
432.000000	6.884244
433.000000	7.053207
434.000000	7.233370
435.000000	7.427249
436.000000	7.629456
437.000000	7.836129
438.000000	8.051683
439.000000	8.282446
440.000000	8.519504
441.000000	8.765775
442.000000	9.027081
443.000000	9.288182
444.000000	9.549948
445.000000	9.824049
446.000000	10.098910
447.000000	10.377017
448.000000	10.658242
449.000000	10.939105
450.000000	11.230475
451.000000	11.517752
452.000000	11.800054
453.000000	12.086289
454.000000	12.369083
455.000000	12.650425
456.000000	12.920312
457.000000	13.183335
458.000000	13.444855
459.000000	13.705897
460.000000	13.969248
461.000000	14.237030
462.000000	14.489183
463.000000	14.722713
464.000000	14.961798
465.000000	15.201823
466.000000	15.435289
467.000000	15.663745
468.000000	15.896869
469.000000	16.122144
470.000000	16.349287
471.000000	16.579135
472.000000	16.808508
473.000000	17.032796
474.000000	17.260309
475.000000	17.495410
476.000000	17.726767
477.000000	17.959121
478.000000	18.191454
479.000000	18.423757
480.000000	18.667355
481.000000	18.910126
482.000000	19.153260
483.000000	19.383615
484.000000	19.624738
485.000000	19.864740
486.000000	20.094576
487.000000	20.330470
488.000000	20.561732
489.000000	20.800488
490.000000	21.039523
491.000000	21.284689
492.000000	21.532414
493.000000	21.787297
494.000000	22.052252
495.000000	22.303745
496.000000	22.562329
497.000000	22.816959
498.000000	23.063767
499.000000	23.331088
500.000000	23.597819
501.000000	23.877598
502.000000	24.162297
503.000000	24.451159
504.000000	24.747877
505.000000	25.063586
506.000000	25.367941
507.000000	25.664880
508.000000	25.980203
509.000000	26.307378
510.000000	26.640704
511.000000	26.995644
512.000000	27.372205
513.000000	27.766201
514.000000	28.173586
515.000000	28.602142
516.000000	29.032900
517.000000	29.486724
518.000000	29.973669
519.000000	30.480880
520.000000	31.026362
521.000000	31.602170
522.000000	32.212964
523.000000	32.844376
524.000000	33.504710
525.000000	34.189145
526.000000	34.890867
527.000000	35.621502
528.000000	36.378004
529.000000	37.158859
530.000000	37.970590
531.000000	38.803556
532.000000	39.670302
533.000000	40.532963
534.000000	41.413450
535.000000	42.303114
536.000000	43.170943
537.000000	44.035060
538.000000	44.878548
539.000000	45.710205
540.000000	46.533831
541.000000	47.335202
542.000000	48.088904
543.000000	48.845060
544.000000	49.563189
545.000000	50.219464
546.000000	50.833215
547.000000	51.428048
548.000000	51.967755
549.000000	52.452456
550.000000	52.911215
551.000000	53.328673
552.000000	53.722555
553.000000	54.073402
554.000000	54.410178
555.000000	54.724957
556.000000	55.022071
557.000000	55.305978
558.000000	55.565294
559.000000	55.797093
560.000000	56.021142
561.000000	56.224119
562.000000	56.404618
563.000000	56.541681
564.000000	56.681019
565.000000	56.799201
566.000000	56.892335
567.000000	56.954392
568.000000	56.994349
569.000000	57.027425
570.000000	57.042663
571.000000	57.049198
572.000000	57.070006
573.000000	57.096091
574.000000	57.120046
575.000000	57.150757
576.000000	57.176049
577.000000	57.221493
578.000000	57.272681
579.000000	57.295494
580.000000	57.342664
581.000000	57.379752
582.000000	57.392918
583.000000	57.403504
584.000000	57.416235
585.000000	57.380398
586.000000	57.330008
587.000000	57.278574
588.000000	57.197494
589.000000	57.099664
590.000000	56.959837
591.000000	56.802162
592.000000	56.618272
593.000000	56.420842
594.000000	56.206851
595.000000	55.970066
596.000000	55.732405
597.000000	55.486801
598.000000	55.246772
599.000000	54.974237
600.000000	54.735684
601.000000	54.445424
602.000000	54.184185
603.000000	53.904568
604.000000	53.653906
605.000000	53.369507
606.000000	53.089085
607.000000	52.785979
608.000000	52.457928
609.000000	52.161185
610.000000	51.809389
611.000000	51.451527
612.000000	51.066760
613.000000	50.670617
614.000000	50.272820
615.000000	49.842236
616.000000	49.414672
617.000000	49.010785
618.000000	48.589828
619.000000	48.183392
620.000000	47.774863
621.000000	47.399723
622.000000	46.994009
623.000000	46.619797
624.000000	46.231443
625.000000	45.902273
626.000000	45.578982
627.000000	45.272515
628.000000	44.967476
629.000000	44.662735
630.000000	44.390095
631.000000	44.123980
632.000000	43.873150
633.000000	43.665101
634.000000	43.456846
635.000000	43.248256
636.000000	43.061118
637.000000	42.912559
638.000000	42.739155
639.000000	42.618592
640.000000	42.488891
641.000000	42.396352
642.000000	42.322668
643.000000	42.242002
644.000000	42.196083
645.000000	42.141561
646.000000	42.114035
647.000000	42.101450
648.000000	42.101043
649.000000	42.140980
650.000000	42.167151
651.000000	42.197031
652.000000	42.247224
653.000000	42.310854
654.000000	42.392025
655.000000	42.500716
656.000000	42.617453
657.000000	42.727399
658.000000	42.887431
659.000000	43.055482
660.000000	43.237519
661.000000	43.442209
662.000000	43.668969
663.000000	43.890271
664.000000	44.163073
665.000000	44.445494
666.000000	44.704801
667.000000	44.975597
668.000000	45.246413
669.000000	45.512372
670.000000	45.769521
671.000000	46.033147
672.000000	46.253927
673.000000	46.464105
674.000000	46.660869
675.000000	46.855800
676.000000	47.026408
677.000000	47.152369
678.000000	47.246501
679.000000	47.342059
680.000000	47.427584
681.000000	47.497206
682.000000	47.542640
683.000000	47.578097
684.000000	47.628319
685.000000	47.681702
686.000000	47.739106
687.000000	47.786488
688.000000	47.881908
689.000000	47.959301
690.000000	48.059720
691.000000	48.181108
692.000000	48.325455
693.000000	48.503433
694.000000	48.668113
695.000000	48.879548
696.000000	49.095848
697.000000	49.310156
698.000000	49.575294
699.000000	49.819916
700.000000	50.070827
701.000000	50.291407
702.000000	50.524792
703.000000	50.788016
704.000000	51.043827
705.000000	51.283936
706.000000	51.514089
707.000000	51.744854
708.000000	51.983913
709.000000	52.218812
710.000000	52.429257
711.000000	52.617203
712.000000	52.852558
713.000000	53.083385
714.000000	53.298636
715.000000	53.504818
716.000000	53.704877
717.000000	53.907550
718.000000	54.108163
719.000000	54.316306
720.000000	54.527201
721.000000	54.764884
722.000000	54.970895
723.000000	55.194013
724.000000	55.442030
725.000000	55.667419
726.000000	55.908843
727.000000	56.165900
728.000000	56.367120
729.000000	56.636021
730.000000	56.895268
731.000000	57.140577
732.000000	57.375666
733.000000	57.608979
734.000000	57.888492
735.000000	58.104939
736.000000	58.283907
737.000000	58.512123
738.000000	58.744705
739.000000	58.932225
740.000000	59.137251
741.000000	59.375581
742.000000	59.575324
743.000000	59.777039
744.000000	59.967866
745.000000	60.127480
746.000000	60.316127
747.000000	60.483268
748.000000	60.623632
749.000000	60.791865
750.000000	60.946052
751.000000	61.093468
752.000000	61.255161
753.000000	61.399689
754.000000	61.526586
755.000000	61.696610
756.000000	61.851518
757.000000	62.013725
758.000000	62.183835
759.000000	62.307418
760.000000	62.473787
761.000000	62.654202
762.000000	62.781564
763.000000	62.894795
764.000000	63.047642
765.000000	63.195935
766.000000	63.363268
767.000000	63.504339
768.000000	63.637154
769.000000	63.767411
770.000000	63.919748
771.000000	64.062166
772.000000	64.234620
773.000000	64.333685
774.000000	64.458903
775.000000	64.591933
776.000000	64.712072
777.000000	64.871244
778.000000	65.020316
779.000000	65.133723
780.000000	65.274681
781.000000	65.462148
782.000000	65.622637
783.000000	65.753367
784.000000	65.895672
785.000000	66.013206
786.000000	66.119122
787.000000	66.240600
788.000000	66.422408
789.000000	66.555735
790.000000	66.651431
791.000000	66.810996
792.000000	66.985497
793.000000	67.138116
794.000000	67.269247
795.000000	67.390512
796.000000	67.557816
797.000000	67.718667
798.000000	67.833004
799.000000	68.009500
800.000000	68.214626
801.000000	68.374170
802.000000	68.519269
803.000000	68.643038
804.000000	68.773626
805.000000	68.918545
806.000000	69.033084
807.000000	69.175792
808.000000	69.366874
809.000000	69.482081
810.000000	69.648081
811.000000	69.751199
812.000000	69.887301
813.000000	69.968632
814.000000	70.144969
815.000000	70.259441
816.000000	70.444710
817.000000	70.532694
818.000000	70.682963
819.000000	70.772514
820.000000	70.887363
821.000000	71.039237
822.000000	71.176514
823.000000	71.290504
824.000000	71.491865
825.000000	71.599023
826.000000	71.685327
827.000000	71.738564
828.000000	71.890987
829.000000	72.078729
830.000000	72.088635
831.000000	72.261128
832.000000	72.300310
833.000000	72.412659
834.000000	72.516672
835.000000	72.612522
836.000000	72.692943
837.000000	72.751615
838.000000	72.822876
839.000000	72.955074
840.000000	73.062601
841.000000	73.119109
842.000000	73.240581
843.000000	73.240044
844.000000	73.436724
845.000000	73.507004
846.000000	73.674562
847.000000	73.601794
848.000000	73.631666
849.000000	73.794338
850.000000	73.724735
851.000000	73.694123
852.000000	73.946559
853.000000	73.937149
854.000000	73.719834
855.000000	73.557855
856.000000	73.749190
857.000000	73.945673
858.000000	74.775067
859.000000	73.362800
860.000000	73.863500
861.000000	74.361467
862.000000	74.821300
863.000000	75.250733
864.000000	75.678567
865.000000	76.070333
866.000000	76.387000
867.000000	76.732433
868.000000	77.036500
869.000000	77.365933
870.000000	77.633233
871.000000	77.845433
872.000000	78.093033
873.000000	78.341300
874.000000	78.612700
875.000000	78.833167
876.000000	79.036467
877.000000	79.204367
878.000000	79.385133
879.000000	79.549833
880.000000	79.671167
881.000000	79.813633
882.000000	79.956900
883.000000	80.096133
884.000000	80.227000
885.000000	80.308133
886.000000	80.406200
887.000000	80.503167
888.000000	80.570067
889.000000	80.620267
890.000000	80.685367
891.000000	80.718467
892.000000	80.778233
893.000000	80.826533
894.000000	80.870767
895.000000	80.918900
896.000000	80.930000
897.000000	80.936200
898.000000	80.951533
899.000000	80.974167
900.000000	80.987900
901.000000	80.977500
902.000000	80.938000
903.000000	80.928800
904.000000	80.932700
905.000000	80.938467
906.000000	80.877700
907.000000	80.852200
908.000000	80.786100
909.000000	80.756700
910.000000	80.730033
911.000000	80.702900
912.000000	80.658967
913.000000	80.592800
914.000000	80.547900
915.000000	80.505867
916.000000	80.441967
917.000000	80.389567
918.000000	80.314833
919.000000	80.274567
920.000000	80.210000
921.000000	80.162000
922.000000	80.103600
923.000000	80.061800
924.000000	80.021433
925.000000	79.953300
926.000000	79.898133
927.000000	79.869333
928.000000	79.824033
929.000000	79.755500
930.000000	79.722367
931.000000	79.657467
932.000000	79.602967
933.000000	79.543867
934.000000	79.479200
935.000000	79.437633
936.000000	79.373767
937.000000	79.310267
938.000000	79.261567
939.000000	79.205800
940.000000	79.177000
941.000000	79.106867
942.000000	79.070067
943.000000	79.017200
944.000000	78.977700
945.000000	78.919100
946.000000	78.874100
947.000000	78.805367
948.000000	78.762733
949.000000	78.729767
950.000000	78.664367
951.000000	78.600767
952.000000	78.537167
953.000000	78.484600
954.000000	78.416300
955.000000	78.350033
956.000000	78.293500
957.000000	78.222267
958.000000	78.156067
959.000000	78.099367
960.000000	78.026200
961.000000	77.966400
962.000000	77.902067
963.000000	77.829100
964.000000	77.763067
965.000000	77.703467
966.000000	77.647700
967.000000	77.602233
968.000000	77.543533
969.000000	77.487333
970.000000	77.443167
971.000000	77.392367
972.000000	77.343633
973.000000	77.293133
974.000000	77.254300
975.000000	77.222600
976.000000	77.182133
977.000000	77.143067
978.000000	77.115733
979.000000	77.086133
980.000000	77.057933
981.000000	77.030933
982.000000	77.005533
983.000000	76.988000
984.000000	76.968500
985.000000	76.945000
986.000000	76.929767
987.000000	76.919833
988.000000	76.918133
989.000000	76.899267
990.000000	76.892900
991.000000	76.896267
992.000000	76.892700
993.000000	76.891467
994.000000	76.899233
995.000000	76.893867
996.000000	76.895667
997.000000	76.901467
998.000000	76.905600
999.000000	76.917433
1000.000000	76.913433
1001.000000	76.914033
1002.000000	76.925867
1003.000000	76.919900
1004.000000	76.918233
1005.000000	76.932267
1006.000000	76.928067
1007.000000	76.920733
1008.000000	76.926867
1009.000000	76.911300
1010.000000	76.892900
1011.000000	76.889700
1012.000000	76.884267
1013.000000	76.874600
1014.000000	76.860033
1015.000000	76.857633
1016.000000	76.850300
1017.000000	76.832367
1018.000000	76.823767
1019.000000	76.816667
1020.000000	76.808800
1021.000000	76.798967
1022.000000	76.790200
1023.000000	76.773033
1024.000000	76.758467
1025.000000	76.743733
1026.000000	76.731500
1027.000000	76.730667
1028.000000	76.722933
1029.000000	76.709533
1030.000000	76.695867
1031.000000	76.687600
1032.000000	76.682967
1033.000000	76.668333
1034.000000	76.661133
1035.000000	76.656633
1036.000000	76.644833
1037.000000	76.634900
1038.000000	76.630667
1039.000000	76.630067
1040.000000	76.623700
1041.000000	76.621300
1042.000000	76.621000
1043.000000	76.610333
1044.000000	76.600100
1045.000000	76.603000
1046.000000	76.610300
1047.000000	76.612700
1048.000000	76.620333
1049.000000	76.621200
1050.000000	76.623700
1051.000000	76.641633
1052.000000	76.658667
1053.000000	76.671167
1054.000000	76.683300
1055.000000	76.697367
1056.000000	76.717600
1057.000000	76.742233
1058.000000	76.766200
1059.000000	76.785800
1060.000000	76.811933
1061.000000	76.837100
1062.000000	76.867800
1063.000000	76.894000
1064.000000	76.923367
1065.000000	76.946667
1066.000000	76.980567
1067.000000	77.012167
1068.000000	77.040800
1069.000000	77.080300
1070.000000	77.111600
1071.000000	77.133333
1072.000000	77.163400
1073.000000	77.205733
1074.000000	77.241867
1075.000000	77.272800
1076.000000	77.299933
1077.000000	77.327533
1078.000000	77.358600
1079.000000	77.383233
1080.000000	77.411600
1081.000000	77.449967
1082.000000	77.478000
1083.000000	77.499733
1084.000000	77.522267
1085.000000	77.554033
1086.000000	77.576700
1087.000000	77.592667
1088.000000	77.618300
1089.000000	77.637900
1090.000000	77.655933
1091.000000	77.672000
1092.000000	77.691833
1093.000000	77.710700
1094.000000	77.728967
1095.000000	77.735933
1096.000000	77.743067
1097.000000	77.757433
1098.000000	77.776600
1099.000000	77.786000
1100.000000	77.786967
1101.000000	77.799333
1102.000000	77.808333
1103.000000	77.809967
1104.000000	77.808167
1105.000000	77.810533
1106.000000	77.806467
1107.000000	77.813233
1108.000000	77.821467
1109.000000	77.816033
1110.000000	77.814767
1111.000000	77.817867
1112.000000	77.812000
1113.000000	77.803633
1114.000000	77.805400
1115.000000	77.805833
1116.000000	77.802200
1117.000000	77.803267
1118.000000	77.798300
1119.000000	77.797167
1120.000000	77.782267
1121.000000	77.774300
1122.000000	77.778533
1123.000000	77.754300
1124.000000	77.733400
1125.000000	77.693667
1126.000000	77.654567
1127.000000	77.605800
1128.000000	77.579767
1129.000000	77.549800
1130.000000	77.473600
1131.000000	77.401600
1132.000000	77.334833
1133.000000	77.308900
1134.000000	77.292567
1135.000000	77.228433
1136.000000	77.160567
1137.000000	77.042633
1138.000000	76.952167
1139.000000	76.880467
1140.000000	76.825667
1141.000000	76.777067
1142.000000	76.709467
1143.000000	76.654200
1144.000000	76.627567
1145.000000	76.605000
1146.000000	76.554067
1147.000000	76.506467
1148.000000	76.457333
1149.000000	76.418567
1150.000000	76.378100
1151.000000	76.330767
1152.000000	76.296400
1153.000000	76.247867
1154.000000	76.189100
1155.000000	76.119867
1156.000000	76.067233
1157.000000	75.997300
1158.000000	75.921100
1159.000000	75.857133
1160.000000	75.775867
1161.000000	75.689367
1162.000000	75.604567
1163.000000	75.527933
1164.000000	75.452067
1165.000000	75.362067
1166.000000	75.286867
1167.000000	75.219200
1168.000000	75.144167
1169.000000	75.076067
1170.000000	75.018733
1171.000000	74.958467
1172.000000	74.914167
1173.000000	74.868433
1174.000000	74.832600
1175.000000	74.799700
1176.000000	74.764167
1177.000000	74.735500
1178.000000	74.697233
1179.000000	74.656333
1180.000000	74.628700
1181.000000	74.602667
1182.000000	74.577767
1183.000000	74.561500
1184.000000	74.544167
1185.000000	74.534767
1186.000000	74.537233
1187.000000	74.547767
1188.000000	74.554900
1189.000000	74.573033
1190.000000	74.617900
1191.000000	74.649000
1192.000000	74.696733
1193.000000	74.756333
1194.000000	74.807533
1195.000000	74.864433
1196.000000	74.908067
1197.000000	74.953367
1198.000000	75.003467
1199.000000	75.046667
1200.000000	75.083033
1201.000000	75.128800
1202.000000	75.162100
1203.000000	75.204600
1204.000000	75.241300
1205.000000	75.273867
1206.000000	75.300600
1207.000000	75.342000
1208.000000	75.372300
1209.000000	75.396000
1210.000000	75.431600
1211.000000	75.457900
1212.000000	75.487067
1213.000000	75.516900
1214.000000	75.531133
1215.000000	75.558800
1216.000000	75.572567
1217.000000	75.582867
1218.000000	75.587767
1219.000000	75.606767
1220.000000	75.618167
1221.000000	75.639133
1222.000000	75.649767
1223.000000	75.657100
1224.000000	75.669667
1225.000000	75.680800
1226.000000	75.691533
1227.000000	75.703667
1228.000000	75.727100
1229.000000	75.723400
1230.000000	75.743800
1231.000000	75.747233
1232.000000	75.763000
1233.000000	75.774267
1234.000000	75.777033
1235.000000	75.787167
1236.000000	75.802167
1237.000000	75.811433
1238.000000	75.824400
1239.000000	75.848100
1240.000000	75.861900
1241.000000	75.880467
1242.000000	75.889700
1243.000000	75.904233
1244.000000	75.928900
1245.000000	75.961900
1246.000000	75.966867
1247.000000	75.975800
1248.000000	76.003733
1249.000000	76.013833
1250.000000	76.018000
1251.000000	76.030467
1252.000000	76.049600
1253.000000	76.056033
1254.000000	76.052233
1255.000000	76.049600
1256.000000	76.035833
1257.000000	76.037633
1258.000000	76.037200
1259.000000	76.033333
1260.000000	76.019000
1261.000000	76.007167
1262.000000	75.990167
1263.000000	75.986567
1264.000000	75.986300
1265.000000	75.979700
1266.000000	75.975267
1267.000000	75.960067
1268.000000	75.948067
1269.000000	75.941667
1270.000000	75.932433
1271.000000	75.922767
1272.000000	75.919067
1273.000000	75.920533
1274.000000	75.925533
1275.000000	75.923267
1276.000000	75.922433
1277.000000	75.924233
1278.000000	75.934100
1279.000000	75.947300
1280.000000	75.958300
1281.000000	75.970333
1282.000000	75.989200
1283.000000	76.007400
1284.000000	76.021600
1285.000000	76.039867
1286.000000	76.057633
1287.000000	76.073633
1288.000000	76.093833
1289.000000	76.105900
1290.000000	76.116000
1291.000000	76.130400
1292.000000	76.141600
1293.000000	76.154433
1294.000000	76.163800
1295.000000	76.165833
1296.000000	76.173733
1297.000000	76.182033
1298.000000	76.180900
1299.000000	76.179133
1300.000000	76.178667
1301.000000	76.178233
1302.000000	76.175833
1303.000000	76.175000
1304.000000	76.172200
1305.000000	76.155400
1306.000000	76.143200
1307.000000	76.138967
1308.000000	76.125933
1309.000000	76.110033
1310.000000	76.093767
1311.000000	76.074967
1312.000000	76.058033
1313.000000	76.038600
1314.000000	76.014267
1315.000000	75.985600
1316.000000	75.960367
1317.000000	75.942233
1318.000000	75.911767
1319.000000	75.872000
1320.000000	75.846667
1321.000000	75.822467
1322.000000	75.787567
1323.000000	75.759133
1324.000000	75.725700
1325.000000	75.683267
1326.000000	75.642867
1327.000000	75.599000
1328.000000	75.555067
1329.000000	75.512500
1330.000000	75.449300
1331.000000	75.395633
1332.000000	75.347167
1333.000000	75.287767
1334.000000	75.211967
1335.000000	75.142200
1336.000000	75.076733
1337.000000	75.001767
1338.000000	74.918733
1339.000000	74.829167
1340.000000	74.747567
1341.000000	74.652467
1342.000000	74.549867
1343.000000	74.462200
1344.000000	74.370767
1345.000000	74.237533
1346.000000	74.118867
1347.000000	74.044567
1348.000000	73.958567
1349.000000	73.823167
1350.000000	73.707067
1351.000000	73.588133
1352.000000	73.468067
1353.000000	73.384300
1354.000000	73.346367
1355.000000	73.279933
1356.000000	73.163233
1357.000000	73.084800
1358.000000	73.034600
1359.000000	72.978200
1360.000000	72.985233
1361.000000	72.989567
1362.000000	72.939333
1363.000000	72.819100
1364.000000	72.745800
1365.000000	72.657567
1366.000000	72.539433
1367.000000	72.468067
1368.000000	72.410667
1369.000000	72.265800
1370.000000	72.171367
1371.000000	72.098500
1372.000000	71.992133
1373.000000	71.853233
1374.000000	71.712600
1375.000000	71.637700
1376.000000	71.543267
1377.000000	71.458267
1378.000000	71.372167
1379.000000	71.287100
1380.000000	71.152967
1381.000000	71.151000
1382.000000	71.049333
1383.000000	70.867433
1384.000000	70.712767
1385.000000	70.414200
1386.000000	70.177700
1387.000000	69.976600
1388.000000	69.802067
1389.000000	69.462700
1390.000000	69.190000
1391.000000	68.997700
1392.000000	68.770800
1393.000000	68.487067
1394.000000	68.302667
1395.000000	68.139267
1396.000000	67.800900
1397.000000	67.383133
1398.000000	67.046300
1399.000000	66.898267
1400.000000	66.694867
1401.000000	66.304300
1402.000000	65.852200
1403.000000	65.553700
1404.000000	65.183667
1405.000000	64.915633
1406.000000	64.556133
1407.000000	64.225600
1408.000000	63.889467
1409.000000	63.583733
1410.000000	63.152100
1411.000000	62.766800
1412.000000	62.425000
1413.000000	62.169367
1414.000000	61.925033
1415.000000	61.551700
1416.000000	61.209667
1417.000000	60.940367
1418.000000	60.733600
1419.000000	60.526200
1420.000000	60.252100
1421.000000	59.939533
1422.000000	59.693900
1423.000000	59.513233
1424.000000	59.315900
1425.000000	59.085167
1426.000000	58.868900
1427.000000	58.696633
1428.000000	58.544667
1429.000000	58.358533
1430.000000	58.183833
1431.000000	58.075833
1432.000000	57.946567
1433.000000	57.808433
1434.000000	57.677467
1435.000000	57.527433
1436.000000	57.401100
1437.000000	57.294367
1438.000000	57.208333
1439.000000	57.093767
1440.000000	56.980500
1441.000000	56.907067
1442.000000	56.801233
1443.000000	56.704233
1444.000000	56.628633
1445.000000	56.585333
1446.000000	56.510100
1447.000000	56.382267
1448.000000	56.275133
1449.000000	56.211400
1450.000000	56.184000
1451.000000	56.123567
1452.000000	56.032100
1453.000000	55.912967
1454.000000	55.836667
1455.000000	55.776533
1456.000000	55.688767
1457.000000	55.598067
1458.000000	55.518833
1459.000000	55.441567
1460.000000	55.372833
1461.000000	55.298967
1462.000000	55.220433
1463.000000	55.149033
1464.000000	55.066700
1465.000000	55.013567
1466.000000	54.956267
1467.000000	54.894367
1468.000000	54.809733
1469.000000	54.739867
1470.000000	54.724833
1471.000000	54.681833
1472.000000	54.620567
1473.000000	54.547233
1474.000000	54.483700
1475.000000	54.421167
1476.000000	54.376833
1477.000000	54.359200
1478.000000	54.323533
1479.000000	54.291933
1480.000000	54.269533
1481.000000	54.250267
1482.000000	54.226600
1483.000000	54.186867
1484.000000	54.158167
1485.000000	54.137300
1486.000000	54.111500
1487.000000	54.097933
1488.000000	54.075500
1489.000000	54.051167
1490.000000	54.026400
1491.000000	54.013733
1492.000000	53.992067
1493.000000	53.965667
1494.000000	53.961900
1495.000000	53.968967
1496.000000	53.976467
1497.000000	53.981767
1498.000000	53.998900
1499.000000	54.024500
1500.000000	54.049467
1501.000000	54.084067
1502.000000	54.125967
1503.000000	54.169200
1504.000000	54.214633
1505.000000	54.265600
1506.000000	54.310833
1507.000000	54.374100
1508.000000	54.427267
1509.000000	54.489767
1510.000000	54.546567
1511.000000	54.596267
1512.000000	54.649567
1513.000000	54.704933
1514.000000	54.767667
1515.000000	54.828300
1516.000000	54.874633
1517.000000	54.934700
1518.000000	54.993700
1519.000000	55.038833
1520.000000	55.088667
1521.000000	55.144267
1522.000000	55.192900
1523.000000	55.243467
1524.000000	55.296800
1525.000000	55.341933
1526.000000	55.387400
1527.000000	55.436967
1528.000000	55.480433
1529.000000	55.511033
1530.000000	55.549967
1531.000000	55.595733
1532.000000	55.636300
1533.000000	55.679500
1534.000000	55.712200
1535.000000	55.744767
1536.000000	55.777033
1537.000000	55.815833
1538.000000	55.848933
1539.000000	55.873100
1540.000000	55.892867
1541.000000	55.922267
1542.000000	55.952467
1543.000000	55.989867
1544.000000	56.030500
1545.000000	56.079100
1546.000000	56.130300
1547.000000	56.180433
1548.000000	56.239633
1549.000000	56.305333
1550.000000	56.373767
1551.000000	56.429933
1552.000000	56.488767
1553.000000	56.545100
1554.000000	56.588967
1555.000000	56.631767
1556.000000	56.671200
1557.000000	56.702733
1558.000000	56.722833
1559.000000	56.740133
1560.000000	56.752300
1561.000000	56.753700
1562.000000	56.754533
1563.000000	56.745933
1564.000000	56.725033
1565.000000	56.701100
1566.000000	56.691867
1567.000000	56.676867
1568.000000	56.654467
1569.000000	56.641633
1570.000000	56.626200
1571.000000	56.605300
1572.000000	56.589033
1573.000000	56.583367
1574.000000	56.581467
1575.000000	56.582700
1576.000000	56.586267
1577.000000	56.596300
1578.000000	56.617667
1579.000000	56.636800
1580.000000	56.654233
1581.000000	56.682900
1582.000000	56.714867
1583.000000	56.754767
1584.000000	56.780867
1585.000000	56.800167
1586.000000	56.838867
1587.000000	56.883067
1588.000000	56.922667
1589.000000	56.955733
1590.000000	56.997667
1591.000000	57.043100
1592.000000	57.077867
1593.000000	57.119567
1594.000000	57.161000
1595.000000	57.205333
1596.000000	57.261900
1597.000000	57.318567
1598.000000	57.364833
1599.000000	57.415500
1600.000000	57.473200
1601.000000	57.535167
1602.000000	57.599800
1603.000000	57.655067
1604.000000	57.707400
1605.000000	57.772133
1606.000000	57.824367
1607.000000	57.878400
1608.000000	57.926200
1609.000000	57.978400
1610.000000	58.017200
1611.000000	58.050933
1612.000000	58.096033
1613.000000	58.131433
1614.000000	58.163267
1615.000000	58.190267
1616.000000	58.228700
1617.000000	58.258033
1618.000000	58.279700
1619.000000	58.309067
1620.000000	58.342300
1621.000000	58.369933
1622.000000	58.403533
1623.000000	58.443633
1624.000000	58.479167
1625.000000	58.515767
1626.000000	58.556133
1627.000000	58.595800
1628.000000	58.634900
1629.000000	58.668533
1630.000000	58.700733
1631.000000	58.742167
1632.000000	58.779900
1633.000000	58.807633
1634.000000	58.828567
1635.000000	58.864300
1636.000000	58.879000
1637.000000	58.900267
1638.000000	58.921567
1639.000000	58.929400
1640.000000	58.940333
1641.000000	58.951033
1642.000000	58.951633
1643.000000	58.965100
1644.000000	58.971067
1645.000000	58.982367
1646.000000	58.993000
1647.000000	59.005667
1648.000000	59.012233
1649.000000	59.009600
1650.000000	59.008867
1651.000000	58.998800
1652.000000	58.980433
1653.000000	58.964667
1654.000000	58.935600
1655.000000	58.903133
1656.000000	58.855333
1657.000000	58.806333
1658.000000	58.736733
1659.000000	58.673133
1660.000000	58.586333
1661.000000	58.498200
1662.000000	58.395867
1663.000000	58.280333
1664.000000	58.172000
1665.000000	58.056733
1666.000000	57.941867
1667.000000	57.819000
1668.000000	57.666733
1669.000000	57.515033
1670.000000	57.366600
1671.000000	57.218533
1672.000000	57.074533
1673.000000	56.921567
1674.000000	56.783333
1675.000000	56.616433
1676.000000	56.466867
1677.000000	56.313833
1678.000000	56.136767
1679.000000	55.964133
1680.000000	55.780733
1681.000000	55.584900
1682.000000	55.401667
1683.000000	55.208867
1684.000000	55.020000
1685.000000	54.867467
1686.000000	54.735733
1687.000000	54.631533
1688.000000	54.570000
1689.000000	54.550667
1690.000000	54.573800
1691.000000	54.608533
1692.000000	54.657667
1693.000000	54.726300
1694.000000	54.757433
1695.000000	54.803867
1696.000000	54.819033
1697.000000	54.842033
1698.000000	54.835267
1699.000000	54.840667
1700.000000	54.827867
1701.000000	54.803867
1702.000000	54.798567
1703.000000	54.767533
1704.000000	54.735200
1705.000000	54.704300
1706.000000	54.644933
1707.000000	54.578467
1708.000000	54.480667
1709.000000	54.384800
1710.000000	54.283800
1711.000000	54.151600
1712.000000	54.008767
1713.000000	53.858567
1714.000000	53.676267
1715.000000	53.498367
1716.000000	53.311633
1717.000000	53.098100
1718.000000	52.902233
1719.000000	52.698867
1720.000000	52.522067
1721.000000	52.361533
1722.000000	52.243667
1723.000000	52.181033
1724.000000	52.130100
1725.000000	52.111667
1726.000000	52.113433
1727.000000	52.124467
1728.000000	52.149767
1729.000000	52.165000
1730.000000	52.184333
1731.000000	52.206267
1732.000000	52.242400
1733.000000	52.270300
1734.000000	52.302167
1735.000000	52.328533
1736.000000	52.375467
1737.000000	52.409433
1738.000000	52.454567
1739.000000	52.492267
1740.000000	52.548767
1741.000000	52.601967
1742.000000	52.658300
1743.000000	52.713000
1744.000000	52.757967
1745.000000	52.816133
1746.000000	52.864433
1747.000000	52.889767
1748.000000	52.924800
1749.000000	52.943467
1750.000000	52.973067
1751.000000	52.984100
1752.000000	52.988000
1753.000000	52.977433
1754.000000	52.980900
1755.000000	52.967133
1756.000000	52.967867
1757.000000	52.956967
1758.000000	52.947867
1759.000000	52.945067
1760.000000	52.926033
1761.000000	52.926333
1762.000000	52.917467
1763.000000	52.927667
1764.000000	52.934033
1765.000000	52.943600
1766.000000	52.965700
1767.000000	52.992933
1768.000000	53.015500
1769.000000	53.041067
1770.000000	53.057700
1771.000000	53.093067
1772.000000	53.119567
1773.000000	53.138100
1774.000000	53.164200
1775.000000	53.187767
1776.000000	53.217967
1777.000000	53.245867
1778.000000	53.266533
1779.000000	53.281267
1780.000000	53.296567
1781.000000	53.298233
1782.000000	53.301633
1783.000000	53.305433
1784.000000	53.316133
1785.000000	53.321000
1786.000000	53.305633
1787.000000	53.292167
1788.000000	53.285333
1789.000000	53.278367
1790.000000	53.277667
1791.000000	53.286767
1792.000000	53.295000
1793.000000	53.309967
1794.000000	53.327533
1795.000000	53.347800
1796.000000	53.357133
1797.000000	53.369933
1798.000000	53.391600
1799.000000	53.408267
1800.000000	53.440900
1801.000000	53.480933
1802.000000	53.493900
1803.000000	53.492833
1804.000000	53.499167
1805.000000	53.525533
1806.000000	53.562300
1807.000000	53.578333
1808.000000	53.587467
1809.000000	53.601100
1810.000000	53.631500
1811.000000	53.682567
1812.000000	53.710033
1813.000000	53.721533
1814.000000	53.723933
1815.000000	53.742800
1816.000000	53.750100
1817.000000	53.750533
1818.000000	53.757300
1819.000000	53.798933
1820.000000	53.862500
1821.000000	53.871800
1822.000000	53.814433
1823.000000	53.753533
1824.000000	53.759267
1825.000000	53.792467
1826.000000	53.825233
1827.000000	53.834767
1828.000000	53.873033
1829.000000	53.928033
1830.000000	53.957567
1831.000000	53.964900
1832.000000	53.970767
1833.000000	54.011133
1834.000000	54.080633
1835.000000	54.161633
1836.000000	54.212600
1837.000000	54.238467
1838.000000	54.258700
1839.000000	54.295667
1840.000000	54.339967
1841.000000	54.369767
1842.000000	54.337667
1843.000000	54.272667
1844.000000	54.256700
1845.000000	54.291667
1846.000000	54.371700
1847.000000	54.428800
1848.000000	54.407633
1849.000000	54.362833
1850.000000	54.307700
1851.000000	54.266267
1852.000000	54.225900
1853.000000	54.219233
1854.000000	54.214200
1855.000000	54.157400
1856.000000	54.121467
1857.000000	54.087567
1858.000000	54.029767
1859.000000	53.963433
1860.000000	53.870500
1861.000000	53.757800
1862.000000	53.643767
1863.000000	53.543833
1864.000000	53.466967
1865.000000	53.392367
1866.000000	53.324400
1867.000000	53.275300
1868.000000	53.173100
1869.000000	53.015400
1870.000000	52.863067
1871.000000	52.682167
1872.000000	52.458133
1873.000000	52.210633
1874.000000	51.937167
1875.000000	51.648100
1876.000000	51.354067
1877.000000	51.065533
1878.000000	50.760733
1879.000000	50.420700
1880.000000	50.092833
1881.000000	49.742167
1882.000000	49.358333
1883.000000	48.971800
1884.000000	48.522433
1885.000000	48.019867
1886.000000	47.536700
1887.000000	47.053033
1888.000000	46.565500
1889.000000	46.008967
1890.000000	45.496167
1891.000000	44.904500
1892.000000	44.249500
1893.000000	43.606833
1894.000000	43.005333
1895.000000	42.431700
1896.000000	41.917900
1897.000000	41.372667
1898.000000	40.742300
1899.000000	40.128400
1900.000000	39.484767
1901.000000	38.872400
1902.000000	38.344400
1903.000000	37.823733
1904.000000	37.324467
1905.000000	36.779833
1906.000000	36.205933
1907.000000	35.687000
1908.000000	35.225300
1909.000000	34.853600
1910.000000	34.533167
1911.000000	34.149667
1912.000000	33.800400
1913.000000	33.434067
1914.000000	33.051100
1915.000000	32.697200
1916.000000	32.415067
1917.000000	32.168967
1918.000000	31.911067
1919.000000	31.679467
1920.000000	31.469633
1921.000000	31.229267
1922.000000	30.997800
1923.000000	30.808033
1924.000000	30.659633
1925.000000	30.494433
1926.000000	30.363500
1927.000000	30.248300
1928.000000	30.138033
1929.000000	30.012600
1930.000000	29.934567
1931.000000	29.857300
1932.000000	29.801167
1933.000000	29.748500
1934.000000	29.713567
1935.000000	29.687033
1936.000000	29.683567
1937.000000	29.683667
1938.000000	29.701000
1939.000000	29.725533
1940.000000	29.738867
1941.000000	29.776333
1942.000000	29.825633
1943.000000	29.873433
1944.000000	29.933533
1945.000000	29.997167
1946.000000	30.058733
1947.000000	30.149567
1948.000000	30.227800
1949.000000	30.309500
1950.000000	30.402600
1951.000000	30.497200
1952.000000	30.606633
1953.000000	30.714533
1954.000000	30.817867
1955.000000	30.919367
1956.000000	31.032700
1957.000000	31.126667
1958.000000	31.246767
1959.000000	31.354233
1960.000000	31.459867
1961.000000	31.558500
1962.000000	31.671233
1963.000000	31.788500
1964.000000	31.889100
1965.000000	32.001967
1966.000000	32.098200
1967.000000	32.194133
1968.000000	32.296500
1969.000000	32.417167
1970.000000	32.511833
1971.000000	32.618600
1972.000000	32.729433
1973.000000	32.843333
1974.000000	32.944533
1975.000000	33.049300
1976.000000	33.165933
1977.000000	33.275900
1978.000000	33.384033
1979.000000	33.508233
1980.000000	33.623867
1981.000000	33.745133
1982.000000	33.860467
1983.000000	33.964633
1984.000000	34.083100
1985.000000	34.199700
1986.000000	34.313000
1987.000000	34.423467
1988.000000	34.533700
1989.000000	34.632200
1990.000000	34.750767
1991.000000	34.867600
1992.000000	34.957900
1993.000000	35.055067
1994.000000	35.168667
1995.000000	35.254333
1996.000000	35.352933
1997.000000	35.435067
1998.000000	35.522067
1999.000000	35.595033
2000.000000	35.676433
2001.000000	35.748133
2002.000000	35.808933
2003.000000	35.877233
2004.000000	35.919600
2005.000000	35.982633
2006.000000	36.021933
2007.000000	36.062400
2008.000000	36.090133
2009.000000	36.128867
2010.000000	36.150533
2011.000000	36.163067
2012.000000	36.163733
2013.000000	36.175600
2014.000000	36.179900
2015.000000	36.166533
2016.000000	36.134300
2017.000000	36.125267
2018.000000	36.109500
2019.000000	36.076867
2020.000000	36.033667
2021.000000	35.979233
2022.000000	35.935067
2023.000000	35.892767
2024.000000	35.827467
2025.000000	35.760167
2026.000000	35.693433
2027.000000	35.621833
2028.000000	35.557233
2029.000000	35.471900
2030.000000	35.371367
2031.000000	35.281333
2032.000000	35.171000
2033.000000	35.053700
2034.000000	34.944433
2035.000000	34.824800
2036.000000	34.703633
2037.000000	34.569167
2038.000000	34.422867
2039.000000	34.269767
2040.000000	34.118333
2041.000000	33.964667
2042.000000	33.804167
2043.000000	33.658900
2044.000000	33.510733
2045.000000	33.354633
2046.000000	33.195633
2047.000000	33.059400
2048.000000	32.938000
2049.000000	32.840433
2050.000000	32.749600
2051.000000	32.680200
2052.000000	32.626933
2053.000000	32.598367
2054.000000	32.596800
2055.000000	32.599867
2056.000000	32.636000
2057.000000	32.688233
2058.000000	32.744133
2059.000000	32.826400
2060.000000	32.928167
2061.000000	33.034633
2062.000000	33.143200
2063.000000	33.259567
2064.000000	33.384300
2065.000000	33.511833
2066.000000	33.633933
2067.000000	33.755367
2068.000000	33.881633
2069.000000	34.006367
2070.000000	34.121200
2071.000000	34.233167
2072.000000	34.338133
2073.000000	34.442567
2074.000000	34.534300
2075.000000	34.619367
2076.000000	34.704467
2077.000000	34.768033
2078.000000	34.833600
2079.000000	34.891133
2080.000000	34.933567
2081.000000	34.977067
2082.000000	35.010800
2083.000000	35.039667
2084.000000	35.061167
2085.000000	35.065933
2086.000000	35.067933
2087.000000	35.072600
2088.000000	35.073467
2089.000000	35.063767
2090.000000	35.047500
2091.000000	35.032333
2092.000000	35.017133
2093.000000	34.996033
2094.000000	34.980500
2095.000000	34.970200
2096.000000	34.962000
2097.000000	34.957200
2098.000000	34.954667
2099.000000	34.950500
2100.000000	34.940733
2101.000000	34.941933
2102.000000	34.948633
2103.000000	34.954300
2104.000000	34.955400
2105.000000	34.954433
2106.000000	34.952367
2107.000000	34.951667
2108.000000	34.954033
2109.000000	34.948667
2110.000000	34.939800
2111.000000	34.935500
2112.000000	34.928333
2113.000000	34.921533
2114.000000	34.909233
2115.000000	34.887333
2116.000000	34.867233
2117.000000	34.838500
2118.000000	34.818433
2119.000000	34.788367
2120.000000	34.749533
2121.000000	34.714000
2122.000000	34.678567
2123.000000	34.635733
2124.000000	34.580633
2125.000000	34.529000
2126.000000	34.472533
2127.000000	34.410033
2128.000000	34.343000
2129.000000	34.276900
2130.000000	34.207600
2131.000000	34.124833
2132.000000	34.045200
2133.000000	33.958333
2134.000000	33.870033
2135.000000	33.775733
2136.000000	33.669100
2137.000000	33.567567
2138.000000	33.460533
2139.000000	33.359733
2140.000000	33.250400
2141.000000	33.142433
2142.000000	33.027733
2143.000000	32.913600
2144.000000	32.798933
2145.000000	32.687100
2146.000000	32.572533
2147.000000	32.440933
2148.000000	32.318700
2149.000000	32.203167
2150.000000	32.083633
2151.000000	31.965967
2152.000000	31.844633
2153.000000	31.730867
2154.000000	31.620600
2155.000000	31.505600
2156.000000	31.395100
2157.000000	31.307200
2158.000000	31.208933
2159.000000	31.119067
2160.000000	31.045033
2161.000000	30.966467
2162.000000	30.894767
2163.000000	30.832400
2164.000000	30.788733
2165.000000	30.737500
2166.000000	30.693433
2167.000000	30.651433
2168.000000	30.629433
2169.000000	30.601067
2170.000000	30.568433
2171.000000	30.547433
2172.000000	30.528533
2173.000000	30.529667
2174.000000	30.527100
2175.000000	30.533833
2176.000000	30.529733
2177.000000	30.542967
2178.000000	30.555367
2179.000000	30.580800
2180.000000	30.585933
2181.000000	30.616367
2182.000000	30.631633
2183.000000	30.656700
2184.000000	30.669167
2185.000000	30.695467
2186.000000	30.732500
2187.000000	30.748500
2188.000000	30.765433
2189.000000	30.789500
2190.000000	30.811433
2191.000000	30.836700
2192.000000	30.852167
2193.000000	30.880900
2194.000000	30.910533
2195.000000	30.933667
2196.000000	30.967500
2197.000000	30.991800
2198.000000	31.028500
2199.000000	31.067533
2200.000000	31.110867
2201.000000	31.148133
2202.000000	31.195000
2203.000000	31.242300
2204.000000	31.278667
2205.000000	31.334033
2206.000000	31.393267
2207.000000	31.453933
2208.000000	31.526400
2209.000000	31.590267
2210.000000	31.658500
2211.000000	31.724500
2212.000000	31.806333
2213.000000	31.886833
2214.000000	31.971700
2215.000000	32.064400
2216.000000	32.152767
2217.000000	32.246600
2218.000000	32.343533
2219.000000	32.424233
2220.000000	32.513500
2221.000000	32.602533
2222.000000	32.686467
2223.000000	32.764833
2224.000000	32.839333
2225.000000	32.913867
2226.000000	32.980600
2227.000000	33.037400
2228.000000	33.086567
2229.000000	33.120233
2230.000000	33.156333
2231.000000	33.187833
2232.000000	33.203100
2233.000000	33.211033
2234.000000	33.205833
2235.000000	33.207500
2236.000000	33.165267
2237.000000	33.144200
2238.000000	33.106133
2239.000000	33.045033
2240.000000	32.976600
2241.000000	32.887067
2242.000000	32.805367
2243.000000	32.723000
2244.000000	32.592833
2245.000000	32.486833
2246.000000	32.336133
2247.000000	32.214467
2248.000000	32.050800
2249.000000	31.893267
2250.000000	31.731733
2251.000000	31.562967
2252.000000	31.399800
2253.000000	31.199867
2254.000000	31.028900
2255.000000	30.861100
2256.000000	30.673833
2257.000000	30.515433
2258.000000	30.354867
2259.000000	30.200167
2260.000000	30.051567
2261.000000	29.917767
2262.000000	29.804933
2263.000000	29.674067
2264.000000	29.589233
2265.000000	29.485567
2266.000000	29.415367
2267.000000	29.329300
2268.000000	29.287933
2269.000000	29.228000
2270.000000	29.174900
2271.000000	29.114133
2272.000000	29.076167
2273.000000	29.023767
2274.000000	28.981433
2275.000000	28.949100
2276.000000	28.899500
2277.000000	28.865067
2278.000000	28.816100
2279.000000	28.766500
2280.000000	28.722400
2281.000000	28.668033
2282.000000	28.619967
2283.000000	28.577300
2284.000000	28.517900
2285.000000	28.457433
2286.000000	28.418700
2287.000000	28.371400
2288.000000	28.335500
2289.000000	28.288400
2290.000000	28.255200
2291.000000	28.224433
2292.000000	28.201533
2293.000000	28.160867
2294.000000	28.141200
2295.000000	28.122333
2296.000000	28.099933
2297.000000	28.096167
2298.000000	28.074367
2299.000000	28.068100
2300.000000	28.073633
2301.000000	28.083900
2302.000000	28.081633
2303.000000	28.093600
2304.000000	28.112800
2305.000000	28.120067
2306.000000	28.148567
2307.000000	28.161067
2308.000000	28.191167
2309.000000	28.230133
2310.000000	28.252633
2311.000000	28.289400
2312.000000	28.327467
2313.000000	28.355200
2314.000000	28.373533
2315.000000	28.390700
2316.000000	28.405167
2317.000000	28.420933
2318.000000	28.430133
2319.000000	28.426500
2320.000000	28.412800
2321.000000	28.406633
2322.000000	28.379333
2323.000000	28.351633
2324.000000	28.329333
2325.000000	28.293700
2326.000000	28.256333
2327.000000	28.235033
2328.000000	28.203933
2329.000000	28.155667
2330.000000	28.112100
2331.000000	28.080100
2332.000000	28.054433
2333.000000	28.030933
2334.000000	28.014500
2335.000000	27.974667
2336.000000	27.950300
2337.000000	27.954767
2338.000000	27.929700
2339.000000	27.917667
2340.000000	27.918067
2341.000000	27.912133
2342.000000	27.910433
2343.000000	27.886067
2344.000000	27.879900
2345.000000	27.893467
2346.000000	27.892500
2347.000000	27.888467
2348.000000	27.881900
2349.000000	27.891900
2350.000000	27.897400
2351.000000	27.891900
2352.000000	27.899800
2353.000000	27.900867
2354.000000	27.897500
2355.000000	27.901933
2356.000000	27.913167
2357.000000	27.907400
2358.000000	27.900167
2359.000000	27.893900
2360.000000	27.886600
2361.000000	27.882867
2362.000000	27.862233
2363.000000	27.843633
2364.000000	27.835100
2365.000000	27.815367
2366.000000	27.804833
2367.000000	27.798767
2368.000000	27.789700
2369.000000	27.773733
2370.000000	27.764000
2371.000000	27.760867
2372.000000	27.748567
2373.000000	27.741867
2374.000000	27.737000
2375.000000	27.745367
2376.000000	27.733867
2377.000000	27.725000
2378.000000	27.726900
2379.000000	27.724533
2380.000000	27.717267
2381.000000	27.699267
2382.000000	27.694667
2383.000000	27.686933
2384.000000	27.666367
2385.000000	27.643633
2386.000000	27.618833
2387.000000	27.590700
2388.000000	27.559967
2389.000000	27.542433
2390.000000	27.517000
2391.000000	27.477233
2392.000000	27.443733
2393.000000	27.393567
2394.000000	27.343767
2395.000000	27.307200
2396.000000	27.267100
2397.000000	27.229600
2398.000000	27.188133
2399.000000	27.115300
2400.000000	27.050833
2401.000000	27.012767
2402.000000	26.964733
2403.000000	26.906667
2404.000000	26.819933
2405.000000	26.753133
2406.000000	26.702833
2407.000000	26.647333
2408.000000	26.579967
2409.000000	26.475700
2410.000000	26.391900
2411.000000	26.326400
2412.000000	26.247567
2413.000000	26.149533
2414.000000	26.037433
2415.000000	25.954133
2416.000000	25.869100
2417.000000	25.785400
2418.000000	25.673633
2419.000000	25.547267
2420.000000	25.396700
2421.000000	25.216200
2422.000000	25.042200
2423.000000	24.893133
2424.000000	24.774967
2425.000000	24.665667
2426.000000	24.587700
2427.000000	24.486700
2428.000000	24.380033
2429.000000	24.267100
2430.000000	24.171900
2431.000000	24.061667
2432.000000	23.943967
2433.000000	23.838600
2434.000000	23.707133
2435.000000	23.586167
2436.000000	23.484500
2437.000000	23.364833
2438.000000	23.238933
2439.000000	23.119400
2440.000000	22.989600
2441.000000	22.866100
2442.000000	22.739300
2443.000000	22.617133
2444.000000	22.491267
2445.000000	22.381167
2446.000000	22.261100
2447.000000	22.124400
2448.000000	21.995167
2449.000000	21.877933
2450.000000	21.757867
2451.000000	21.653333
2452.000000	21.517067
2453.000000	21.411433
2454.000000	21.312267
2455.000000	21.216800
2456.000000	21.119300
2457.000000	21.026100
2458.000000	20.942967
2459.000000	20.851100
2460.000000	20.783333
2461.000000	20.718167
2462.000000	20.645467
2463.000000	20.559067
2464.000000	20.492200
2465.000000	20.429667
2466.000000	20.369500
2467.000000	20.313700
2468.000000	20.252033
2469.000000	20.167067
2470.000000	20.149300
2471.000000	20.084367
2472.000000	20.040233
2473.000000	20.011133
2474.000000	19.939333
2475.000000	19.894333
2476.000000	19.862800
2477.000000	19.810100
2478.000000	19.783400
2479.000000	19.750267
2480.000000	19.735400
2481.000000	19.762967
2482.000000	19.714933
2483.000000	19.669133
2484.000000	19.668133
2485.000000	19.662633
2486.000000	19.651733
2487.000000	19.587367
2488.000000	19.625900
2489.000000	19.636000
2490.000000	19.636867
2491.000000	19.598133
2492.000000	19.639767
2493.000000	19.649933
2494.000000	19.609267
2495.000000	19.616733
2496.000000	19.673167
2497.000000	19.717733
2498.000000	19.711700
2499.000000	19.705633
2500.000000	19.713900
