PE UV       SUBTECH     SPECTRUM    ASCII       PEDS        4.00        
   -1
CICIMAUCR0097-3.Sample.ASC
24/04/18
13:31:23.00
24/04/18
13:31:23.00
Vinicio Soto Monge
C. kalinini
250,000000
1
Lambda 1050
1050L1511233
PerkinElmer UV WinLab 6.3.2.0749 / 2.02.05 Lambda 900 UV/VIS/NIR, Aug  7 2015 09:38:08

0
0
3350/servo 860,8/2
0
0
UV/VIS
1
1
1
DoubleDePol,CommonBeamDepol,RBeamAtt,SBeamAtt,60mm sphere, WB InGaAs Detector
0
0
0
0
Program
Program
3350/servo 860,8/2
3350/0,2 860,8/0,2
3350/0,2 860,8/0,2
0
15.00
 
 
 
0
 
860,8
319,2
860,8
Front
100
on
S:100 R:100
0
0
0
0
 
0
 
 
 
0
 
 
0
0
0
0
0
 
 
 
 
0
0


0
0
#HDR
-1
-1
#GR
nm
%R
1.0
0.0
2500,000000
-1,000000
2251
8
97,988000
5,671400
#DATA
250.000000	5.846467
251.000000	5.821533
252.000000	5.819633
253.000000	5.814900
254.000000	5.776500
255.000000	5.778100
256.000000	5.768667
257.000000	5.780267
258.000000	5.763200
259.000000	5.719000
260.000000	5.697000
261.000000	5.673533
262.000000	5.627667
263.000000	5.627867
264.000000	5.608767
265.000000	5.607933
266.000000	5.604400
267.000000	5.532967
268.000000	5.504167
269.000000	5.478967
270.000000	5.457367
271.000000	5.481000
272.000000	5.442833
273.000000	5.420467
274.000000	5.395067
275.000000	5.385867
276.000000	5.402967
277.000000	5.346600
278.000000	5.325267
279.000000	5.329833
280.000000	5.344233
281.000000	5.323133
282.000000	5.294767
283.000000	5.315267
284.000000	5.295367
285.000000	5.284233
286.000000	5.263600
287.000000	5.277567
288.000000	5.280100
289.000000	5.261633
290.000000	5.258667
291.000000	5.252900
292.000000	5.231267
293.000000	5.265233
294.000000	5.233333
295.000000	5.232633
296.000000	5.253300
297.000000	5.269900
298.000000	5.242300
299.000000	5.237367
300.000000	5.238967
301.000000	5.211467
302.000000	5.193300
303.000000	5.208200
304.000000	5.240000
305.000000	5.214567
306.000000	5.227833
307.000000	5.199600
308.000000	5.207133
309.000000	5.187833
310.000000	5.182900
311.000000	5.202500
312.000000	5.180600
313.000000	5.228500
314.000000	5.187000
315.000000	5.200867
316.000000	5.241467
317.000000	5.476867
318.000000	5.350567
319.000000	5.332400
320.000000	5.309400
321.000000	5.385867
322.000000	5.348500
323.000000	5.434500
324.000000	5.313500
325.000000	5.160033
326.000000	5.254767
327.000000	5.417967
328.000000	5.296800
329.000000	5.275900
330.000000	5.307633
331.000000	5.359700
332.000000	5.299667
333.000000	5.352200
334.000000	5.305000
335.000000	5.304400
336.000000	5.371933
337.000000	5.406933
338.000000	5.349833
339.000000	5.382833
340.000000	5.610100
341.000000	5.378833
342.000000	5.329400
343.000000	5.368133
344.000000	5.386533
345.000000	5.347300
346.000000	5.356700
347.000000	5.391033
348.000000	5.323667
349.000000	5.359000
350.000000	5.426333
351.000000	5.401700
352.000000	5.445433
353.000000	5.466967
354.000000	5.546433
355.000000	5.558033
356.000000	5.527300
357.000000	5.557200
358.000000	5.540633
359.000000	5.583767
360.000000	5.650000
361.000000	5.621033
362.000000	5.646400
363.000000	5.691367
364.000000	5.688333
365.000000	5.725667
366.000000	5.687167
367.000000	5.699100
368.000000	5.737733
369.000000	5.796633
370.000000	5.775800
371.000000	5.790533
372.000000	5.848433
373.000000	5.895667
374.000000	5.897233
375.000000	5.921000
376.000000	5.994100
377.000000	5.909533
378.000000	5.939833
379.000000	5.984000
380.000000	6.022533
381.000000	6.057000
382.000000	6.091000
383.000000	6.138100
384.000000	6.191333
385.000000	6.230300
386.000000	6.270033
387.000000	6.325700
388.000000	6.382767
389.000000	6.434167
390.000000	6.491300
391.000000	6.549500
392.000000	6.614167
393.000000	6.693567
394.000000	6.770733
395.000000	6.860000
396.000000	6.961700
397.000000	7.054733
398.000000	7.147267
399.000000	7.253633
400.000000	7.375033
401.000000	7.501267
402.000000	7.633933
403.000000	7.779767
404.000000	7.932267
405.000000	8.094933
406.000000	8.271033
407.000000	8.457433
408.000000	8.653533
409.000000	8.860500
410.000000	9.084000
411.000000	9.323367
412.000000	9.572200
413.000000	9.835233
414.000000	10.110400
415.000000	10.399233
416.000000	10.697933
417.000000	11.008867
418.000000	11.337033
419.000000	11.669933
420.000000	12.017600
421.000000	12.381267
422.000000	12.757967
423.000000	13.140133
424.000000	13.531667
425.000000	13.925633
426.000000	14.321367
427.000000	14.719600
428.000000	15.122467
429.000000	15.525800
430.000000	15.931933
431.000000	16.353667
432.000000	16.764433
433.000000	17.168233
434.000000	17.575233
435.000000	17.975900
436.000000	18.363267
437.000000	18.744300
438.000000	19.118133
439.000000	19.486867
440.000000	19.849467
441.000000	20.205467
442.000000	20.555800
443.000000	20.890867
444.000000	21.214100
445.000000	21.526900
446.000000	21.831600
447.000000	22.121433
448.000000	22.398567
449.000000	22.664633
450.000000	22.921833
451.000000	23.166033
452.000000	23.409000
453.000000	23.639033
454.000000	23.848500
455.000000	24.053367
456.000000	24.248300
457.000000	24.428333
458.000000	24.602200
459.000000	24.771467
460.000000	24.928633
461.000000	25.075500
462.000000	25.213133
463.000000	25.343767
464.000000	25.462833
465.000000	25.579100
466.000000	25.680033
467.000000	25.773000
468.000000	25.854567
469.000000	25.919767
470.000000	25.986467
471.000000	26.044033
472.000000	26.083633
473.000000	26.117833
474.000000	26.143833
475.000000	26.154333
476.000000	26.145833
477.000000	26.139233
478.000000	26.130167
479.000000	26.103767
480.000000	26.086667
481.000000	26.065667
482.000000	26.036767
483.000000	25.989700
484.000000	25.930300
485.000000	25.866300
486.000000	25.821167
487.000000	25.773567
488.000000	25.714867
489.000000	25.667733
490.000000	25.640967
491.000000	25.621633
492.000000	25.620000
493.000000	25.625967
494.000000	25.657133
495.000000	25.707800
496.000000	25.792800
497.000000	25.902100
498.000000	26.025733
499.000000	26.200500
500.000000	26.423100
501.000000	26.661933
502.000000	26.941467
503.000000	27.248933
504.000000	27.604867
505.000000	27.988433
506.000000	28.389433
507.000000	28.829267
508.000000	29.292333
509.000000	29.784200
510.000000	30.298667
511.000000	30.834600
512.000000	31.391167
513.000000	31.963867
514.000000	32.550033
515.000000	33.138367
516.000000	33.741600
517.000000	34.357600
518.000000	34.978233
519.000000	35.587133
520.000000	36.224167
521.000000	36.863500
522.000000	37.508867
523.000000	38.167733
524.000000	38.835200
525.000000	39.497000
526.000000	40.145267
527.000000	40.807300
528.000000	41.466800
529.000000	42.134300
530.000000	42.808867
531.000000	43.474500
532.000000	44.139900
533.000000	44.809867
534.000000	45.476433
535.000000	46.147300
536.000000	46.806600
537.000000	47.464033
538.000000	48.118800
539.000000	48.770400
540.000000	49.436533
541.000000	50.086833
542.000000	50.729533
543.000000	51.376800
544.000000	52.024533
545.000000	52.647933
546.000000	53.265300
547.000000	53.868100
548.000000	54.475967
549.000000	55.056267
550.000000	55.621067
551.000000	56.190700
552.000000	56.724867
553.000000	57.269767
554.000000	57.777100
555.000000	58.296133
556.000000	58.788867
557.000000	59.270733
558.000000	59.713167
559.000000	60.163333
560.000000	60.583700
561.000000	60.988733
562.000000	61.396100
563.000000	61.807733
564.000000	62.167167
565.000000	62.534367
566.000000	62.897800
567.000000	63.227500
568.000000	63.570167
569.000000	63.872100
570.000000	64.167100
571.000000	64.470200
572.000000	64.757267
573.000000	65.039767
574.000000	65.271167
575.000000	65.517167
576.000000	65.716033
577.000000	65.932900
578.000000	66.133000
579.000000	66.330833
580.000000	66.502900
581.000000	66.687233
582.000000	66.879433
583.000000	67.037133
584.000000	67.191333
585.000000	67.297967
586.000000	67.442333
587.000000	67.581200
588.000000	67.683967
589.000000	67.795700
590.000000	67.906867
591.000000	67.970033
592.000000	68.075067
593.000000	68.075133
594.000000	68.133400
595.000000	68.175333
596.000000	68.202033
597.000000	68.184400
598.000000	68.178267
599.000000	68.109233
600.000000	68.068867
601.000000	68.005000
602.000000	67.881233
603.000000	67.760533
604.000000	67.620800
605.000000	67.453833
606.000000	67.292633
607.000000	67.065100
608.000000	66.852100
609.000000	66.610333
610.000000	66.350333
611.000000	66.100200
612.000000	65.800867
613.000000	65.525433
614.000000	65.187933
615.000000	64.849833
616.000000	64.565600
617.000000	64.207767
618.000000	63.890967
619.000000	63.547400
620.000000	63.199867
621.000000	62.840167
622.000000	62.490467
623.000000	62.115033
624.000000	61.740967
625.000000	61.400867
626.000000	61.010533
627.000000	60.637000
628.000000	60.239033
629.000000	59.850033
630.000000	59.468033
631.000000	59.132033
632.000000	58.767700
633.000000	58.404900
634.000000	58.070200
635.000000	57.770200
636.000000	57.466633
637.000000	57.221900
638.000000	57.000767
639.000000	56.782767
640.000000	56.622633
641.000000	56.518833
642.000000	56.407233
643.000000	56.369167
644.000000	56.344233
645.000000	56.353800
646.000000	56.411533
647.000000	56.458800
648.000000	56.576600
649.000000	56.698900
650.000000	56.831033
651.000000	56.968800
652.000000	57.129033
653.000000	57.258967
654.000000	57.425300
655.000000	57.598667
656.000000	57.744300
657.000000	57.924967
658.000000	58.090967
659.000000	58.259933
660.000000	58.408700
661.000000	58.567900
662.000000	58.753867
663.000000	58.941200
664.000000	59.110967
665.000000	59.278900
666.000000	59.474900
667.000000	59.681833
668.000000	59.873667
669.000000	60.082500
670.000000	60.282433
671.000000	60.521667
672.000000	60.753000
673.000000	60.985467
674.000000	61.192333
675.000000	61.427767
676.000000	61.661733
677.000000	61.879167
678.000000	62.116433
679.000000	62.312267
680.000000	62.549467
681.000000	62.764433
682.000000	62.970000
683.000000	63.190367
684.000000	63.445100
685.000000	63.681167
686.000000	63.888800
687.000000	64.141900
688.000000	64.368000
689.000000	64.602767
690.000000	64.865633
691.000000	65.160433
692.000000	65.432800
693.000000	65.706867
694.000000	66.029133
695.000000	66.343700
696.000000	66.638600
697.000000	66.941633
698.000000	67.256967
699.000000	67.585200
700.000000	67.908067
701.000000	68.231133
702.000000	68.613600
703.000000	68.986000
704.000000	69.314867
705.000000	69.682467
706.000000	70.013433
707.000000	70.348567
708.000000	70.725367
709.000000	71.108900
710.000000	71.496300
711.000000	71.855667
712.000000	72.233867
713.000000	72.610000
714.000000	73.024600
715.000000	73.457533
716.000000	73.868767
717.000000	74.225400
718.000000	74.649400
719.000000	75.104200
720.000000	75.535500
721.000000	76.010700
722.000000	76.453667
723.000000	76.904200
724.000000	77.393933
725.000000	77.882033
726.000000	78.337633
727.000000	78.724267
728.000000	79.181767
729.000000	79.644367
730.000000	80.075333
731.000000	80.547133
732.000000	80.996600
733.000000	81.411433
734.000000	81.810967
735.000000	82.200133
736.000000	82.570900
737.000000	82.973100
738.000000	83.359767
739.000000	83.696933
740.000000	84.006700
741.000000	84.318333
742.000000	84.642333
743.000000	84.912000
744.000000	85.169800
745.000000	85.444333
746.000000	85.703800
747.000000	85.950833
748.000000	86.197733
749.000000	86.421767
750.000000	86.596100
751.000000	86.766533
752.000000	86.967800
753.000000	87.155033
754.000000	87.326400
755.000000	87.511833
756.000000	87.650600
757.000000	87.758633
758.000000	87.928467
759.000000	88.073200
760.000000	88.140967
761.000000	88.248233
762.000000	88.376300
763.000000	88.466733
764.000000	88.525467
765.000000	88.525867
766.000000	88.542000
767.000000	88.589933
768.000000	88.621867
769.000000	88.639667
770.000000	88.703700
771.000000	88.767867
772.000000	88.779867
773.000000	88.773867
774.000000	88.816800
775.000000	88.807700
776.000000	88.821900
777.000000	88.865433
778.000000	88.888800
779.000000	88.937967
780.000000	89.041733
781.000000	89.100000
782.000000	89.117433
783.000000	89.154200
784.000000	89.196000
785.000000	89.252767
786.000000	89.292200
787.000000	89.336933
788.000000	89.407100
789.000000	89.431200
790.000000	89.468633
791.000000	89.529233
792.000000	89.488567
793.000000	89.585767
794.000000	89.626533
795.000000	89.604333
796.000000	89.709333
797.000000	89.700600
798.000000	89.712100
799.000000	89.785467
800.000000	89.813833
801.000000	89.817267
802.000000	89.939833
803.000000	90.021200
804.000000	89.978400
805.000000	89.972467
806.000000	89.983533
807.000000	89.961033
808.000000	89.968167
809.000000	90.007467
810.000000	89.924600
811.000000	89.921133
812.000000	89.914433
813.000000	89.951000
814.000000	90.010533
815.000000	89.967400
816.000000	89.842367
817.000000	89.924733
818.000000	89.820200
819.000000	89.794767
820.000000	89.726667
821.000000	89.603633
822.000000	89.478533
823.000000	89.513767
824.000000	89.449800
825.000000	89.322233
826.000000	89.104033
827.000000	89.007300
828.000000	88.753967
829.000000	88.692967
830.000000	88.554467
831.000000	88.374967
832.000000	88.240833
833.000000	88.125767
834.000000	87.775500
835.000000	87.599133
836.000000	87.279667
837.000000	87.132900
838.000000	86.944733
839.000000	86.638067
840.000000	86.256933
841.000000	86.178067
842.000000	85.945800
843.000000	85.539933
844.000000	85.127267
845.000000	84.804133
846.000000	84.536667
847.000000	84.337767
848.000000	84.087333
849.000000	83.596800
850.000000	83.201200
851.000000	82.877733
852.000000	82.479900
853.000000	82.331867
854.000000	81.858500
855.000000	81.335067
856.000000	81.192433
857.000000	80.781800
858.000000	81.103100
859.000000	79.878730
860.000000	79.971094
861.000000	80.058708
862.000000	80.172141
863.000000	80.194701
864.000000	80.172688
865.000000	80.140591
866.000000	80.105160
867.000000	80.052089
868.000000	79.994514
869.000000	79.941339
870.000000	79.884327
871.000000	79.770615
872.000000	79.734473
873.000000	79.604433
874.000000	79.538210
875.000000	79.448005
876.000000	79.364289
877.000000	79.267633
878.000000	79.112634
879.000000	78.958690
880.000000	78.844849
881.000000	78.692554
882.000000	78.600229
883.000000	78.497042
884.000000	78.350662
885.000000	78.236082
886.000000	78.083982
887.000000	77.938358
888.000000	77.781274
889.000000	77.667874
890.000000	77.526493
891.000000	77.397754
892.000000	77.243286
893.000000	77.137284
894.000000	77.005463
895.000000	76.857954
896.000000	76.713025
897.000000	76.572387
898.000000	76.458191
899.000000	76.299889
900.000000	76.159858
901.000000	76.027743
902.000000	75.898787
903.000000	75.751023
904.000000	75.617428
905.000000	75.475515
906.000000	75.376611
907.000000	75.246910
908.000000	75.093079
909.000000	74.949545
910.000000	74.845950
911.000000	74.672723
912.000000	74.543683
913.000000	74.422103
914.000000	74.309613
915.000000	74.188249
916.000000	74.021312
917.000000	73.887343
918.000000	73.769700
919.000000	73.613919
920.000000	73.482985
921.000000	73.326517
922.000000	73.189294
923.000000	73.044178
924.000000	72.876194
925.000000	72.742935
926.000000	72.593112
927.000000	72.449636
928.000000	72.279478
929.000000	72.139439
930.000000	71.967503
931.000000	71.834395
932.000000	71.640038
933.000000	71.495612
934.000000	71.329724
935.000000	71.146591
936.000000	70.952119
937.000000	70.778331
938.000000	70.602071
939.000000	70.436489
940.000000	70.279805
941.000000	70.074549
942.000000	69.895589
943.000000	69.721753
944.000000	69.520293
945.000000	69.364590
946.000000	69.175425
947.000000	68.980622
948.000000	68.812307
949.000000	68.629102
950.000000	68.460667
951.000000	68.269059
952.000000	68.068553
953.000000	67.884213
954.000000	67.723898
955.000000	67.541748
956.000000	67.360368
957.000000	67.163401
958.000000	66.970901
959.000000	66.793656
960.000000	66.613764
961.000000	66.424758
962.000000	66.225809
963.000000	66.030480
964.000000	65.859186
965.000000	65.673157
966.000000	65.461367
967.000000	65.260495
968.000000	65.085706
969.000000	64.898918
970.000000	64.689523
971.000000	64.509194
972.000000	64.320255
973.000000	64.129376
974.000000	63.951841
975.000000	63.749674
976.000000	63.550385
977.000000	63.360178
978.000000	63.181407
979.000000	62.988809
980.000000	62.785506
981.000000	62.583003
982.000000	62.402032
983.000000	62.213855
984.000000	62.018385
985.000000	61.830360
986.000000	61.654579
987.000000	61.473776
988.000000	61.280923
989.000000	61.078879
990.000000	60.902847
991.000000	60.726774
992.000000	60.550356
993.000000	60.372714
994.000000	60.197523
995.000000	60.022249
996.000000	59.850955
997.000000	59.690964
998.000000	59.529766
999.000000	59.366049
1000.000000	59.207427
1001.000000	59.052031
1002.000000	58.892123
1003.000000	58.726070
1004.000000	58.573410
1005.000000	58.428116
1006.000000	58.282514
1007.000000	58.141227
1008.000000	58.005215
1009.000000	57.869020
1010.000000	57.728868
1011.000000	57.590741
1012.000000	57.469388
1013.000000	57.351659
1014.000000	57.241032
1015.000000	57.123640
1016.000000	57.012374
1017.000000	56.909728
1018.000000	56.805630
1019.000000	56.703619
1020.000000	56.614198
1021.000000	56.533363
1022.000000	56.452321
1023.000000	56.375214
1024.000000	56.300418
1025.000000	56.234109
1026.000000	56.168297
1027.000000	56.100348
1028.000000	56.043206
1029.000000	55.995890
1030.000000	55.949861
1031.000000	55.910118
1032.000000	55.872436
1033.000000	55.827978
1034.000000	55.792845
1035.000000	55.776483
1036.000000	55.757761
1037.000000	55.732462
1038.000000	55.702532
1039.000000	55.680764
1040.000000	55.660728
1041.000000	55.649811
1042.000000	55.640745
1043.000000	55.633734
1044.000000	55.631165
1045.000000	55.625797
1046.000000	55.618284
1047.000000	55.617507
1048.000000	55.620296
1049.000000	55.620016
1050.000000	55.624497
1051.000000	55.637782
1052.000000	55.654339
1053.000000	55.667653
1054.000000	55.674421
1055.000000	55.693712
1056.000000	55.721075
1057.000000	55.750477
1058.000000	55.780117
1059.000000	55.800060
1060.000000	55.820345
1061.000000	55.847148
1062.000000	55.873552
1063.000000	55.902744
1064.000000	55.930595
1065.000000	55.963444
1066.000000	55.991337
1067.000000	56.019732
1068.000000	56.061081
1069.000000	56.103566
1070.000000	56.139234
1071.000000	56.183019
1072.000000	56.217021
1073.000000	56.252023
1074.000000	56.293874
1075.000000	56.333970
1076.000000	56.368869
1077.000000	56.402114
1078.000000	56.455344
1079.000000	56.496130
1080.000000	56.542171
1081.000000	56.587581
1082.000000	56.633136
1083.000000	56.673312
1084.000000	56.711156
1085.000000	56.766963
1086.000000	56.808615
1087.000000	56.859981
1088.000000	56.909809
1089.000000	56.948533
1090.000000	56.996103
1091.000000	57.048899
1092.000000	57.092917
1093.000000	57.146371
1094.000000	57.193163
1095.000000	57.240466
1096.000000	57.285345
1097.000000	57.330674
1098.000000	57.384824
1099.000000	57.432883
1100.000000	57.478399
1101.000000	57.514789
1102.000000	57.556334
1103.000000	57.607933
1104.000000	57.654730
1105.000000	57.687768
1106.000000	57.730460
1107.000000	57.782479
1108.000000	57.829107
1109.000000	57.873861
1110.000000	57.910924
1111.000000	57.951497
1112.000000	57.997484
1113.000000	58.039462
1114.000000	58.084481
1115.000000	58.122930
1116.000000	58.160975
1117.000000	58.207038
1118.000000	58.240859
1119.000000	58.277546
1120.000000	58.329114
1121.000000	58.362820
1122.000000	58.408464
1123.000000	58.430030
1124.000000	58.451585
1125.000000	58.468842
1126.000000	58.473025
1127.000000	58.487631
1128.000000	58.504466
1129.000000	58.516591
1130.000000	58.497648
1131.000000	58.470280
1132.000000	58.449969
1133.000000	58.438871
1134.000000	58.465558
1135.000000	58.421229
1136.000000	58.365103
1137.000000	58.305696
1138.000000	58.261186
1139.000000	58.217794
1140.000000	58.179244
1141.000000	58.144216
1142.000000	58.104107
1143.000000	58.082402
1144.000000	58.070706
1145.000000	58.056926
1146.000000	58.052493
1147.000000	58.058590
1148.000000	58.056380
1149.000000	58.069297
1150.000000	58.089919
1151.000000	58.121671
1152.000000	58.131549
1153.000000	58.136647
1154.000000	58.133490
1155.000000	58.110118
1156.000000	58.077392
1157.000000	58.030355
1158.000000	57.970677
1159.000000	57.915318
1160.000000	57.841653
1161.000000	57.773186
1162.000000	57.699672
1163.000000	57.625580
1164.000000	57.530431
1165.000000	57.432558
1166.000000	57.362496
1167.000000	57.290965
1168.000000	57.193655
1169.000000	57.128264
1170.000000	57.057183
1171.000000	56.988390
1172.000000	56.920952
1173.000000	56.855932
1174.000000	56.805389
1175.000000	56.747779
1176.000000	56.696091
1177.000000	56.623057
1178.000000	56.550446
1179.000000	56.472141
1180.000000	56.384911
1181.000000	56.270547
1182.000000	56.163549
1183.000000	56.088675
1184.000000	56.029853
1185.000000	55.996853
1186.000000	56.020716
1187.000000	56.062890
1188.000000	56.134572
1189.000000	56.255151
1190.000000	56.401402
1191.000000	56.554395
1192.000000	56.714770
1193.000000	56.870471
1194.000000	57.004063
1195.000000	57.128536
1196.000000	57.236853
1197.000000	57.323538
1198.000000	57.398304
1199.000000	57.454602
1200.000000	57.501147
1201.000000	57.558478
1202.000000	57.606629
1203.000000	57.643113
1204.000000	57.693357
1205.000000	57.728182
1206.000000	57.772748
1207.000000	57.819304
1208.000000	57.879152
1209.000000	57.938319
1210.000000	57.982797
1211.000000	58.043425
1212.000000	58.090619
1213.000000	58.158785
1214.000000	58.208871
1215.000000	58.271911
1216.000000	58.328684
1217.000000	58.379045
1218.000000	58.437084
1219.000000	58.479844
1220.000000	58.542321
1221.000000	58.604097
1222.000000	58.667375
1223.000000	58.710449
1224.000000	58.773609
1225.000000	58.831029
1226.000000	58.896565
1227.000000	58.955836
1228.000000	59.020712
1229.000000	59.080842
1230.000000	59.147018
1231.000000	59.208703
1232.000000	59.268800
1233.000000	59.333040
1234.000000	59.388577
1235.000000	59.451288
1236.000000	59.519358
1237.000000	59.574340
1238.000000	59.624836
1239.000000	59.693968
1240.000000	59.757869
1241.000000	59.814982
1242.000000	59.874725
1243.000000	59.940864
1244.000000	59.997045
1245.000000	60.062457
1246.000000	60.128915
1247.000000	60.182828
1248.000000	60.238459
1249.000000	60.292491
1250.000000	60.335205
1251.000000	60.384321
1252.000000	60.433617
1253.000000	60.478829
1254.000000	60.511145
1255.000000	60.547646
1256.000000	60.572590
1257.000000	60.609226
1258.000000	60.655647
1259.000000	60.683451
1260.000000	60.709939
1261.000000	60.735971
1262.000000	60.775151
1263.000000	60.806458
1264.000000	60.831393
1265.000000	60.861176
1266.000000	60.895881
1267.000000	60.926254
1268.000000	60.956902
1269.000000	60.990142
1270.000000	61.014339
1271.000000	61.034349
1272.000000	61.057131
1273.000000	61.083190
1274.000000	61.103234
1275.000000	61.130707
1276.000000	61.158692
1277.000000	61.191530
1278.000000	61.232045
1279.000000	61.260351
1280.000000	61.290507
1281.000000	61.321374
1282.000000	61.353564
1283.000000	61.388603
1284.000000	61.432732
1285.000000	61.469264
1286.000000	61.496477
1287.000000	61.526848
1288.000000	61.553542
1289.000000	61.570827
1290.000000	61.594912
1291.000000	61.627125
1292.000000	61.650955
1293.000000	61.671210
1294.000000	61.692338
1295.000000	61.707946
1296.000000	61.720273
1297.000000	61.733766
1298.000000	61.750385
1299.000000	61.769163
1300.000000	61.782583
1301.000000	61.788896
1302.000000	61.795490
1303.000000	61.806152
1304.000000	61.809674
1305.000000	61.817701
1306.000000	61.827134
1307.000000	61.822961
1308.000000	61.816715
1309.000000	61.819558
1310.000000	61.816708
1311.000000	61.803081
1312.000000	61.797689
1313.000000	61.792209
1314.000000	61.783728
1315.000000	61.771189
1316.000000	61.748115
1317.000000	61.731432
1318.000000	61.719452
1319.000000	61.705480
1320.000000	61.684002
1321.000000	61.659136
1322.000000	61.635164
1323.000000	61.607688
1324.000000	61.575597
1325.000000	61.553788
1326.000000	61.519082
1327.000000	61.480315
1328.000000	61.445984
1329.000000	61.402164
1330.000000	61.359449
1331.000000	61.315722
1332.000000	61.261508
1333.000000	61.201866
1334.000000	61.135420
1335.000000	61.062160
1336.000000	60.993683
1337.000000	60.912107
1338.000000	60.824358
1339.000000	60.732631
1340.000000	60.639346
1341.000000	60.529481
1342.000000	60.409881
1343.000000	60.303115
1344.000000	60.185226
1345.000000	60.037598
1346.000000	59.885058
1347.000000	59.785372
1348.000000	59.636166
1349.000000	59.456316
1350.000000	59.281028
1351.000000	59.089752
1352.000000	58.880794
1353.000000	58.712105
1354.000000	58.576990
1355.000000	58.383754
1356.000000	58.216731
1357.000000	58.125168
1358.000000	58.076870
1359.000000	58.064369
1360.000000	58.077944
1361.000000	58.086986
1362.000000	58.017649
1363.000000	57.871083
1364.000000	57.820152
1365.000000	57.730959
1366.000000	57.596197
1367.000000	57.506980
1368.000000	57.421101
1369.000000	57.250548
1370.000000	57.123739
1371.000000	57.009527
1372.000000	56.828299
1373.000000	56.652589
1374.000000	56.504439
1375.000000	56.399708
1376.000000	56.300724
1377.000000	56.233860
1378.000000	56.184420
1379.000000	56.163209
1380.000000	56.107110
1381.000000	56.076666
1382.000000	55.932237
1383.000000	55.717999
1384.000000	55.469319
1385.000000	55.209532
1386.000000	54.990438
1387.000000	54.800840
1388.000000	54.633483
1389.000000	54.332027
1390.000000	54.117156
1391.000000	54.000323
1392.000000	53.853089
1393.000000	53.630618
1394.000000	53.517779
1395.000000	53.420840
1396.000000	53.166720
1397.000000	52.828995
1398.000000	52.588952
1399.000000	52.518908
1400.000000	52.344570
1401.000000	52.013030
1402.000000	51.581496
1403.000000	51.326420
1404.000000	51.029099
1405.000000	50.770039
1406.000000	50.435060
1407.000000	50.137659
1408.000000	49.842007
1409.000000	49.554310
1410.000000	49.206396
1411.000000	48.886236
1412.000000	48.613808
1413.000000	48.423736
1414.000000	48.211225
1415.000000	47.901927
1416.000000	47.614920
1417.000000	47.388154
1418.000000	47.236136
1419.000000	47.039083
1420.000000	46.764975
1421.000000	46.514447
1422.000000	46.317875
1423.000000	46.132799
1424.000000	45.943995
1425.000000	45.717399
1426.000000	45.540928
1427.000000	45.348829
1428.000000	45.194888
1429.000000	45.025429
1430.000000	44.866690
1431.000000	44.742307
1432.000000	44.614917
1433.000000	44.487626
1434.000000	44.348640
1435.000000	44.205881
1436.000000	44.089022
1437.000000	43.978966
1438.000000	43.886308
1439.000000	43.758201
1440.000000	43.645112
1441.000000	43.560744
1442.000000	43.447451
1443.000000	43.325813
1444.000000	43.242291
1445.000000	43.167319
1446.000000	43.064169
1447.000000	42.927404
1448.000000	42.809233
1449.000000	42.720974
1450.000000	42.671983
1451.000000	42.580159
1452.000000	42.473728
1453.000000	42.353913
1454.000000	42.252092
1455.000000	42.170678
1456.000000	42.072386
1457.000000	41.977291
1458.000000	41.877329
1459.000000	41.782798
1460.000000	41.700411
1461.000000	41.609337
1462.000000	41.525598
1463.000000	41.451755
1464.000000	41.372892
1465.000000	41.300784
1466.000000	41.241383
1467.000000	41.165171
1468.000000	41.086881
1469.000000	41.018687
1470.000000	40.980031
1471.000000	40.928674
1472.000000	40.864552
1473.000000	40.800025
1474.000000	40.734104
1475.000000	40.659113
1476.000000	40.610485
1477.000000	40.577129
1478.000000	40.539300
1479.000000	40.495524
1480.000000	40.467010
1481.000000	40.437755
1482.000000	40.404497
1483.000000	40.370454
1484.000000	40.344245
1485.000000	40.317525
1486.000000	40.300495
1487.000000	40.278112
1488.000000	40.255284
1489.000000	40.235453
1490.000000	40.208812
1491.000000	40.205083
1492.000000	40.191852
1493.000000	40.178688
1494.000000	40.179092
1495.000000	40.173292
1496.000000	40.182537
1497.000000	40.192492
1498.000000	40.209026
1499.000000	40.227610
1500.000000	40.259566
1501.000000	40.300721
1502.000000	40.339148
1503.000000	40.381081
1504.000000	40.420648
1505.000000	40.465086
1506.000000	40.517314
1507.000000	40.564235
1508.000000	40.619395
1509.000000	40.668028
1510.000000	40.725377
1511.000000	40.776148
1512.000000	40.832528
1513.000000	40.885777
1514.000000	40.933317
1515.000000	40.986387
1516.000000	41.033171
1517.000000	41.083625
1518.000000	41.131656
1519.000000	41.184688
1520.000000	41.230773
1521.000000	41.275460
1522.000000	41.320059
1523.000000	41.357343
1524.000000	41.407284
1525.000000	41.454484
1526.000000	41.487375
1527.000000	41.521380
1528.000000	41.565847
1529.000000	41.603239
1530.000000	41.636734
1531.000000	41.669420
1532.000000	41.703998
1533.000000	41.727885
1534.000000	41.745473
1535.000000	41.767048
1536.000000	41.791411
1537.000000	41.803244
1538.000000	41.817698
1539.000000	41.837416
1540.000000	41.847649
1541.000000	41.859885
1542.000000	41.875356
1543.000000	41.887644
1544.000000	41.905633
1545.000000	41.931139
1546.000000	41.960716
1547.000000	41.995115
1548.000000	42.035052
1549.000000	42.079776
1550.000000	42.117022
1551.000000	42.158273
1552.000000	42.197893
1553.000000	42.225747
1554.000000	42.251466
1555.000000	42.272950
1556.000000	42.284222
1557.000000	42.300621
1558.000000	42.312715
1559.000000	42.308402
1560.000000	42.295585
1561.000000	42.285707
1562.000000	42.266527
1563.000000	42.247178
1564.000000	42.221676
1565.000000	42.189728
1566.000000	42.161177
1567.000000	42.131541
1568.000000	42.095505
1569.000000	42.056039
1570.000000	42.025988
1571.000000	42.008346
1572.000000	41.982591
1573.000000	41.963343
1574.000000	41.957765
1575.000000	41.958761
1576.000000	41.947399
1577.000000	41.942317
1578.000000	41.944251
1579.000000	41.948432
1580.000000	41.968750
1581.000000	41.990867
1582.000000	42.009044
1583.000000	42.036535
1584.000000	42.066307
1585.000000	42.093143
1586.000000	42.133313
1587.000000	42.169559
1588.000000	42.197760
1589.000000	42.234094
1590.000000	42.277877
1591.000000	42.319379
1592.000000	42.359382
1593.000000	42.400062
1594.000000	42.445531
1595.000000	42.504203
1596.000000	42.557131
1597.000000	42.608093
1598.000000	42.663748
1599.000000	42.719591
1600.000000	42.779707
1601.000000	42.855788
1602.000000	42.921638
1603.000000	42.982815
1604.000000	43.056545
1605.000000	43.115839
1606.000000	43.169485
1607.000000	43.232436
1608.000000	43.294891
1609.000000	43.352987
1610.000000	43.408408
1611.000000	43.457729
1612.000000	43.510893
1613.000000	43.561040
1614.000000	43.599228
1615.000000	43.644765
1616.000000	43.691693
1617.000000	43.723168
1618.000000	43.765615
1619.000000	43.801520
1620.000000	43.837811
1621.000000	43.883247
1622.000000	43.928816
1623.000000	43.970168
1624.000000	44.010659
1625.000000	44.054914
1626.000000	44.111033
1627.000000	44.165022
1628.000000	44.224030
1629.000000	44.257257
1630.000000	44.300483
1631.000000	44.342104
1632.000000	44.380262
1633.000000	44.419094
1634.000000	44.461083
1635.000000	44.503273
1636.000000	44.543220
1637.000000	44.558100
1638.000000	44.600302
1639.000000	44.616784
1640.000000	44.637976
1641.000000	44.667644
1642.000000	44.703637
1643.000000	44.724810
1644.000000	44.755915
1645.000000	44.780991
1646.000000	44.798044
1647.000000	44.819294
1648.000000	44.843168
1649.000000	44.848503
1650.000000	44.850478
1651.000000	44.852555
1652.000000	44.854777
1653.000000	44.850178
1654.000000	44.824329
1655.000000	44.800948
1656.000000	44.767601
1657.000000	44.721373
1658.000000	44.677638
1659.000000	44.626935
1660.000000	44.561437
1661.000000	44.478327
1662.000000	44.397844
1663.000000	44.324365
1664.000000	44.211777
1665.000000	44.108128
1666.000000	43.983921
1667.000000	43.865069
1668.000000	43.690340
1669.000000	43.524442
1670.000000	43.345770
1671.000000	43.158242
1672.000000	42.955662
1673.000000	42.743659
1674.000000	42.524460
1675.000000	42.266118
1676.000000	42.004330
1677.000000	41.710979
1678.000000	41.374025
1679.000000	41.038517
1680.000000	40.692660
1681.000000	40.360584
1682.000000	40.057577
1683.000000	39.790780
1684.000000	39.603004
1685.000000	39.423650
1686.000000	39.303170
1687.000000	39.218590
1688.000000	39.148162
1689.000000	39.101508
1690.000000	39.057243
1691.000000	39.021963
1692.000000	38.984982
1693.000000	38.979257
1694.000000	38.969510
1695.000000	38.981903
1696.000000	38.995106
1697.000000	39.016501
1698.000000	39.050083
1699.000000	39.081321
1700.000000	39.134547
1701.000000	39.180407
1702.000000	39.214808
1703.000000	39.223234
1704.000000	39.227726
1705.000000	39.221513
1706.000000	39.203814
1707.000000	39.168279
1708.000000	39.123424
1709.000000	39.052226
1710.000000	38.979369
1711.000000	38.894070
1712.000000	38.788016
1713.000000	38.674663
1714.000000	38.526288
1715.000000	38.385387
1716.000000	38.226126
1717.000000	38.067819
1718.000000	37.907020
1719.000000	37.778836
1720.000000	37.647396
1721.000000	37.545824
1722.000000	37.455121
1723.000000	37.408245
1724.000000	37.384108
1725.000000	37.360133
1726.000000	37.352173
1727.000000	37.331168
1728.000000	37.322510
1729.000000	37.305738
1730.000000	37.292792
1731.000000	37.288449
1732.000000	37.269031
1733.000000	37.280018
1734.000000	37.311901
1735.000000	37.347977
1736.000000	37.411765
1737.000000	37.492778
1738.000000	37.590160
1739.000000	37.695829
1740.000000	37.827175
1741.000000	37.957291
1742.000000	38.087748
1743.000000	38.211419
1744.000000	38.319240
1745.000000	38.421134
1746.000000	38.503831
1747.000000	38.569692
1748.000000	38.637674
1749.000000	38.688111
1750.000000	38.724041
1751.000000	38.759631
1752.000000	38.777127
1753.000000	38.786468
1754.000000	38.787197
1755.000000	38.784980
1756.000000	38.767441
1757.000000	38.755870
1758.000000	38.727319
1759.000000	38.700027
1760.000000	38.679635
1761.000000	38.654158
1762.000000	38.635180
1763.000000	38.642628
1764.000000	38.656947
1765.000000	38.676085
1766.000000	38.709931
1767.000000	38.759247
1768.000000	38.823032
1769.000000	38.884357
1770.000000	38.943986
1771.000000	39.005009
1772.000000	39.080566
1773.000000	39.151490
1774.000000	39.213004
1775.000000	39.268837
1776.000000	39.331205
1777.000000	39.396876
1778.000000	39.446149
1779.000000	39.484274
1780.000000	39.517306
1781.000000	39.552426
1782.000000	39.589786
1783.000000	39.619361
1784.000000	39.642402
1785.000000	39.668634
1786.000000	39.690419
1787.000000	39.699252
1788.000000	39.705875
1789.000000	39.720755
1790.000000	39.732553
1791.000000	39.759185
1792.000000	39.778976
1793.000000	39.807962
1794.000000	39.827575
1795.000000	39.853634
1796.000000	39.877360
1797.000000	39.894178
1798.000000	39.910636
1799.000000	39.931199
1800.000000	39.967805
1801.000000	40.009679
1802.000000	40.019687
1803.000000	40.026203
1804.000000	40.054446
1805.000000	40.094660
1806.000000	40.127078
1807.000000	40.135456
1808.000000	40.152255
1809.000000	40.172078
1810.000000	40.204631
1811.000000	40.253549
1812.000000	40.259962
1813.000000	40.267276
1814.000000	40.279893
1815.000000	40.295176
1816.000000	40.288229
1817.000000	40.272449
1818.000000	40.292711
1819.000000	40.346458
1820.000000	40.385089
1821.000000	40.359612
1822.000000	40.306406
1823.000000	40.281083
1824.000000	40.314228
1825.000000	40.363740
1826.000000	40.406510
1827.000000	40.425835
1828.000000	40.478748
1829.000000	40.548874
1830.000000	40.589378
1831.000000	40.607215
1832.000000	40.633285
1833.000000	40.697307
1834.000000	40.791342
1835.000000	40.883067
1836.000000	40.932975
1837.000000	40.951079
1838.000000	40.966142
1839.000000	41.017098
1840.000000	41.076552
1841.000000	41.105506
1842.000000	41.075084
1843.000000	41.032268
1844.000000	41.058569
1845.000000	41.143737
1846.000000	41.245711
1847.000000	41.304364
1848.000000	41.288330
1849.000000	41.261793
1850.000000	41.248289
1851.000000	41.266855
1852.000000	41.282840
1853.000000	41.308081
1854.000000	41.321705
1855.000000	41.292328
1856.000000	41.282971
1857.000000	41.297968
1858.000000	41.282863
1859.000000	41.240139
1860.000000	41.185677
1861.000000	41.118928
1862.000000	41.033491
1863.000000	40.970303
1864.000000	40.936386
1865.000000	40.886665
1866.000000	40.828247
1867.000000	40.793723
1868.000000	40.703730
1869.000000	40.569798
1870.000000	40.402069
1871.000000	40.206430
1872.000000	39.989212
1873.000000	39.743658
1874.000000	39.473103
1875.000000	39.220351
1876.000000	38.958520
1877.000000	38.678338
1878.000000	38.380444
1879.000000	38.051046
1880.000000	37.737728
1881.000000	37.406147
1882.000000	37.048108
1883.000000	36.668051
1884.000000	36.258709
1885.000000	35.822543
1886.000000	35.405879
1887.000000	35.009596
1888.000000	34.631933
1889.000000	34.219201
1890.000000	33.820988
1891.000000	33.371127
1892.000000	32.887806
1893.000000	32.398697
1894.000000	31.949979
1895.000000	31.535098
1896.000000	31.177476
1897.000000	30.800247
1898.000000	30.364844
1899.000000	29.903640
1900.000000	29.404174
1901.000000	28.951040
1902.000000	28.566286
1903.000000	28.179682
1904.000000	27.805281
1905.000000	27.402797
1906.000000	26.973336
1907.000000	26.582022
1908.000000	26.236091
1909.000000	25.942322
1910.000000	25.703909
1911.000000	25.421354
1912.000000	25.142503
1913.000000	24.849822
1914.000000	24.538622
1915.000000	24.244365
1916.000000	24.023295
1917.000000	23.833870
1918.000000	23.632397
1919.000000	23.426976
1920.000000	23.254874
1921.000000	23.037551
1922.000000	22.833867
1923.000000	22.664648
1924.000000	22.547489
1925.000000	22.423144
1926.000000	22.293165
1927.000000	22.184061
1928.000000	22.082226
1929.000000	21.971591
1930.000000	21.902223
1931.000000	21.836281
1932.000000	21.772037
1933.000000	21.710123
1934.000000	21.675654
1935.000000	21.642697
1936.000000	21.623340
1937.000000	21.610362
1938.000000	21.619165
1939.000000	21.627398
1940.000000	21.642798
1941.000000	21.652785
1942.000000	21.676336
1943.000000	21.717320
1944.000000	21.759376
1945.000000	21.802687
1946.000000	21.861036
1947.000000	21.908092
1948.000000	21.980262
1949.000000	22.032659
1950.000000	22.092559
1951.000000	22.179962
1952.000000	22.239212
1953.000000	22.334672
1954.000000	22.404583
1955.000000	22.480652
1956.000000	22.560964
1957.000000	22.635588
1958.000000	22.730239
1959.000000	22.802771
1960.000000	22.882048
1961.000000	22.972092
1962.000000	23.050336
1963.000000	23.111653
1964.000000	23.213718
1965.000000	23.277161
1966.000000	23.349506
1967.000000	23.435972
1968.000000	23.500368
1969.000000	23.590250
1970.000000	23.653184
1971.000000	23.737959
1972.000000	23.816525
1973.000000	23.898090
1974.000000	23.972148
1975.000000	24.058733
1976.000000	24.128675
1977.000000	24.217672
1978.000000	24.304401
1979.000000	24.378492
1980.000000	24.464833
1981.000000	24.545518
1982.000000	24.627899
1983.000000	24.711936
1984.000000	24.792365
1985.000000	24.872836
1986.000000	24.942385
1987.000000	25.019996
1988.000000	25.103454
1989.000000	25.175666
1990.000000	25.244490
1991.000000	25.310655
1992.000000	25.385079
1993.000000	25.436341
1994.000000	25.512520
1995.000000	25.560632
1996.000000	25.613848
1997.000000	25.674020
1998.000000	25.727900
1999.000000	25.779044
2000.000000	25.818202
2001.000000	25.858202
2002.000000	25.900647
2003.000000	25.934820
2004.000000	25.960987
2005.000000	25.981804
2006.000000	26.005155
2007.000000	26.015641
2008.000000	26.013151
2009.000000	26.027238
2010.000000	26.026326
2011.000000	26.011152
2012.000000	26.010711
2013.000000	25.988169
2014.000000	25.962580
2015.000000	25.928761
2016.000000	25.897401
2017.000000	25.874895
2018.000000	25.831294
2019.000000	25.767062
2020.000000	25.730303
2021.000000	25.678649
2022.000000	25.635600
2023.000000	25.563551
2024.000000	25.491052
2025.000000	25.440516
2026.000000	25.368372
2027.000000	25.293131
2028.000000	25.200563
2029.000000	25.114476
2030.000000	25.034975
2031.000000	24.938566
2032.000000	24.835344
2033.000000	24.729729
2034.000000	24.614085
2035.000000	24.506640
2036.000000	24.379898
2037.000000	24.262806
2038.000000	24.126316
2039.000000	23.987046
2040.000000	23.859290
2041.000000	23.711181
2042.000000	23.566876
2043.000000	23.440881
2044.000000	23.297277
2045.000000	23.147868
2046.000000	23.017729
2047.000000	22.890515
2048.000000	22.777617
2049.000000	22.673710
2050.000000	22.598177
2051.000000	22.498159
2052.000000	22.443827
2053.000000	22.420348
2054.000000	22.390584
2055.000000	22.388094
2056.000000	22.397539
2057.000000	22.423054
2058.000000	22.460072
2059.000000	22.505874
2060.000000	22.558297
2061.000000	22.619143
2062.000000	22.696338
2063.000000	22.772536
2064.000000	22.854762
2065.000000	22.950664
2066.000000	23.039202
2067.000000	23.128156
2068.000000	23.213618
2069.000000	23.293379
2070.000000	23.373695
2071.000000	23.463165
2072.000000	23.548874
2073.000000	23.612979
2074.000000	23.673322
2075.000000	23.737108
2076.000000	23.798544
2077.000000	23.849291
2078.000000	23.895036
2079.000000	23.944503
2080.000000	23.987566
2081.000000	24.028789
2082.000000	24.058705
2083.000000	24.074530
2084.000000	24.090146
2085.000000	24.100472
2086.000000	24.106724
2087.000000	24.111426
2088.000000	24.110744
2089.000000	24.102055
2090.000000	24.098868
2091.000000	24.096441
2092.000000	24.084774
2093.000000	24.072782
2094.000000	24.071102
2095.000000	24.070126
2096.000000	24.069054
2097.000000	24.062939
2098.000000	24.048987
2099.000000	24.047782
2100.000000	24.061919
2101.000000	24.077874
2102.000000	24.072178
2103.000000	24.067150
2104.000000	24.066002
2105.000000	24.072727
2106.000000	24.087400
2107.000000	24.088594
2108.000000	24.091142
2109.000000	24.093124
2110.000000	24.089953
2111.000000	24.092300
2112.000000	24.085849
2113.000000	24.080519
2114.000000	24.081315
2115.000000	24.074370
2116.000000	24.070824
2117.000000	24.064771
2118.000000	24.045878
2119.000000	24.033825
2120.000000	24.018950
2121.000000	24.003894
2122.000000	23.983011
2123.000000	23.954463
2124.000000	23.933574
2125.000000	23.891283
2126.000000	23.852265
2127.000000	23.833294
2128.000000	23.796604
2129.000000	23.748605
2130.000000	23.702679
2131.000000	23.658912
2132.000000	23.601138
2133.000000	23.541089
2134.000000	23.480467
2135.000000	23.426919
2136.000000	23.369348
2137.000000	23.293054
2138.000000	23.217563
2139.000000	23.139735
2140.000000	23.063225
2141.000000	22.986681
2142.000000	22.913195
2143.000000	22.829211
2144.000000	22.751613
2145.000000	22.668105
2146.000000	22.583741
2147.000000	22.496028
2148.000000	22.410278
2149.000000	22.326330
2150.000000	22.251841
2151.000000	22.167107
2152.000000	22.080145
2153.000000	22.003178
2154.000000	21.924603
2155.000000	21.841374
2156.000000	21.762538
2157.000000	21.693605
2158.000000	21.614468
2159.000000	21.551575
2160.000000	21.483616
2161.000000	21.426850
2162.000000	21.378583
2163.000000	21.317189
2164.000000	21.276940
2165.000000	21.240909
2166.000000	21.205498
2167.000000	21.164913
2168.000000	21.139830
2169.000000	21.119118
2170.000000	21.084793
2171.000000	21.070813
2172.000000	21.056324
2173.000000	21.047681
2174.000000	21.041317
2175.000000	21.034400
2176.000000	21.032779
2177.000000	21.028953
2178.000000	21.047481
2179.000000	21.050981
2180.000000	21.071304
2181.000000	21.078492
2182.000000	21.093351
2183.000000	21.104831
2184.000000	21.122491
2185.000000	21.138733
2186.000000	21.149844
2187.000000	21.155252
2188.000000	21.177538
2189.000000	21.196519
2190.000000	21.214713
2191.000000	21.222591
2192.000000	21.235387
2193.000000	21.250126
2194.000000	21.274446
2195.000000	21.290588
2196.000000	21.307369
2197.000000	21.324713
2198.000000	21.334300
2199.000000	21.349864
2200.000000	21.388794
2201.000000	21.409406
2202.000000	21.444327
2203.000000	21.480810
2204.000000	21.519716
2205.000000	21.540897
2206.000000	21.570609
2207.000000	21.601167
2208.000000	21.640987
2209.000000	21.678170
2210.000000	21.735519
2211.000000	21.783026
2212.000000	21.828775
2213.000000	21.888039
2214.000000	21.949803
2215.000000	22.015292
2216.000000	22.085974
2217.000000	22.141016
2218.000000	22.201399
2219.000000	22.261387
2220.000000	22.314270
2221.000000	22.384995
2222.000000	22.446610
2223.000000	22.488014
2224.000000	22.539495
2225.000000	22.577634
2226.000000	22.616987
2227.000000	22.656125
2228.000000	22.692907
2229.000000	22.713087
2230.000000	22.726688
2231.000000	22.732788
2232.000000	22.741146
2233.000000	22.742754
2234.000000	22.742989
2235.000000	22.712534
2236.000000	22.678161
2237.000000	22.644052
2238.000000	22.607203
2239.000000	22.565721
2240.000000	22.497790
2241.000000	22.422895
2242.000000	22.334627
2243.000000	22.249509
2244.000000	22.156699
2245.000000	22.054215
2246.000000	21.938030
2247.000000	21.801180
2248.000000	21.674353
2249.000000	21.534750
2250.000000	21.380946
2251.000000	21.220078
2252.000000	21.050816
2253.000000	20.890424
2254.000000	20.719690
2255.000000	20.547655
2256.000000	20.380473
2257.000000	20.211280
2258.000000	20.045739
2259.000000	19.900170
2260.000000	19.740582
2261.000000	19.595429
2262.000000	19.478491
2263.000000	19.364630
2264.000000	19.258337
2265.000000	19.163585
2266.000000	19.076609
2267.000000	19.018601
2268.000000	18.961572
2269.000000	18.911622
2270.000000	18.858830
2271.000000	18.827356
2272.000000	18.792194
2273.000000	18.771102
2274.000000	18.749124
2275.000000	18.731501
2276.000000	18.726334
2277.000000	18.708265
2278.000000	18.683687
2279.000000	18.673858
2280.000000	18.666357
2281.000000	18.654767
2282.000000	18.622919
2283.000000	18.613695
2284.000000	18.606153
2285.000000	18.581528
2286.000000	18.541232
2287.000000	18.538224
2288.000000	18.507591
2289.000000	18.484114
2290.000000	18.448522
2291.000000	18.430942
2292.000000	18.406485
2293.000000	18.379954
2294.000000	18.348981
2295.000000	18.329968
2296.000000	18.310880
2297.000000	18.271145
2298.000000	18.249664
2299.000000	18.234244
2300.000000	18.212041
2301.000000	18.199306
2302.000000	18.197040
2303.000000	18.198328
2304.000000	18.201094
2305.000000	18.210447
2306.000000	18.222491
2307.000000	18.254816
2308.000000	18.270025
2309.000000	18.290849
2310.000000	18.336100
2311.000000	18.380882
2312.000000	18.423921
2313.000000	18.471138
2314.000000	18.504371
2315.000000	18.544028
2316.000000	18.582262
2317.000000	18.614498
2318.000000	18.651688
2319.000000	18.680415
2320.000000	18.695705
2321.000000	18.720963
2322.000000	18.753634
2323.000000	18.760824
2324.000000	18.752737
2325.000000	18.760301
2326.000000	18.769081
2327.000000	18.766413
2328.000000	18.757109
2329.000000	18.730165
2330.000000	18.715031
2331.000000	18.729957
2332.000000	18.737487
2333.000000	18.724627
2334.000000	18.706041
2335.000000	18.698053
2336.000000	18.699961
2337.000000	18.704157
2338.000000	18.701871
2339.000000	18.684616
2340.000000	18.669720
2341.000000	18.672355
2342.000000	18.684000
2343.000000	18.686517
2344.000000	18.662381
2345.000000	18.641821
2346.000000	18.630432
2347.000000	18.632294
2348.000000	18.640869
2349.000000	18.639351
2350.000000	18.624537
2351.000000	18.628262
2352.000000	18.641500
2353.000000	18.642588
2354.000000	18.654692
2355.000000	18.670874
2356.000000	18.686145
2357.000000	18.693345
2358.000000	18.705097
2359.000000	18.730766
2360.000000	18.749193
2361.000000	18.768192
2362.000000	18.782008
2363.000000	18.791062
2364.000000	18.809289
2365.000000	18.827616
2366.000000	18.838820
2367.000000	18.848076
2368.000000	18.865827
2369.000000	18.878559
2370.000000	18.886838
2371.000000	18.893874
2372.000000	18.899480
2373.000000	18.915598
2374.000000	18.942827
2375.000000	18.958883
2376.000000	18.972714
2377.000000	18.984485
2378.000000	18.997259
2379.000000	19.002720
2380.000000	19.009630
2381.000000	19.028832
2382.000000	19.020954
2383.000000	19.021245
2384.000000	19.030892
2385.000000	19.036241
2386.000000	19.025302
2387.000000	19.016119
2388.000000	19.016257
2389.000000	19.001072
2390.000000	18.989358
2391.000000	18.968640
2392.000000	18.949132
2393.000000	18.936823
2394.000000	18.913242
2395.000000	18.886531
2396.000000	18.866429
2397.000000	18.844134
2398.000000	18.811772
2399.000000	18.777119
2400.000000	18.751966
2401.000000	18.738229
2402.000000	18.694724
2403.000000	18.650757
2404.000000	18.623956
2405.000000	18.590604
2406.000000	18.561116
2407.000000	18.516509
2408.000000	18.460827
2409.000000	18.425600
2410.000000	18.384616
2411.000000	18.338475
2412.000000	18.286806
2413.000000	18.237410
2414.000000	18.179087
2415.000000	18.127512
2416.000000	18.070716
2417.000000	18.003416
2418.000000	17.943505
2419.000000	17.885044
2420.000000	17.829507
2421.000000	17.755171
2422.000000	17.663730
2423.000000	17.576228
2424.000000	17.486923
2425.000000	17.414286
2426.000000	17.344088
2427.000000	17.273181
2428.000000	17.206234
2429.000000	17.129978
2430.000000	17.067319
2431.000000	16.997315
2432.000000	16.919245
2433.000000	16.834357
2434.000000	16.760361
2435.000000	16.684736
2436.000000	16.599395
2437.000000	16.519745
2438.000000	16.431551
2439.000000	16.328263
2440.000000	16.243357
2441.000000	16.160682
2442.000000	16.071606
2443.000000	15.985676
2444.000000	15.893625
2445.000000	15.790944
2446.000000	15.705694
2447.000000	15.625340
2448.000000	15.530808
2449.000000	15.450268
2450.000000	15.362180
2451.000000	15.249133
2452.000000	15.181903
2453.000000	15.103261
2454.000000	15.022806
2455.000000	14.964369
2456.000000	14.895883
2457.000000	14.807213
2458.000000	14.736185
2459.000000	14.687300
2460.000000	14.644908
2461.000000	14.593386
2462.000000	14.539679
2463.000000	14.499166
2464.000000	14.428002
2465.000000	14.399723
2466.000000	14.357951
2467.000000	14.344937
2468.000000	14.282660
2469.000000	14.282974
2470.000000	14.228822
2471.000000	14.231723
2472.000000	14.194786
2473.000000	14.149317
2474.000000	14.128042
2475.000000	14.093235
2476.000000	14.075930
2477.000000	14.090400
2478.000000	14.051829
2479.000000	14.042917
2480.000000	14.048449
2481.000000	14.049634
2482.000000	14.023751
2483.000000	14.043583
2484.000000	14.027017
2485.000000	14.032828
2486.000000	14.032092
2487.000000	13.974342
2488.000000	14.039955
2489.000000	14.008157
2490.000000	14.041077
2491.000000	14.063089
2492.000000	14.034664
2493.000000	14.064805
2494.000000	14.090094
2495.000000	14.076886
2496.000000	14.161969
2497.000000	14.154546
2498.000000	14.153861
2499.000000	14.170312
2500.000000	14.222743
