PE UV       SUBTECH     SPECTRUM    ASCII       PEDS        4.00        
   -1
CICIMAUCR0250-3.Sample.ASC
24/05/27
16:50:50.00
24/05/27
16:50:50.00
Vinicio Soto Monge
C. resplendens, M
250,000000
1
Lambda 1050
1050L1511233
PerkinElmer UV WinLab 6.3.2.0749 / 2.02.05 Lambda 900 UV/VIS/NIR, Aug  7 2015 09:38:08

0
0
3350/servo 860,8/2
0
0
UV/VIS
1
1
1
DoubleDePol,CommonBeamDepol,RBeamAtt,SBeamAtt,60mm sphere, WB InGaAs Detector
0
0
0
0
Program
Program
3350/servo 860,8/2
3350/0,2 860,8/0,2
3350/0,2 860,8/0,2
0
15.00
 
 
 
0
 
860,8
319,2
860,8
Front
100
on
S:100 R:100
0
0
0
0
 
0
 
 
 
0
 
 
0
0
0
0
0
 
 
 
 
0
0


0
0
#HDR
-1
-1
#GR
nm
%R
1.0
0.0
2500,000000
-1,000000
2251
8
89,705100
5,547200
#DATA
250.000000	6.119145
251.000000	6.088903
252.000000	6.061375
253.000000	6.074531
254.000000	6.061486
255.000000	6.043790
256.000000	6.029283
257.000000	6.005233
258.000000	5.985305
259.000000	5.984871
260.000000	5.965419
261.000000	5.945135
262.000000	5.917324
263.000000	5.904697
264.000000	5.897107
265.000000	5.853842
266.000000	5.824872
267.000000	5.817596
268.000000	5.789985
269.000000	5.765568
270.000000	5.773981
271.000000	5.764697
272.000000	5.740712
273.000000	5.735132
274.000000	5.719806
275.000000	5.726130
276.000000	5.717922
277.000000	5.693515
278.000000	5.694469
279.000000	5.686582
280.000000	5.689785
281.000000	5.674492
282.000000	5.669143
283.000000	5.656780
284.000000	5.634225
285.000000	5.633167
286.000000	5.629482
287.000000	5.598206
288.000000	5.610492
289.000000	5.606509
290.000000	5.584003
291.000000	5.594693
292.000000	5.582247
293.000000	5.562841
294.000000	5.556891
295.000000	5.556967
296.000000	5.547732
297.000000	5.536398
298.000000	5.532565
299.000000	5.504628
300.000000	5.509352
301.000000	5.525907
302.000000	5.508124
303.000000	5.498291
304.000000	5.482295
305.000000	5.466683
306.000000	5.473689
307.000000	5.479132
308.000000	5.469421
309.000000	5.457489
310.000000	5.463088
311.000000	5.481745
312.000000	5.464570
313.000000	5.437304
314.000000	5.447946
315.000000	5.462999
316.000000	5.548886
317.000000	5.659415
318.000000	5.664268
319.000000	5.694718
320.000000	5.728464
321.000000	5.645488
322.000000	5.620974
323.000000	5.676760
324.000000	5.649352
325.000000	5.632075
326.000000	5.573166
327.000000	5.524553
328.000000	5.541717
329.000000	5.624694
330.000000	5.661825
331.000000	5.584182
332.000000	5.592165
333.000000	5.579870
334.000000	5.536533
335.000000	5.552281
336.000000	5.550025
337.000000	5.613116
338.000000	5.634610
339.000000	5.607935
340.000000	5.650273
341.000000	5.631727
342.000000	5.652837
343.000000	5.673516
344.000000	5.602084
345.000000	5.567388
346.000000	5.591693
347.000000	5.669557
348.000000	5.724637
349.000000	5.702718
350.000000	5.699813
351.000000	5.654093
352.000000	5.684279
353.000000	5.723074
354.000000	5.747050
355.000000	5.822814
356.000000	5.835531
357.000000	5.841968
358.000000	5.871127
359.000000	5.939044
360.000000	5.963765
361.000000	5.978325
362.000000	6.014181
363.000000	6.033024
364.000000	6.064031
365.000000	6.090260
366.000000	6.160880
367.000000	6.217415
368.000000	6.181268
369.000000	6.198417
370.000000	6.272989
371.000000	6.285939
372.000000	6.255786
373.000000	6.249578
374.000000	6.335060
375.000000	6.417902
376.000000	6.458946
377.000000	6.499497
378.000000	6.539387
379.000000	6.582949
380.000000	6.639777
381.000000	6.695771
382.000000	6.754811
383.000000	6.816378
384.000000	6.886277
385.000000	6.964598
386.000000	7.032285
387.000000	7.099987
388.000000	7.181167
389.000000	7.273157
390.000000	7.365291
391.000000	7.470964
392.000000	7.581484
393.000000	7.693382
394.000000	7.810555
395.000000	7.934067
396.000000	8.077752
397.000000	8.218463
398.000000	8.381341
399.000000	8.550112
400.000000	8.747322
401.000000	8.939754
402.000000	9.147156
403.000000	9.389400
404.000000	9.621940
405.000000	9.887322
406.000000	10.148053
407.000000	10.415155
408.000000	10.721666
409.000000	11.031460
410.000000	11.351877
411.000000	11.698397
412.000000	12.052322
413.000000	12.413722
414.000000	12.787595
415.000000	13.178723
416.000000	13.579642
417.000000	13.989876
418.000000	14.391582
419.000000	14.798380
420.000000	15.224108
421.000000	15.636502
422.000000	16.067222
423.000000	16.478133
424.000000	16.916059
425.000000	17.337079
426.000000	17.777893
427.000000	18.186266
428.000000	18.579722
429.000000	18.989743
430.000000	19.404598
431.000000	19.774213
432.000000	20.169349
433.000000	20.567799
434.000000	20.928650
435.000000	21.309867
436.000000	21.641674
437.000000	21.978705
438.000000	22.330963
439.000000	22.649601
440.000000	22.959398
441.000000	23.266514
442.000000	23.548764
443.000000	23.860098
444.000000	24.104422
445.000000	24.351263
446.000000	24.574408
447.000000	24.828862
448.000000	25.035771
449.000000	25.233741
450.000000	25.434676
451.000000	25.606425
452.000000	25.778327
453.000000	25.925418
454.000000	26.050893
455.000000	26.173552
456.000000	26.285088
457.000000	26.374623
458.000000	26.482961
459.000000	26.548049
460.000000	26.595798
461.000000	26.663431
462.000000	26.691143
463.000000	26.698391
464.000000	26.736290
465.000000	26.746789
466.000000	26.732997
467.000000	26.727622
468.000000	26.704687
469.000000	26.698261
470.000000	26.653946
471.000000	26.621183
472.000000	26.596796
473.000000	26.567249
474.000000	26.546063
475.000000	26.517681
476.000000	26.503194
477.000000	26.502194
478.000000	26.512946
479.000000	26.536274
480.000000	26.558169
481.000000	26.620318
482.000000	26.692448
483.000000	26.793076
484.000000	26.898965
485.000000	27.050177
486.000000	27.215731
487.000000	27.392454
488.000000	27.583186
489.000000	27.813934
490.000000	28.089932
491.000000	28.376198
492.000000	28.668083
493.000000	29.020927
494.000000	29.343626
495.000000	29.719807
496.000000	30.124136
497.000000	30.525899
498.000000	30.952228
499.000000	31.418999
500.000000	31.879035
501.000000	32.354774
502.000000	32.860888
503.000000	33.366644
504.000000	33.851990
505.000000	34.388059
506.000000	34.927100
507.000000	35.481158
508.000000	36.053585
509.000000	36.663530
510.000000	37.305135
511.000000	37.981434
512.000000	38.703708
513.000000	39.457126
514.000000	40.255937
515.000000	41.071119
516.000000	41.916357
517.000000	42.828014
518.000000	43.768925
519.000000	44.742663
520.000000	45.772845
521.000000	46.820486
522.000000	47.924588
523.000000	49.046731
524.000000	50.205056
525.000000	51.382740
526.000000	52.560927
527.000000	53.760853
528.000000	54.954347
529.000000	56.160543
530.000000	57.383215
531.000000	58.594003
532.000000	59.789825
533.000000	60.978728
534.000000	62.143172
535.000000	63.277255
536.000000	64.379348
537.000000	65.428700
538.000000	66.444740
539.000000	67.412776
540.000000	68.371014
541.000000	69.274848
542.000000	70.166045
543.000000	71.008217
544.000000	71.811578
545.000000	72.587637
546.000000	73.301176
547.000000	74.005907
548.000000	74.654825
549.000000	75.283681
550.000000	75.924115
551.000000	76.501449
552.000000	77.047912
553.000000	77.584487
554.000000	78.128570
555.000000	78.618378
556.000000	79.061280
557.000000	79.512253
558.000000	79.927583
559.000000	80.322968
560.000000	80.717659
561.000000	81.077373
562.000000	81.418954
563.000000	81.765163
564.000000	82.084004
565.000000	82.412378
566.000000	82.689718
567.000000	82.988530
568.000000	83.264762
569.000000	83.517454
570.000000	83.767699
571.000000	84.028082
572.000000	84.254314
573.000000	84.493922
574.000000	84.703982
575.000000	84.898633
576.000000	85.058650
577.000000	85.240793
578.000000	85.394907
579.000000	85.524567
580.000000	85.654284
581.000000	85.730383
582.000000	85.842351
583.000000	85.882014
584.000000	85.907143
585.000000	85.935377
586.000000	85.964536
587.000000	85.949476
588.000000	85.900868
589.000000	85.885693
590.000000	85.831527
591.000000	85.742787
592.000000	85.652546
593.000000	85.544963
594.000000	85.423691
595.000000	85.280057
596.000000	85.108480
597.000000	84.943911
598.000000	84.732852
599.000000	84.524231
600.000000	84.312077
601.000000	84.058298
602.000000	83.807897
603.000000	83.526852
604.000000	83.222235
605.000000	82.899102
606.000000	82.551087
607.000000	82.191239
608.000000	81.761724
609.000000	81.318385
610.000000	80.863567
611.000000	80.344868
612.000000	79.769696
613.000000	79.159028
614.000000	78.527528
615.000000	77.851999
616.000000	77.144659
617.000000	76.418105
618.000000	75.622238
619.000000	74.811014
620.000000	73.996454
621.000000	73.132358
622.000000	72.231067
623.000000	71.294784
624.000000	70.336707
625.000000	69.335701
626.000000	68.319081
627.000000	67.288759
628.000000	66.210798
629.000000	65.104811
630.000000	63.984704
631.000000	62.850991
632.000000	61.739967
633.000000	60.619258
634.000000	59.539068
635.000000	58.513657
636.000000	57.531372
637.000000	56.625929
638.000000	55.796267
639.000000	55.039362
640.000000	54.396413
641.000000	53.865620
642.000000	53.445249
643.000000	53.154744
644.000000	52.982368
645.000000	52.920654
646.000000	52.971411
647.000000	53.149161
648.000000	53.447868
649.000000	53.824304
650.000000	54.318380
651.000000	54.907728
652.000000	55.590909
653.000000	56.363916
654.000000	57.160684
655.000000	57.967273
656.000000	58.794327
657.000000	59.677849
658.000000	60.550371
659.000000	61.393864
660.000000	62.260412
661.000000	63.148163
662.000000	64.013915
663.000000	64.840005
664.000000	65.630917
665.000000	66.410040
666.000000	67.156478
667.000000	67.906682
668.000000	68.608964
669.000000	69.258999
670.000000	69.889252
671.000000	70.519725
672.000000	71.130227
673.000000	71.711669
674.000000	72.263839
675.000000	72.774487
676.000000	73.243276
677.000000	73.693460
678.000000	74.123153
679.000000	74.528030
680.000000	74.876034
681.000000	75.202196
682.000000	75.486337
683.000000	75.764448
684.000000	76.029710
685.000000	76.250831
686.000000	76.401631
687.000000	76.596029
688.000000	76.732390
689.000000	76.839820
690.000000	76.956508
691.000000	77.073349
692.000000	77.140688
693.000000	77.186472
694.000000	77.237716
695.000000	77.269165
696.000000	77.320911
697.000000	77.398264
698.000000	77.477872
699.000000	77.532496
700.000000	77.583030
701.000000	77.668237
702.000000	77.777396
703.000000	77.927455
704.000000	78.072276
705.000000	78.270877
706.000000	78.437282
707.000000	78.647105
708.000000	78.912902
709.000000	79.155889
710.000000	79.440870
711.000000	79.756535
712.000000	80.060613
713.000000	80.430356
714.000000	80.761822
715.000000	81.111700
716.000000	81.557332
717.000000	81.877178
718.000000	82.248096
719.000000	82.640363
720.000000	83.022123
721.000000	83.401248
722.000000	83.785921
723.000000	84.162460
724.000000	84.538764
725.000000	84.908519
726.000000	85.205658
727.000000	85.579216
728.000000	85.931212
729.000000	86.193001
730.000000	86.466116
731.000000	86.759437
732.000000	87.050858
733.000000	87.280616
734.000000	87.536462
735.000000	87.733459
736.000000	87.958656
737.000000	88.091650
738.000000	88.313918
739.000000	88.512637
740.000000	88.651811
741.000000	88.808874
742.000000	88.953156
743.000000	89.027471
744.000000	89.064221
745.000000	89.240509
746.000000	89.282638
747.000000	89.398599
748.000000	89.455738
749.000000	89.522839
750.000000	89.567462
751.000000	89.652297
752.000000	89.719829
753.000000	89.702798
754.000000	89.801344
755.000000	89.910856
756.000000	89.878871
757.000000	89.863363
758.000000	89.827647
759.000000	89.829173
760.000000	89.884590
761.000000	89.896533
762.000000	89.887917
763.000000	89.940044
764.000000	89.832370
765.000000	89.682914
766.000000	89.646078
767.000000	89.569293
768.000000	89.437788
769.000000	89.404173
770.000000	89.322574
771.000000	89.128536
772.000000	89.024131
773.000000	88.888432
774.000000	88.765177
775.000000	88.685758
776.000000	88.508672
777.000000	88.286338
778.000000	88.161598
779.000000	88.176873
780.000000	87.981137
781.000000	87.816863
782.000000	87.699065
783.000000	87.623487
784.000000	87.414082
785.000000	87.344118
786.000000	87.222627
787.000000	87.215721
788.000000	87.119614
789.000000	87.081434
790.000000	86.830639
791.000000	86.838635
792.000000	86.566439
793.000000	86.401369
794.000000	86.309891
795.000000	86.256631
796.000000	86.055471
797.000000	85.858758
798.000000	85.701042
799.000000	85.383202
800.000000	85.129483
801.000000	84.703247
802.000000	84.490684
803.000000	84.243363
804.000000	83.941274
805.000000	83.479575
806.000000	83.159445
807.000000	82.861076
808.000000	82.413694
809.000000	82.044432
810.000000	81.552538
811.000000	81.184252
812.000000	80.790000
813.000000	80.284317
814.000000	79.950142
815.000000	79.535638
816.000000	79.164988
817.000000	78.736715
818.000000	78.327605
819.000000	78.030972
820.000000	77.519722
821.000000	77.114880
822.000000	76.777491
823.000000	76.478231
824.000000	76.066499
825.000000	75.781511
826.000000	75.590487
827.000000	75.359682
828.000000	74.998866
829.000000	74.925952
830.000000	74.552090
831.000000	74.312888
832.000000	74.044539
833.000000	74.078473
834.000000	73.802956
835.000000	73.761148
836.000000	73.605549
837.000000	73.530582
838.000000	73.313703
839.000000	73.246333
840.000000	73.308554
841.000000	73.160490
842.000000	72.974957
843.000000	72.993334
844.000000	72.748815
845.000000	72.615795
846.000000	72.869364
847.000000	72.804795
848.000000	72.600548
849.000000	72.341265
850.000000	72.388969
851.000000	72.424660
852.000000	72.220624
853.000000	72.232398
854.000000	72.125834
855.000000	71.800241
856.000000	71.593693
857.000000	71.441480
858.000000	71.625667
859.000000	71.492333
860.000000	71.363133
861.000000	71.239133
862.000000	71.103567
863.000000	70.963800
864.000000	70.840300
865.000000	70.709233
866.000000	70.582533
867.000000	70.436433
868.000000	70.334267
869.000000	70.230033
870.000000	70.176100
871.000000	70.170367
872.000000	70.205767
873.000000	70.260400
874.000000	70.336300
875.000000	70.373067
876.000000	70.376200
877.000000	70.363633
878.000000	70.339900
879.000000	70.313000
880.000000	70.271300
881.000000	70.236800
882.000000	70.182267
883.000000	70.147033
884.000000	70.091100
885.000000	70.040767
886.000000	69.991300
887.000000	69.930533
888.000000	69.869133
889.000000	69.807800
890.000000	69.754400
891.000000	69.690333
892.000000	69.612700
893.000000	69.537467
894.000000	69.439300
895.000000	69.353533
896.000000	69.254667
897.000000	69.146300
898.000000	69.027833
899.000000	68.907467
900.000000	68.785400
901.000000	68.654867
902.000000	68.523267
903.000000	68.391333
904.000000	68.261133
905.000000	68.129033
906.000000	68.008533
907.000000	67.879233
908.000000	67.748233
909.000000	67.622067
910.000000	67.505300
911.000000	67.386433
912.000000	67.277367
913.000000	67.154567
914.000000	67.023333
915.000000	66.905033
916.000000	66.794233
917.000000	66.674700
918.000000	66.562467
919.000000	66.444400
920.000000	66.324367
921.000000	66.203600
922.000000	66.081933
923.000000	65.951633
924.000000	65.818633
925.000000	65.691900
926.000000	65.565700
927.000000	65.446400
928.000000	65.324533
929.000000	65.179467
930.000000	65.050200
931.000000	64.920367
932.000000	64.783800
933.000000	64.647967
934.000000	64.505400
935.000000	64.368233
936.000000	64.234067
937.000000	64.087500
938.000000	63.951033
939.000000	63.817800
940.000000	63.683833
941.000000	63.543633
942.000000	63.401900
943.000000	63.266533
944.000000	63.123333
945.000000	62.972433
946.000000	62.822200
947.000000	62.670300
948.000000	62.519800
949.000000	62.369500
950.000000	62.216400
951.000000	62.059267
952.000000	61.901700
953.000000	61.747300
954.000000	61.600200
955.000000	61.454200
956.000000	61.311667
957.000000	61.164433
958.000000	61.014433
959.000000	60.873000
960.000000	60.736500
961.000000	60.597633
962.000000	60.460333
963.000000	60.330367
964.000000	60.202133
965.000000	60.084400
966.000000	59.965767
967.000000	59.841533
968.000000	59.731700
969.000000	59.621333
970.000000	59.513300
971.000000	59.405233
972.000000	59.287033
973.000000	59.187500
974.000000	59.085267
975.000000	58.983700
976.000000	58.877333
977.000000	58.770333
978.000000	58.679133
979.000000	58.585133
980.000000	58.486833
981.000000	58.396033
982.000000	58.312000
983.000000	58.223967
984.000000	58.136433
985.000000	58.057967
986.000000	57.974367
987.000000	57.898733
988.000000	57.823100
989.000000	57.752533
990.000000	57.686767
991.000000	57.628633
992.000000	57.565267
993.000000	57.510067
994.000000	57.461133
995.000000	57.409533
996.000000	57.363567
997.000000	57.325933
998.000000	57.277267
999.000000	57.245633
1000.000000	57.216767
1001.000000	57.188333
1002.000000	57.162600
1003.000000	57.129567
1004.000000	57.098900
1005.000000	57.080700
1006.000000	57.043933
1007.000000	57.020567
1008.000000	57.005700
1009.000000	56.999033
1010.000000	56.974133
1011.000000	56.972167
1012.000000	56.970900
1013.000000	56.984367
1014.000000	56.986833
1015.000000	57.015667
1016.000000	57.036633
1017.000000	57.057767
1018.000000	57.088000
1019.000000	57.124000
1020.000000	57.163133
1021.000000	57.202233
1022.000000	57.241700
1023.000000	57.289967
1024.000000	57.337100
1025.000000	57.378633
1026.000000	57.424533
1027.000000	57.475133
1028.000000	57.519533
1029.000000	57.564200
1030.000000	57.595300
1031.000000	57.643300
1032.000000	57.675867
1033.000000	57.719233
1034.000000	57.758400
1035.000000	57.806900
1036.000000	57.834800
1037.000000	57.879500
1038.000000	57.917333
1039.000000	57.950667
1040.000000	57.989333
1041.000000	58.029067
1042.000000	58.059000
1043.000000	58.102967
1044.000000	58.141233
1045.000000	58.184167
1046.000000	58.223600
1047.000000	58.266033
1048.000000	58.310033
1049.000000	58.353933
1050.000000	58.398033
1051.000000	58.451167
1052.000000	58.510167
1053.000000	58.559533
1054.000000	58.616667
1055.000000	58.672333
1056.000000	58.728800
1057.000000	58.787033
1058.000000	58.851067
1059.000000	58.900433
1060.000000	58.951833
1061.000000	59.013933
1062.000000	59.064500
1063.000000	59.108400
1064.000000	59.164200
1065.000000	59.210900
1066.000000	59.260867
1067.000000	59.301933
1068.000000	59.354100
1069.000000	59.403967
1070.000000	59.448500
1071.000000	59.499400
1072.000000	59.540900
1073.000000	59.580833
1074.000000	59.630300
1075.000000	59.680133
1076.000000	59.726600
1077.000000	59.760000
1078.000000	59.814867
1079.000000	59.859333
1080.000000	59.900433
1081.000000	59.952800
1082.000000	59.984333
1083.000000	60.039100
1084.000000	60.078633
1085.000000	60.122067
1086.000000	60.159100
1087.000000	60.211133
1088.000000	60.254000
1089.000000	60.287400
1090.000000	60.328733
1091.000000	60.360700
1092.000000	60.390867
1093.000000	60.436600
1094.000000	60.458000
1095.000000	60.497267
1096.000000	60.509033
1097.000000	60.536200
1098.000000	60.559467
1099.000000	60.579267
1100.000000	60.590033
1101.000000	60.602933
1102.000000	60.641833
1103.000000	60.636667
1104.000000	60.647500
1105.000000	60.654333
1106.000000	60.662867
1107.000000	60.675900
1108.000000	60.685700
1109.000000	60.698467
1110.000000	60.706867
1111.000000	60.711667
1112.000000	60.713900
1113.000000	60.719900
1114.000000	60.722367
1115.000000	60.721000
1116.000000	60.727767
1117.000000	60.715767
1118.000000	60.688967
1119.000000	60.664000
1120.000000	60.610400
1121.000000	60.566833
1122.000000	60.506300
1123.000000	60.416700
1124.000000	60.329967
1125.000000	60.226000
1126.000000	60.097667
1127.000000	59.942267
1128.000000	59.760567
1129.000000	59.521833
1130.000000	59.254000
1131.000000	58.961667
1132.000000	58.629933
1133.000000	58.311833
1134.000000	57.936200
1135.000000	57.529300
1136.000000	57.133200
1137.000000	56.753500
1138.000000	56.381833
1139.000000	56.036833
1140.000000	55.702067
1141.000000	55.370167
1142.000000	55.054767
1143.000000	54.773333
1144.000000	54.544433
1145.000000	54.345333
1146.000000	54.200500
1147.000000	54.107300
1148.000000	54.040467
1149.000000	53.992600
1150.000000	53.931500
1151.000000	53.861267
1152.000000	53.767233
1153.000000	53.641867
1154.000000	53.454700
1155.000000	53.236533
1156.000000	52.978600
1157.000000	52.699833
1158.000000	52.390300
1159.000000	52.073200
1160.000000	51.742167
1161.000000	51.421467
1162.000000	51.068400
1163.000000	50.731100
1164.000000	50.399767
1165.000000	50.073767
1166.000000	49.753267
1167.000000	49.428967
1168.000000	49.114533
1169.000000	48.817133
1170.000000	48.516633
1171.000000	48.229367
1172.000000	47.942233
1173.000000	47.666333
1174.000000	47.387500
1175.000000	47.112633
1176.000000	46.804133
1177.000000	46.457733
1178.000000	46.071567
1179.000000	45.641000
1180.000000	45.199367
1181.000000	44.778167
1182.000000	44.409633
1183.000000	44.133733
1184.000000	43.972067
1185.000000	43.911900
1186.000000	43.958367
1187.000000	44.116467
1188.000000	44.375000
1189.000000	44.696667
1190.000000	45.057600
1191.000000	45.438333
1192.000000	45.791600
1193.000000	46.096600
1194.000000	46.355333
1195.000000	46.560933
1196.000000	46.711967
1197.000000	46.832333
1198.000000	46.918033
1199.000000	46.976767
1200.000000	47.026733
1201.000000	47.061467
1202.000000	47.096700
1203.000000	47.137000
1204.000000	47.176033
1205.000000	47.225167
1206.000000	47.300533
1207.000000	47.385367
1208.000000	47.471667
1209.000000	47.566200
1210.000000	47.669633
1211.000000	47.789400
1212.000000	47.901333
1213.000000	48.013133
1214.000000	48.139900
1215.000000	48.269433
1216.000000	48.400233
1217.000000	48.539533
1218.000000	48.674633
1219.000000	48.821800
1220.000000	48.975700
1221.000000	49.131700
1222.000000	49.294367
1223.000000	49.457333
1224.000000	49.619600
1225.000000	49.788300
1226.000000	49.948900
1227.000000	50.104467
1228.000000	50.271900
1229.000000	50.429033
1230.000000	50.579867
1231.000000	50.734433
1232.000000	50.884400
1233.000000	51.036367
1234.000000	51.182833
1235.000000	51.316500
1236.000000	51.447900
1237.000000	51.588833
1238.000000	51.724333
1239.000000	51.849600
1240.000000	51.970100
1241.000000	52.091000
1242.000000	52.200933
1243.000000	52.315100
1244.000000	52.429800
1245.000000	52.522667
1246.000000	52.623500
1247.000000	52.714467
1248.000000	52.794600
1249.000000	52.870933
1250.000000	52.943833
1251.000000	53.009100
1252.000000	53.070267
1253.000000	53.130467
1254.000000	53.184133
1255.000000	53.229300
1256.000000	53.272900
1257.000000	53.330000
1258.000000	53.376867
1259.000000	53.406933
1260.000000	53.449600
1261.000000	53.497267
1262.000000	53.532433
1263.000000	53.571833
1264.000000	53.617767
1265.000000	53.656300
1266.000000	53.702133
1267.000000	53.741100
1268.000000	53.773367
1269.000000	53.812800
1270.000000	53.857867
1271.000000	53.887833
1272.000000	53.910267
1273.000000	53.952067
1274.000000	53.991367
1275.000000	54.033800
1276.000000	54.084833
1277.000000	54.135367
1278.000000	54.188533
1279.000000	54.241833
1280.000000	54.289233
1281.000000	54.348467
1282.000000	54.401000
1283.000000	54.448867
1284.000000	54.501600
1285.000000	54.546133
1286.000000	54.581967
1287.000000	54.623800
1288.000000	54.655167
1289.000000	54.673200
1290.000000	54.689500
1291.000000	54.688367
1292.000000	54.697633
1293.000000	54.700900
1294.000000	54.699800
1295.000000	54.688033
1296.000000	54.673467
1297.000000	54.660033
1298.000000	54.640233
1299.000000	54.614133
1300.000000	54.588567
1301.000000	54.556933
1302.000000	54.519933
1303.000000	54.481167
1304.000000	54.439233
1305.000000	54.375867
1306.000000	54.313900
1307.000000	54.251100
1308.000000	54.176867
1309.000000	54.091567
1310.000000	54.001200
1311.000000	53.902833
1312.000000	53.809533
1313.000000	53.701267
1314.000000	53.598133
1315.000000	53.477767
1316.000000	53.351433
1317.000000	53.229700
1318.000000	53.091567
1319.000000	52.974267
1320.000000	52.835567
1321.000000	52.696067
1322.000000	52.541667
1323.000000	52.385933
1324.000000	52.221967
1325.000000	52.045933
1326.000000	51.867867
1327.000000	51.679267
1328.000000	51.497600
1329.000000	51.303433
1330.000000	51.083467
1331.000000	50.862300
1332.000000	50.653200
1333.000000	50.416267
1334.000000	50.173933
1335.000000	49.938467
1336.000000	49.680500
1337.000000	49.420333
1338.000000	49.162267
1339.000000	48.897067
1340.000000	48.625600
1341.000000	48.343100
1342.000000	48.052200
1343.000000	47.775400
1344.000000	47.459767
1345.000000	47.129833
1346.000000	46.832200
1347.000000	46.494367
1348.000000	46.136700
1349.000000	45.760733
1350.000000	45.347533
1351.000000	44.900867
1352.000000	44.430900
1353.000000	44.086967
1354.000000	43.723533
1355.000000	43.408000
1356.000000	43.173167
1357.000000	43.046500
1358.000000	42.943367
1359.000000	42.844067
1360.000000	42.836433
1361.000000	42.706467
1362.000000	42.551700
1363.000000	42.368767
1364.000000	42.201133
1365.000000	42.001733
1366.000000	41.818433
1367.000000	41.598100
1368.000000	41.338333
1369.000000	41.040967
1370.000000	40.758133
1371.000000	40.428567
1372.000000	40.115033
1373.000000	39.826467
1374.000000	39.591633
1375.000000	39.381633
1376.000000	39.218633
1377.000000	39.046867
1378.000000	38.900567
1379.000000	38.689733
1380.000000	38.453400
1381.000000	38.113700
1382.000000	37.688367
1383.000000	37.189767
1384.000000	36.698233
1385.000000	36.246300
1386.000000	35.828667
1387.000000	35.441800
1388.000000	35.058633
1389.000000	34.702167
1390.000000	34.424667
1391.000000	34.143333
1392.000000	33.851900
1393.000000	33.603667
1394.000000	33.392467
1395.000000	33.113967
1396.000000	32.751467
1397.000000	32.440867
1398.000000	32.189067
1399.000000	31.905667
1400.000000	31.533500
1401.000000	31.116667
1402.000000	30.750667
1403.000000	30.380967
1404.000000	30.015200
1405.000000	29.641800
1406.000000	29.275233
1407.000000	28.944600
1408.000000	28.586800
1409.000000	28.246900
1410.000000	27.901233
1411.000000	27.599067
1412.000000	27.358833
1413.000000	27.114200
1414.000000	26.866500
1415.000000	26.578400
1416.000000	26.335333
1417.000000	26.135200
1418.000000	25.908567
1419.000000	25.689933
1420.000000	25.452267
1421.000000	25.231500
1422.000000	25.046267
1423.000000	24.850767
1424.000000	24.651333
1425.000000	24.464133
1426.000000	24.283067
1427.000000	24.123700
1428.000000	23.967767
1429.000000	23.817033
1430.000000	23.692467
1431.000000	23.563000
1432.000000	23.447267
1433.000000	23.311700
1434.000000	23.189600
1435.000000	23.079500
1436.000000	22.974567
1437.000000	22.870433
1438.000000	22.764133
1439.000000	22.657567
1440.000000	22.553233
1441.000000	22.460767
1442.000000	22.343967
1443.000000	22.249700
1444.000000	22.175667
1445.000000	22.091533
1446.000000	21.994633
1447.000000	21.894967
1448.000000	21.806800
1449.000000	21.742867
1450.000000	21.678600
1451.000000	21.592700
1452.000000	21.506467
1453.000000	21.433367
1454.000000	21.366167
1455.000000	21.302267
1456.000000	21.236733
1457.000000	21.181200
1458.000000	21.130900
1459.000000	21.077633
1460.000000	21.023833
1461.000000	20.993300
1462.000000	20.964033
1463.000000	20.928867
1464.000000	20.894300
1465.000000	20.874533
1466.000000	20.849433
1467.000000	20.827867
1468.000000	20.809433
1469.000000	20.802400
1470.000000	20.796500
1471.000000	20.786300
1472.000000	20.777000
1473.000000	20.752333
1474.000000	20.737533
1475.000000	20.737900
1476.000000	20.735900
1477.000000	20.723767
1478.000000	20.721133
1479.000000	20.730500
1480.000000	20.745667
1481.000000	20.754467
1482.000000	20.758733
1483.000000	20.769533
1484.000000	20.793867
1485.000000	20.822700
1486.000000	20.843467
1487.000000	20.866300
1488.000000	20.884767
1489.000000	20.904200
1490.000000	20.930233
1491.000000	20.955733
1492.000000	20.984767
1493.000000	21.016767
1494.000000	21.044433
1495.000000	21.076067
1496.000000	21.122633
1497.000000	21.166667
1498.000000	21.202167
1499.000000	21.245400
1500.000000	21.290467
1501.000000	21.335300
1502.000000	21.388400
1503.000000	21.440700
1504.000000	21.489967
1505.000000	21.545367
1506.000000	21.596067
1507.000000	21.652700
1508.000000	21.713433
1509.000000	21.767000
1510.000000	21.814600
1511.000000	21.867467
1512.000000	21.925733
1513.000000	21.975533
1514.000000	22.027567
1515.000000	22.079733
1516.000000	22.125733
1517.000000	22.168000
1518.000000	22.213533
1519.000000	22.259867
1520.000000	22.302300
1521.000000	22.345367
1522.000000	22.387333
1523.000000	22.432100
1524.000000	22.477367
1525.000000	22.513733
1526.000000	22.552067
1527.000000	22.580200
1528.000000	22.612633
1529.000000	22.648833
1530.000000	22.681200
1531.000000	22.708633
1532.000000	22.740933
1533.000000	22.768967
1534.000000	22.790733
1535.000000	22.806867
1536.000000	22.824267
1537.000000	22.843133
1538.000000	22.857667
1539.000000	22.875500
1540.000000	22.888000
1541.000000	22.903533
1542.000000	22.916500
1543.000000	22.933400
1544.000000	22.947200
1545.000000	22.968800
1546.000000	22.987733
1547.000000	23.010533
1548.000000	23.036100
1549.000000	23.060933
1550.000000	23.086200
1551.000000	23.101067
1552.000000	23.116267
1553.000000	23.135200
1554.000000	23.151100
1555.000000	23.172633
1556.000000	23.182467
1557.000000	23.183167
1558.000000	23.186033
1559.000000	23.184967
1560.000000	23.181367
1561.000000	23.175400
1562.000000	23.179733
1563.000000	23.173467
1564.000000	23.166033
1565.000000	23.164333
1566.000000	23.154033
1567.000000	23.146333
1568.000000	23.139167
1569.000000	23.133367
1570.000000	23.133500
1571.000000	23.141533
1572.000000	23.143033
1573.000000	23.150800
1574.000000	23.151467
1575.000000	23.167233
1576.000000	23.177467
1577.000000	23.192133
1578.000000	23.217333
1579.000000	23.241667
1580.000000	23.268700
1581.000000	23.297733
1582.000000	23.333933
1583.000000	23.375567
1584.000000	23.404600
1585.000000	23.434567
1586.000000	23.485500
1587.000000	23.535800
1588.000000	23.582033
1589.000000	23.627467
1590.000000	23.666067
1591.000000	23.715533
1592.000000	23.764400
1593.000000	23.814500
1594.000000	23.868000
1595.000000	23.919133
1596.000000	23.985933
1597.000000	24.054267
1598.000000	24.105900
1599.000000	24.173467
1600.000000	24.234667
1601.000000	24.296233
1602.000000	24.366100
1603.000000	24.420167
1604.000000	24.492933
1605.000000	24.553467
1606.000000	24.629733
1607.000000	24.689633
1608.000000	24.753000
1609.000000	24.813667
1610.000000	24.877433
1611.000000	24.937900
1612.000000	25.009267
1613.000000	25.075467
1614.000000	25.136767
1615.000000	25.200533
1616.000000	25.270367
1617.000000	25.333500
1618.000000	25.404767
1619.000000	25.475400
1620.000000	25.534500
1621.000000	25.608700
1622.000000	25.682233
1623.000000	25.742800
1624.000000	25.820667
1625.000000	25.889633
1626.000000	25.967100
1627.000000	26.038367
1628.000000	26.101800
1629.000000	26.180700
1630.000000	26.246167
1631.000000	26.321733
1632.000000	26.387033
1633.000000	26.447167
1634.000000	26.515667
1635.000000	26.568167
1636.000000	26.636067
1637.000000	26.677800
1638.000000	26.750800
1639.000000	26.795267
1640.000000	26.837933
1641.000000	26.887533
1642.000000	26.941300
1643.000000	26.983600
1644.000000	27.019067
1645.000000	27.060167
1646.000000	27.097067
1647.000000	27.131067
1648.000000	27.177467
1649.000000	27.199167
1650.000000	27.214300
1651.000000	27.225900
1652.000000	27.246900
1653.000000	27.235400
1654.000000	27.239167
1655.000000	27.235733
1656.000000	27.211567
1657.000000	27.186033
1658.000000	27.157867
1659.000000	27.103867
1660.000000	27.069867
1661.000000	26.995100
1662.000000	26.948767
1663.000000	26.872267
1664.000000	26.774233
1665.000000	26.672600
1666.000000	26.581333
1667.000000	26.473767
1668.000000	26.338333
1669.000000	26.185833
1670.000000	26.017933
1671.000000	25.821600
1672.000000	25.586833
1673.000000	25.313833
1674.000000	25.012267
1675.000000	24.674867
1676.000000	24.289900
1677.000000	23.855667
1678.000000	23.417100
1679.000000	22.971100
1680.000000	22.555300
1681.000000	22.208100
1682.000000	21.940567
1683.000000	21.786833
1684.000000	21.678000
1685.000000	21.630967
1686.000000	21.610600
1687.000000	21.571167
1688.000000	21.498267
1689.000000	21.410600
1690.000000	21.291567
1691.000000	21.164033
1692.000000	21.067667
1693.000000	20.996433
1694.000000	20.971567
1695.000000	20.998467
1696.000000	21.072967
1697.000000	21.185667
1698.000000	21.316633
1699.000000	21.442900
1700.000000	21.579833
1701.000000	21.706867
1702.000000	21.792000
1703.000000	21.864133
1704.000000	21.925633
1705.000000	21.964100
1706.000000	21.997933
1707.000000	22.014867
1708.000000	22.019267
1709.000000	22.019633
1710.000000	21.997200
1711.000000	21.951867
1712.000000	21.899200
1713.000000	21.833100
1714.000000	21.753967
1715.000000	21.675400
1716.000000	21.609733
1717.000000	21.549267
1718.000000	21.497233
1719.000000	21.451867
1720.000000	21.414633
1721.000000	21.379867
1722.000000	21.347267
1723.000000	21.307767
1724.000000	21.254267
1725.000000	21.193400
1726.000000	21.119633
1727.000000	21.032867
1728.000000	20.945833
1729.000000	20.868033
1730.000000	20.801433
1731.000000	20.749333
1732.000000	20.733233
1733.000000	20.753533
1734.000000	20.810267
1735.000000	20.911100
1736.000000	21.041400
1737.000000	21.194367
1738.000000	21.379033
1739.000000	21.572133
1740.000000	21.758500
1741.000000	21.944000
1742.000000	22.108233
1743.000000	22.251267
1744.000000	22.377500
1745.000000	22.476833
1746.000000	22.556600
1747.000000	22.619033
1748.000000	22.669233
1749.000000	22.711300
1750.000000	22.726100
1751.000000	22.726700
1752.000000	22.725233
1753.000000	22.708033
1754.000000	22.666933
1755.000000	22.626967
1756.000000	22.576867
1757.000000	22.507000
1758.000000	22.438567
1759.000000	22.384567
1760.000000	22.338967
1761.000000	22.305733
1762.000000	22.297433
1763.000000	22.311200
1764.000000	22.343533
1765.000000	22.393433
1766.000000	22.465300
1767.000000	22.552567
1768.000000	22.641333
1769.000000	22.741667
1770.000000	22.840167
1771.000000	22.938333
1772.000000	23.046100
1773.000000	23.147100
1774.000000	23.235833
1775.000000	23.320333
1776.000000	23.399300
1777.000000	23.478067
1778.000000	23.549700
1779.000000	23.615767
1780.000000	23.676467
1781.000000	23.738867
1782.000000	23.811000
1783.000000	23.874867
1784.000000	23.934833
1785.000000	23.996867
1786.000000	24.049433
1787.000000	24.101967
1788.000000	24.156867
1789.000000	24.198300
1790.000000	24.247267
1791.000000	24.299767
1792.000000	24.345933
1793.000000	24.393633
1794.000000	24.442000
1795.000000	24.479733
1796.000000	24.519633
1797.000000	24.566733
1798.000000	24.609333
1799.000000	24.660667
1800.000000	24.722500
1801.000000	24.773600
1802.000000	24.815700
1803.000000	24.850033
1804.000000	24.890567
1805.000000	24.946467
1806.000000	24.991400
1807.000000	25.026200
1808.000000	25.059933
1809.000000	25.092200
1810.000000	25.132800
1811.000000	25.163000
1812.000000	25.187967
1813.000000	25.206867
1814.000000	25.221333
1815.000000	25.238100
1816.000000	25.247933
1817.000000	25.256767
1818.000000	25.288767
1819.000000	25.334633
1820.000000	25.373133
1821.000000	25.391000
1822.000000	25.390800
1823.000000	25.406933
1824.000000	25.451800
1825.000000	25.512133
1826.000000	25.568700
1827.000000	25.631467
1828.000000	25.702433
1829.000000	25.763033
1830.000000	25.822367
1831.000000	25.872233
1832.000000	25.921433
1833.000000	25.982967
1834.000000	26.054167
1835.000000	26.120833
1836.000000	26.172800
1837.000000	26.203900
1838.000000	26.245700
1839.000000	26.280333
1840.000000	26.300567
1841.000000	26.310567
1842.000000	26.304967
1843.000000	26.309533
1844.000000	26.337433
1845.000000	26.389267
1846.000000	26.444333
1847.000000	26.487700
1848.000000	26.492100
1849.000000	26.495600
1850.000000	26.485133
1851.000000	26.478100
1852.000000	26.488533
1853.000000	26.500533
1854.000000	26.478800
1855.000000	26.445900
1856.000000	26.415333
1857.000000	26.384233
1858.000000	26.318933
1859.000000	26.225567
1860.000000	26.129333
1861.000000	25.998633
1862.000000	25.869700
1863.000000	25.754167
1864.000000	25.642167
1865.000000	25.507200
1866.000000	25.377167
1867.000000	25.213967
1868.000000	25.008767
1869.000000	24.748000
1870.000000	24.473533
1871.000000	24.170200
1872.000000	23.833100
1873.000000	23.463500
1874.000000	23.078967
1875.000000	22.680167
1876.000000	22.274533
1877.000000	21.839967
1878.000000	21.393467
1879.000000	20.957200
1880.000000	20.520800
1881.000000	20.046200
1882.000000	19.581633
1883.000000	19.103133
1884.000000	18.632100
1885.000000	18.205467
1886.000000	17.805700
1887.000000	17.438933
1888.000000	17.091333
1889.000000	16.763467
1890.000000	16.427700
1891.000000	16.063367
1892.000000	15.709733
1893.000000	15.408467
1894.000000	15.154533
1895.000000	14.897433
1896.000000	14.649300
1897.000000	14.390400
1898.000000	14.131233
1899.000000	13.856300
1900.000000	13.589867
1901.000000	13.352733
1902.000000	13.126267
1903.000000	12.908833
1904.000000	12.691833
1905.000000	12.448200
1906.000000	12.215467
1907.000000	12.016533
1908.000000	11.836933
1909.000000	11.668667
1910.000000	11.529467
1911.000000	11.382800
1912.000000	11.193067
1913.000000	11.028267
1914.000000	10.874600
1915.000000	10.734133
1916.000000	10.611200
1917.000000	10.495467
1918.000000	10.374733
1919.000000	10.275300
1920.000000	10.158733
1921.000000	10.056200
1922.000000	9.943967
1923.000000	9.855400
1924.000000	9.771167
1925.000000	9.711433
1926.000000	9.649567
1927.000000	9.581433
1928.000000	9.523533
1929.000000	9.466800
1930.000000	9.414433
1931.000000	9.383533
1932.000000	9.347300
1933.000000	9.316133
1934.000000	9.286767
1935.000000	9.282133
1936.000000	9.289567
1937.000000	9.291767
1938.000000	9.280833
1939.000000	9.298567
1940.000000	9.295467
1941.000000	9.308967
1942.000000	9.328733
1943.000000	9.352567
1944.000000	9.370900
1945.000000	9.412967
1946.000000	9.447500
1947.000000	9.484700
1948.000000	9.513300
1949.000000	9.566200
1950.000000	9.602267
1951.000000	9.648300
1952.000000	9.700033
1953.000000	9.743500
1954.000000	9.805933
1955.000000	9.855567
1956.000000	9.919367
1957.000000	9.969367
1958.000000	10.024067
1959.000000	10.081800
1960.000000	10.137633
1961.000000	10.199533
1962.000000	10.252833
1963.000000	10.306367
1964.000000	10.375900
1965.000000	10.437333
1966.000000	10.494667
1967.000000	10.559600
1968.000000	10.613033
1969.000000	10.686767
1970.000000	10.753967
1971.000000	10.816167
1972.000000	10.888467
1973.000000	10.947900
1974.000000	11.015667
1975.000000	11.086933
1976.000000	11.146300
1977.000000	11.220700
1978.000000	11.285267
1979.000000	11.371533
1980.000000	11.445233
1981.000000	11.511933
1982.000000	11.568167
1983.000000	11.660967
1984.000000	11.704467
1985.000000	11.794400
1986.000000	11.864633
1987.000000	11.942700
1988.000000	11.991733
1989.000000	12.064467
1990.000000	12.137900
1991.000000	12.198133
1992.000000	12.265967
1993.000000	12.325400
1994.000000	12.389067
1995.000000	12.440533
1996.000000	12.497833
1997.000000	12.555067
1998.000000	12.604933
1999.000000	12.651800
2000.000000	12.706000
2001.000000	12.739733
2002.000000	12.789267
2003.000000	12.825233
2004.000000	12.868500
2005.000000	12.904333
2006.000000	12.926933
2007.000000	12.957533
2008.000000	12.985800
2009.000000	13.013300
2010.000000	13.031900
2011.000000	13.047600
2012.000000	13.061667
2013.000000	13.066033
2014.000000	13.063533
2015.000000	13.073667
2016.000000	13.076567
2017.000000	13.070267
2018.000000	13.062400
2019.000000	13.049867
2020.000000	13.042467
2021.000000	13.024100
2022.000000	13.011300
2023.000000	12.989600
2024.000000	12.976800
2025.000000	12.946533
2026.000000	12.918167
2027.000000	12.887033
2028.000000	12.849133
2029.000000	12.825167
2030.000000	12.790067
2031.000000	12.737133
2032.000000	12.690867
2033.000000	12.645333
2034.000000	12.591700
2035.000000	12.536633
2036.000000	12.479600
2037.000000	12.427233
2038.000000	12.358567
2039.000000	12.285667
2040.000000	12.217833
2041.000000	12.152767
2042.000000	12.079767
2043.000000	12.001333
2044.000000	11.934467
2045.000000	11.863667
2046.000000	11.797900
2047.000000	11.727033
2048.000000	11.672733
2049.000000	11.634867
2050.000000	11.591933
2051.000000	11.543567
2052.000000	11.510433
2053.000000	11.488733
2054.000000	11.481333
2055.000000	11.474000
2056.000000	11.470700
2057.000000	11.474133
2058.000000	11.489167
2059.000000	11.512800
2060.000000	11.527933
2061.000000	11.546367
2062.000000	11.579933
2063.000000	11.607133
2064.000000	11.632133
2065.000000	11.670567
2066.000000	11.711967
2067.000000	11.742000
2068.000000	11.769767
2069.000000	11.801000
2070.000000	11.836367
2071.000000	11.875700
2072.000000	11.910600
2073.000000	11.936467
2074.000000	11.964267
2075.000000	11.999533
2076.000000	12.030467
2077.000000	12.062567
2078.000000	12.100167
2079.000000	12.121200
2080.000000	12.142333
2081.000000	12.173833
2082.000000	12.194933
2083.000000	12.213200
2084.000000	12.239900
2085.000000	12.256867
2086.000000	12.266900
2087.000000	12.283600
2088.000000	12.301800
2089.000000	12.317833
2090.000000	12.338600
2091.000000	12.349233
2092.000000	12.366267
2093.000000	12.380233
2094.000000	12.396767
2095.000000	12.421000
2096.000000	12.441467
2097.000000	12.469000
2098.000000	12.492167
2099.000000	12.513267
2100.000000	12.535600
2101.000000	12.566467
2102.000000	12.596700
2103.000000	12.613833
2104.000000	12.640067
2105.000000	12.674700
2106.000000	12.707167
2107.000000	12.726533
2108.000000	12.746400
2109.000000	12.773000
2110.000000	12.804233
2111.000000	12.825933
2112.000000	12.850067
2113.000000	12.871067
2114.000000	12.893467
2115.000000	12.924400
2116.000000	12.940567
2117.000000	12.965633
2118.000000	12.978867
2119.000000	12.998333
2120.000000	13.015733
2121.000000	13.024900
2122.000000	13.032667
2123.000000	13.045767
2124.000000	13.053900
2125.000000	13.058467
2126.000000	13.063833
2127.000000	13.070233
2128.000000	13.074733
2129.000000	13.062300
2130.000000	13.050100
2131.000000	13.049900
2132.000000	13.042667
2133.000000	13.028967
2134.000000	13.009900
2135.000000	12.992667
2136.000000	12.973900
2137.000000	12.951667
2138.000000	12.931800
2139.000000	12.911967
2140.000000	12.879900
2141.000000	12.857567
2142.000000	12.818133
2143.000000	12.791233
2144.000000	12.760433
2145.000000	12.730667
2146.000000	12.696133
2147.000000	12.661033
2148.000000	12.625100
2149.000000	12.596267
2150.000000	12.569733
2151.000000	12.528167
2152.000000	12.492767
2153.000000	12.457900
2154.000000	12.426333
2155.000000	12.385467
2156.000000	12.358067
2157.000000	12.331667
2158.000000	12.302567
2159.000000	12.278500
2160.000000	12.254433
2161.000000	12.233700
2162.000000	12.209867
2163.000000	12.192367
2164.000000	12.177033
2165.000000	12.163000
2166.000000	12.152433
2167.000000	12.139967
2168.000000	12.126233
2169.000000	12.116200
2170.000000	12.108467
2171.000000	12.110167
2172.000000	12.096967
2173.000000	12.094300
2174.000000	12.095167
2175.000000	12.097933
2176.000000	12.099000
2177.000000	12.105900
2178.000000	12.124733
2179.000000	12.133067
2180.000000	12.132367
2181.000000	12.152633
2182.000000	12.176233
2183.000000	12.183600
2184.000000	12.194067
2185.000000	12.205400
2186.000000	12.217300
2187.000000	12.230867
2188.000000	12.239400
2189.000000	12.253933
2190.000000	12.268600
2191.000000	12.271467
2192.000000	12.288867
2193.000000	12.294400
2194.000000	12.301433
2195.000000	12.320300
2196.000000	12.332700
2197.000000	12.338733
2198.000000	12.346800
2199.000000	12.362133
2200.000000	12.386000
2201.000000	12.381867
2202.000000	12.411767
2203.000000	12.435733
2204.000000	12.447533
2205.000000	12.461300
2206.000000	12.467567
2207.000000	12.499833
2208.000000	12.511667
2209.000000	12.532900
2210.000000	12.549667
2211.000000	12.566567
2212.000000	12.600300
2213.000000	12.616767
2214.000000	12.647233
2215.000000	12.666000
2216.000000	12.689933
2217.000000	12.716867
2218.000000	12.741100
2219.000000	12.757867
2220.000000	12.774433
2221.000000	12.800633
2222.000000	12.796067
2223.000000	12.814933
2224.000000	12.825667
2225.000000	12.814833
2226.000000	12.806033
2227.000000	12.797367
2228.000000	12.789367
2229.000000	12.765600
2230.000000	12.728300
2231.000000	12.705533
2232.000000	12.648000
2233.000000	12.623333
2234.000000	12.562800
2235.000000	12.518833
2236.000000	12.449100
2237.000000	12.384300
2238.000000	12.315667
2239.000000	12.228600
2240.000000	12.145700
2241.000000	12.054933
2242.000000	11.934567
2243.000000	11.835467
2244.000000	11.724067
2245.000000	11.595600
2246.000000	11.461800
2247.000000	11.312700
2248.000000	11.158333
2249.000000	10.986900
2250.000000	10.826867
2251.000000	10.643900
2252.000000	10.464967
2253.000000	10.267633
2254.000000	10.070400
2255.000000	9.874133
2256.000000	9.681500
2257.000000	9.479433
2258.000000	9.316567
2259.000000	9.140533
2260.000000	8.971533
2261.000000	8.827533
2262.000000	8.688400
2263.000000	8.567200
2264.000000	8.462933
2265.000000	8.378667
2266.000000	8.301300
2267.000000	8.244667
2268.000000	8.207033
2269.000000	8.174000
2270.000000	8.161167
2271.000000	8.163600
2272.000000	8.166067
2273.000000	8.181067
2274.000000	8.203633
2275.000000	8.227367
2276.000000	8.266667
2277.000000	8.305733
2278.000000	8.333767
2279.000000	8.370600
2280.000000	8.410900
2281.000000	8.462500
2282.000000	8.491400
2283.000000	8.534967
2284.000000	8.560300
2285.000000	8.577767
2286.000000	8.585400
2287.000000	8.582667
2288.000000	8.574700
2289.000000	8.572867
2290.000000	8.538667
2291.000000	8.504833
2292.000000	8.469033
2293.000000	8.416833
2294.000000	8.364633
2295.000000	8.305633
2296.000000	8.239467
2297.000000	8.183500
2298.000000	8.117167
2299.000000	8.047400
2300.000000	7.991233
2301.000000	7.952367
2302.000000	7.921133
2303.000000	7.893700
2304.000000	7.876000
2305.000000	7.875033
2306.000000	7.876233
2307.000000	7.898233
2308.000000	7.930600
2309.000000	7.977967
2310.000000	8.032333
2311.000000	8.096633
2312.000000	8.166433
2313.000000	8.240033
2314.000000	8.329733
2315.000000	8.414267
2316.000000	8.495567
2317.000000	8.572233
2318.000000	8.655233
2319.000000	8.735767
2320.000000	8.819133
2321.000000	8.898100
2322.000000	8.957533
2323.000000	9.029433
2324.000000	9.105167
2325.000000	9.169267
2326.000000	9.213867
2327.000000	9.257733
2328.000000	9.305933
2329.000000	9.345500
2330.000000	9.379933
2331.000000	9.418300
2332.000000	9.451067
2333.000000	9.471667
2334.000000	9.487000
2335.000000	9.494767
2336.000000	9.503233
2337.000000	9.495500
2338.000000	9.493467
2339.000000	9.486500
2340.000000	9.470233
2341.000000	9.445600
2342.000000	9.415133
2343.000000	9.388633
2344.000000	9.357767
2345.000000	9.332867
2346.000000	9.312333
2347.000000	9.288467
2348.000000	9.271967
2349.000000	9.264400
2350.000000	9.256367
2351.000000	9.259567
2352.000000	9.265267
2353.000000	9.272000
2354.000000	9.292200
2355.000000	9.321933
2356.000000	9.358000
2357.000000	9.394067
2358.000000	9.436767
2359.000000	9.480733
2360.000000	9.519167
2361.000000	9.560033
2362.000000	9.611233
2363.000000	9.654933
2364.000000	9.696000
2365.000000	9.736400
2366.000000	9.770667
2367.000000	9.808933
2368.000000	9.839433
2369.000000	9.867800
2370.000000	9.899667
2371.000000	9.917100
2372.000000	9.930400
2373.000000	9.952867
2374.000000	9.970467
2375.000000	9.986900
2376.000000	10.000233
2377.000000	10.014600
2378.000000	10.024567
2379.000000	10.033567
2380.000000	10.037233
2381.000000	10.045633
2382.000000	10.046300
2383.000000	10.046700
2384.000000	10.047267
2385.000000	10.041367
2386.000000	10.032867
2387.000000	10.026800
2388.000000	10.025200
2389.000000	10.008733
2390.000000	9.993100
2391.000000	9.975433
2392.000000	9.957733
2393.000000	9.939733
2394.000000	9.917667
2395.000000	9.906667
2396.000000	9.886167
2397.000000	9.865600
2398.000000	9.845933
2399.000000	9.830233
2400.000000	9.815367
2401.000000	9.799600
2402.000000	9.787300
2403.000000	9.768300
2404.000000	9.748033
2405.000000	9.720667
2406.000000	9.695067
2407.000000	9.686733
2408.000000	9.659067
2409.000000	9.633300
2410.000000	9.614733
2411.000000	9.589033
2412.000000	9.564033
2413.000000	9.542600
2414.000000	9.520467
2415.000000	9.503700
2416.000000	9.474367
2417.000000	9.440667
2418.000000	9.419800
2419.000000	9.393100
2420.000000	9.360500
2421.000000	9.334400
2422.000000	9.307333
2423.000000	9.279500
2424.000000	9.247300
2425.000000	9.210667
2426.000000	9.177800
2427.000000	9.137967
2428.000000	9.106300
2429.000000	9.061233
2430.000000	9.022033
2431.000000	8.981633
2432.000000	8.931767
2433.000000	8.889400
2434.000000	8.841867
2435.000000	8.785333
2436.000000	8.748967
2437.000000	8.695667
2438.000000	8.644433
2439.000000	8.589767
2440.000000	8.537267
2441.000000	8.496867
2442.000000	8.438233
2443.000000	8.369700
2444.000000	8.321133
2445.000000	8.275433
2446.000000	8.222900
2447.000000	8.167767
2448.000000	8.122667
2449.000000	8.058800
2450.000000	7.999900
2451.000000	7.951533
2452.000000	7.912533
2453.000000	7.853733
2454.000000	7.810200
2455.000000	7.760733
2456.000000	7.725833
2457.000000	7.690400
2458.000000	7.651167
2459.000000	7.612700
2460.000000	7.578800
2461.000000	7.559967
2462.000000	7.535233
2463.000000	7.522233
2464.000000	7.497267
2465.000000	7.507300
2466.000000	7.487967
2467.000000	7.493167
2468.000000	7.462033
2469.000000	7.455633
2470.000000	7.452400
2471.000000	7.441900
2472.000000	7.454767
2473.000000	7.420733
2474.000000	7.447667
2475.000000	7.436700
2476.000000	7.443800
2477.000000	7.437333
2478.000000	7.457033
2479.000000	7.414867
2480.000000	7.427900
2481.000000	7.433233
2482.000000	7.444700
2483.000000	7.422433
2484.000000	7.429833
2485.000000	7.437667
2486.000000	7.441067
2487.000000	7.448533
2488.000000	7.435333
2489.000000	7.496300
2490.000000	7.521567
2491.000000	7.505100
2492.000000	7.541633
2493.000000	7.484333
2494.000000	7.460333
2495.000000	7.577067
2496.000000	7.664600
2497.000000	7.599133
2498.000000	7.632567
2499.000000	7.734867
2500.000000	7.679967
