PE UV       SUBTECH     SPECTRUM    ASCII       PEDS        4.00        
   -1
CICIMAUCR0002-3.Sample.ASC
24/05/03
15:09:39.00
24/05/03
15:09:39.00
Vinicio Soto Monge
C. kalinini
250,000000
1
Lambda 1050
1050L1511233
PerkinElmer UV WinLab 6.3.2.0749 / 2.02.05 Lambda 900 UV/VIS/NIR, Aug  7 2015 09:38:08

0
0
3350/servo 860,8/2
0
0
UV/VIS
1
1
1
DoubleDePol,CommonBeamDepol,RBeamAtt,SBeamAtt,60mm sphere, WB InGaAs Detector
0
0
0
0
Program
Program
3350/servo 860,8/2
3350/0,2 860,8/0,2
3350/0,2 860,8/0,2
0
15.00
 
 
 
0
 
860,8
319,2
860,8
Front
100
on
S:100 R:100
0
0
0
0
 
0
 
 
 
0
 
 
0
0
0
0
0
 
 
 
 
0
0


0
0
#HDR
-1
-1
#GR
nm
%R
1.0
0.0
2500,000000
-1,000000
2251
8
99,074100
5,519500
#DATA
250.000000	6.106045
251.000000	6.085150
252.000000	6.048346
253.000000	6.026198
254.000000	6.063595
255.000000	6.050179
256.000000	6.036895
257.000000	5.990771
258.000000	6.005170
259.000000	5.989388
260.000000	5.970745
261.000000	5.950924
262.000000	5.922562
263.000000	5.900505
264.000000	5.869664
265.000000	5.837324
266.000000	5.849782
267.000000	5.778372
268.000000	5.750379
269.000000	5.761368
270.000000	5.766754
271.000000	5.706559
272.000000	5.726119
273.000000	5.687023
274.000000	5.676891
275.000000	5.662289
276.000000	5.659282
277.000000	5.658050
278.000000	5.644128
279.000000	5.633088
280.000000	5.617947
281.000000	5.631699
282.000000	5.620576
283.000000	5.612474
284.000000	5.606788
285.000000	5.606486
286.000000	5.588511
287.000000	5.573558
288.000000	5.603105
289.000000	5.589599
290.000000	5.559516
291.000000	5.567772
292.000000	5.554300
293.000000	5.570043
294.000000	5.577382
295.000000	5.556446
296.000000	5.561003
297.000000	5.553112
298.000000	5.531787
299.000000	5.535913
300.000000	5.533517
301.000000	5.491536
302.000000	5.537159
303.000000	5.552678
304.000000	5.544902
305.000000	5.525236
306.000000	5.538050
307.000000	5.543025
308.000000	5.511490
309.000000	5.521651
310.000000	5.557930
311.000000	5.515261
312.000000	5.522337
313.000000	5.512435
314.000000	5.531146
315.000000	5.498289
316.000000	5.522869
317.000000	5.743999
318.000000	5.713467
319.000000	5.939971
320.000000	5.722603
321.000000	5.668332
322.000000	5.802480
323.000000	5.730340
324.000000	5.531083
325.000000	5.449724
326.000000	5.643435
327.000000	5.641946
328.000000	5.596797
329.000000	5.586075
330.000000	5.478409
331.000000	5.550382
332.000000	5.680883
333.000000	5.738321
334.000000	5.664550
335.000000	5.677367
336.000000	5.743573
337.000000	5.693344
338.000000	5.618067
339.000000	5.688769
340.000000	5.561869
341.000000	5.668582
342.000000	5.752988
343.000000	5.598712
344.000000	5.644247
345.000000	5.673214
346.000000	5.683980
347.000000	5.719634
348.000000	5.745418
349.000000	5.758651
350.000000	5.816306
351.000000	5.850567
352.000000	5.827745
353.000000	5.828910
354.000000	5.840948
355.000000	5.887773
356.000000	5.844786
357.000000	5.871052
358.000000	5.874790
359.000000	5.883424
360.000000	5.988065
361.000000	5.934881
362.000000	5.921265
363.000000	5.934456
364.000000	5.943594
365.000000	5.970376
366.000000	6.091313
367.000000	6.060036
368.000000	5.998137
369.000000	6.081132
370.000000	6.071516
371.000000	6.097588
372.000000	6.100993
373.000000	5.981297
374.000000	6.077080
375.000000	6.206386
376.000000	6.293277
377.000000	6.304168
378.000000	6.335891
379.000000	6.366825
380.000000	6.410742
381.000000	6.453065
382.000000	6.490535
383.000000	6.531025
384.000000	6.581105
385.000000	6.635375
386.000000	6.692369
387.000000	6.748571
388.000000	6.816540
389.000000	6.891497
390.000000	6.967604
391.000000	7.051178
392.000000	7.156018
393.000000	7.256669
394.000000	7.354799
395.000000	7.455043
396.000000	7.575536
397.000000	7.705566
398.000000	7.845192
399.000000	7.988373
400.000000	8.157043
401.000000	8.321399
402.000000	8.518499
403.000000	8.716936
404.000000	8.913515
405.000000	9.145054
406.000000	9.375783
407.000000	9.622645
408.000000	9.890203
409.000000	10.167791
410.000000	10.470800
411.000000	10.786039
412.000000	11.105543
413.000000	11.449591
414.000000	11.812450
415.000000	12.184145
416.000000	12.561180
417.000000	12.953658
418.000000	13.361933
419.000000	13.777204
420.000000	14.207322
421.000000	14.649613
422.000000	15.090543
423.000000	15.537537
424.000000	15.989343
425.000000	16.445036
426.000000	16.903874
427.000000	17.351250
428.000000	17.807544
429.000000	18.263888
430.000000	18.711815
431.000000	19.161915
432.000000	19.607127
433.000000	20.029247
434.000000	20.449934
435.000000	20.868353
436.000000	21.268382
437.000000	21.662133
438.000000	22.050703
439.000000	22.427916
440.000000	22.794727
441.000000	23.149624
442.000000	23.499978
443.000000	23.855870
444.000000	24.175829
445.000000	24.481590
446.000000	24.789812
447.000000	25.076181
448.000000	25.353240
449.000000	25.626778
450.000000	25.871508
451.000000	26.113601
452.000000	26.359723
453.000000	26.577351
454.000000	26.793055
455.000000	26.988210
456.000000	27.168310
457.000000	27.321496
458.000000	27.484305
459.000000	27.638941
460.000000	27.756681
461.000000	27.883994
462.000000	27.979711
463.000000	28.080379
464.000000	28.160244
465.000000	28.219531
466.000000	28.279950
467.000000	28.319569
468.000000	28.350562
469.000000	28.370070
470.000000	28.379895
471.000000	28.376122
472.000000	28.360499
473.000000	28.342778
474.000000	28.313911
475.000000	28.272063
476.000000	28.237410
477.000000	28.192412
478.000000	28.131498
479.000000	28.094222
480.000000	28.052777
481.000000	28.008814
482.000000	27.957152
483.000000	27.920762
484.000000	27.881838
485.000000	27.860109
486.000000	27.851460
487.000000	27.864267
488.000000	27.912499
489.000000	27.993046
490.000000	28.107780
491.000000	28.269397
492.000000	28.500622
493.000000	28.777875
494.000000	29.119992
495.000000	29.525333
496.000000	29.968359
497.000000	30.458118
498.000000	31.004198
499.000000	31.602579
500.000000	32.274858
501.000000	32.997633
502.000000	33.765814
503.000000	34.533584
504.000000	35.358620
505.000000	36.170637
506.000000	36.986618
507.000000	37.827819
508.000000	38.665501
509.000000	39.512206
510.000000	40.335484
511.000000	41.144105
512.000000	41.934731
513.000000	42.719472
514.000000	43.480996
515.000000	44.262210
516.000000	45.017751
517.000000	45.775558
518.000000	46.534182
519.000000	47.264077
520.000000	47.995682
521.000000	48.721798
522.000000	49.436630
523.000000	50.136397
524.000000	50.847847
525.000000	51.533200
526.000000	52.191173
527.000000	52.841261
528.000000	53.463892
529.000000	54.092121
530.000000	54.703769
531.000000	55.339329
532.000000	55.951440
533.000000	56.574410
534.000000	57.206421
535.000000	57.833881
536.000000	58.472081
537.000000	59.099101
538.000000	59.690045
539.000000	60.313065
540.000000	60.911529
541.000000	61.500654
542.000000	62.081640
543.000000	62.665168
544.000000	63.206673
545.000000	63.725692
546.000000	64.210553
547.000000	64.684565
548.000000	65.149801
549.000000	65.548992
550.000000	65.966037
551.000000	66.353765
552.000000	66.727565
553.000000	67.075817
554.000000	67.393133
555.000000	67.689361
556.000000	67.983697
557.000000	68.242382
558.000000	68.520466
559.000000	68.763411
560.000000	68.999260
561.000000	69.222718
562.000000	69.420771
563.000000	69.582963
564.000000	69.737165
565.000000	69.876842
566.000000	69.998509
567.000000	70.127336
568.000000	70.232126
569.000000	70.298741
570.000000	70.349722
571.000000	70.395365
572.000000	70.427905
573.000000	70.374490
574.000000	70.363704
575.000000	70.315658
576.000000	70.278692
577.000000	70.203628
578.000000	70.127415
579.000000	70.041879
580.000000	69.961092
581.000000	69.857680
582.000000	69.714700
583.000000	69.592105
584.000000	69.395709
585.000000	69.240361
586.000000	69.072345
587.000000	68.841358
588.000000	68.662532
589.000000	68.435180
590.000000	68.183103
591.000000	67.910871
592.000000	67.644294
593.000000	67.344879
594.000000	66.998753
595.000000	66.628009
596.000000	66.243710
597.000000	65.825056
598.000000	65.401683
599.000000	64.939410
600.000000	64.531122
601.000000	64.084920
602.000000	63.667999
603.000000	63.236022
604.000000	62.783176
605.000000	62.391235
606.000000	61.986849
607.000000	61.647855
608.000000	61.289446
609.000000	60.964918
610.000000	60.718524
611.000000	60.468179
612.000000	60.304078
613.000000	60.114669
614.000000	60.004182
615.000000	59.935959
616.000000	59.896261
617.000000	59.867791
618.000000	59.858539
619.000000	59.850258
620.000000	59.855489
621.000000	59.857989
622.000000	59.914304
623.000000	59.909094
624.000000	59.951677
625.000000	59.975973
626.000000	60.044800
627.000000	60.062917
628.000000	60.115125
629.000000	60.175963
630.000000	60.256127
631.000000	60.299913
632.000000	60.400130
633.000000	60.465753
634.000000	60.560252
635.000000	60.649819
636.000000	60.721543
637.000000	60.828794
638.000000	60.906881
639.000000	60.979440
640.000000	61.042970
641.000000	61.093465
642.000000	61.127678
643.000000	61.170638
644.000000	61.171562
645.000000	61.191317
646.000000	61.250045
647.000000	61.292142
648.000000	61.333623
649.000000	61.434527
650.000000	61.547379
651.000000	61.724273
652.000000	61.966876
653.000000	62.282260
654.000000	62.602687
655.000000	63.001659
656.000000	63.466908
657.000000	63.922775
658.000000	64.414656
659.000000	64.981728
660.000000	65.536250
661.000000	66.126291
662.000000	66.702203
663.000000	67.291669
664.000000	67.863499
665.000000	68.428092
666.000000	68.935422
667.000000	69.403652
668.000000	69.874936
669.000000	70.316037
670.000000	70.763752
671.000000	71.172099
672.000000	71.550016
673.000000	71.980254
674.000000	72.325578
675.000000	72.697706
676.000000	73.087894
677.000000	73.528254
678.000000	73.953014
679.000000	74.396701
680.000000	74.834961
681.000000	75.335837
682.000000	75.840483
683.000000	76.402412
684.000000	76.916688
685.000000	77.437738
686.000000	77.972165
687.000000	78.496570
688.000000	78.967225
689.000000	79.491344
690.000000	79.993144
691.000000	80.456872
692.000000	80.945935
693.000000	81.423764
694.000000	81.864304
695.000000	82.305624
696.000000	82.763983
697.000000	83.209730
698.000000	83.688743
699.000000	84.085718
700.000000	84.534352
701.000000	85.002796
702.000000	85.485611
703.000000	85.984437
704.000000	86.502145
705.000000	86.985096
706.000000	87.478088
707.000000	87.922226
708.000000	88.366600
709.000000	88.821000
710.000000	89.224152
711.000000	89.622886
712.000000	90.012137
713.000000	90.378179
714.000000	90.681179
715.000000	90.999970
716.000000	91.310065
717.000000	91.609190
718.000000	91.830242
719.000000	92.022795
720.000000	92.319945
721.000000	92.597546
722.000000	92.809254
723.000000	93.039373
724.000000	93.266220
725.000000	93.451958
726.000000	93.646539
727.000000	93.853187
728.000000	94.069377
729.000000	94.242672
730.000000	94.408969
731.000000	94.604650
732.000000	94.835086
733.000000	95.059696
734.000000	95.201952
735.000000	95.379108
736.000000	95.589671
737.000000	95.757727
738.000000	95.899686
739.000000	96.036801
740.000000	96.180529
741.000000	96.261968
742.000000	96.344252
743.000000	96.459058
744.000000	96.530913
745.000000	96.573268
746.000000	96.573710
747.000000	96.655817
748.000000	96.713638
749.000000	96.736856
750.000000	96.813851
751.000000	96.864220
752.000000	96.925480
753.000000	96.987119
754.000000	97.005871
755.000000	97.001611
756.000000	97.077346
757.000000	97.136677
758.000000	97.157820
759.000000	97.154962
760.000000	97.090385
761.000000	97.074465
762.000000	97.050617
763.000000	96.932126
764.000000	96.888181
765.000000	96.819182
766.000000	96.705328
767.000000	96.612231
768.000000	96.496722
769.000000	96.365602
770.000000	96.247691
771.000000	96.066178
772.000000	95.868151
773.000000	95.642412
774.000000	95.484141
775.000000	95.319839
776.000000	95.166433
777.000000	94.989523
778.000000	94.743612
779.000000	94.549121
780.000000	94.410913
781.000000	94.152030
782.000000	93.951015
783.000000	93.777308
784.000000	93.484492
785.000000	93.229061
786.000000	92.984349
787.000000	92.718266
788.000000	92.419641
789.000000	92.105839
790.000000	91.806682
791.000000	91.477485
792.000000	91.121960
793.000000	90.718274
794.000000	90.413677
795.000000	90.043203
796.000000	89.746731
797.000000	89.437703
798.000000	89.067095
799.000000	88.666877
800.000000	88.353979
801.000000	87.936604
802.000000	87.576067
803.000000	87.174020
804.000000	86.742920
805.000000	86.426742
806.000000	86.047203
807.000000	85.738676
808.000000	85.286744
809.000000	84.926490
810.000000	84.622126
811.000000	84.279893
812.000000	83.841313
813.000000	83.487067
814.000000	83.136838
815.000000	82.733095
816.000000	82.341830
817.000000	81.977086
818.000000	81.650660
819.000000	81.416674
820.000000	81.014515
821.000000	80.590516
822.000000	80.265725
823.000000	79.948054
824.000000	79.691584
825.000000	79.348765
826.000000	79.055817
827.000000	78.679371
828.000000	78.458691
829.000000	78.203192
830.000000	77.866845
831.000000	77.536119
832.000000	77.390711
833.000000	77.167316
834.000000	76.859780
835.000000	76.776568
836.000000	76.502448
837.000000	76.330675
838.000000	75.897732
839.000000	75.913946
840.000000	75.563433
841.000000	75.350941
842.000000	75.291261
843.000000	75.019434
844.000000	74.938440
845.000000	74.723211
846.000000	74.679833
847.000000	74.689546
848.000000	74.557840
849.000000	74.314750
850.000000	74.133155
851.000000	74.039455
852.000000	74.023733
853.000000	74.066891
854.000000	73.471751
855.000000	73.401629
856.000000	73.146484
857.000000	73.292773
858.000000	73.648400
859.000000	73.287767
860.000000	73.175900
861.000000	73.067200
862.000000	72.939633
863.000000	72.837233
864.000000	72.735933
865.000000	72.628800
866.000000	72.522367
867.000000	72.424900
868.000000	72.330433
869.000000	72.212567
870.000000	72.102867
871.000000	71.993600
872.000000	71.956067
873.000000	72.057167
874.000000	72.231433
875.000000	72.402733
876.000000	72.582200
877.000000	72.699667
878.000000	72.746433
879.000000	72.804967
880.000000	72.846400
881.000000	72.878867
882.000000	72.871600
883.000000	72.874600
884.000000	72.869200
885.000000	72.862567
886.000000	72.852067
887.000000	72.831033
888.000000	72.799300
889.000000	72.778600
890.000000	72.752933
891.000000	72.714267
892.000000	72.672133
893.000000	72.649667
894.000000	72.585500
895.000000	72.543967
896.000000	72.495867
897.000000	72.428300
898.000000	72.380300
899.000000	72.313333
900.000000	72.230333
901.000000	72.163433
902.000000	72.091333
903.000000	72.027633
904.000000	71.961967
905.000000	71.914800
906.000000	71.859133
907.000000	71.804333
908.000000	71.763267
909.000000	71.736600
910.000000	71.703167
911.000000	71.678500
912.000000	71.657700
913.000000	71.652467
914.000000	71.630833
915.000000	71.628000
916.000000	71.608367
917.000000	71.600567
918.000000	71.593433
919.000000	71.578533
920.000000	71.551133
921.000000	71.528200
922.000000	71.507233
923.000000	71.464367
924.000000	71.427233
925.000000	71.390167
926.000000	71.354200
927.000000	71.329833
928.000000	71.304433
929.000000	71.245633
930.000000	71.215200
931.000000	71.187500
932.000000	71.163133
933.000000	71.102233
934.000000	71.064100
935.000000	71.017533
936.000000	70.969767
937.000000	70.932667
938.000000	70.875800
939.000000	70.829133
940.000000	70.779833
941.000000	70.745767
942.000000	70.687167
943.000000	70.632300
944.000000	70.602967
945.000000	70.563133
946.000000	70.499067
947.000000	70.452400
948.000000	70.400667
949.000000	70.358800
950.000000	70.303100
951.000000	70.247300
952.000000	70.194333
953.000000	70.132433
954.000000	70.073567
955.000000	70.015667
956.000000	69.931300
957.000000	69.852800
958.000000	69.776267
959.000000	69.679900
960.000000	69.596300
961.000000	69.520933
962.000000	69.409933
963.000000	69.311900
964.000000	69.225067
965.000000	69.141233
966.000000	69.046300
967.000000	68.955733
968.000000	68.868900
969.000000	68.769067
970.000000	68.676567
971.000000	68.579467
972.000000	68.492400
973.000000	68.385500
974.000000	68.290167
975.000000	68.179433
976.000000	68.078433
977.000000	67.978167
978.000000	67.866300
979.000000	67.752700
980.000000	67.636133
981.000000	67.526600
982.000000	67.413967
983.000000	67.302633
984.000000	67.184800
985.000000	67.059167
986.000000	66.935267
987.000000	66.814967
988.000000	66.696633
989.000000	66.567700
990.000000	66.446033
991.000000	66.325900
992.000000	66.204433
993.000000	66.078167
994.000000	65.948667
995.000000	65.832433
996.000000	65.713300
997.000000	65.593300
998.000000	65.479933
999.000000	65.358567
1000.000000	65.243333
1001.000000	65.123733
1002.000000	65.003133
1003.000000	64.887400
1004.000000	64.764500
1005.000000	64.645233
1006.000000	64.530100
1007.000000	64.405900
1008.000000	64.279767
1009.000000	64.164733
1010.000000	64.052667
1011.000000	63.939333
1012.000000	63.829233
1013.000000	63.723867
1014.000000	63.639767
1015.000000	63.562033
1016.000000	63.487533
1017.000000	63.420300
1018.000000	63.361467
1019.000000	63.318733
1020.000000	63.270367
1021.000000	63.233367
1022.000000	63.196000
1023.000000	63.167400
1024.000000	63.150033
1025.000000	63.119200
1026.000000	63.096567
1027.000000	63.076033
1028.000000	63.052100
1029.000000	63.032800
1030.000000	63.010733
1031.000000	62.977967
1032.000000	62.948533
1033.000000	62.931133
1034.000000	62.908333
1035.000000	62.878067
1036.000000	62.849467
1037.000000	62.820100
1038.000000	62.787200
1039.000000	62.753233
1040.000000	62.729267
1041.000000	62.694667
1042.000000	62.654300
1043.000000	62.616033
1044.000000	62.586433
1045.000000	62.563333
1046.000000	62.537367
1047.000000	62.512067
1048.000000	62.492800
1049.000000	62.483900
1050.000000	62.468200
1051.000000	62.449967
1052.000000	62.445567
1053.000000	62.446033
1054.000000	62.449300
1055.000000	62.449400
1056.000000	62.458400
1057.000000	62.476033
1058.000000	62.496167
1059.000000	62.503367
1060.000000	62.520367
1061.000000	62.538233
1062.000000	62.548467
1063.000000	62.553867
1064.000000	62.559767
1065.000000	62.570833
1066.000000	62.592900
1067.000000	62.615067
1068.000000	62.630033
1069.000000	62.646333
1070.000000	62.661200
1071.000000	62.680767
1072.000000	62.694767
1073.000000	62.718900
1074.000000	62.742133
1075.000000	62.758600
1076.000000	62.775500
1077.000000	62.798700
1078.000000	62.822033
1079.000000	62.841700
1080.000000	62.879700
1081.000000	62.903767
1082.000000	62.942533
1083.000000	62.976100
1084.000000	63.006433
1085.000000	63.045367
1086.000000	63.079000
1087.000000	63.125533
1088.000000	63.161567
1089.000000	63.199567
1090.000000	63.231233
1091.000000	63.271933
1092.000000	63.313400
1093.000000	63.347067
1094.000000	63.385367
1095.000000	63.416300
1096.000000	63.437667
1097.000000	63.467000
1098.000000	63.492167
1099.000000	63.515600
1100.000000	63.539533
1101.000000	63.554167
1102.000000	63.574200
1103.000000	63.598533
1104.000000	63.618300
1105.000000	63.627633
1106.000000	63.637467
1107.000000	63.642633
1108.000000	63.652633
1109.000000	63.659500
1110.000000	63.669133
1111.000000	63.670833
1112.000000	63.669133
1113.000000	63.668100
1114.000000	63.679033
1115.000000	63.681333
1116.000000	63.688633
1117.000000	63.681633
1118.000000	63.672067
1119.000000	63.656100
1120.000000	63.617733
1121.000000	63.568733
1122.000000	63.511400
1123.000000	63.437400
1124.000000	63.352400
1125.000000	63.249367
1126.000000	63.145433
1127.000000	63.003600
1128.000000	62.859733
1129.000000	62.665833
1130.000000	62.431267
1131.000000	62.155300
1132.000000	61.830467
1133.000000	61.485467
1134.000000	61.117033
1135.000000	60.721567
1136.000000	60.267500
1137.000000	59.785833
1138.000000	59.307933
1139.000000	58.840100
1140.000000	58.373467
1141.000000	57.927167
1142.000000	57.508700
1143.000000	57.095733
1144.000000	56.710433
1145.000000	56.371400
1146.000000	56.100767
1147.000000	55.913900
1148.000000	55.831800
1149.000000	55.810333
1150.000000	55.824067
1151.000000	55.854733
1152.000000	55.866600
1153.000000	55.860633
1154.000000	55.804267
1155.000000	55.694400
1156.000000	55.494733
1157.000000	55.230967
1158.000000	54.904933
1159.000000	54.537867
1160.000000	54.134267
1161.000000	53.708233
1162.000000	53.285167
1163.000000	52.842567
1164.000000	52.385833
1165.000000	51.937800
1166.000000	51.472667
1167.000000	51.047233
1168.000000	50.622167
1169.000000	50.190067
1170.000000	49.783267
1171.000000	49.378967
1172.000000	48.979067
1173.000000	48.587433
1174.000000	48.215200
1175.000000	47.869367
1176.000000	47.524433
1177.000000	47.166233
1178.000000	46.786400
1179.000000	46.346367
1180.000000	45.820433
1181.000000	45.264333
1182.000000	44.701067
1183.000000	44.158167
1184.000000	43.704267
1185.000000	43.375733
1186.000000	43.200633
1187.000000	43.138100
1188.000000	43.226500
1189.000000	43.476000
1190.000000	43.824533
1191.000000	44.286767
1192.000000	44.785100
1193.000000	45.301333
1194.000000	45.756300
1195.000000	46.157733
1196.000000	46.478700
1197.000000	46.724900
1198.000000	46.905833
1199.000000	47.054167
1200.000000	47.151467
1201.000000	47.211500
1202.000000	47.240567
1203.000000	47.260133
1204.000000	47.264567
1205.000000	47.270600
1206.000000	47.284100
1207.000000	47.309900
1208.000000	47.361900
1209.000000	47.421567
1210.000000	47.505033
1211.000000	47.591733
1212.000000	47.691100
1213.000000	47.798667
1214.000000	47.916800
1215.000000	48.039067
1216.000000	48.169033
1217.000000	48.311833
1218.000000	48.468133
1219.000000	48.623933
1220.000000	48.794133
1221.000000	48.978333
1222.000000	49.176967
1223.000000	49.383267
1224.000000	49.595500
1225.000000	49.806333
1226.000000	50.036767
1227.000000	50.258700
1228.000000	50.480767
1229.000000	50.704033
1230.000000	50.935267
1231.000000	51.156833
1232.000000	51.379300
1233.000000	51.602300
1234.000000	51.825333
1235.000000	52.041200
1236.000000	52.252333
1237.000000	52.461533
1238.000000	52.669333
1239.000000	52.886567
1240.000000	53.080233
1241.000000	53.261533
1242.000000	53.445900
1243.000000	53.629000
1244.000000	53.804800
1245.000000	53.970467
1246.000000	54.135433
1247.000000	54.278400
1248.000000	54.404667
1249.000000	54.534100
1250.000000	54.645067
1251.000000	54.740267
1252.000000	54.841700
1253.000000	54.926433
1254.000000	54.999233
1255.000000	55.081800
1256.000000	55.153067
1257.000000	55.215067
1258.000000	55.279533
1259.000000	55.344900
1260.000000	55.396233
1261.000000	55.447967
1262.000000	55.505067
1263.000000	55.562067
1264.000000	55.616567
1265.000000	55.674233
1266.000000	55.733467
1267.000000	55.794933
1268.000000	55.857867
1269.000000	55.914300
1270.000000	55.969133
1271.000000	56.031500
1272.000000	56.092733
1273.000000	56.150333
1274.000000	56.206067
1275.000000	56.270533
1276.000000	56.340200
1277.000000	56.410700
1278.000000	56.487867
1279.000000	56.567700
1280.000000	56.657033
1281.000000	56.748167
1282.000000	56.837967
1283.000000	56.933700
1284.000000	57.019767
1285.000000	57.100700
1286.000000	57.187133
1287.000000	57.271333
1288.000000	57.352233
1289.000000	57.418333
1290.000000	57.478567
1291.000000	57.536100
1292.000000	57.587900
1293.000000	57.625400
1294.000000	57.652733
1295.000000	57.680833
1296.000000	57.706667
1297.000000	57.729400
1298.000000	57.747300
1299.000000	57.756800
1300.000000	57.768767
1301.000000	57.776367
1302.000000	57.777833
1303.000000	57.785100
1304.000000	57.785067
1305.000000	57.773300
1306.000000	57.748667
1307.000000	57.721500
1308.000000	57.693133
1309.000000	57.646967
1310.000000	57.593900
1311.000000	57.538300
1312.000000	57.471700
1313.000000	57.407200
1314.000000	57.337933
1315.000000	57.251800
1316.000000	57.158900
1317.000000	57.070767
1318.000000	56.977800
1319.000000	56.876967
1320.000000	56.770667
1321.000000	56.664033
1322.000000	56.543367
1323.000000	56.418900
1324.000000	56.289400
1325.000000	56.155800
1326.000000	56.011233
1327.000000	55.858933
1328.000000	55.698933
1329.000000	55.528500
1330.000000	55.346767
1331.000000	55.154067
1332.000000	54.953800
1333.000000	54.739633
1334.000000	54.516933
1335.000000	54.275800
1336.000000	54.026767
1337.000000	53.770233
1338.000000	53.485667
1339.000000	53.194067
1340.000000	52.895400
1341.000000	52.578567
1342.000000	52.237100
1343.000000	51.886900
1344.000000	51.522433
1345.000000	51.144867
1346.000000	50.722600
1347.000000	50.294200
1348.000000	49.843400
1349.000000	49.344433
1350.000000	48.834233
1351.000000	48.265800
1352.000000	47.627233
1353.000000	46.960733
1354.000000	46.328933
1355.000000	45.718767
1356.000000	45.173533
1357.000000	44.756733
1358.000000	44.491733
1359.000000	44.341667
1360.000000	44.246367
1361.000000	44.224033
1362.000000	44.153000
1363.000000	44.020500
1364.000000	43.839300
1365.000000	43.669200
1366.000000	43.468367
1367.000000	43.246400
1368.000000	43.003767
1369.000000	42.712167
1370.000000	42.380367
1371.000000	42.046767
1372.000000	41.679833
1373.000000	41.295367
1374.000000	40.928133
1375.000000	40.628000
1376.000000	40.401300
1377.000000	40.245933
1378.000000	40.153033
1379.000000	40.099167
1380.000000	40.036200
1381.000000	39.956533
1382.000000	39.822433
1383.000000	39.579300
1384.000000	39.232567
1385.000000	38.872233
1386.000000	38.501267
1387.000000	38.169933
1388.000000	37.895633
1389.000000	37.632700
1390.000000	37.381667
1391.000000	37.211167
1392.000000	37.057300
1393.000000	36.908367
1394.000000	36.785267
1395.000000	36.702300
1396.000000	36.590267
1397.000000	36.385933
1398.000000	36.160267
1399.000000	35.966233
1400.000000	35.784067
1401.000000	35.488967
1402.000000	35.102967
1403.000000	34.730867
1404.000000	34.395633
1405.000000	33.994300
1406.000000	33.631800
1407.000000	33.258400
1408.000000	32.901667
1409.000000	32.548467
1410.000000	32.226967
1411.000000	31.902100
1412.000000	31.607833
1413.000000	31.413767
1414.000000	31.212467
1415.000000	30.997300
1416.000000	30.742800
1417.000000	30.514367
1418.000000	30.292467
1419.000000	30.098867
1420.000000	29.887900
1421.000000	29.634400
1422.000000	29.405800
1423.000000	29.188600
1424.000000	28.974167
1425.000000	28.744867
1426.000000	28.526500
1427.000000	28.304100
1428.000000	28.114133
1429.000000	27.919733
1430.000000	27.750133
1431.000000	27.598633
1432.000000	27.443033
1433.000000	27.333167
1434.000000	27.191800
1435.000000	27.044300
1436.000000	26.915000
1437.000000	26.803733
1438.000000	26.691100
1439.000000	26.591000
1440.000000	26.473900
1441.000000	26.342067
1442.000000	26.215967
1443.000000	26.094133
1444.000000	25.967500
1445.000000	25.848567
1446.000000	25.736433
1447.000000	25.600967
1448.000000	25.479700
1449.000000	25.343267
1450.000000	25.254167
1451.000000	25.160600
1452.000000	25.041033
1453.000000	24.921967
1454.000000	24.823167
1455.000000	24.724133
1456.000000	24.629400
1457.000000	24.538100
1458.000000	24.441200
1459.000000	24.345233
1460.000000	24.263600
1461.000000	24.189000
1462.000000	24.115567
1463.000000	24.042633
1464.000000	23.981733
1465.000000	23.911233
1466.000000	23.864267
1467.000000	23.810067
1468.000000	23.746133
1469.000000	23.688333
1470.000000	23.655167
1471.000000	23.594133
1472.000000	23.554733
1473.000000	23.506567
1474.000000	23.444367
1475.000000	23.372967
1476.000000	23.327300
1477.000000	23.271633
1478.000000	23.235567
1479.000000	23.194433
1480.000000	23.154067
1481.000000	23.118033
1482.000000	23.085267
1483.000000	23.056933
1484.000000	23.026233
1485.000000	23.008400
1486.000000	22.991300
1487.000000	22.964633
1488.000000	22.949633
1489.000000	22.931733
1490.000000	22.930233
1491.000000	22.916533
1492.000000	22.897700
1493.000000	22.882333
1494.000000	22.874067
1495.000000	22.867667
1496.000000	22.860867
1497.000000	22.862467
1498.000000	22.862767
1499.000000	22.866933
1500.000000	22.874633
1501.000000	22.880300
1502.000000	22.903433
1503.000000	22.921833
1504.000000	22.942433
1505.000000	22.964367
1506.000000	22.987100
1507.000000	23.011567
1508.000000	23.047633
1509.000000	23.071233
1510.000000	23.102167
1511.000000	23.132967
1512.000000	23.164767
1513.000000	23.193633
1514.000000	23.214933
1515.000000	23.250233
1516.000000	23.265733
1517.000000	23.293000
1518.000000	23.315633
1519.000000	23.335633
1520.000000	23.359400
1521.000000	23.384067
1522.000000	23.407900
1523.000000	23.432633
1524.000000	23.463700
1525.000000	23.481500
1526.000000	23.501967
1527.000000	23.513067
1528.000000	23.537267
1529.000000	23.553733
1530.000000	23.571767
1531.000000	23.586767
1532.000000	23.595767
1533.000000	23.608233
1534.000000	23.623500
1535.000000	23.638367
1536.000000	23.639367
1537.000000	23.647100
1538.000000	23.650067
1539.000000	23.647200
1540.000000	23.651000
1541.000000	23.659067
1542.000000	23.661667
1543.000000	23.662867
1544.000000	23.680733
1545.000000	23.691933
1546.000000	23.704433
1547.000000	23.723500
1548.000000	23.747600
1549.000000	23.766900
1550.000000	23.778767
1551.000000	23.796433
1552.000000	23.811267
1553.000000	23.829333
1554.000000	23.838433
1555.000000	23.838067
1556.000000	23.840833
1557.000000	23.836200
1558.000000	23.826200
1559.000000	23.817467
1560.000000	23.797033
1561.000000	23.772733
1562.000000	23.749700
1563.000000	23.726467
1564.000000	23.695200
1565.000000	23.665100
1566.000000	23.632633
1567.000000	23.602167
1568.000000	23.570233
1569.000000	23.532967
1570.000000	23.499267
1571.000000	23.468433
1572.000000	23.442300
1573.000000	23.422633
1574.000000	23.404500
1575.000000	23.390400
1576.000000	23.376033
1577.000000	23.358200
1578.000000	23.352833
1579.000000	23.347667
1580.000000	23.353700
1581.000000	23.361033
1582.000000	23.372167
1583.000000	23.386000
1584.000000	23.405433
1585.000000	23.426667
1586.000000	23.440933
1587.000000	23.460433
1588.000000	23.487533
1589.000000	23.522067
1590.000000	23.552900
1591.000000	23.586333
1592.000000	23.615967
1593.000000	23.649533
1594.000000	23.694233
1595.000000	23.739033
1596.000000	23.777933
1597.000000	23.822900
1598.000000	23.874300
1599.000000	23.927567
1600.000000	23.980600
1601.000000	24.037133
1602.000000	24.097833
1603.000000	24.162833
1604.000000	24.228000
1605.000000	24.290367
1606.000000	24.351167
1607.000000	24.421167
1608.000000	24.476967
1609.000000	24.540333
1610.000000	24.600667
1611.000000	24.658267
1612.000000	24.727167
1613.000000	24.792933
1614.000000	24.856100
1615.000000	24.921400
1616.000000	24.980300
1617.000000	25.045900
1618.000000	25.126200
1619.000000	25.192400
1620.000000	25.259167
1621.000000	25.336167
1622.000000	25.408167
1623.000000	25.481767
1624.000000	25.557900
1625.000000	25.630367
1626.000000	25.708500
1627.000000	25.784833
1628.000000	25.862300
1629.000000	25.935833
1630.000000	26.011433
1631.000000	26.090800
1632.000000	26.165933
1633.000000	26.236767
1634.000000	26.308033
1635.000000	26.378900
1636.000000	26.437733
1637.000000	26.500633
1638.000000	26.562467
1639.000000	26.620333
1640.000000	26.687167
1641.000000	26.733233
1642.000000	26.788900
1643.000000	26.848267
1644.000000	26.889967
1645.000000	26.946067
1646.000000	26.991900
1647.000000	27.031033
1648.000000	27.074633
1649.000000	27.115900
1650.000000	27.144567
1651.000000	27.175100
1652.000000	27.187833
1653.000000	27.199033
1654.000000	27.209767
1655.000000	27.209067
1656.000000	27.193400
1657.000000	27.168867
1658.000000	27.152833
1659.000000	27.118533
1660.000000	27.073800
1661.000000	27.015933
1662.000000	26.943267
1663.000000	26.860433
1664.000000	26.782833
1665.000000	26.682400
1666.000000	26.577800
1667.000000	26.476000
1668.000000	26.341433
1669.000000	26.186567
1670.000000	26.033733
1671.000000	25.833700
1672.000000	25.615400
1673.000000	25.374933
1674.000000	25.109233
1675.000000	24.790733
1676.000000	24.439600
1677.000000	24.036700
1678.000000	23.594700
1679.000000	23.100500
1680.000000	22.578967
1681.000000	22.079700
1682.000000	21.616467
1683.000000	21.238233
1684.000000	20.972333
1685.000000	20.821000
1686.000000	20.743567
1687.000000	20.706633
1688.000000	20.685200
1689.000000	20.657167
1690.000000	20.583667
1691.000000	20.466133
1692.000000	20.341400
1693.000000	20.207600
1694.000000	20.095800
1695.000000	20.027433
1696.000000	20.005033
1697.000000	20.036867
1698.000000	20.091233
1699.000000	20.194667
1700.000000	20.298167
1701.000000	20.433267
1702.000000	20.534800
1703.000000	20.604567
1704.000000	20.657267
1705.000000	20.704700
1706.000000	20.731033
1707.000000	20.721000
1708.000000	20.725433
1709.000000	20.704733
1710.000000	20.681733
1711.000000	20.637567
1712.000000	20.588867
1713.000000	20.518600
1714.000000	20.422167
1715.000000	20.338500
1716.000000	20.244867
1717.000000	20.145833
1718.000000	20.052500
1719.000000	19.975300
1720.000000	19.905200
1721.000000	19.851700
1722.000000	19.798900
1723.000000	19.761867
1724.000000	19.716300
1725.000000	19.675700
1726.000000	19.611767
1727.000000	19.540167
1728.000000	19.450433
1729.000000	19.355033
1730.000000	19.255633
1731.000000	19.160733
1732.000000	19.085167
1733.000000	19.053300
1734.000000	19.056833
1735.000000	19.105333
1736.000000	19.185533
1737.000000	19.310100
1738.000000	19.493833
1739.000000	19.702033
1740.000000	19.921667
1741.000000	20.162700
1742.000000	20.393667
1743.000000	20.625067
1744.000000	20.823333
1745.000000	21.003067
1746.000000	21.160400
1747.000000	21.292300
1748.000000	21.400533
1749.000000	21.471733
1750.000000	21.547133
1751.000000	21.595700
1752.000000	21.634733
1753.000000	21.656167
1754.000000	21.664267
1755.000000	21.646767
1756.000000	21.637400
1757.000000	21.581333
1758.000000	21.523600
1759.000000	21.458833
1760.000000	21.401167
1761.000000	21.345433
1762.000000	21.299267
1763.000000	21.269600
1764.000000	21.271267
1765.000000	21.293033
1766.000000	21.346567
1767.000000	21.443433
1768.000000	21.560867
1769.000000	21.673600
1770.000000	21.809300
1771.000000	21.956467
1772.000000	22.091367
1773.000000	22.232867
1774.000000	22.378967
1775.000000	22.508533
1776.000000	22.631733
1777.000000	22.757100
1778.000000	22.862667
1779.000000	22.973933
1780.000000	23.069567
1781.000000	23.152933
1782.000000	23.223400
1783.000000	23.312000
1784.000000	23.400400
1785.000000	23.480400
1786.000000	23.546467
1787.000000	23.606833
1788.000000	23.672933
1789.000000	23.732800
1790.000000	23.791567
1791.000000	23.852967
1792.000000	23.904633
1793.000000	23.957367
1794.000000	24.005100
1795.000000	24.052333
1796.000000	24.106900
1797.000000	24.152433
1798.000000	24.186300
1799.000000	24.224833
1800.000000	24.274433
1801.000000	24.335900
1802.000000	24.379333
1803.000000	24.422467
1804.000000	24.459900
1805.000000	24.505767
1806.000000	24.552533
1807.000000	24.604100
1808.000000	24.644833
1809.000000	24.675767
1810.000000	24.725467
1811.000000	24.772533
1812.000000	24.795333
1813.000000	24.817100
1814.000000	24.838267
1815.000000	24.848300
1816.000000	24.859800
1817.000000	24.859900
1818.000000	24.860167
1819.000000	24.877700
1820.000000	24.908533
1821.000000	24.931167
1822.000000	24.946867
1823.000000	24.943800
1824.000000	24.943367
1825.000000	24.992500
1826.000000	25.064133
1827.000000	25.125000
1828.000000	25.190833
1829.000000	25.276400
1830.000000	25.360000
1831.000000	25.433067
1832.000000	25.498967
1833.000000	25.571133
1834.000000	25.653133
1835.000000	25.738200
1836.000000	25.816667
1837.000000	25.883567
1838.000000	25.947200
1839.000000	26.011200
1840.000000	26.064567
1841.000000	26.108100
1842.000000	26.151100
1843.000000	26.164133
1844.000000	26.181667
1845.000000	26.242200
1846.000000	26.306200
1847.000000	26.389967
1848.000000	26.482267
1849.000000	26.550000
1850.000000	26.605133
1851.000000	26.659933
1852.000000	26.713533
1853.000000	26.771733
1854.000000	26.851800
1855.000000	26.918800
1856.000000	26.958900
1857.000000	27.008667
1858.000000	27.041467
1859.000000	27.052700
1860.000000	27.064067
1861.000000	27.060867
1862.000000	27.041000
1863.000000	27.004100
1864.000000	26.982267
1865.000000	26.959167
1866.000000	26.929033
1867.000000	26.896400
1868.000000	26.853267
1869.000000	26.776833
1870.000000	26.644700
1871.000000	26.494233
1872.000000	26.316900
1873.000000	26.106967
1874.000000	25.866000
1875.000000	25.599567
1876.000000	25.315767
1877.000000	25.013833
1878.000000	24.701833
1879.000000	24.345100
1880.000000	23.985667
1881.000000	23.626867
1882.000000	23.235967
1883.000000	22.856667
1884.000000	22.474367
1885.000000	22.079833
1886.000000	21.724467
1887.000000	21.416300
1888.000000	21.132300
1889.000000	20.863333
1890.000000	20.598000
1891.000000	20.339700
1892.000000	20.067033
1893.000000	19.772267
1894.000000	19.500567
1895.000000	19.267133
1896.000000	19.043767
1897.000000	18.831533
1898.000000	18.585367
1899.000000	18.348533
1900.000000	18.086800
1901.000000	17.801367
1902.000000	17.534500
1903.000000	17.298633
1904.000000	17.065067
1905.000000	16.816500
1906.000000	16.567667
1907.000000	16.294233
1908.000000	16.053167
1909.000000	15.843767
1910.000000	15.665400
1911.000000	15.488200
1912.000000	15.307800
1913.000000	15.116133
1914.000000	14.886600
1915.000000	14.691967
1916.000000	14.512433
1917.000000	14.361700
1918.000000	14.214233
1919.000000	14.077067
1920.000000	13.947633
1921.000000	13.804067
1922.000000	13.658267
1923.000000	13.508800
1924.000000	13.383067
1925.000000	13.278533
1926.000000	13.180600
1927.000000	13.095900
1928.000000	13.015633
1929.000000	12.921200
1930.000000	12.851033
1931.000000	12.779133
1932.000000	12.723700
1933.000000	12.659767
1934.000000	12.621633
1935.000000	12.593633
1936.000000	12.561633
1937.000000	12.538233
1938.000000	12.537167
1939.000000	12.518533
1940.000000	12.520400
1941.000000	12.517833
1942.000000	12.527833
1943.000000	12.532100
1944.000000	12.560033
1945.000000	12.576967
1946.000000	12.612433
1947.000000	12.632700
1948.000000	12.676867
1949.000000	12.717700
1950.000000	12.760100
1951.000000	12.807333
1952.000000	12.859233
1953.000000	12.917933
1954.000000	12.968133
1955.000000	13.019933
1956.000000	13.085700
1957.000000	13.141267
1958.000000	13.190467
1959.000000	13.252067
1960.000000	13.312067
1961.000000	13.365200
1962.000000	13.410067
1963.000000	13.479367
1964.000000	13.538700
1965.000000	13.598400
1966.000000	13.650767
1967.000000	13.705433
1968.000000	13.759433
1969.000000	13.814633
1970.000000	13.873133
1971.000000	13.943600
1972.000000	13.987733
1973.000000	14.046867
1974.000000	14.119200
1975.000000	14.174367
1976.000000	14.227300
1977.000000	14.309967
1978.000000	14.355833
1979.000000	14.418000
1980.000000	14.486267
1981.000000	14.549033
1982.000000	14.619300
1983.000000	14.680833
1984.000000	14.743267
1985.000000	14.801233
1986.000000	14.867567
1987.000000	14.912167
1988.000000	14.983200
1989.000000	15.024233
1990.000000	15.081867
1991.000000	15.135767
1992.000000	15.175567
1993.000000	15.221133
1994.000000	15.263067
1995.000000	15.284533
1996.000000	15.320733
1997.000000	15.352967
1998.000000	15.377133
1999.000000	15.403133
2000.000000	15.407400
2001.000000	15.425533
2002.000000	15.427367
2003.000000	15.441600
2004.000000	15.442633
2005.000000	15.437567
2006.000000	15.417867
2007.000000	15.407333
2008.000000	15.394367
2009.000000	15.370867
2010.000000	15.341067
2011.000000	15.312167
2012.000000	15.282567
2013.000000	15.228667
2014.000000	15.193367
2015.000000	15.164567
2016.000000	15.104000
2017.000000	15.051300
2018.000000	15.005033
2019.000000	14.941667
2020.000000	14.885633
2021.000000	14.820467
2022.000000	14.750567
2023.000000	14.674533
2024.000000	14.610967
2025.000000	14.534700
2026.000000	14.449067
2027.000000	14.370900
2028.000000	14.289367
2029.000000	14.206900
2030.000000	14.118400
2031.000000	14.023567
2032.000000	13.929133
2033.000000	13.831467
2034.000000	13.724400
2035.000000	13.603300
2036.000000	13.487000
2037.000000	13.370433
2038.000000	13.253300
2039.000000	13.126900
2040.000000	12.996200
2041.000000	12.860767
2042.000000	12.724633
2043.000000	12.591200
2044.000000	12.467100
2045.000000	12.346233
2046.000000	12.224300
2047.000000	12.111100
2048.000000	12.013633
2049.000000	11.920033
2050.000000	11.835967
2051.000000	11.764700
2052.000000	11.702733
2053.000000	11.664100
2054.000000	11.625267
2055.000000	11.601500
2056.000000	11.589100
2057.000000	11.581500
2058.000000	11.579000
2059.000000	11.591667
2060.000000	11.618800
2061.000000	11.648900
2062.000000	11.673000
2063.000000	11.707000
2064.000000	11.743067
2065.000000	11.782033
2066.000000	11.823633
2067.000000	11.865667
2068.000000	11.897000
2069.000000	11.936667
2070.000000	11.973333
2071.000000	12.012100
2072.000000	12.054133
2073.000000	12.094300
2074.000000	12.131033
2075.000000	12.159100
2076.000000	12.177067
2077.000000	12.207067
2078.000000	12.245133
2079.000000	12.267800
2080.000000	12.288500
2081.000000	12.310700
2082.000000	12.331167
2083.000000	12.343500
2084.000000	12.360033
2085.000000	12.375633
2086.000000	12.390667
2087.000000	12.400167
2088.000000	12.403833
2089.000000	12.412733
2090.000000	12.427133
2091.000000	12.432700
2092.000000	12.437533
2093.000000	12.454400
2094.000000	12.464500
2095.000000	12.472733
2096.000000	12.487733
2097.000000	12.498800
2098.000000	12.509500
2099.000000	12.522300
2100.000000	12.537533
2101.000000	12.568900
2102.000000	12.590633
2103.000000	12.610133
2104.000000	12.630467
2105.000000	12.645633
2106.000000	12.668567
2107.000000	12.687400
2108.000000	12.708900
2109.000000	12.730667
2110.000000	12.752833
2111.000000	12.777833
2112.000000	12.799600
2113.000000	12.818200
2114.000000	12.834267
2115.000000	12.857733
2116.000000	12.881033
2117.000000	12.893267
2118.000000	12.910100
2119.000000	12.922867
2120.000000	12.927300
2121.000000	12.937900
2122.000000	12.953300
2123.000000	12.959000
2124.000000	12.957033
2125.000000	12.959733
2126.000000	12.957000
2127.000000	12.955833
2128.000000	12.947967
2129.000000	12.938233
2130.000000	12.932233
2131.000000	12.926700
2132.000000	12.903067
2133.000000	12.882600
2134.000000	12.865733
2135.000000	12.848533
2136.000000	12.819433
2137.000000	12.798333
2138.000000	12.767600
2139.000000	12.734967
2140.000000	12.705900
2141.000000	12.676533
2142.000000	12.639600
2143.000000	12.603733
2144.000000	12.563633
2145.000000	12.532900
2146.000000	12.498733
2147.000000	12.455600
2148.000000	12.413167
2149.000000	12.361267
2150.000000	12.323033
2151.000000	12.286000
2152.000000	12.243600
2153.000000	12.196100
2154.000000	12.159367
2155.000000	12.117600
2156.000000	12.071200
2157.000000	12.033800
2158.000000	12.000700
2159.000000	11.963600
2160.000000	11.937167
2161.000000	11.908800
2162.000000	11.878600
2163.000000	11.851033
2164.000000	11.832867
2165.000000	11.810167
2166.000000	11.788733
2167.000000	11.766100
2168.000000	11.755433
2169.000000	11.729467
2170.000000	11.712567
2171.000000	11.706533
2172.000000	11.690967
2173.000000	11.681967
2174.000000	11.674100
2175.000000	11.667000
2176.000000	11.668667
2177.000000	11.669333
2178.000000	11.677300
2179.000000	11.678233
2180.000000	11.696633
2181.000000	11.695167
2182.000000	11.702800
2183.000000	11.730067
2184.000000	11.745067
2185.000000	11.764167
2186.000000	11.762900
2187.000000	11.769667
2188.000000	11.784900
2189.000000	11.798633
2190.000000	11.814500
2191.000000	11.822733
2192.000000	11.832900
2193.000000	11.848400
2194.000000	11.853533
2195.000000	11.866267
2196.000000	11.880633
2197.000000	11.889367
2198.000000	11.895967
2199.000000	11.914167
2200.000000	11.922900
2201.000000	11.943267
2202.000000	11.956733
2203.000000	11.968900
2204.000000	11.979900
2205.000000	12.000033
2206.000000	12.016067
2207.000000	12.028467
2208.000000	12.061267
2209.000000	12.079367
2210.000000	12.084333
2211.000000	12.113733
2212.000000	12.141967
2213.000000	12.164633
2214.000000	12.199533
2215.000000	12.226767
2216.000000	12.250000
2217.000000	12.269867
2218.000000	12.306933
2219.000000	12.333733
2220.000000	12.348067
2221.000000	12.374733
2222.000000	12.387133
2223.000000	12.411533
2224.000000	12.436067
2225.000000	12.442933
2226.000000	12.453867
2227.000000	12.456700
2228.000000	12.459800
2229.000000	12.444400
2230.000000	12.440233
2231.000000	12.417600
2232.000000	12.380567
2233.000000	12.348467
2234.000000	12.308300
2235.000000	12.263600
2236.000000	12.211067
2237.000000	12.154700
2238.000000	12.102333
2239.000000	12.019633
2240.000000	11.948133
2241.000000	11.855333
2242.000000	11.763000
2243.000000	11.683600
2244.000000	11.572133
2245.000000	11.444767
2246.000000	11.336233
2247.000000	11.205533
2248.000000	11.060167
2249.000000	10.908100
2250.000000	10.752000
2251.000000	10.594867
2252.000000	10.416033
2253.000000	10.238367
2254.000000	10.045400
2255.000000	9.870833
2256.000000	9.674367
2257.000000	9.484667
2258.000000	9.299233
2259.000000	9.114100
2260.000000	8.951700
2261.000000	8.783233
2262.000000	8.629500
2263.000000	8.504000
2264.000000	8.363667
2265.000000	8.246133
2266.000000	8.153000
2267.000000	8.069167
2268.000000	7.998433
2269.000000	7.938367
2270.000000	7.902233
2271.000000	7.855467
2272.000000	7.821800
2273.000000	7.828900
2274.000000	7.816833
2275.000000	7.816867
2276.000000	7.831000
2277.000000	7.835000
2278.000000	7.841000
2279.000000	7.864767
2280.000000	7.892733
2281.000000	7.904700
2282.000000	7.934467
2283.000000	7.945367
2284.000000	7.971600
2285.000000	7.982000
2286.000000	7.996800
2287.000000	7.994033
2288.000000	7.997300
2289.000000	7.995200
2290.000000	7.990067
2291.000000	7.960833
2292.000000	7.939233
2293.000000	7.900833
2294.000000	7.850367
2295.000000	7.803300
2296.000000	7.761167
2297.000000	7.691533
2298.000000	7.629067
2299.000000	7.572400
2300.000000	7.508267
2301.000000	7.449867
2302.000000	7.406500
2303.000000	7.350467
2304.000000	7.308267
2305.000000	7.286100
2306.000000	7.272067
2307.000000	7.268833
2308.000000	7.278433
2309.000000	7.302800
2310.000000	7.321333
2311.000000	7.364600
2312.000000	7.418767
2313.000000	7.482133
2314.000000	7.543767
2315.000000	7.615233
2316.000000	7.693400
2317.000000	7.771767
2318.000000	7.857933
2319.000000	7.951133
2320.000000	8.033600
2321.000000	8.104800
2322.000000	8.181067
2323.000000	8.256333
2324.000000	8.327833
2325.000000	8.392800
2326.000000	8.455533
2327.000000	8.512900
2328.000000	8.563500
2329.000000	8.613767
2330.000000	8.651667
2331.000000	8.691200
2332.000000	8.732900
2333.000000	8.755767
2334.000000	8.774500
2335.000000	8.799233
2336.000000	8.816700
2337.000000	8.817867
2338.000000	8.818333
2339.000000	8.821700
2340.000000	8.819233
2341.000000	8.799467
2342.000000	8.773000
2343.000000	8.751900
2344.000000	8.730433
2345.000000	8.703000
2346.000000	8.670367
2347.000000	8.642933
2348.000000	8.621700
2349.000000	8.603933
2350.000000	8.591467
2351.000000	8.579167
2352.000000	8.576467
2353.000000	8.570400
2354.000000	8.579500
2355.000000	8.596867
2356.000000	8.622100
2357.000000	8.653367
2358.000000	8.681467
2359.000000	8.723467
2360.000000	8.770933
2361.000000	8.818833
2362.000000	8.875900
2363.000000	8.921233
2364.000000	8.967433
2365.000000	9.021533
2366.000000	9.068567
2367.000000	9.115900
2368.000000	9.161833
2369.000000	9.197867
2370.000000	9.233833
2371.000000	9.268867
2372.000000	9.303933
2373.000000	9.334267
2374.000000	9.358133
2375.000000	9.377200
2376.000000	9.397067
2377.000000	9.420500
2378.000000	9.438667
2379.000000	9.456300
2380.000000	9.473733
2381.000000	9.490667
2382.000000	9.501867
2383.000000	9.506300
2384.000000	9.505300
2385.000000	9.510567
2386.000000	9.512567
2387.000000	9.518033
2388.000000	9.524667
2389.000000	9.512100
2390.000000	9.503467
2391.000000	9.496833
2392.000000	9.483200
2393.000000	9.470800
2394.000000	9.454833
2395.000000	9.435600
2396.000000	9.429567
2397.000000	9.412600
2398.000000	9.385700
2399.000000	9.357967
2400.000000	9.332400
2401.000000	9.316267
2402.000000	9.299467
2403.000000	9.277733
2404.000000	9.252833
2405.000000	9.237033
2406.000000	9.221800
2407.000000	9.206833
2408.000000	9.198567
2409.000000	9.186733
2410.000000	9.160433
2411.000000	9.142300
2412.000000	9.121900
2413.000000	9.111900
2414.000000	9.089000
2415.000000	9.077900
2416.000000	9.062400
2417.000000	9.040633
2418.000000	9.014467
2419.000000	9.002700
2420.000000	8.983600
2421.000000	8.954900
2422.000000	8.932567
2423.000000	8.907533
2424.000000	8.877333
2425.000000	8.850933
2426.000000	8.817533
2427.000000	8.785000
2428.000000	8.758733
2429.000000	8.727600
2430.000000	8.697167
2431.000000	8.651000
2432.000000	8.608767
2433.000000	8.562400
2434.000000	8.521667
2435.000000	8.487833
2436.000000	8.439267
2437.000000	8.394667
2438.000000	8.343367
2439.000000	8.284767
2440.000000	8.228867
2441.000000	8.180367
2442.000000	8.116533
2443.000000	8.085400
2444.000000	8.015367
2445.000000	7.961933
2446.000000	7.903367
2447.000000	7.846667
2448.000000	7.774933
2449.000000	7.734367
2450.000000	7.693367
2451.000000	7.639400
2452.000000	7.580367
2453.000000	7.543967
2454.000000	7.474467
2455.000000	7.451100
2456.000000	7.393967
2457.000000	7.327667
2458.000000	7.317133
2459.000000	7.279600
2460.000000	7.234533
2461.000000	7.195900
2462.000000	7.154633
2463.000000	7.137167
2464.000000	7.105267
2465.000000	7.083467
2466.000000	7.082133
2467.000000	7.071700
2468.000000	7.060667
2469.000000	7.060000
2470.000000	7.038667
2471.000000	7.025733
2472.000000	7.061800
2473.000000	7.051700
2474.000000	7.018700
2475.000000	7.032367
2476.000000	7.045000
2477.000000	7.055467
2478.000000	7.040567
2479.000000	7.041733
2480.000000	7.008267
2481.000000	7.017667
2482.000000	7.006733
2483.000000	7.022267
2484.000000	7.088033
2485.000000	7.053067
2486.000000	7.066933
2487.000000	7.057033
2488.000000	7.068767
2489.000000	7.059367
2490.000000	7.070100
2491.000000	7.120167
2492.000000	7.128000
2493.000000	7.080700
2494.000000	7.207533
2495.000000	7.264100
2496.000000	7.209333
2497.000000	7.226133
2498.000000	7.269767
2499.000000	7.267067
2500.000000	7.250333
