PE UV       SUBTECH     SPECTRUM    ASCII       PEDS        4.00        
   -1
CICIMAUCR0251-3.Sample.ASC
24/05/27
17:05:10.00
24/05/27
17:05:10.00
Vinicio Soto Monge
C. resplendens, F
250,000000
1
Lambda 1050
1050L1511233
PerkinElmer UV WinLab 6.3.2.0749 / 2.02.05 Lambda 900 UV/VIS/NIR, Aug  7 2015 09:38:08

0
0
3350/servo 860,8/2
0
0
UV/VIS
1
1
1
DoubleDePol,CommonBeamDepol,RBeamAtt,SBeamAtt,60mm sphere, WB InGaAs Detector
0
0
0
0
Program
Program
3350/servo 860,8/2
3350/0,2 860,8/0,2
3350/0,2 860,8/0,2
0
15.00
 
 
 
0
 
860,8
319,2
860,8
Front
100
on
S:100 R:100
0
0
0
0
 
0
 
 
 
0
 
 
0
0
0
0
0
 
 
 
 
0
0


0
0
#HDR
-1
-1
#GR
nm
%R
1.0
0.0
2500,000000
-1,000000
2251
8
89,601500
5,208800
#DATA
250.000000	6.669722
251.000000	6.637815
252.000000	6.610083
253.000000	6.594841
254.000000	6.595756
255.000000	6.591358
256.000000	6.554211
257.000000	6.547129
258.000000	6.511326
259.000000	6.511942
260.000000	6.498105
261.000000	6.452178
262.000000	6.425309
263.000000	6.386502
264.000000	6.379918
265.000000	6.349960
266.000000	6.304372
267.000000	6.266401
268.000000	6.262477
269.000000	6.250190
270.000000	6.227246
271.000000	6.222525
272.000000	6.204589
273.000000	6.201197
274.000000	6.198627
275.000000	6.178916
276.000000	6.163333
277.000000	6.157760
278.000000	6.163938
279.000000	6.132151
280.000000	6.137814
281.000000	6.128273
282.000000	6.115216
283.000000	6.116551
284.000000	6.104646
285.000000	6.107976
286.000000	6.104037
287.000000	6.082873
288.000000	6.069937
289.000000	6.060547
290.000000	6.050950
291.000000	6.040176
292.000000	6.029302
293.000000	6.023498
294.000000	5.992372
295.000000	5.979131
296.000000	5.974667
297.000000	5.980890
298.000000	5.968868
299.000000	5.954923
300.000000	5.950817
301.000000	5.955023
302.000000	5.933196
303.000000	5.903848
304.000000	5.906368
305.000000	5.920330
306.000000	5.906768
307.000000	5.900380
308.000000	5.886150
309.000000	5.858501
310.000000	5.856334
311.000000	5.851611
312.000000	5.817321
313.000000	5.805359
314.000000	5.841724
315.000000	5.842282
316.000000	6.122264
317.000000	6.355667
318.000000	6.189191
319.000000	6.268185
320.000000	6.386996
321.000000	6.256982
322.000000	6.095543
323.000000	6.197410
324.000000	6.146055
325.000000	5.993584
326.000000	6.037905
327.000000	5.891791
328.000000	5.804961
329.000000	6.047651
330.000000	6.067505
331.000000	5.935657
332.000000	5.903678
333.000000	5.936713
334.000000	5.968169
335.000000	5.918755
336.000000	5.904985
337.000000	5.991754
338.000000	6.008309
339.000000	5.922746
340.000000	5.923107
341.000000	5.968969
342.000000	5.944472
343.000000	5.978385
344.000000	6.028390
345.000000	5.970311
346.000000	5.954226
347.000000	5.965759
348.000000	5.898366
349.000000	5.899333
350.000000	5.902093
351.000000	5.962772
352.000000	6.042676
353.000000	6.062268
354.000000	6.054029
355.000000	6.111498
356.000000	6.179370
357.000000	6.214272
358.000000	6.248016
359.000000	6.261328
360.000000	6.310789
361.000000	6.330753
362.000000	6.368056
363.000000	6.416879
364.000000	6.475689
365.000000	6.493565
366.000000	6.497277
367.000000	6.495530
368.000000	6.559176
369.000000	6.597613
370.000000	6.593149
371.000000	6.596606
372.000000	6.641806
373.000000	6.633593
374.000000	6.704524
375.000000	6.945654
376.000000	7.040296
377.000000	7.072523
378.000000	7.143437
379.000000	7.214320
380.000000	7.296389
381.000000	7.395099
382.000000	7.486809
383.000000	7.581871
384.000000	7.695833
385.000000	7.826762
386.000000	7.963875
387.000000	8.085859
388.000000	8.226597
389.000000	8.377583
390.000000	8.543724
391.000000	8.725594
392.000000	8.916478
393.000000	9.111319
394.000000	9.344650
395.000000	9.569943
396.000000	9.795338
397.000000	10.038165
398.000000	10.310016
399.000000	10.590357
400.000000	10.889415
401.000000	11.189200
402.000000	11.503924
403.000000	11.848861
404.000000	12.204249
405.000000	12.561415
406.000000	12.938125
407.000000	13.323281
408.000000	13.733898
409.000000	14.136688
410.000000	14.576978
411.000000	14.997241
412.000000	15.437628
413.000000	15.885357
414.000000	16.338981
415.000000	16.793945
416.000000	17.236638
417.000000	17.683232
418.000000	18.139845
419.000000	18.577271
420.000000	19.009200
421.000000	19.447536
422.000000	19.853054
423.000000	20.288483
424.000000	20.704511
425.000000	21.081703
426.000000	21.441368
427.000000	21.781904
428.000000	22.136712
429.000000	22.479162
430.000000	22.780205
431.000000	23.102136
432.000000	23.390899
433.000000	23.665557
434.000000	23.918118
435.000000	24.169162
436.000000	24.416266
437.000000	24.638649
438.000000	24.812526
439.000000	25.019520
440.000000	25.188190
441.000000	25.361243
442.000000	25.474607
443.000000	25.586040
444.000000	25.711843
445.000000	25.814126
446.000000	25.832202
447.000000	25.880086
448.000000	25.918075
449.000000	25.948779
450.000000	25.943138
451.000000	25.926534
452.000000	25.874783
453.000000	25.823170
454.000000	25.765286
455.000000	25.695426
456.000000	25.591784
457.000000	25.491674
458.000000	25.376895
459.000000	25.245008
460.000000	25.136117
461.000000	24.999842
462.000000	24.874709
463.000000	24.747091
464.000000	24.631662
465.000000	24.511497
466.000000	24.405278
467.000000	24.308678
468.000000	24.238248
469.000000	24.165084
470.000000	24.155845
471.000000	24.141818
472.000000	24.172591
473.000000	24.222763
474.000000	24.303366
475.000000	24.438391
476.000000	24.604406
477.000000	24.814728
478.000000	25.062346
479.000000	25.341892
480.000000	25.665408
481.000000	26.008148
482.000000	26.385371
483.000000	26.813394
484.000000	27.230763
485.000000	27.683457
486.000000	28.145565
487.000000	28.593692
488.000000	29.046311
489.000000	29.484747
490.000000	29.928933
491.000000	30.359932
492.000000	30.767495
493.000000	31.111115
494.000000	31.470392
495.000000	31.778708
496.000000	32.064105
497.000000	32.324936
498.000000	32.517483
499.000000	32.730679
500.000000	32.906848
501.000000	33.026250
502.000000	33.185588
503.000000	33.311555
504.000000	33.452031
505.000000	33.604979
506.000000	33.768345
507.000000	33.973410
508.000000	34.171008
509.000000	34.415550
510.000000	34.732022
511.000000	35.065531
512.000000	35.449874
513.000000	35.931906
514.000000	36.462130
515.000000	37.066492
516.000000	37.771029
517.000000	38.508725
518.000000	39.386538
519.000000	40.329727
520.000000	41.357627
521.000000	42.485970
522.000000	43.706128
523.000000	44.991920
524.000000	46.388740
525.000000	47.786103
526.000000	49.273237
527.000000	50.794231
528.000000	52.346628
529.000000	53.932405
530.000000	55.544494
531.000000	57.148611
532.000000	58.754720
533.000000	60.339592
534.000000	61.907551
535.000000	63.403909
536.000000	64.856872
537.000000	66.286897
538.000000	67.612289
539.000000	68.904807
540.000000	70.161426
541.000000	71.370039
542.000000	72.545166
543.000000	73.638680
544.000000	74.706962
545.000000	75.715877
546.000000	76.632353
547.000000	77.581685
548.000000	78.430587
549.000000	79.252546
550.000000	80.040145
551.000000	80.757333
552.000000	81.442673
553.000000	82.096011
554.000000	82.701156
555.000000	83.241517
556.000000	83.749033
557.000000	84.247212
558.000000	84.701512
559.000000	85.138963
560.000000	85.566567
561.000000	85.947957
562.000000	86.290703
563.000000	86.623141
564.000000	86.929396
565.000000	87.237720
566.000000	87.498327
567.000000	87.750449
568.000000	87.974946
569.000000	88.205006
570.000000	88.424664
571.000000	88.595375
572.000000	88.783968
573.000000	88.935333
574.000000	89.078591
575.000000	89.202699
576.000000	89.331636
577.000000	89.423690
578.000000	89.505068
579.000000	89.575038
580.000000	89.631771
581.000000	89.698192
582.000000	89.713007
583.000000	89.693123
584.000000	89.696627
585.000000	89.691041
586.000000	89.668507
587.000000	89.622759
588.000000	89.555262
589.000000	89.471591
590.000000	89.380859
591.000000	89.282359
592.000000	89.171647
593.000000	89.057623
594.000000	88.885941
595.000000	88.733784
596.000000	88.567494
597.000000	88.403820
598.000000	88.182520
599.000000	87.941529
600.000000	87.725850
601.000000	87.456775
602.000000	87.144982
603.000000	86.864419
604.000000	86.560494
605.000000	86.195895
606.000000	85.794310
607.000000	85.401157
608.000000	84.975516
609.000000	84.488429
610.000000	83.997194
611.000000	83.467918
612.000000	82.946752
613.000000	82.407349
614.000000	81.811339
615.000000	81.187199
616.000000	80.573290
617.000000	79.963190
618.000000	79.340255
619.000000	78.676345
620.000000	77.975777
621.000000	77.270489
622.000000	76.479461
623.000000	75.646163
624.000000	74.797644
625.000000	73.915756
626.000000	72.996871
627.000000	72.031878
628.000000	71.034963
629.000000	70.066750
630.000000	69.082684
631.000000	68.077678
632.000000	67.105804
633.000000	66.173048
634.000000	65.268562
635.000000	64.429338
636.000000	63.606680
637.000000	62.774384
638.000000	61.957927
639.000000	61.139684
640.000000	60.269323
641.000000	59.380722
642.000000	58.459387
643.000000	57.501552
644.000000	56.540680
645.000000	55.610711
646.000000	54.756358
647.000000	53.963647
648.000000	53.238132
649.000000	52.644350
650.000000	52.161652
651.000000	51.820043
652.000000	51.666319
653.000000	51.632116
654.000000	51.744447
655.000000	52.003671
656.000000	52.388469
657.000000	52.809293
658.000000	53.305756
659.000000	53.884782
660.000000	54.467532
661.000000	55.103436
662.000000	55.802313
663.000000	56.497037
664.000000	57.181898
665.000000	57.867365
666.000000	58.588287
667.000000	59.333524
668.000000	60.113701
669.000000	60.928967
670.000000	61.751079
671.000000	62.589717
672.000000	63.422923
673.000000	64.274266
674.000000	65.105674
675.000000	65.869230
676.000000	66.597645
677.000000	67.329569
678.000000	67.973946
679.000000	68.596675
680.000000	69.151249
681.000000	69.643246
682.000000	70.086363
683.000000	70.492042
684.000000	70.879674
685.000000	71.222270
686.000000	71.511774
687.000000	71.774978
688.000000	72.013678
689.000000	72.274187
690.000000	72.554288
691.000000	72.767068
692.000000	72.932229
693.000000	73.088496
694.000000	73.258352
695.000000	73.405722
696.000000	73.454341
697.000000	73.463401
698.000000	73.480655
699.000000	73.424892
700.000000	73.303188
701.000000	73.169173
702.000000	73.081719
703.000000	72.996263
704.000000	72.861494
705.000000	72.721080
706.000000	72.614618
707.000000	72.536073
708.000000	72.488448
709.000000	72.482127
710.000000	72.499263
711.000000	72.571103
712.000000	72.660000
713.000000	72.726876
714.000000	72.830999
715.000000	72.929283
716.000000	73.096698
717.000000	73.232957
718.000000	73.384431
719.000000	73.560334
720.000000	73.675444
721.000000	73.777999
722.000000	73.913451
723.000000	74.057816
724.000000	74.213358
725.000000	74.345063
726.000000	74.556438
727.000000	74.748362
728.000000	74.965990
729.000000	75.179320
730.000000	75.417721
731.000000	75.714128
732.000000	76.027970
733.000000	76.435823
734.000000	76.779460
735.000000	77.066830
736.000000	77.426863
737.000000	77.799810
738.000000	78.176784
739.000000	78.517548
740.000000	78.910767
741.000000	79.246031
742.000000	79.629903
743.000000	79.957225
744.000000	80.320250
745.000000	80.580270
746.000000	80.884194
747.000000	81.168500
748.000000	81.305919
749.000000	81.493906
750.000000	81.661143
751.000000	81.851138
752.000000	81.968205
753.000000	82.136029
754.000000	82.211205
755.000000	82.287352
756.000000	82.385524
757.000000	82.511094
758.000000	82.442907
759.000000	82.464266
760.000000	82.436280
761.000000	82.434917
762.000000	82.399186
763.000000	82.366155
764.000000	82.347117
765.000000	82.381964
766.000000	82.375759
767.000000	82.429976
768.000000	82.460913
769.000000	82.518054
770.000000	82.667800
771.000000	82.771678
772.000000	82.854791
773.000000	83.083188
774.000000	83.140277
775.000000	83.391290
776.000000	83.499480
777.000000	83.736559
778.000000	83.858915
779.000000	84.075647
780.000000	84.188079
781.000000	84.317503
782.000000	84.382113
783.000000	84.353146
784.000000	84.434809
785.000000	84.372895
786.000000	84.345938
787.000000	84.081040
788.000000	84.015717
789.000000	83.842990
790.000000	83.659246
791.000000	83.289368
792.000000	83.207582
793.000000	82.955877
794.000000	82.758971
795.000000	82.479922
796.000000	82.193416
797.000000	82.047961
798.000000	81.790441
799.000000	81.424321
800.000000	81.283316
801.000000	81.033073
802.000000	80.787917
803.000000	80.604128
804.000000	80.414937
805.000000	80.158933
806.000000	80.203387
807.000000	79.912300
808.000000	79.894052
809.000000	80.006271
810.000000	79.884858
811.000000	79.901476
812.000000	80.017901
813.000000	79.917786
814.000000	80.157687
815.000000	80.039571
816.000000	80.208385
817.000000	80.451840
818.000000	80.273508
819.000000	80.369155
820.000000	80.422656
821.000000	80.242670
822.000000	80.238505
823.000000	80.041675
824.000000	79.880796
825.000000	79.656909
826.000000	79.391581
827.000000	79.135328
828.000000	78.845460
829.000000	78.583200
830.000000	78.182771
831.000000	77.822440
832.000000	77.512126
833.000000	77.090255
834.000000	76.699574
835.000000	76.395043
836.000000	75.910015
837.000000	75.603041
838.000000	75.465565
839.000000	75.064332
840.000000	74.803999
841.000000	74.620549
842.000000	74.323165
843.000000	74.186697
844.000000	73.602050
845.000000	73.543443
846.000000	73.421626
847.000000	73.230454
848.000000	73.021515
849.000000	72.640412
850.000000	72.586034
851.000000	72.535262
852.000000	72.100669
853.000000	72.024453
854.000000	71.536633
855.000000	71.237726
856.000000	71.695939
857.000000	71.020753
858.000000	71.225367
859.000000	71.078300
860.000000	70.933367
861.000000	70.795400
862.000000	70.679033
863.000000	70.546233
864.000000	70.425033
865.000000	70.306433
866.000000	70.198600
867.000000	70.086233
868.000000	69.987033
869.000000	69.896800
870.000000	69.850000
871.000000	69.841900
872.000000	69.855233
873.000000	69.865700
874.000000	69.867467
875.000000	69.852833
876.000000	69.832567
877.000000	69.809367
878.000000	69.787933
879.000000	69.763067
880.000000	69.735367
881.000000	69.714200
882.000000	69.692767
883.000000	69.684167
884.000000	69.671433
885.000000	69.651367
886.000000	69.632833
887.000000	69.612467
888.000000	69.588667
889.000000	69.552833
890.000000	69.523000
891.000000	69.486000
892.000000	69.440000
893.000000	69.388300
894.000000	69.328267
895.000000	69.259333
896.000000	69.196900
897.000000	69.127033
898.000000	69.055567
899.000000	68.990433
900.000000	68.914900
901.000000	68.833933
902.000000	68.768133
903.000000	68.705367
904.000000	68.640033
905.000000	68.585867
906.000000	68.541400
907.000000	68.503233
908.000000	68.464900
909.000000	68.431100
910.000000	68.399167
911.000000	68.379000
912.000000	68.375867
913.000000	68.366767
914.000000	68.347500
915.000000	68.321167
916.000000	68.307967
917.000000	68.301300
918.000000	68.301600
919.000000	68.289467
920.000000	68.266333
921.000000	68.258800
922.000000	68.246367
923.000000	68.226900
924.000000	68.218100
925.000000	68.210533
926.000000	68.197933
927.000000	68.175433
928.000000	68.161200
929.000000	68.146933
930.000000	68.119433
931.000000	68.084667
932.000000	68.041933
933.000000	68.007600
934.000000	67.956200
935.000000	67.905333
936.000000	67.852900
937.000000	67.793267
938.000000	67.750833
939.000000	67.701867
940.000000	67.636300
941.000000	67.571267
942.000000	67.517167
943.000000	67.453967
944.000000	67.377800
945.000000	67.298700
946.000000	67.229800
947.000000	67.150733
948.000000	67.077067
949.000000	66.995600
950.000000	66.884567
951.000000	66.785333
952.000000	66.698167
953.000000	66.593567
954.000000	66.487567
955.000000	66.376933
956.000000	66.256500
957.000000	66.142133
958.000000	66.038767
959.000000	65.935667
960.000000	65.816567
961.000000	65.693267
962.000000	65.579367
963.000000	65.481033
964.000000	65.389767
965.000000	65.287533
966.000000	65.173233
967.000000	65.077500
968.000000	64.992433
969.000000	64.900967
970.000000	64.805967
971.000000	64.704933
972.000000	64.602267
973.000000	64.511467
974.000000	64.407433
975.000000	64.286600
976.000000	64.177667
977.000000	64.084500
978.000000	63.976567
979.000000	63.865700
980.000000	63.747433
981.000000	63.644800
982.000000	63.533200
983.000000	63.413400
984.000000	63.297100
985.000000	63.183900
986.000000	63.070933
987.000000	62.956467
988.000000	62.843700
989.000000	62.736133
990.000000	62.621133
991.000000	62.497867
992.000000	62.383133
993.000000	62.286733
994.000000	62.173967
995.000000	62.048300
996.000000	61.930667
997.000000	61.813667
998.000000	61.702200
999.000000	61.590600
1000.000000	61.477767
1001.000000	61.369833
1002.000000	61.258400
1003.000000	61.154567
1004.000000	61.058700
1005.000000	60.956867
1006.000000	60.861167
1007.000000	60.765667
1008.000000	60.673300
1009.000000	60.582600
1010.000000	60.488800
1011.000000	60.406233
1012.000000	60.345233
1013.000000	60.296000
1014.000000	60.250300
1015.000000	60.205567
1016.000000	60.173267
1017.000000	60.142167
1018.000000	60.123333
1019.000000	60.102300
1020.000000	60.096000
1021.000000	60.088333
1022.000000	60.072333
1023.000000	60.061967
1024.000000	60.071600
1025.000000	60.070833
1026.000000	60.069733
1027.000000	60.069367
1028.000000	60.065533
1029.000000	60.058333
1030.000000	60.054067
1031.000000	60.050200
1032.000000	60.041867
1033.000000	60.027533
1034.000000	60.025333
1035.000000	60.014300
1036.000000	59.996200
1037.000000	59.983100
1038.000000	59.970567
1039.000000	59.956533
1040.000000	59.928333
1041.000000	59.910800
1042.000000	59.890467
1043.000000	59.873867
1044.000000	59.847433
1045.000000	59.829600
1046.000000	59.827167
1047.000000	59.805667
1048.000000	59.796067
1049.000000	59.796200
1050.000000	59.797167
1051.000000	59.800100
1052.000000	59.807700
1053.000000	59.814867
1054.000000	59.828667
1055.000000	59.839433
1056.000000	59.861867
1057.000000	59.875233
1058.000000	59.895433
1059.000000	59.909067
1060.000000	59.916300
1061.000000	59.927533
1062.000000	59.945267
1063.000000	59.956167
1064.000000	59.969900
1065.000000	59.984700
1066.000000	60.000567
1067.000000	60.018833
1068.000000	60.025767
1069.000000	60.050167
1070.000000	60.069400
1071.000000	60.088067
1072.000000	60.108167
1073.000000	60.126633
1074.000000	60.133967
1075.000000	60.161700
1076.000000	60.190133
1077.000000	60.210400
1078.000000	60.223967
1079.000000	60.262067
1080.000000	60.286433
1081.000000	60.302900
1082.000000	60.335833
1083.000000	60.356633
1084.000000	60.394533
1085.000000	60.425367
1086.000000	60.439133
1087.000000	60.472533
1088.000000	60.491900
1089.000000	60.521600
1090.000000	60.537367
1091.000000	60.560433
1092.000000	60.575433
1093.000000	60.594133
1094.000000	60.599867
1095.000000	60.616833
1096.000000	60.631000
1097.000000	60.629167
1098.000000	60.625233
1099.000000	60.635900
1100.000000	60.637767
1101.000000	60.632500
1102.000000	60.624767
1103.000000	60.624333
1104.000000	60.616133
1105.000000	60.613967
1106.000000	60.607533
1107.000000	60.594633
1108.000000	60.582833
1109.000000	60.578067
1110.000000	60.568233
1111.000000	60.563500
1112.000000	60.547467
1113.000000	60.539267
1114.000000	60.534000
1115.000000	60.511267
1116.000000	60.494500
1117.000000	60.462833
1118.000000	60.418367
1119.000000	60.355933
1120.000000	60.283167
1121.000000	60.194267
1122.000000	60.109867
1123.000000	59.983567
1124.000000	59.850533
1125.000000	59.709000
1126.000000	59.521533
1127.000000	59.297867
1128.000000	59.029000
1129.000000	58.712467
1130.000000	58.333100
1131.000000	57.903600
1132.000000	57.434467
1133.000000	56.975167
1134.000000	56.442333
1135.000000	55.891900
1136.000000	55.342400
1137.000000	54.809100
1138.000000	54.302500
1139.000000	53.820900
1140.000000	53.356467
1141.000000	52.896200
1142.000000	52.472200
1143.000000	52.080833
1144.000000	51.741133
1145.000000	51.469933
1146.000000	51.267933
1147.000000	51.127700
1148.000000	51.013133
1149.000000	50.925100
1150.000000	50.829533
1151.000000	50.704367
1152.000000	50.555333
1153.000000	50.362267
1154.000000	50.105467
1155.000000	49.811000
1156.000000	49.453467
1157.000000	49.084800
1158.000000	48.682800
1159.000000	48.257533
1160.000000	47.825833
1161.000000	47.403233
1162.000000	46.960700
1163.000000	46.535567
1164.000000	46.097733
1165.000000	45.682700
1166.000000	45.280733
1167.000000	44.892033
1168.000000	44.507867
1169.000000	44.121633
1170.000000	43.752467
1171.000000	43.385067
1172.000000	43.025667
1173.000000	42.682067
1174.000000	42.342600
1175.000000	41.984567
1176.000000	41.606200
1177.000000	41.163300
1178.000000	40.669533
1179.000000	40.124667
1180.000000	39.589000
1181.000000	39.074167
1182.000000	38.624033
1183.000000	38.295600
1184.000000	38.104633
1185.000000	38.060700
1186.000000	38.145600
1187.000000	38.347200
1188.000000	38.676567
1189.000000	39.083867
1190.000000	39.548500
1191.000000	40.021533
1192.000000	40.444733
1193.000000	40.820267
1194.000000	41.137933
1195.000000	41.386300
1196.000000	41.577067
1197.000000	41.719467
1198.000000	41.818233
1199.000000	41.895900
1200.000000	41.950967
1201.000000	41.991733
1202.000000	42.039867
1203.000000	42.093100
1204.000000	42.142100
1205.000000	42.204400
1206.000000	42.292200
1207.000000	42.399200
1208.000000	42.515467
1209.000000	42.644667
1210.000000	42.778367
1211.000000	42.925067
1212.000000	43.077167
1213.000000	43.223367
1214.000000	43.384667
1215.000000	43.549367
1216.000000	43.715800
1217.000000	43.891867
1218.000000	44.072133
1219.000000	44.270200
1220.000000	44.474433
1221.000000	44.675900
1222.000000	44.877700
1223.000000	45.085667
1224.000000	45.294300
1225.000000	45.505667
1226.000000	45.720900
1227.000000	45.924100
1228.000000	46.124200
1229.000000	46.325600
1230.000000	46.519967
1231.000000	46.721333
1232.000000	46.919833
1233.000000	47.099167
1234.000000	47.276300
1235.000000	47.457933
1236.000000	47.633433
1237.000000	47.805600
1238.000000	47.970267
1239.000000	48.131500
1240.000000	48.288833
1241.000000	48.439333
1242.000000	48.590800
1243.000000	48.731067
1244.000000	48.868233
1245.000000	48.993167
1246.000000	49.115367
1247.000000	49.234367
1248.000000	49.339867
1249.000000	49.436000
1250.000000	49.525900
1251.000000	49.611800
1252.000000	49.703467
1253.000000	49.779867
1254.000000	49.853300
1255.000000	49.922933
1256.000000	49.991400
1257.000000	50.054000
1258.000000	50.109367
1259.000000	50.171333
1260.000000	50.228900
1261.000000	50.282400
1262.000000	50.336433
1263.000000	50.390967
1264.000000	50.441033
1265.000000	50.498567
1266.000000	50.556367
1267.000000	50.613633
1268.000000	50.659900
1269.000000	50.707567
1270.000000	50.757400
1271.000000	50.807600
1272.000000	50.848367
1273.000000	50.896800
1274.000000	50.946767
1275.000000	51.005167
1276.000000	51.061967
1277.000000	51.118867
1278.000000	51.176900
1279.000000	51.241400
1280.000000	51.303900
1281.000000	51.363267
1282.000000	51.420233
1283.000000	51.478333
1284.000000	51.530600
1285.000000	51.584700
1286.000000	51.625667
1287.000000	51.663867
1288.000000	51.691400
1289.000000	51.707300
1290.000000	51.722000
1291.000000	51.726900
1292.000000	51.727833
1293.000000	51.711567
1294.000000	51.691033
1295.000000	51.673600
1296.000000	51.648067
1297.000000	51.611800
1298.000000	51.578100
1299.000000	51.532867
1300.000000	51.487367
1301.000000	51.431800
1302.000000	51.373333
1303.000000	51.310467
1304.000000	51.234100
1305.000000	51.136833
1306.000000	51.051733
1307.000000	50.940100
1308.000000	50.837400
1309.000000	50.730133
1310.000000	50.598600
1311.000000	50.463133
1312.000000	50.322133
1313.000000	50.165000
1314.000000	50.005000
1315.000000	49.842867
1316.000000	49.673000
1317.000000	49.496233
1318.000000	49.317200
1319.000000	49.125733
1320.000000	48.929033
1321.000000	48.726633
1322.000000	48.510633
1323.000000	48.291933
1324.000000	48.070233
1325.000000	47.829200
1326.000000	47.584500
1327.000000	47.333400
1328.000000	47.074833
1329.000000	46.796267
1330.000000	46.510533
1331.000000	46.220733
1332.000000	45.921833
1333.000000	45.609933
1334.000000	45.288633
1335.000000	44.969567
1336.000000	44.641233
1337.000000	44.314267
1338.000000	43.977933
1339.000000	43.626533
1340.000000	43.275767
1341.000000	42.913167
1342.000000	42.568300
1343.000000	42.196333
1344.000000	41.803767
1345.000000	41.415767
1346.000000	41.060067
1347.000000	40.616067
1348.000000	40.181600
1349.000000	39.705567
1350.000000	39.190533
1351.000000	38.645800
1352.000000	38.072533
1353.000000	37.630667
1354.000000	37.205367
1355.000000	36.840433
1356.000000	36.563200
1357.000000	36.388533
1358.000000	36.254533
1359.000000	36.143067
1360.000000	36.064400
1361.000000	35.896300
1362.000000	35.712433
1363.000000	35.504400
1364.000000	35.305267
1365.000000	35.048667
1366.000000	34.823733
1367.000000	34.533967
1368.000000	34.204067
1369.000000	33.868600
1370.000000	33.523400
1371.000000	33.121200
1372.000000	32.751433
1373.000000	32.398167
1374.000000	32.110100
1375.000000	31.853367
1376.000000	31.649200
1377.000000	31.424067
1378.000000	31.208333
1379.000000	30.913800
1380.000000	30.601833
1381.000000	30.164333
1382.000000	29.619533
1383.000000	29.028233
1384.000000	28.454500
1385.000000	27.911000
1386.000000	27.412967
1387.000000	26.958833
1388.000000	26.486433
1389.000000	26.085367
1390.000000	25.764233
1391.000000	25.417767
1392.000000	25.069300
1393.000000	24.795100
1394.000000	24.529867
1395.000000	24.184633
1396.000000	23.824967
1397.000000	23.493767
1398.000000	23.203200
1399.000000	22.875933
1400.000000	22.475933
1401.000000	22.057700
1402.000000	21.670767
1403.000000	21.292667
1404.000000	20.909600
1405.000000	20.519833
1406.000000	20.158800
1407.000000	19.817200
1408.000000	19.467767
1409.000000	19.132933
1410.000000	18.809767
1411.000000	18.521867
1412.000000	18.292267
1413.000000	18.063667
1414.000000	17.810667
1415.000000	17.569267
1416.000000	17.343833
1417.000000	17.150800
1418.000000	16.950167
1419.000000	16.736667
1420.000000	16.531067
1421.000000	16.342867
1422.000000	16.172000
1423.000000	15.999300
1424.000000	15.832267
1425.000000	15.653167
1426.000000	15.508167
1427.000000	15.374933
1428.000000	15.240067
1429.000000	15.109667
1430.000000	15.000933
1431.000000	14.877500
1432.000000	14.783133
1433.000000	14.675533
1434.000000	14.577767
1435.000000	14.476933
1436.000000	14.396967
1437.000000	14.318333
1438.000000	14.225633
1439.000000	14.137533
1440.000000	14.055300
1441.000000	13.960300
1442.000000	13.883767
1443.000000	13.806533
1444.000000	13.739233
1445.000000	13.667033
1446.000000	13.584033
1447.000000	13.517300
1448.000000	13.453333
1449.000000	13.392667
1450.000000	13.324700
1451.000000	13.266467
1452.000000	13.202833
1453.000000	13.145333
1454.000000	13.092233
1455.000000	13.037333
1456.000000	12.990167
1457.000000	12.949500
1458.000000	12.908867
1459.000000	12.874867
1460.000000	12.841367
1461.000000	12.808767
1462.000000	12.780000
1463.000000	12.761300
1464.000000	12.746067
1465.000000	12.727800
1466.000000	12.720567
1467.000000	12.711433
1468.000000	12.700167
1469.000000	12.698300
1470.000000	12.700700
1471.000000	12.692767
1472.000000	12.675500
1473.000000	12.669567
1474.000000	12.667933
1475.000000	12.671300
1476.000000	12.685600
1477.000000	12.686567
1478.000000	12.688633
1479.000000	12.696467
1480.000000	12.710500
1481.000000	12.725800
1482.000000	12.749667
1483.000000	12.769333
1484.000000	12.790667
1485.000000	12.815133
1486.000000	12.841167
1487.000000	12.866100
1488.000000	12.887667
1489.000000	12.919233
1490.000000	12.947100
1491.000000	12.980033
1492.000000	13.017933
1493.000000	13.051733
1494.000000	13.085000
1495.000000	13.119267
1496.000000	13.156100
1497.000000	13.194700
1498.000000	13.242933
1499.000000	13.286767
1500.000000	13.333533
1501.000000	13.380533
1502.000000	13.423433
1503.000000	13.485267
1504.000000	13.541100
1505.000000	13.587433
1506.000000	13.638333
1507.000000	13.692067
1508.000000	13.750900
1509.000000	13.801400
1510.000000	13.848733
1511.000000	13.902567
1512.000000	13.958300
1513.000000	14.003333
1514.000000	14.051467
1515.000000	14.103333
1516.000000	14.154333
1517.000000	14.202200
1518.000000	14.248333
1519.000000	14.300267
1520.000000	14.344500
1521.000000	14.387667
1522.000000	14.436000
1523.000000	14.469733
1524.000000	14.510467
1525.000000	14.556167
1526.000000	14.597300
1527.000000	14.632933
1528.000000	14.666667
1529.000000	14.703167
1530.000000	14.738733
1531.000000	14.772533
1532.000000	14.798133
1533.000000	14.826233
1534.000000	14.856400
1535.000000	14.881900
1536.000000	14.897433
1537.000000	14.918900
1538.000000	14.934333
1539.000000	14.952467
1540.000000	14.969533
1541.000000	14.983467
1542.000000	15.005667
1543.000000	15.023333
1544.000000	15.039933
1545.000000	15.054800
1546.000000	15.077133
1547.000000	15.099867
1548.000000	15.126500
1549.000000	15.141733
1550.000000	15.159467
1551.000000	15.183900
1552.000000	15.197100
1553.000000	15.209767
1554.000000	15.220833
1555.000000	15.237433
1556.000000	15.244567
1557.000000	15.246967
1558.000000	15.247667
1559.000000	15.253867
1560.000000	15.250833
1561.000000	15.254433
1562.000000	15.257933
1563.000000	15.262567
1564.000000	15.257667
1565.000000	15.250400
1566.000000	15.236133
1567.000000	15.247733
1568.000000	15.243700
1569.000000	15.238700
1570.000000	15.250300
1571.000000	15.246567
1572.000000	15.261833
1573.000000	15.268733
1574.000000	15.280100
1575.000000	15.291133
1576.000000	15.307733
1577.000000	15.328800
1578.000000	15.348733
1579.000000	15.375067
1580.000000	15.399533
1581.000000	15.437000
1582.000000	15.473733
1583.000000	15.505167
1584.000000	15.542400
1585.000000	15.572767
1586.000000	15.614067
1587.000000	15.656633
1588.000000	15.698033
1589.000000	15.745900
1590.000000	15.788067
1591.000000	15.841267
1592.000000	15.889400
1593.000000	15.940233
1594.000000	15.996933
1595.000000	16.050300
1596.000000	16.108433
1597.000000	16.160567
1598.000000	16.220733
1599.000000	16.290533
1600.000000	16.344767
1601.000000	16.409867
1602.000000	16.472200
1603.000000	16.532333
1604.000000	16.606833
1605.000000	16.678700
1606.000000	16.740900
1607.000000	16.800833
1608.000000	16.869300
1609.000000	16.926533
1610.000000	16.989133
1611.000000	17.045700
1612.000000	17.122333
1613.000000	17.196267
1614.000000	17.263433
1615.000000	17.345367
1616.000000	17.413967
1617.000000	17.478600
1618.000000	17.548233
1619.000000	17.618800
1620.000000	17.702300
1621.000000	17.766900
1622.000000	17.851567
1623.000000	17.936033
1624.000000	18.012100
1625.000000	18.088500
1626.000000	18.157233
1627.000000	18.243367
1628.000000	18.317567
1629.000000	18.386367
1630.000000	18.483700
1631.000000	18.553900
1632.000000	18.621033
1633.000000	18.696167
1634.000000	18.766267
1635.000000	18.825033
1636.000000	18.891300
1637.000000	18.966100
1638.000000	19.038200
1639.000000	19.091033
1640.000000	19.154333
1641.000000	19.211067
1642.000000	19.265900
1643.000000	19.308600
1644.000000	19.367267
1645.000000	19.417067
1646.000000	19.470267
1647.000000	19.503467
1648.000000	19.545200
1649.000000	19.580100
1650.000000	19.615333
1651.000000	19.625900
1652.000000	19.653200
1653.000000	19.659900
1654.000000	19.671033
1655.000000	19.665900
1656.000000	19.654600
1657.000000	19.643833
1658.000000	19.620833
1659.000000	19.579600
1660.000000	19.548633
1661.000000	19.501233
1662.000000	19.448800
1663.000000	19.384100
1664.000000	19.302667
1665.000000	19.222800
1666.000000	19.114633
1667.000000	19.012100
1668.000000	18.883833
1669.000000	18.739933
1670.000000	18.559267
1671.000000	18.356667
1672.000000	18.119900
1673.000000	17.864000
1674.000000	17.554667
1675.000000	17.205533
1676.000000	16.795167
1677.000000	16.371600
1678.000000	15.926333
1679.000000	15.487300
1680.000000	15.085133
1681.000000	14.761567
1682.000000	14.540867
1683.000000	14.397067
1684.000000	14.318433
1685.000000	14.283533
1686.000000	14.264200
1687.000000	14.207067
1688.000000	14.132600
1689.000000	14.039400
1690.000000	13.913500
1691.000000	13.795067
1692.000000	13.690633
1693.000000	13.617633
1694.000000	13.582900
1695.000000	13.614633
1696.000000	13.667400
1697.000000	13.757767
1698.000000	13.888433
1699.000000	14.007567
1700.000000	14.120033
1701.000000	14.233100
1702.000000	14.316900
1703.000000	14.379400
1704.000000	14.426300
1705.000000	14.471033
1706.000000	14.506667
1707.000000	14.527367
1708.000000	14.540500
1709.000000	14.526500
1710.000000	14.515233
1711.000000	14.481967
1712.000000	14.435167
1713.000000	14.376600
1714.000000	14.317233
1715.000000	14.261400
1716.000000	14.207233
1717.000000	14.167867
1718.000000	14.131567
1719.000000	14.103067
1720.000000	14.079033
1721.000000	14.066933
1722.000000	14.044300
1723.000000	13.999167
1724.000000	13.936200
1725.000000	13.889967
1726.000000	13.812067
1727.000000	13.728200
1728.000000	13.645133
1729.000000	13.566800
1730.000000	13.504467
1731.000000	13.461167
1732.000000	13.447533
1733.000000	13.484767
1734.000000	13.533200
1735.000000	13.616500
1736.000000	13.739833
1737.000000	13.894867
1738.000000	14.064167
1739.000000	14.247633
1740.000000	14.412833
1741.000000	14.581033
1742.000000	14.731700
1743.000000	14.860700
1744.000000	14.982167
1745.000000	15.066100
1746.000000	15.137167
1747.000000	15.197467
1748.000000	15.242100
1749.000000	15.256633
1750.000000	15.278100
1751.000000	15.278267
1752.000000	15.268267
1753.000000	15.249900
1754.000000	15.207100
1755.000000	15.163467
1756.000000	15.110933
1757.000000	15.055600
1758.000000	14.993400
1759.000000	14.937967
1760.000000	14.889233
1761.000000	14.853867
1762.000000	14.847267
1763.000000	14.859200
1764.000000	14.891900
1765.000000	14.942667
1766.000000	15.019367
1767.000000	15.100433
1768.000000	15.181100
1769.000000	15.266167
1770.000000	15.367767
1771.000000	15.464700
1772.000000	15.558700
1773.000000	15.650867
1774.000000	15.738467
1775.000000	15.825667
1776.000000	15.903900
1777.000000	15.971967
1778.000000	16.044967
1779.000000	16.109600
1780.000000	16.171033
1781.000000	16.236533
1782.000000	16.301500
1783.000000	16.365933
1784.000000	16.430567
1785.000000	16.485367
1786.000000	16.534567
1787.000000	16.589900
1788.000000	16.640133
1789.000000	16.685567
1790.000000	16.734867
1791.000000	16.791467
1792.000000	16.841167
1793.000000	16.884567
1794.000000	16.927300
1795.000000	16.963100
1796.000000	17.000967
1797.000000	17.036667
1798.000000	17.075933
1799.000000	17.127300
1800.000000	17.184133
1801.000000	17.222800
1802.000000	17.258400
1803.000000	17.307067
1804.000000	17.346367
1805.000000	17.389200
1806.000000	17.429300
1807.000000	17.461333
1808.000000	17.494933
1809.000000	17.523833
1810.000000	17.551167
1811.000000	17.575400
1812.000000	17.594367
1813.000000	17.601633
1814.000000	17.607300
1815.000000	17.611767
1816.000000	17.619633
1817.000000	17.624133
1818.000000	17.646833
1819.000000	17.688033
1820.000000	17.712267
1821.000000	17.726567
1822.000000	17.737600
1823.000000	17.759467
1824.000000	17.795433
1825.000000	17.852700
1826.000000	17.902933
1827.000000	17.966400
1828.000000	18.032267
1829.000000	18.079933
1830.000000	18.133033
1831.000000	18.182500
1832.000000	18.228667
1833.000000	18.275867
1834.000000	18.324467
1835.000000	18.367600
1836.000000	18.407933
1837.000000	18.435233
1838.000000	18.457800
1839.000000	18.494300
1840.000000	18.504667
1841.000000	18.518133
1842.000000	18.508233
1843.000000	18.512000
1844.000000	18.535567
1845.000000	18.559933
1846.000000	18.599667
1847.000000	18.633567
1848.000000	18.648100
1849.000000	18.643133
1850.000000	18.634267
1851.000000	18.631167
1852.000000	18.611667
1853.000000	18.613933
1854.000000	18.581900
1855.000000	18.546333
1856.000000	18.496533
1857.000000	18.430300
1858.000000	18.353200
1859.000000	18.265533
1860.000000	18.141833
1861.000000	18.010833
1862.000000	17.873233
1863.000000	17.737233
1864.000000	17.590133
1865.000000	17.428267
1866.000000	17.260867
1867.000000	17.066700
1868.000000	16.834133
1869.000000	16.550767
1870.000000	16.267133
1871.000000	15.946967
1872.000000	15.628100
1873.000000	15.275067
1874.000000	14.912100
1875.000000	14.545933
1876.000000	14.173700
1877.000000	13.783367
1878.000000	13.380633
1879.000000	12.995567
1880.000000	12.616667
1881.000000	12.216867
1882.000000	11.831400
1883.000000	11.450967
1884.000000	11.078233
1885.000000	10.766633
1886.000000	10.455033
1887.000000	10.194767
1888.000000	9.947233
1889.000000	9.728167
1890.000000	9.497833
1891.000000	9.273933
1892.000000	9.061633
1893.000000	8.884633
1894.000000	8.704633
1895.000000	8.567400
1896.000000	8.424733
1897.000000	8.263433
1898.000000	8.130967
1899.000000	7.979567
1900.000000	7.840700
1901.000000	7.708233
1902.000000	7.599067
1903.000000	7.477533
1904.000000	7.364333
1905.000000	7.270500
1906.000000	7.152867
1907.000000	7.057700
1908.000000	6.976033
1909.000000	6.900867
1910.000000	6.831900
1911.000000	6.767867
1912.000000	6.697000
1913.000000	6.612000
1914.000000	6.545800
1915.000000	6.487500
1916.000000	6.429667
1917.000000	6.381200
1918.000000	6.326600
1919.000000	6.295000
1920.000000	6.237433
1921.000000	6.196933
1922.000000	6.152467
1923.000000	6.111067
1924.000000	6.078600
1925.000000	6.061567
1926.000000	6.027167
1927.000000	6.000733
1928.000000	5.985533
1929.000000	5.942800
1930.000000	5.931900
1931.000000	5.905633
1932.000000	5.904833
1933.000000	5.897300
1934.000000	5.893733
1935.000000	5.876267
1936.000000	5.875333
1937.000000	5.874600
1938.000000	5.871233
1939.000000	5.868867
1940.000000	5.871600
1941.000000	5.865400
1942.000000	5.865467
1943.000000	5.886367
1944.000000	5.887967
1945.000000	5.905700
1946.000000	5.918133
1947.000000	5.913233
1948.000000	5.925033
1949.000000	5.939133
1950.000000	5.947767
1951.000000	5.969400
1952.000000	5.992000
1953.000000	6.000300
1954.000000	6.010367
1955.000000	6.048500
1956.000000	6.057167
1957.000000	6.072200
1958.000000	6.089600
1959.000000	6.110500
1960.000000	6.119900
1961.000000	6.153367
1962.000000	6.165633
1963.000000	6.193733
1964.000000	6.201667
1965.000000	6.230733
1966.000000	6.259533
1967.000000	6.272500
1968.000000	6.300933
1969.000000	6.310900
1970.000000	6.341367
1971.000000	6.360667
1972.000000	6.393167
1973.000000	6.422600
1974.000000	6.445800
1975.000000	6.470667
1976.000000	6.498367
1977.000000	6.522667
1978.000000	6.560733
1979.000000	6.589733
1980.000000	6.626900
1981.000000	6.647367
1982.000000	6.676067
1983.000000	6.704667
1984.000000	6.734633
1985.000000	6.772567
1986.000000	6.811900
1987.000000	6.833033
1988.000000	6.859933
1989.000000	6.909867
1990.000000	6.923567
1991.000000	6.948167
1992.000000	6.987900
1993.000000	7.010300
1994.000000	7.033267
1995.000000	7.065567
1996.000000	7.100433
1997.000000	7.114300
1998.000000	7.140067
1999.000000	7.163433
2000.000000	7.187700
2001.000000	7.203933
2002.000000	7.228467
2003.000000	7.243467
2004.000000	7.273133
2005.000000	7.288700
2006.000000	7.304933
2007.000000	7.313733
2008.000000	7.317300
2009.000000	7.339233
2010.000000	7.353267
2011.000000	7.363033
2012.000000	7.368067
2013.000000	7.377900
2014.000000	7.380533
2015.000000	7.385133
2016.000000	7.386867
2017.000000	7.385567
2018.000000	7.388033
2019.000000	7.380633
2020.000000	7.379200
2021.000000	7.379167
2022.000000	7.364533
2023.000000	7.355633
2024.000000	7.348567
2025.000000	7.329767
2026.000000	7.327967
2027.000000	7.312967
2028.000000	7.298033
2029.000000	7.279900
2030.000000	7.266000
2031.000000	7.249200
2032.000000	7.235067
2033.000000	7.208867
2034.000000	7.184467
2035.000000	7.161233
2036.000000	7.135167
2037.000000	7.119000
2038.000000	7.085433
2039.000000	7.041967
2040.000000	7.009267
2041.000000	6.975333
2042.000000	6.945800
2043.000000	6.914600
2044.000000	6.888367
2045.000000	6.858000
2046.000000	6.829067
2047.000000	6.796433
2048.000000	6.770733
2049.000000	6.747300
2050.000000	6.727933
2051.000000	6.720200
2052.000000	6.713600
2053.000000	6.706933
2054.000000	6.698133
2055.000000	6.693133
2056.000000	6.697567
2057.000000	6.708767
2058.000000	6.709300
2059.000000	6.716667
2060.000000	6.730800
2061.000000	6.750767
2062.000000	6.766033
2063.000000	6.784067
2064.000000	6.797333
2065.000000	6.810133
2066.000000	6.831200
2067.000000	6.856667
2068.000000	6.869100
2069.000000	6.889833
2070.000000	6.913167
2071.000000	6.930500
2072.000000	6.954267
2073.000000	6.971400
2074.000000	6.990767
2075.000000	7.011767
2076.000000	7.027867
2077.000000	7.044100
2078.000000	7.063400
2079.000000	7.084000
2080.000000	7.095700
2081.000000	7.110967
2082.000000	7.130967
2083.000000	7.145833
2084.000000	7.156233
2085.000000	7.172800
2086.000000	7.190300
2087.000000	7.198467
2088.000000	7.213000
2089.000000	7.225967
2090.000000	7.233500
2091.000000	7.249467
2092.000000	7.269300
2093.000000	7.279467
2094.000000	7.289500
2095.000000	7.308667
2096.000000	7.322633
2097.000000	7.338900
2098.000000	7.356700
2099.000000	7.374600
2100.000000	7.392433
2101.000000	7.404333
2102.000000	7.426900
2103.000000	7.446400
2104.000000	7.464567
2105.000000	7.486400
2106.000000	7.502933
2107.000000	7.522067
2108.000000	7.545200
2109.000000	7.565500
2110.000000	7.582967
2111.000000	7.597067
2112.000000	7.617300
2113.000000	7.629067
2114.000000	7.652867
2115.000000	7.679067
2116.000000	7.690033
2117.000000	7.702400
2118.000000	7.715733
2119.000000	7.735600
2120.000000	7.742033
2121.000000	7.753367
2122.000000	7.765900
2123.000000	7.778733
2124.000000	7.781900
2125.000000	7.793767
2126.000000	7.800800
2127.000000	7.801300
2128.000000	7.805800
2129.000000	7.805300
2130.000000	7.800033
2131.000000	7.807433
2132.000000	7.805800
2133.000000	7.789533
2134.000000	7.790000
2135.000000	7.790900
2136.000000	7.784233
2137.000000	7.774667
2138.000000	7.761433
2139.000000	7.756833
2140.000000	7.744467
2141.000000	7.725500
2142.000000	7.711400
2143.000000	7.694200
2144.000000	7.683067
2145.000000	7.666533
2146.000000	7.649167
2147.000000	7.631267
2148.000000	7.622600
2149.000000	7.598033
2150.000000	7.584233
2151.000000	7.568000
2152.000000	7.545300
2153.000000	7.530000
2154.000000	7.505700
2155.000000	7.486700
2156.000000	7.467667
2157.000000	7.452167
2158.000000	7.430800
2159.000000	7.420267
2160.000000	7.409767
2161.000000	7.389767
2162.000000	7.367200
2163.000000	7.357133
2164.000000	7.346867
2165.000000	7.329433
2166.000000	7.323600
2167.000000	7.315800
2168.000000	7.300467
2169.000000	7.303100
2170.000000	7.282667
2171.000000	7.276367
2172.000000	7.265267
2173.000000	7.261433
2174.000000	7.267500
2175.000000	7.262067
2176.000000	7.256333
2177.000000	7.258300
2178.000000	7.255367
2179.000000	7.255033
2180.000000	7.261700
2181.000000	7.270833
2182.000000	7.268033
2183.000000	7.273200
2184.000000	7.271933
2185.000000	7.289533
2186.000000	7.286933
2187.000000	7.279667
2188.000000	7.288533
2189.000000	7.282833
2190.000000	7.292833
2191.000000	7.303900
2192.000000	7.303933
2193.000000	7.302433
2194.000000	7.317267
2195.000000	7.309767
2196.000000	7.311100
2197.000000	7.317000
2198.000000	7.316867
2199.000000	7.324600
2200.000000	7.339267
2201.000000	7.349633
2202.000000	7.349000
2203.000000	7.346233
2204.000000	7.352133
2205.000000	7.368900
2206.000000	7.376633
2207.000000	7.387300
2208.000000	7.377400
2209.000000	7.394633
2210.000000	7.406167
2211.000000	7.413733
2212.000000	7.422033
2213.000000	7.428933
2214.000000	7.441933
2215.000000	7.463000
2216.000000	7.466367
2217.000000	7.465067
2218.000000	7.489867
2219.000000	7.488767
2220.000000	7.490967
2221.000000	7.504433
2222.000000	7.506533
2223.000000	7.498200
2224.000000	7.507500
2225.000000	7.501800
2226.000000	7.491867
2227.000000	7.485300
2228.000000	7.481567
2229.000000	7.454967
2230.000000	7.430333
2231.000000	7.424233
2232.000000	7.390233
2233.000000	7.357833
2234.000000	7.326200
2235.000000	7.297533
2236.000000	7.256367
2237.000000	7.224400
2238.000000	7.182033
2239.000000	7.132700
2240.000000	7.078900
2241.000000	7.023433
2242.000000	6.966967
2243.000000	6.913800
2244.000000	6.849267
2245.000000	6.781667
2246.000000	6.708833
2247.000000	6.645000
2248.000000	6.564667
2249.000000	6.466133
2250.000000	6.391267
2251.000000	6.297200
2252.000000	6.213267
2253.000000	6.113033
2254.000000	6.031200
2255.000000	5.939167
2256.000000	5.858733
2257.000000	5.775900
2258.000000	5.682667
2259.000000	5.619600
2260.000000	5.565367
2261.000000	5.491900
2262.000000	5.435133
2263.000000	5.395067
2264.000000	5.353600
2265.000000	5.317967
2266.000000	5.289267
2267.000000	5.274367
2268.000000	5.258767
2269.000000	5.257933
2270.000000	5.251033
2271.000000	5.259267
2272.000000	5.273633
2273.000000	5.286000
2274.000000	5.288633
2275.000000	5.301333
2276.000000	5.319700
2277.000000	5.346800
2278.000000	5.359333
2279.000000	5.379167
2280.000000	5.399933
2281.000000	5.419933
2282.000000	5.435900
2283.000000	5.451633
2284.000000	5.478400
2285.000000	5.498167
2286.000000	5.497767
2287.000000	5.507000
2288.000000	5.498033
2289.000000	5.509867
2290.000000	5.502267
2291.000000	5.493300
2292.000000	5.485233
2293.000000	5.468700
2294.000000	5.452533
2295.000000	5.430667
2296.000000	5.410533
2297.000000	5.380233
2298.000000	5.360133
2299.000000	5.347667
2300.000000	5.323767
2301.000000	5.299633
2302.000000	5.290233
2303.000000	5.278900
2304.000000	5.280167
2305.000000	5.275500
2306.000000	5.273767
2307.000000	5.283100
2308.000000	5.295900
2309.000000	5.316667
2310.000000	5.339700
2311.000000	5.372500
2312.000000	5.401000
2313.000000	5.434233
2314.000000	5.455100
2315.000000	5.484267
2316.000000	5.524733
2317.000000	5.558200
2318.000000	5.597667
2319.000000	5.628467
2320.000000	5.666333
2321.000000	5.706167
2322.000000	5.735633
2323.000000	5.760767
2324.000000	5.790567
2325.000000	5.818400
2326.000000	5.831733
2327.000000	5.857100
2328.000000	5.887600
2329.000000	5.905233
2330.000000	5.917867
2331.000000	5.940700
2332.000000	5.957400
2333.000000	5.968633
2334.000000	5.968133
2335.000000	5.971000
2336.000000	5.967200
2337.000000	5.970500
2338.000000	5.972633
2339.000000	5.956033
2340.000000	5.945100
2341.000000	5.933933
2342.000000	5.915600
2343.000000	5.902733
2344.000000	5.895567
2345.000000	5.878967
2346.000000	5.862167
2347.000000	5.852233
2348.000000	5.846867
2349.000000	5.838967
2350.000000	5.827633
2351.000000	5.824800
2352.000000	5.826433
2353.000000	5.825300
2354.000000	5.827733
2355.000000	5.841033
2356.000000	5.855467
2357.000000	5.870667
2358.000000	5.884200
2359.000000	5.904667
2360.000000	5.929667
2361.000000	5.945200
2362.000000	5.959167
2363.000000	5.976433
2364.000000	5.995067
2365.000000	6.005733
2366.000000	6.019400
2367.000000	6.039500
2368.000000	6.049667
2369.000000	6.053600
2370.000000	6.066300
2371.000000	6.087300
2372.000000	6.099300
2373.000000	6.100700
2374.000000	6.102300
2375.000000	6.108867
2376.000000	6.104367
2377.000000	6.099300
2378.000000	6.111400
2379.000000	6.121967
2380.000000	6.120733
2381.000000	6.109667
2382.000000	6.108267
2383.000000	6.109933
2384.000000	6.104200
2385.000000	6.108067
2386.000000	6.110467
2387.000000	6.099267
2388.000000	6.086233
2389.000000	6.079333
2390.000000	6.074233
2391.000000	6.069900
2392.000000	6.057833
2393.000000	6.049567
2394.000000	6.041200
2395.000000	6.028900
2396.000000	6.012433
2397.000000	5.996367
2398.000000	5.995700
2399.000000	5.994533
2400.000000	5.988933
2401.000000	5.985167
2402.000000	5.971300
2403.000000	5.959600
2404.000000	5.955300
2405.000000	5.945733
2406.000000	5.932667
2407.000000	5.919567
2408.000000	5.908667
2409.000000	5.902833
2410.000000	5.886200
2411.000000	5.873800
2412.000000	5.868100
2413.000000	5.853933
2414.000000	5.853967
2415.000000	5.839367
2416.000000	5.820700
2417.000000	5.809600
2418.000000	5.804633
2419.000000	5.797600
2420.000000	5.776900
2421.000000	5.755433
2422.000000	5.743967
2423.000000	5.737067
2424.000000	5.735467
2425.000000	5.721867
2426.000000	5.705167
2427.000000	5.691633
2428.000000	5.679733
2429.000000	5.669133
2430.000000	5.657167
2431.000000	5.634700
2432.000000	5.620567
2433.000000	5.618567
2434.000000	5.592600
2435.000000	5.560767
2436.000000	5.557267
2437.000000	5.537033
2438.000000	5.522133
2439.000000	5.507267
2440.000000	5.484033
2441.000000	5.472533
2442.000000	5.453700
2443.000000	5.445967
2444.000000	5.429400
2445.000000	5.414600
2446.000000	5.390433
2447.000000	5.373367
2448.000000	5.352467
2449.000000	5.329000
2450.000000	5.319800
2451.000000	5.317967
2452.000000	5.300967
2453.000000	5.283067
2454.000000	5.282033
2455.000000	5.251600
2456.000000	5.247900
2457.000000	5.242567
2458.000000	5.225133
2459.000000	5.209333
2460.000000	5.202767
2461.000000	5.223433
2462.000000	5.227333
2463.000000	5.202767
2464.000000	5.194433
2465.000000	5.180367
2466.000000	5.192300
2467.000000	5.201300
2468.000000	5.211633
2469.000000	5.199700
2470.000000	5.178700
2471.000000	5.210167
2472.000000	5.236033
2473.000000	5.233700
2474.000000	5.237667
2475.000000	5.231700
2476.000000	5.198900
2477.000000	5.227033
2478.000000	5.237400
2479.000000	5.257933
2480.000000	5.279800
2481.000000	5.255800
2482.000000	5.266833
2483.000000	5.243967
2484.000000	5.286200
2485.000000	5.337400
2486.000000	5.332333
2487.000000	5.309733
2488.000000	5.342733
2489.000000	5.402833
2490.000000	5.397133
2491.000000	5.289700
2492.000000	5.351333
2493.000000	5.424100
2494.000000	5.367933
2495.000000	5.448867
2496.000000	5.401633
2497.000000	5.480367
2498.000000	5.474033
2499.000000	5.484333
2500.000000	5.450133
