PE UV       SUBTECH     SPECTRUM    ASCII       PEDS        4.00        
   -1
CICIMAUCR0008-3.Sample.ASC
24/04/17
09:22:08.00
24/04/17
09:22:08.00
Vinicio Soto Monge
C. kalinini
250,000000
1
Lambda 1050
1050L1511233
PerkinElmer UV WinLab 6.3.2.0749 / 2.02.05 Lambda 900 UV/VIS/NIR, Aug  7 2015 09:38:08

0
0
3350/servo 860,8/2
0
0
UV/VIS
1
1
1
DoubleDePol,CommonBeamDepol,RBeamAtt,SBeamAtt,60mm sphere, WB InGaAs Detector
0
0
0
0
Program
Program
3350/servo 860,8/2
3350/0,2 860,8/0,2
3350/0,2 860,8/0,2
0
15.00
 
 
 
0
 
860,8
319,2
860,8
Front
100
on
S:100 R:100
0
0
0
0
 
0
 
 
 
0
 
 
0
0
0
0
0
 
 
 
 
0
0


0
0
#HDR
-1
-1
#GR
nm
%R
1.0
0.0
2500,000000
-1,000000
2251
8
72,513700
4,506200
#DATA
2482.000000	15.189284
2481.000000	15.186066
2480.000000	15.209130
2479.000000	15.247965
2478.000000	15.259444
2477.000000	15.347733
2476.000000	15.327672
2475.000000	15.389356
2474.000000	15.467132
2473.000000	15.481293
2472.000000	15.554992
2471.000000	15.562073
2470.000000	15.624615
2469.000000	15.702606
2468.000000	15.729103
2467.000000	15.787784
2466.000000	15.851078
2465.000000	15.936685
2464.000000	16.015534
2463.000000	16.086122
2462.000000	16.119807
2461.000000	16.210135
2460.000000	16.277398
2459.000000	16.339833
2458.000000	16.458267
2457.000000	16.573483
2456.000000	16.655657
2455.000000	16.745878
2454.000000	16.842534
2453.000000	16.939084
2452.000000	17.054193
2451.000000	17.166297
2450.000000	17.274969
2449.000000	17.400269
2448.000000	17.509906
2447.000000	17.636494
2446.000000	17.736798
2445.000000	17.857378
2444.000000	17.978172
2443.000000	18.077725
2442.000000	18.207638
2441.000000	18.313092
2440.000000	18.426269
2439.000000	18.551784
2438.000000	18.672363
2437.000000	18.776315
2436.000000	18.883807
2435.000000	18.986471
2434.000000	19.097610
2433.000000	19.215401
2432.000000	19.309161
2431.000000	19.407427
2430.000000	19.512344
2429.000000	19.603959
2428.000000	19.706945
2427.000000	19.808001
2426.000000	19.889102
2425.000000	19.978464
2424.000000	20.058171
2423.000000	20.123610
2422.000000	20.185188
2421.000000	20.215440
2420.000000	20.281523
2419.000000	20.335161
2418.000000	20.384831
2417.000000	20.459710
2416.000000	20.514851
2415.000000	20.554007
2414.000000	20.604427
2413.000000	20.659246
2412.000000	20.704517
2411.000000	20.751826
2410.000000	20.794415
2409.000000	20.812223
2408.000000	20.834966
2407.000000	20.867149
2406.000000	20.902551
2405.000000	20.932910
2404.000000	20.955117
2403.000000	20.976143
2402.000000	20.995989
2401.000000	21.020127
2400.000000	21.045122
2399.000000	21.052846
2398.000000	21.082562
2397.000000	21.098332
2396.000000	21.093075
2395.000000	21.111205
2394.000000	21.128906
2393.000000	21.128369
2392.000000	21.135986
2391.000000	21.140599
2390.000000	21.147465
2389.000000	21.146177
2388.000000	21.150898
2387.000000	21.157334
2386.000000	21.150790
2385.000000	21.146177
2384.000000	21.141243
2383.000000	21.114853
2382.000000	21.103803
2381.000000	21.098761
2380.000000	21.071834
2379.000000	21.059176
2378.000000	21.054026
2377.000000	21.033965
2376.000000	21.011974
2375.000000	20.994273
2374.000000	20.979254
2373.000000	20.972603
2372.000000	20.951791
2371.000000	20.928619
2370.000000	20.911240
2369.000000	20.907700
2368.000000	20.904911
2367.000000	20.896865
2366.000000	20.896651
2365.000000	20.886352
2364.000000	20.874337
2363.000000	20.873264
2362.000000	20.869617
2361.000000	20.856207
2360.000000	20.840330
2359.000000	20.836146
2358.000000	20.825204
2357.000000	20.814691
2356.000000	20.801925
2355.000000	20.789373
2354.000000	20.777787
2353.000000	20.752684
2352.000000	20.742600
2351.000000	20.743673
2350.000000	20.724041
2349.000000	20.712885
2348.000000	20.701835
2347.000000	20.684778
2346.000000	20.688211
2345.000000	20.683383
2344.000000	20.672656
2343.000000	20.667399
2342.000000	20.666755
2341.000000	20.660962
2340.000000	20.640258
2339.000000	20.637683
2338.000000	20.649805
2337.000000	20.641116
2336.000000	20.643905
2335.000000	20.655491
2334.000000	20.663752
2333.000000	20.696793
2332.000000	20.715459
2331.000000	20.715459
2330.000000	20.729942
2329.000000	20.764378
2328.000000	20.791090
2327.000000	20.799779
2326.000000	20.836790
2325.000000	20.865540
2324.000000	20.874981
2323.000000	20.898367
2322.000000	20.908236
2321.000000	20.923148
2320.000000	20.926259
2319.000000	20.917570
2318.000000	20.903838
2317.000000	20.877770
2316.000000	20.863287
2315.000000	20.826062
2314.000000	20.826062
2313.000000	20.794952
2312.000000	20.751826
2311.000000	20.716425
2310.000000	20.687245
2309.000000	20.659890
2308.000000	20.634465
2307.000000	20.596167
2306.000000	20.584259
2305.000000	20.599063
2304.000000	20.571171
2303.000000	20.550681
2302.000000	20.542957
2301.000000	20.536950
2300.000000	20.557654
2299.000000	20.565593
2298.000000	20.576642
2297.000000	20.589087
2296.000000	20.610220
2295.000000	20.631676
2294.000000	20.675230
2293.000000	20.693038
2292.000000	20.714494
2291.000000	20.749466
2290.000000	20.780469
2289.000000	20.809434
2288.000000	20.850950
2287.000000	20.883026
2286.000000	20.931730
2285.000000	20.966059
2284.000000	21.000924
2283.000000	21.060356
2282.000000	21.065934
2281.000000	21.133304
2280.000000	21.144139
2279.000000	21.179755
2278.000000	21.229210
2277.000000	21.230497
2276.000000	21.247984
2275.000000	21.296366
2274.000000	21.344104
2273.000000	21.345284
2272.000000	21.363307
2271.000000	21.389268
2270.000000	21.457711
2269.000000	21.489358
2268.000000	21.539885
2267.000000	21.606719
2266.000000	21.700157
2265.000000	21.784048
2264.000000	21.872445
2263.000000	21.994312
2262.000000	22.120577
2261.000000	22.244268
2260.000000	22.391667
2259.000000	22.532093
2258.000000	22.692901
2257.000000	22.888683
2256.000000	23.047346
2255.000000	23.233901
2254.000000	23.419705
2253.000000	23.573112
2252.000000	23.793245
2251.000000	23.956306
2250.000000	24.105743
2249.000000	24.256361
2248.000000	24.397430
2247.000000	24.581089
2246.000000	24.718189
2245.000000	24.833298
2244.000000	24.940146
2243.000000	25.053216
2242.000000	25.157919
2241.000000	25.232799
2240.000000	25.283970
2239.000000	25.369363
2238.000000	25.396075
2237.000000	25.442097
2236.000000	25.482326
2235.000000	25.517405
2234.000000	25.527275
2233.000000	25.516654
2232.000000	25.525880
2231.000000	25.513329
2230.000000	25.492624
2229.000000	25.461299
2228.000000	25.377194
2227.000000	25.345011
2226.000000	25.296736
2225.000000	25.237948
2224.000000	25.179589
2223.000000	25.105782
2222.000000	25.046029
2221.000000	24.954950
2220.000000	24.870738
2219.000000	24.787276
2218.000000	24.707998
2217.000000	24.600721
2216.000000	24.552231
2215.000000	24.455575
2214.000000	24.381875
2213.000000	24.312681
2212.000000	24.248637
2211.000000	24.176654
2210.000000	24.127092
2209.000000	24.060687
2208.000000	24.025607
2207.000000	23.998681
2206.000000	23.933241
2205.000000	23.881427
2204.000000	23.859649
2203.000000	23.815129
2202.000000	23.770287
2201.000000	23.737246
2200.000000	23.701415
2199.000000	23.706350
2198.000000	23.640267
2197.000000	23.607762
2196.000000	23.581479
2195.000000	23.549940
2194.000000	23.549725
2193.000000	23.520868
2192.000000	23.518293
2191.000000	23.491044
2190.000000	23.452103
2189.000000	23.440517
2188.000000	23.441375
2187.000000	23.430862
2186.000000	23.408977
2185.000000	23.403399
2184.000000	23.363814
2183.000000	23.351906
2182.000000	23.335385
2181.000000	23.301700
2180.000000	23.291080
2179.000000	23.294727
2178.000000	23.277670
2177.000000	23.283785
2176.000000	23.267479
2175.000000	23.261900
2174.000000	23.244414
2173.000000	23.268444
2172.000000	23.284214
2171.000000	23.285930
2170.000000	23.300735
2169.000000	23.328841
2168.000000	23.353837
2167.000000	23.391491
2166.000000	23.420885
2165.000000	23.475060
2164.000000	23.520009
2163.000000	23.545541
2162.000000	23.610659
2161.000000	23.672021
2160.000000	23.740035
2159.000000	23.806440
2158.000000	23.897196
2157.000000	23.980551
2156.000000	24.067553
2155.000000	24.159060
2154.000000	24.269449
2153.000000	24.378764
2152.000000	24.504922
2151.000000	24.614667
2150.000000	24.711431
2149.000000	24.808946
2148.000000	24.920407
2147.000000	25.034550
2146.000000	25.158670
2145.000000	25.273242
2144.000000	25.369899
2143.000000	25.468272
2142.000000	25.584024
2141.000000	25.697738
2140.000000	25.819391
2139.000000	25.939756
2138.000000	26.029118
2137.000000	26.131782
2136.000000	26.235198
2135.000000	26.342260
2134.000000	26.435270
2133.000000	26.514762
2132.000000	26.621503
2131.000000	26.701746
2130.000000	26.784350
2129.000000	26.861482
2128.000000	26.917267
2127.000000	26.984529
2126.000000	27.053831
2125.000000	27.136220
2124.000000	27.186640
2123.000000	27.243390
2122.000000	27.294990
2121.000000	27.326315
2120.000000	27.393256
2119.000000	27.457193
2118.000000	27.485514
2117.000000	27.505790
2116.000000	27.527567
2115.000000	27.566723
2114.000000	27.607703
2113.000000	27.634630
2112.000000	27.660591
2111.000000	27.652223
2110.000000	27.668851
2109.000000	27.689019
2108.000000	27.710582
2107.000000	27.725172
2106.000000	27.712299
2105.000000	27.736543
2104.000000	27.769370
2103.000000	27.777952
2102.000000	27.797369
2101.000000	27.806703
2100.000000	27.812388
2099.000000	27.828909
2098.000000	27.833629
2097.000000	27.845430
2096.000000	27.883191
2095.000000	27.901107
2094.000000	27.925137
2093.000000	27.961611
2092.000000	27.974270
2091.000000	27.980706
2090.000000	28.012675
2089.000000	28.045502
2088.000000	28.044107
2087.000000	28.051938
2086.000000	28.055157
2085.000000	28.055479
2084.000000	28.061593
2083.000000	28.062452
2082.000000	28.051188
2081.000000	28.019219
2080.000000	27.975879
2079.000000	27.918486
2078.000000	27.880509
2077.000000	27.817967
2076.000000	27.751133
2075.000000	27.675288
2074.000000	27.581420
2073.000000	27.483798
2072.000000	27.420719
2071.000000	27.333610
2070.000000	27.232233
2069.000000	27.129783
2068.000000	27.011349
2067.000000	26.879505
2066.000000	26.766757
2065.000000	26.652828
2064.000000	26.534287
2063.000000	26.441921
2062.000000	26.359210
2061.000000	26.261588
2060.000000	26.185206
2059.000000	26.104427
2058.000000	26.036949
2057.000000	25.983632
2056.000000	25.949733
2055.000000	25.952522
2054.000000	25.963464
2053.000000	26.000046
2052.000000	26.046282
2051.000000	26.127277
2050.000000	26.221788
2049.000000	26.329494
2048.000000	26.465522
2047.000000	26.603266
2046.000000	26.752489
2045.000000	26.932929
2044.000000	27.087087
2043.000000	27.272354
2042.000000	27.437240
2041.000000	27.604699
2040.000000	27.759930
2039.000000	27.952278
2038.000000	28.087662
2037.000000	28.239459
2036.000000	28.408957
2035.000000	28.529859
2034.000000	28.671787
2033.000000	28.785930
2032.000000	28.902111
2031.000000	29.043824
2030.000000	29.164940
2029.000000	29.251620
2028.000000	29.331649
2027.000000	29.427233
2026.000000	29.521852
2025.000000	29.630953
2024.000000	29.687917
2023.000000	29.742414
2022.000000	29.813861
2021.000000	29.904617
2020.000000	29.963298
2019.000000	30.015649
2018.000000	30.055664
2017.000000	30.096965
2016.000000	30.128934
2015.000000	30.162405
2014.000000	30.178067
2013.000000	30.205315
2012.000000	30.221943
2011.000000	30.236104
2010.000000	30.240395
2009.000000	30.223553
2008.000000	30.196519
2007.000000	30.180320
2006.000000	30.167661
2005.000000	30.135371
2004.000000	30.101042
2003.000000	30.048047
2002.000000	30.011465
2001.000000	29.966731
2000.000000	29.915023
1999.000000	29.843684
1998.000000	29.768911
1997.000000	29.703150
1996.000000	29.636424
1995.000000	29.565299
1994.000000	29.481837
1993.000000	29.375204
1992.000000	29.303006
1991.000000	29.200878
1990.000000	29.112482
1989.000000	29.026553
1988.000000	28.896533
1987.000000	28.800090
1986.000000	28.703219
1985.000000	28.621152
1984.000000	28.518702
1983.000000	28.393831
1982.000000	28.285159
1981.000000	28.193008
1980.000000	28.126603
1979.000000	27.977810
1978.000000	27.900248
1977.000000	27.770765
1976.000000	27.681403
1975.000000	27.568011
1974.000000	27.489698
1973.000000	27.419217
1972.000000	27.313334
1971.000000	27.191360
1970.000000	27.097063
1969.000000	26.991395
1968.000000	26.925205
1967.000000	26.802051
1966.000000	26.719984
1965.000000	26.610775
1964.000000	26.536861
1963.000000	26.427331
1962.000000	26.333249
1961.000000	26.230156
1960.000000	26.116012
1959.000000	25.995862
1958.000000	25.903389
1957.000000	25.797184
1956.000000	25.706535
1955.000000	25.597220
1954.000000	25.514616
1953.000000	25.414097
1952.000000	25.312613
1951.000000	25.195681
1950.000000	25.077783
1949.000000	24.977371
1948.000000	24.905925
1947.000000	24.832547
1946.000000	24.742327
1945.000000	24.688903
1944.000000	24.624000
1943.000000	24.545473
1942.000000	24.445491
1941.000000	24.404296
1940.000000	24.346259
1939.000000	24.324160
1938.000000	24.316114
1937.000000	24.315900
1936.000000	24.311179
1935.000000	24.319225
1934.000000	24.297662
1933.000000	24.321263
1932.000000	24.314827
1931.000000	24.376940
1930.000000	24.418778
1929.000000	24.518975
1928.000000	24.615740
1927.000000	24.744258
1926.000000	24.885006
1925.000000	25.001616
1924.000000	25.078534
1923.000000	25.181949
1922.000000	25.375477
1921.000000	25.678107
1920.000000	25.989211
1919.000000	26.187996
1918.000000	26.424649
1917.000000	26.620967
1916.000000	26.779952
1915.000000	27.007809
1914.000000	27.409347
1913.000000	27.858625
1912.000000	28.270784
1911.000000	28.628554
1910.000000	28.967228
1909.000000	29.175775
1908.000000	29.489991
1907.000000	29.925429
1906.000000	30.477049
1905.000000	31.149248
1904.000000	31.704623
1903.000000	32.185332
1902.000000	32.648985
1901.000000	33.145035
1900.000000	33.842767
1899.000000	34.615270
1898.000000	35.244023
1897.000000	35.896912
1896.000000	36.360243
1895.000000	36.782057
1894.000000	37.325738
1893.000000	37.913296
1892.000000	38.605235
1891.000000	39.317663
1890.000000	39.956285
1889.000000	40.480978
1888.000000	41.038069
1887.000000	41.514916
1886.000000	41.982538
1885.000000	42.537376
1884.000000	43.101440
1883.000000	43.539561
1882.000000	43.952042
1881.000000	44.354010
1880.000000	44.614372
1879.000000	44.899515
1878.000000	45.196244
1877.000000	45.438905
1876.000000	45.676632
1875.000000	45.933990
1874.000000	46.194996
1873.000000	46.488721
1872.000000	46.786522
1871.000000	47.115864
1870.000000	47.435550
1869.000000	47.732386
1868.000000	47.993928
1867.000000	48.138431
1866.000000	48.157204
1865.000000	48.232406
1864.000000	48.259547
1863.000000	48.238521
1862.000000	48.286366
1861.000000	48.379805
1860.000000	48.523985
1859.000000	48.640381
1858.000000	48.756455
1857.000000	48.825327
1856.000000	48.793359
1855.000000	48.838844
1854.000000	48.952666
1853.000000	48.994289
1852.000000	49.009630
1851.000000	48.956957
1850.000000	48.837235
1849.000000	48.823718
1848.000000	49.030227
1847.000000	49.277501
1846.000000	49.297455
1845.000000	49.126455
1844.000000	48.880361
1843.000000	48.779198
1842.000000	48.877571
1841.000000	49.015959
1840.000000	49.019392
1839.000000	48.917157
1838.000000	48.851932
1837.000000	48.912437
1836.000000	49.002549
1835.000000	49.027223
1834.000000	48.918444
1833.000000	48.759888
1832.000000	48.660871
1831.000000	48.662266
1830.000000	48.725345
1829.000000	48.716977
1828.000000	48.636841
1827.000000	48.634374
1826.000000	48.682649
1825.000000	48.655507
1824.000000	48.577839
1823.000000	48.462516
1822.000000	48.474423
1821.000000	48.620750
1820.000000	48.726203
1819.000000	48.694878
1818.000000	48.606267
1817.000000	48.559065
1816.000000	48.610773
1815.000000	48.643063
1814.000000	48.608413
1813.000000	48.578697
1812.000000	48.567862
1811.000000	48.579877
1810.000000	48.531066
1809.000000	48.458010
1808.000000	48.429689
1807.000000	48.444171
1806.000000	48.433443
1805.000000	48.418317
1804.000000	48.387636
1803.000000	48.343223
1802.000000	48.334319
1801.000000	48.351376
1800.000000	48.338396
1799.000000	48.305676
1798.000000	48.265340
1797.000000	48.248497
1796.000000	48.247425
1795.000000	48.251179
1794.000000	48.223502
1793.000000	48.205908
1792.000000	48.177480
1791.000000	48.154737
1790.000000	48.144438
1789.000000	48.137787
1788.000000	48.147871
1787.000000	48.152377
1786.000000	48.150231
1785.000000	48.168898
1784.000000	48.175978
1783.000000	48.140255
1782.000000	48.134354
1781.000000	48.115903
1780.000000	48.099704
1779.000000	48.082325
1778.000000	48.033943
1777.000000	48.000794
1776.000000	47.944366
1775.000000	47.905103
1774.000000	47.866376
1773.000000	47.833227
1772.000000	47.793213
1771.000000	47.752233
1770.000000	47.718440
1769.000000	47.676388
1768.000000	47.621462
1767.000000	47.581233
1766.000000	47.548835
1765.000000	47.505924
1764.000000	47.508713
1763.000000	47.456898
1762.000000	47.461940
1761.000000	47.464944
1760.000000	47.469128
1759.000000	47.454645
1758.000000	47.418278
1757.000000	47.407658
1756.000000	47.439627
1755.000000	47.433405
1754.000000	47.416347
1753.000000	47.406478
1752.000000	47.385237
1751.000000	47.374938
1750.000000	47.347368
1749.000000	47.332457
1748.000000	47.279783
1747.000000	47.235478
1746.000000	47.168644
1745.000000	47.132921
1744.000000	47.059972
1743.000000	47.000863
1742.000000	46.927699
1741.000000	46.852820
1740.000000	46.786308
1739.000000	46.732562
1738.000000	46.658326
1737.000000	46.583661
1736.000000	46.525302
1735.000000	46.512107
1734.000000	46.458361
1733.000000	46.413948
1732.000000	46.375114
1731.000000	46.355804
1730.000000	46.334349
1729.000000	46.301951
1728.000000	46.260113
1727.000000	46.229432
1726.000000	46.196068
1725.000000	46.186950
1724.000000	46.204758
1723.000000	46.264511
1722.000000	46.315039
1721.000000	46.444415
1720.000000	46.596749
1719.000000	46.800361
1718.000000	46.995713
1717.000000	47.210697
1716.000000	47.408623
1715.000000	47.631009
1714.000000	47.835265
1713.000000	47.996718
1712.000000	48.149695
1711.000000	48.265554
1710.000000	48.391283
1709.000000	48.511756
1708.000000	48.610344
1707.000000	48.693376
1706.000000	48.778662
1705.000000	48.804945
1704.000000	48.851825
1703.000000	48.890874
1702.000000	48.902352
1701.000000	48.920053
1700.000000	48.938505
1699.000000	48.920804
1698.000000	48.921877
1697.000000	48.885617
1696.000000	48.886797
1695.000000	48.852790
1694.000000	48.813312
1693.000000	48.741115
1692.000000	48.661622
1691.000000	48.615493
1690.000000	48.585563
1689.000000	48.579448
1688.000000	48.631477
1687.000000	48.692411
1686.000000	48.820714
1685.000000	49.017568
1684.000000	49.206698
1683.000000	49.433697
1682.000000	49.651041
1681.000000	49.883618
1680.000000	50.121452
1679.000000	50.328068
1678.000000	50.535327
1677.000000	50.741514
1676.000000	50.935901
1675.000000	51.160754
1674.000000	51.305793
1673.000000	51.490095
1672.000000	51.691991
1671.000000	51.860524
1670.000000	52.065316
1669.000000	52.289204
1668.000000	52.455484
1667.000000	52.641932
1666.000000	52.781392
1665.000000	52.941879
1664.000000	53.088634
1663.000000	53.248477
1662.000000	53.346743
1661.000000	53.501223
1660.000000	53.611504
1659.000000	53.719746
1658.000000	53.800634
1657.000000	53.877659
1656.000000	53.936339
1655.000000	53.981825
1654.000000	54.041686
1653.000000	54.068290
1652.000000	54.092535
1651.000000	54.117209
1650.000000	54.101010
1649.000000	54.113669
1648.000000	54.102297
1647.000000	54.142204
1646.000000	54.136841
1645.000000	54.128902
1644.000000	54.122251
1643.000000	54.141561
1642.000000	54.126864
1641.000000	54.097577
1640.000000	54.112274
1639.000000	54.080413
1638.000000	54.068827
1637.000000	54.056490
1636.000000	54.043509
1635.000000	54.028383
1634.000000	54.026023
1633.000000	54.007786
1632.000000	53.971204
1631.000000	53.957580
1630.000000	53.938270
1629.000000	53.882164
1628.000000	53.829706
1627.000000	53.772527
1626.000000	53.745922
1625.000000	53.696145
1624.000000	53.679947
1623.000000	53.656882
1622.000000	53.624484
1621.000000	53.600025
1620.000000	53.569022
1619.000000	53.556685
1618.000000	53.537804
1617.000000	53.490495
1616.000000	53.464105
1615.000000	53.427845
1614.000000	53.389011
1613.000000	53.339448
1612.000000	53.293534
1611.000000	53.267358
1610.000000	53.247083
1609.000000	53.190548
1608.000000	53.115883
1607.000000	53.048727
1606.000000	52.980820
1605.000000	52.922569
1604.000000	52.836103
1603.000000	52.776028
1602.000000	52.723355
1601.000000	52.656521
1600.000000	52.584967
1599.000000	52.514164
1598.000000	52.447760
1597.000000	52.370198
1596.000000	52.299824
1595.000000	52.257664
1594.000000	52.208639
1593.000000	52.158111
1592.000000	52.110802
1591.000000	52.065423
1590.000000	52.014681
1589.000000	51.963295
1588.000000	51.913411
1587.000000	51.868248
1586.000000	51.830808
1585.000000	51.789828
1584.000000	51.748848
1583.000000	51.720312
1582.000000	51.690275
1581.000000	51.667639
1580.000000	51.640820
1579.000000	51.590936
1578.000000	51.563795
1577.000000	51.559718
1576.000000	51.552638
1575.000000	51.554033
1574.000000	51.550707
1573.000000	51.550385
1572.000000	51.549634
1571.000000	51.556929
1570.000000	51.590614
1569.000000	51.629878
1568.000000	51.649187
1567.000000	51.666245
1566.000000	51.679547
1565.000000	51.685984
1564.000000	51.707975
1563.000000	51.719883
1562.000000	51.720205
1561.000000	51.708941
1560.000000	51.693386
1559.000000	51.666566
1558.000000	51.623655
1557.000000	51.586967
1556.000000	51.561756
1555.000000	51.524853
1554.000000	51.467782
1553.000000	51.400519
1552.000000	51.334221
1551.000000	51.263633
1550.000000	51.173305
1549.000000	51.088771
1548.000000	51.013999
1547.000000	50.943088
1546.000000	50.894921
1545.000000	50.843964
1544.000000	50.779705
1543.000000	50.730894
1542.000000	50.681224
1541.000000	50.651294
1540.000000	50.621471
1539.000000	50.592935
1538.000000	50.564185
1537.000000	50.520952
1536.000000	50.492416
1535.000000	50.460877
1534.000000	50.423223
1533.000000	50.377952
1532.000000	50.331071
1531.000000	50.265740
1530.000000	50.225081
1529.000000	50.182063
1528.000000	50.145589
1527.000000	50.094525
1526.000000	50.031982
1525.000000	49.965256
1524.000000	49.908828
1523.000000	49.856584
1522.000000	49.802945
1521.000000	49.733751
1520.000000	49.676787
1519.000000	49.616926
1518.000000	49.567686
1517.000000	49.512009
1516.000000	49.457727
1515.000000	49.389820
1514.000000	49.332105
1513.000000	49.271494
1512.000000	49.198652
1511.000000	49.156600
1510.000000	49.118087
1509.000000	49.052004
1508.000000	48.983776
1507.000000	48.919517
1506.000000	48.852898
1505.000000	48.795290
1504.000000	48.739076
1503.000000	48.707001
1502.000000	48.657760
1501.000000	48.604980
1500.000000	48.561318
1499.000000	48.550698
1498.000000	48.533748
1497.000000	48.511219
1496.000000	48.503710
1495.000000	48.516047
1494.000000	48.526560
1493.000000	48.528491
1492.000000	48.543939
1491.000000	48.566253
1490.000000	48.574084
1489.000000	48.615171
1488.000000	48.639952
1487.000000	48.668595
1486.000000	48.703246
1485.000000	48.725559
1484.000000	48.755490
1483.000000	48.780700
1482.000000	48.826937
1481.000000	48.867273
1480.000000	48.891839
1479.000000	48.897847
1478.000000	48.947516
1477.000000	49.008342
1476.000000	49.057690
1475.000000	49.072494
1474.000000	49.128493
1473.000000	49.220430
1472.000000	49.285869
1471.000000	49.392932
1470.000000	49.461804
1469.000000	49.517910
1468.000000	49.575839
1467.000000	49.658657
1466.000000	49.723346
1465.000000	49.797474
1464.000000	49.859910
1463.000000	49.969332
1462.000000	50.075430
1461.000000	50.158140
1460.000000	50.257586
1459.000000	50.357998
1458.000000	50.427299
1457.000000	50.533825
1456.000000	50.595617
1455.000000	50.692059
1454.000000	50.791827
1453.000000	50.879366
1452.000000	50.982137
1451.000000	51.093491
1450.000000	51.188324
1449.000000	51.245718
1448.000000	51.325746
1447.000000	51.406848
1446.000000	51.558967
1445.000000	51.673218
1444.000000	51.707868
1443.000000	51.780495
1442.000000	51.897856
1441.000000	52.021547
1440.000000	52.120886
1439.000000	52.204347
1438.000000	52.355823
1437.000000	52.486487
1436.000000	52.587756
1435.000000	52.706942
1434.000000	52.840716
1433.000000	52.964622
1432.000000	53.142809
1431.000000	53.344061
1430.000000	53.447584
1429.000000	53.630599
1428.000000	53.840112
1427.000000	54.022376
1426.000000	54.217084
1425.000000	54.421662
1424.000000	54.706590
1423.000000	54.940026
1422.000000	55.163913
1421.000000	55.365273
1420.000000	55.688392
1419.000000	56.000140
1418.000000	56.278953
1417.000000	56.450597
1416.000000	56.745717
1415.000000	57.125693
1414.000000	57.573361
1413.000000	57.879852
1412.000000	58.071772
1411.000000	58.404546
1410.000000	58.824214
1409.000000	59.283361
1408.000000	59.650679
1407.000000	60.008234
1406.000000	60.364180
1405.000000	60.799940
1404.000000	61.205341
1403.000000	61.522560
1402.000000	61.756103
1401.000000	62.358036
1400.000000	62.903541
1399.000000	63.136118
1398.000000	63.148133
1397.000000	63.416970
1396.000000	63.972988
1395.000000	64.460349
1394.000000	64.561940
1393.000000	64.723607
1392.000000	65.146280
1391.000000	65.450840
1390.000000	65.598024
1389.000000	65.888746
1388.000000	66.327939
1387.000000	66.569420
1386.000000	66.738275
1385.000000	66.938883
1384.000000	67.257175
1383.000000	67.524081
1382.000000	67.817162
1381.000000	68.021955
1380.000000	68.042230
1379.000000	68.243053
1378.000000	68.289719
1377.000000	68.436796
1376.000000	68.499553
1375.000000	68.625389
1374.000000	68.710138
1373.000000	68.772574
1372.000000	68.927268
1371.000000	69.117149
1370.000000	69.212733
1369.000000	69.294585
1368.000000	69.452497
1367.000000	69.567713
1366.000000	69.582088
1365.000000	69.723158
1364.000000	69.832044
1363.000000	69.874419
1362.000000	70.015167
1361.000000	70.237338
1360.000000	70.242916
1359.000000	70.208159
1358.000000	70.276601
1357.000000	70.336140
1356.000000	70.426790
1355.000000	70.616241
1354.000000	70.741219
1353.000000	70.777908
1352.000000	70.947621
1351.000000	71.142007
1350.000000	71.307965
1349.000000	71.436484
1348.000000	71.644816
1347.000000	71.820322
1346.000000	71.931246
1345.000000	72.107718
1344.000000	72.305430
1343.000000	72.441994
1342.000000	72.555707
1341.000000	72.696884
1340.000000	72.835594
1339.000000	72.946519
1338.000000	73.068171
1337.000000	73.185318
1336.000000	73.292810
1335.000000	73.385283
1334.000000	73.463273
1333.000000	73.559179
1332.000000	73.670426
1331.000000	73.756999
1330.000000	73.806239
1329.000000	73.878329
1328.000000	73.962005
1327.000000	74.022832
1326.000000	74.069390
1325.000000	74.108117
1324.000000	74.151028
1323.000000	74.201127
1322.000000	74.260773
1321.000000	74.314411
1320.000000	74.381460
1319.000000	74.441642
1318.000000	74.476829
1317.000000	74.507940
1316.000000	74.539372
1315.000000	74.592903
1314.000000	74.644074
1313.000000	74.677545
1312.000000	74.686985
1311.000000	74.698142
1310.000000	74.714663
1309.000000	74.751352
1308.000000	74.785466
1307.000000	74.809925
1306.000000	74.826339
1305.000000	74.844790
1304.000000	74.858200
1303.000000	74.843288
1302.000000	74.843503
1301.000000	74.856913
1300.000000	74.843181
1299.000000	74.839534
1298.000000	74.837066
1297.000000	74.820546
1296.000000	74.805312
1295.000000	74.785144
1294.000000	74.776884
1293.000000	74.780209
1292.000000	74.771949
1291.000000	74.746739
1290.000000	74.726249
1289.000000	74.702970
1288.000000	74.671323
1287.000000	74.646756
1286.000000	74.629699
1285.000000	74.615646
1284.000000	74.602558
1283.000000	74.574452
1282.000000	74.541088
1281.000000	74.507296
1280.000000	74.479618
1279.000000	74.443251
1278.000000	74.407099
1277.000000	74.392617
1276.000000	74.386394
1275.000000	74.386824
1274.000000	74.386287
1273.000000	74.375774
1272.000000	74.377598
1271.000000	74.387467
1270.000000	74.395835
1269.000000	74.391651
1268.000000	74.380816
1267.000000	74.378456
1266.000000	74.388218
1265.000000	74.392187
1264.000000	74.390686
1263.000000	74.381674
1262.000000	74.369981
1261.000000	74.364939
1260.000000	74.357322
1259.000000	74.353889
1258.000000	74.361721
1257.000000	74.350671
1256.000000	74.323745
1255.000000	74.317844
1254.000000	74.299178
1253.000000	74.257125
1252.000000	74.214536
1251.000000	74.193939
1250.000000	74.162721
1249.000000	74.105328
1248.000000	74.043429
1247.000000	73.988288
1246.000000	73.948489
1245.000000	73.880904
1244.000000	73.820614
1243.000000	73.778239
1242.000000	73.714839
1241.000000	73.670855
1240.000000	73.634702
1239.000000	73.609385
1238.000000	73.584711
1237.000000	73.550812
1236.000000	73.493847
1235.000000	73.465097
1234.000000	73.442783
1233.000000	73.396869
1232.000000	73.363720
1231.000000	73.327353
1230.000000	73.299568
1229.000000	73.278864
1228.000000	73.227585
1227.000000	73.184996
1226.000000	73.174697
1225.000000	73.128139
1224.000000	73.078577
1223.000000	73.036524
1222.000000	73.007023
1221.000000	72.948986
1220.000000	72.904144
1219.000000	72.849969
1218.000000	72.794721
1217.000000	72.735397
1216.000000	72.684762
1215.000000	72.619216
1214.000000	72.570834
1213.000000	72.533179
1212.000000	72.453794
1211.000000	72.403910
1210.000000	72.316265
1209.000000	72.215960
1208.000000	72.171655
1207.000000	72.113081
1206.000000	72.024363
1205.000000	71.948518
1204.000000	71.890159
1203.000000	71.810881
1202.000000	71.748124
1201.000000	71.666808
1200.000000	71.592787
1199.000000	71.536144
1198.000000	71.428867
1197.000000	71.343689
1196.000000	71.269238
1195.000000	71.171294
1194.000000	71.085258
1193.000000	71.018102
1192.000000	70.938502
1191.000000	70.874565
1190.000000	70.819639
1189.000000	70.740361
1188.000000	70.701634
1187.000000	70.642632
1186.000000	70.625145
1185.000000	70.630187
1184.000000	70.628149
1183.000000	70.657650
1182.000000	70.694339
1181.000000	70.733281
1180.000000	70.795609
1179.000000	70.853431
1178.000000	70.897522
1177.000000	70.956203
1176.000000	71.013275
1175.000000	71.036983
1174.000000	71.099740
1173.000000	71.152950
1172.000000	71.228902
1171.000000	71.308824
1170.000000	71.399473
1169.000000	71.458797
1168.000000	71.544297
1167.000000	71.648249
1166.000000	71.758959
1165.000000	71.862696
1164.000000	71.958817
1163.000000	72.071136
1162.000000	72.158567
1161.000000	72.279576
1160.000000	72.357566
1159.000000	72.411527
1158.000000	72.526850
1157.000000	72.621361
1156.000000	72.676394
1155.000000	72.738615
1154.000000	72.797403
1153.000000	72.856942
1152.000000	72.878934
1151.000000	72.915516
1150.000000	72.923239
1149.000000	72.952312
1148.000000	73.002947
1147.000000	73.005843
1146.000000	73.020862
1145.000000	73.045214
1144.000000	73.059267
1143.000000	73.113549
1142.000000	73.120201
1141.000000	73.167832
1140.000000	73.226727
1139.000000	73.261270
1138.000000	73.305361
1137.000000	73.351169
1136.000000	73.374555
1135.000000	73.501250
1134.000000	73.614213
1133.000000	73.595975
1132.000000	73.582673
1131.000000	73.623867
1130.000000	73.627622
1129.000000	73.702502
1128.000000	73.738654
1127.000000	73.708402
1126.000000	73.697674
1125.000000	73.687483
1124.000000	73.709153
1123.000000	73.666886
1122.000000	73.662058
1121.000000	73.629446
1120.000000	73.605308
1119.000000	73.587071
1118.000000	73.551455
1117.000000	73.506828
1116.000000	73.460699
1115.000000	73.411780
1114.000000	73.373697
1113.000000	73.352456
1112.000000	73.297530
1111.000000	73.227585
1110.000000	73.174376
1109.000000	73.146484
1108.000000	73.108722
1107.000000	73.044034
1106.000000	73.002732
1105.000000	72.963361
1104.000000	72.906290
1103.000000	72.878719
1102.000000	72.827012
1101.000000	72.774553
1100.000000	72.733466
1099.000000	72.662878
1098.000000	72.636058
1097.000000	72.568152
1096.000000	72.497456
1095.000000	72.439526
1094.000000	72.387282
1093.000000	72.314548
1092.000000	72.256297
1091.000000	72.187639
1090.000000	72.139686
1089.000000	72.090017
1088.000000	72.018463
1087.000000	71.964181
1086.000000	71.904320
1085.000000	71.800154
1084.000000	71.729136
1083.000000	71.659191
1082.000000	71.574228
1081.000000	71.469847
1080.000000	71.419105
1079.000000	71.343903
1078.000000	71.262587
1077.000000	71.186849
1076.000000	71.099204
1075.000000	71.003191
1074.000000	70.922947
1073.000000	70.839915
1072.000000	70.749372
1071.000000	70.672026
1070.000000	70.583093
1069.000000	70.502849
1068.000000	70.426575
1067.000000	70.320585
1066.000000	70.223177
1065.000000	70.123410
1064.000000	70.035228
1063.000000	69.958846
1062.000000	69.846741
1061.000000	69.760598
1060.000000	69.678423
1059.000000	69.589812
1058.000000	69.495516
1057.000000	69.399824
1056.000000	69.320332
1055.000000	69.241590
1054.000000	69.131738
1053.000000	69.040982
1052.000000	68.991205
1051.000000	68.912249
1050.000000	68.814948
1049.000000	68.717862
1048.000000	68.628500
1047.000000	68.556839
1046.000000	68.476167
1045.000000	68.379081
1044.000000	68.286393
1043.000000	68.203897
1042.000000	68.119255
1041.000000	68.038690
1040.000000	67.970140
1039.000000	67.904271
1038.000000	67.830787
1037.000000	67.719862
1036.000000	67.620309
1035.000000	67.555406
1034.000000	67.472373
1033.000000	67.386873
1032.000000	67.316070
1031.000000	67.239796
1030.000000	67.129086
1029.000000	67.021809
1028.000000	66.929014
1027.000000	66.831069
1026.000000	66.761339
1025.000000	66.663181
1024.000000	66.559980
1023.000000	66.489713
1022.000000	66.394987
1021.000000	66.286208
1020.000000	66.204141
1019.000000	66.122825
1018.000000	66.005142
1017.000000	65.916638
1016.000000	65.859137
1015.000000	65.739201
1014.000000	65.626667
1013.000000	65.527865
1012.000000	65.438288
1011.000000	65.355363
1010.000000	65.263212
1009.000000	65.156149
1008.000000	65.060994
1007.000000	64.961441
1006.000000	64.873152
1005.000000	64.796663
1004.000000	64.720496
1003.000000	64.621908
1002.000000	64.498218
1001.000000	64.395231
1000.000000	64.300613
999.000000	64.218009
998.000000	64.127038
997.000000	64.042718
996.000000	63.927502
995.000000	63.815934
994.000000	63.749315
993.000000	63.653194
992.000000	63.537335
991.000000	63.450226
990.000000	63.352711
989.000000	63.234169
988.000000	63.143413
987.000000	63.068962
986.000000	62.953210
985.000000	62.832738
984.000000	62.759896
983.000000	62.686626
982.000000	62.582996
981.000000	62.494063
980.000000	62.416931
979.000000	62.312979
978.000000	62.232950
977.000000	62.122884
976.000000	62.034165
975.000000	61.906506
974.000000	61.822722
973.000000	61.729176
972.000000	61.656442
971.000000	61.539724
970.000000	61.476109
969.000000	61.392325
968.000000	61.267133
967.000000	61.186782
966.000000	61.103642
965.000000	61.008809
964.000000	60.903785
963.000000	60.785565
962.000000	60.731926
961.000000	60.673031
960.000000	60.560283
959.000000	60.442171
958.000000	60.345406
957.000000	60.305821
956.000000	60.225256
955.000000	60.178054
954.000000	60.049857
953.000000	59.935714
952.000000	59.884758
951.000000	59.788637
950.000000	59.701421
949.000000	59.636089
948.000000	59.526773
947.000000	59.438270
946.000000	59.396968
945.000000	59.314043
944.000000	59.214704
943.000000	59.119871
942.000000	59.068378
941.000000	59.004762
940.000000	58.876458
939.000000	58.769396
938.000000	58.687543
937.000000	58.623928
936.000000	58.590135
935.000000	58.475778
934.000000	58.428790
933.000000	58.357665
932.000000	58.308318
931.000000	58.266158
930.000000	58.220243
929.000000	58.134851
928.000000	58.045167
927.000000	57.959989
926.000000	57.897231
925.000000	57.796605
924.000000	57.769035
923.000000	57.667980
922.000000	57.601361
921.000000	57.530021
920.000000	57.476919
919.000000	57.415985
918.000000	57.338424
917.000000	57.367067
916.000000	57.289506
915.000000	57.229430
914.000000	57.162275
913.000000	57.115394
912.000000	57.130306
911.000000	57.079564
910.000000	57.038477
909.000000	57.001895
908.000000	56.959199
907.000000	56.923690
906.000000	56.869622
905.000000	56.872626
904.000000	56.852994
903.000000	56.813516
902.000000	56.766207
901.000000	56.724691
900.000000	56.727802
899.000000	56.706239
898.000000	56.651420
897.000000	56.676309
896.000000	56.605398
895.000000	56.580295
894.000000	56.575253
893.000000	56.556480
892.000000	56.512818
891.000000	56.465509
890.000000	56.442444
889.000000	56.407686
888.000000	56.337527
887.000000	56.314570
886.000000	56.279383
885.000000	56.302876
884.000000	56.286141
883.000000	56.216411
882.000000	56.178435
881.000000	56.155048
880.000000	56.137669
879.000000	56.100980
878.000000	56.106559
877.000000	56.089287
876.000000	56.071801
875.000000	56.060215
874.000000	56.039081
873.000000	56.013657
872.000000	56.066115
871.000000	56.075985
870.000000	56.052598
869.000000	56.051740
868.000000	56.039296
867.000000	56.049273
866.000000	56.061610
865.000000	56.064613
864.000000	56.075663
863.000000	56.053242
862.000000	56.018270
861.000000	55.944999
860.000000	55.886640
859.000000	55.855208
858.000000	56.561200
857.000000	56.542500
856.000000	56.622900
855.000000	56.518200
854.000000	56.456500
853.000000	56.798100
852.000000	56.717300
851.000000	56.995300
850.000000	56.962500
849.000000	57.060600
848.000000	57.309700
847.000000	57.290600
846.000000	57.394600
845.000000	57.432200
844.000000	57.436700
843.000000	57.404700
842.000000	57.426000
841.000000	57.761600
840.000000	57.656200
839.000000	57.875200
838.000000	57.765900
837.000000	57.664400
836.000000	57.691600
835.000000	57.717600
834.000000	57.883700
833.000000	57.828300
832.000000	57.816800
831.000000	57.825500
830.000000	57.891800
829.000000	57.842500
828.000000	58.011500
827.000000	57.877900
826.000000	57.873100
825.000000	57.798700
824.000000	57.904600
823.000000	57.983800
822.000000	58.084700
821.000000	58.119900
820.000000	58.162800
819.000000	58.134800
818.000000	58.358000
817.000000	58.370900
816.000000	58.373500
815.000000	58.424300
814.000000	58.514600
813.000000	58.572100
812.000000	58.565900
811.000000	58.703100
810.000000	58.829100
809.000000	58.990500
808.000000	59.079200
807.000000	59.225000
806.000000	59.373800
805.000000	59.512700
804.000000	59.702300
803.000000	59.807900
802.000000	59.853000
801.000000	60.190800
800.000000	60.328600
799.000000	60.410000
798.000000	60.446900
797.000000	60.635700
796.000000	60.806900
795.000000	61.075100
794.000000	61.339300
793.000000	61.536700
792.000000	61.715200
791.000000	61.905100
790.000000	62.166700
789.000000	62.436300
788.000000	62.665100
787.000000	62.877400
786.000000	63.124600
785.000000	63.369500
784.000000	63.542800
783.000000	63.854000
782.000000	64.168200
781.000000	64.427500
780.000000	64.731500
779.000000	64.971900
778.000000	65.203400
777.000000	65.477800
776.000000	65.862300
775.000000	66.152100
774.000000	66.323900
773.000000	66.593900
772.000000	66.835800
771.000000	67.155500
770.000000	67.513100
769.000000	67.714000
768.000000	67.848900
767.000000	68.069000
766.000000	68.329800
765.000000	68.485900
764.000000	68.757900
763.000000	68.991000
762.000000	69.203300
761.000000	69.521700
760.000000	69.811400
759.000000	70.042000
758.000000	70.176300
757.000000	70.335600
756.000000	70.552500
755.000000	70.792900
754.000000	70.921500
753.000000	71.050200
752.000000	71.185100
751.000000	71.340600
750.000000	71.501500
749.000000	71.580600
748.000000	71.664000
747.000000	71.746200
746.000000	71.870000
745.000000	71.976800
744.000000	72.135700
743.000000	72.207500
742.000000	72.216700
741.000000	72.301900
740.000000	72.426000
739.000000	72.451800
738.000000	72.432600
737.000000	72.443800
736.000000	72.418400
735.000000	72.413000
734.000000	72.423700
733.000000	72.494900
732.000000	72.513700
731.000000	72.452100
730.000000	72.409300
729.000000	72.352000
728.000000	72.302100
727.000000	72.212900
726.000000	72.118100
725.000000	72.061700
724.000000	72.003500
723.000000	71.871200
722.000000	71.780600
721.000000	71.717600
720.000000	71.626000
719.000000	71.534300
718.000000	71.418300
717.000000	71.338700
716.000000	71.266500
715.000000	71.123900
714.000000	70.954500
713.000000	70.839900
712.000000	70.659800
711.000000	70.531400
710.000000	70.457600
709.000000	70.283200
708.000000	70.102000
707.000000	69.961100
706.000000	69.829400
705.000000	69.711600
704.000000	69.578100
703.000000	69.419200
702.000000	69.170700
701.000000	68.920500
700.000000	68.787400
699.000000	68.655600
698.000000	68.433300
697.000000	68.240200
696.000000	68.031700
695.000000	67.816300
694.000000	67.637100
693.000000	67.428600
692.000000	67.187800
691.000000	66.932100
690.000000	66.725200
689.000000	66.428500
688.000000	66.178400
687.000000	66.000900
686.000000	65.776200
685.000000	65.521700
684.000000	65.273200
683.000000	64.961100
682.000000	64.625000
681.000000	64.313500
680.000000	64.033600
679.000000	63.677700
678.000000	63.336200
677.000000	63.016800
676.000000	62.680400
675.000000	62.301400
674.000000	61.934600
673.000000	61.610000
672.000000	61.257300
671.000000	60.903000
670.000000	60.531900
669.000000	60.228900
668.000000	59.946500
667.000000	59.631000
666.000000	59.363200
665.000000	59.027100
664.000000	58.691800
663.000000	58.391700
662.000000	58.114200
661.000000	57.812300
660.000000	57.556100
659.000000	57.247800
658.000000	56.951800
657.000000	56.673200
656.000000	56.398200
655.000000	56.119600
654.000000	55.856900
653.000000	55.591300
652.000000	55.341100
651.000000	55.090800
650.000000	54.828300
649.000000	54.466700
648.000000	54.203100
647.000000	53.899800
646.000000	53.675300
645.000000	53.355300
644.000000	53.092800
643.000000	52.809200
642.000000	52.511500
641.000000	52.233900
640.000000	51.954600
639.000000	51.651100
638.000000	51.399600
637.000000	51.149000
636.000000	50.865600
635.000000	50.662300
634.000000	50.392300
633.000000	50.139700
632.000000	49.935900
631.000000	49.720900
630.000000	49.481200
629.000000	49.244100
628.000000	48.981100
627.000000	48.750600
626.000000	48.499700
625.000000	48.315900
624.000000	48.066700
623.000000	47.808100
622.000000	47.607700
621.000000	47.443500
620.000000	47.279100
619.000000	47.085300
618.000000	46.930800
617.000000	46.814800
616.000000	46.577800
615.000000	46.453100
614.000000	46.357100
613.000000	46.295900
612.000000	46.277900
611.000000	46.219700
610.000000	46.221800
609.000000	46.185400
608.000000	46.202100
607.000000	46.214600
606.000000	46.277800
605.000000	46.326600
604.000000	46.408500
603.000000	46.500400
602.000000	46.605300
601.000000	46.748800
600.000000	46.883300
599.000000	47.094900
598.000000	47.288100
597.000000	47.465600
596.000000	47.602900
595.000000	47.800600
594.000000	47.993400
593.000000	48.189500
592.000000	48.402800
591.000000	48.603300
590.000000	48.806900
589.000000	49.008200
588.000000	49.191300
587.000000	49.437800
586.000000	49.626600
585.000000	49.841800
584.000000	50.072600
583.000000	50.258500
582.000000	50.491500
581.000000	50.655800
580.000000	50.804000
579.000000	50.983700
578.000000	51.097300
577.000000	51.302800
576.000000	51.468600
575.000000	51.650100
574.000000	51.805600
573.000000	51.961300
572.000000	52.070100
571.000000	52.223600
570.000000	52.314700
569.000000	52.393800
568.000000	52.465500
567.000000	52.564200
566.000000	52.632400
565.000000	52.699400
564.000000	52.764700
563.000000	52.804200
562.000000	52.830700
561.000000	52.856200
560.000000	52.845100
559.000000	53.286700
558.000000	53.266100
557.000000	53.235600
556.000000	53.222000
555.000000	53.126900
554.000000	53.048300
553.000000	52.943100
552.000000	52.851900
551.000000	52.766000
550.000000	52.662800
549.000000	52.541400
548.000000	52.376400
547.000000	52.206300
546.000000	52.017000
545.000000	51.865500
544.000000	51.640100
543.000000	51.418700
542.000000	51.226400
541.000000	50.992200
540.000000	50.750500
539.000000	50.530600
538.000000	50.257300
537.000000	49.962900
536.000000	49.631700
535.000000	49.317000
534.000000	48.996000
533.000000	48.675700
532.000000	48.316500
531.000000	47.935500
530.000000	47.564900
529.000000	47.206400
528.000000	46.781800
527.000000	46.312100
526.000000	45.882500
525.000000	45.475900
524.000000	45.002900
523.000000	44.512100
522.000000	44.042400
521.000000	43.565200
520.000000	43.083100
519.000000	42.583100
518.000000	42.090100
517.000000	41.590800
516.000000	41.098500
515.000000	40.572700
514.000000	40.028300
513.000000	39.481400
512.000000	38.953400
511.000000	38.448200
510.000000	37.908100
509.000000	37.406500
508.000000	36.907500
507.000000	36.399800
506.000000	35.916800
505.000000	35.476900
504.000000	35.025200
503.000000	34.541000
502.000000	34.081400
501.000000	33.637900
500.000000	33.247900
499.000000	32.850100
498.000000	32.475600
497.000000	32.084300
496.000000	31.714500
495.000000	31.349800
494.000000	30.956800
493.000000	30.574500
492.000000	30.231000
491.000000	29.868500
490.000000	29.480900
489.000000	29.081900
488.000000	28.679400
487.000000	28.293200
486.000000	27.892500
485.000000	27.485000
484.000000	27.082200
483.000000	26.667100
482.000000	26.200800
481.000000	25.694100
480.000000	25.196100
479.000000	24.751300
478.000000	24.386600
477.000000	24.033700
476.000000	23.663100
475.000000	23.305500
474.000000	22.954800
473.000000	22.626800
472.000000	22.314500
471.000000	22.017400
470.000000	21.735600
469.000000	21.457400
468.000000	21.217500
467.000000	21.006600
466.000000	20.799000
465.000000	20.610100
464.000000	20.460500
463.000000	20.335100
462.000000	20.216000
461.000000	20.103400
460.000000	20.013100
459.000000	19.948100
458.000000	19.895000
457.000000	19.847900
456.000000	19.813700
455.000000	19.791600
454.000000	19.781100
453.000000	19.757000
452.000000	19.720400
451.000000	19.711000
450.000000	19.686700
449.000000	19.654700
448.000000	19.632100
447.000000	19.601700
446.000000	19.583300
445.000000	19.598100
444.000000	19.597200
443.000000	19.541000
442.000000	19.473000
441.000000	19.412100
440.000000	19.354500
439.000000	19.274800
438.000000	19.195600
437.000000	19.107900
436.000000	19.016900
435.000000	18.920500
434.000000	18.807100
433.000000	18.713300
432.000000	18.621200
431.000000	18.475600
430.000000	18.330500
429.000000	18.197200
428.000000	18.055000
427.000000	17.897500
426.000000	17.730300
425.000000	17.568400
424.000000	17.388100
423.000000	17.194000
422.000000	16.998900
421.000000	16.790700
420.000000	16.570100
419.000000	16.326900
418.000000	16.086300
417.000000	15.849200
416.000000	15.605900
415.000000	15.351400
414.000000	15.065400
413.000000	14.777200
412.000000	14.500500
411.000000	14.216100
410.000000	13.915100
409.000000	13.608900
408.000000	13.319800
407.000000	13.026100
406.000000	12.721400
405.000000	12.423000
404.000000	12.111300
403.000000	11.812000
402.000000	11.510600
401.000000	11.198000
400.000000	10.878500
399.000000	10.596500
398.000000	10.327300
397.000000	10.043500
396.000000	9.751400
395.000000	9.490000
394.000000	9.219800
393.000000	8.947200
392.000000	8.705400
391.000000	8.467700
390.000000	8.230800
389.000000	8.012300
388.000000	7.819600
387.000000	7.612800
386.000000	7.409600
385.000000	7.226100
384.000000	7.044400
383.000000	6.886900
382.000000	6.738300
381.000000	6.596500
380.000000	6.447500
379.000000	6.327300
378.000000	6.208200
377.000000	6.098700
376.000000	6.101600
375.000000	5.876400
374.000000	5.797100
373.000000	5.789900
372.000000	5.799100
371.000000	5.694500
370.000000	5.588100
369.000000	5.607800
368.000000	5.521700
367.000000	5.457700
366.000000	5.470500
365.000000	5.406400
364.000000	5.398000
363.000000	5.314300
362.000000	5.318600
361.000000	5.277400
360.000000	5.185200
359.000000	5.122600
358.000000	5.137000
357.000000	5.092300
356.000000	5.021200
355.000000	5.007000
354.000000	5.086000
353.000000	4.886300
352.000000	4.861800
351.000000	5.004400
350.000000	4.914100
349.000000	4.948800
348.000000	4.970100
347.000000	4.985500
346.000000	4.820900
345.000000	4.743400
344.000000	4.766700
343.000000	4.762400
342.000000	4.745200
341.000000	4.898200
340.000000	4.938700
339.000000	4.789800
338.000000	4.715300
337.000000	4.756900
336.000000	4.808600
335.000000	4.866300
334.000000	4.817800
333.000000	4.797200
332.000000	4.778100
331.000000	4.893800
330.000000	4.563700
329.000000	4.585200
328.000000	4.661600
327.000000	4.686400
326.000000	4.506200
325.000000	5.136000
324.000000	4.890300
323.000000	4.730900
322.000000	4.911100
321.000000	4.904500
320.000000	4.736500
319.000000	4.900300
318.000000	4.637500
317.000000	4.728700
316.000000	4.628100
315.000000	4.598000
314.000000	4.537300
313.000000	4.570300
312.000000	4.576700
311.000000	4.581800
310.000000	4.584900
309.000000	4.613500
308.000000	4.612300
307.000000	4.530400
306.000000	4.518900
305.000000	4.534100
304.000000	4.584900
303.000000	4.597700
302.000000	4.561800
301.000000	4.552100
300.000000	4.517600
299.000000	4.640700
298.000000	4.626400
297.000000	4.629200
296.000000	4.620100
295.000000	4.594100
294.000000	4.627200
293.000000	4.598400
292.000000	4.617700
291.000000	4.564800
290.000000	4.602400
289.000000	4.591600
288.000000	4.593100
287.000000	4.614700
286.000000	4.612900
285.000000	4.633600
284.000000	4.610300
283.000000	4.670800
282.000000	4.637000
281.000000	4.647500
280.000000	4.586300
279.000000	4.623200
278.000000	4.600300
277.000000	4.676200
276.000000	4.672600
275.000000	4.663700
274.000000	4.675400
273.000000	4.649100
272.000000	4.668400
271.000000	4.688200
270.000000	4.678500
269.000000	4.705700
268.000000	4.712000
267.000000	4.701700
266.000000	4.728300
265.000000	4.730600
264.000000	4.767700
263.000000	4.785600
262.000000	4.846700
261.000000	4.835100
260.000000	4.827800
259.000000	4.876400
258.000000	4.852500
257.000000	4.866200
256.000000	4.903800
255.000000	4.913000
254.000000	4.877100
253.000000	4.907100
252.000000	4.907100
251.000000	4.898900
250.000000	4.902400
