PE UV       SUBTECH     SPECTRUM    ASCII       PEDS        4.00        
   -1
CICIMAUCR0254-1.ASC
24/06/26
12:06:38.00
24/06/26
12:06:38.00
Vinicio Soto Monge
C. resplendens. Sex F. Dorsal.
250,000000
1
Lambda 1050
1050L1511233
PerkinElmer UV WinLab 6.3.2.0749 / 2.02.05 Lambda 900 UV/VIS/NIR, Aug  7 2015 09:38:08

0
0
3350/servo 860,8/2
0
0
UV/VIS
1
1
1
DoubleDePol,CommonBeamDepol,RBeamAtt,SBeamAtt,60mm sphere, WB InGaAs Detector
0
0
0
0
Program
Program
3350/servo 860,8/2
3350/0,2 860,8/0,2
3350/0,2 860,8/0,2
0
15.00
 
 
 
0
 
860,8
319,2
860,8
Front
100
on
S:100 R:100
0
0
0
0
 
0
 
 
 
0
 
 
0
0
0
0
0
 
 
 
 
0
0


0
0
#HDR
-1
-1
#GR
nm
%R
1.0
0.0
2500,000000
-1,000000
2251
8
90,882800
5,814900
#DATA
2482.000000	8.386440
2481.000000	8.414968
2480.000000	8.416101
2479.000000	8.434742
2478.000000	8.414556
2477.000000	8.398387
2476.000000	8.394577
2475.000000	8.466772
2474.000000	8.428872
2473.000000	8.485207
2472.000000	8.488091
2471.000000	8.472334
2470.000000	8.536084
2469.000000	8.554004
2468.000000	8.534230
2467.000000	8.576765
2466.000000	8.563891
2465.000000	8.629599
2464.000000	8.659775
2463.000000	8.648034
2462.000000	8.691392
2461.000000	8.748140
2460.000000	8.777080
2459.000000	8.819408
2458.000000	8.875538
2457.000000	8.917764
2456.000000	8.936920
2455.000000	8.990371
2454.000000	9.051753
2453.000000	9.099952
2452.000000	9.166277
2451.000000	9.226011
2450.000000	9.279875
2449.000000	9.345273
2448.000000	9.409024
2447.000000	9.474628
2446.000000	9.557329
2445.000000	9.600069
2444.000000	9.687405
2443.000000	9.739517
2442.000000	9.792248
2441.000000	9.848377
2440.000000	9.929636
2439.000000	9.991121
2438.000000	10.057137
2437.000000	10.128612
2436.000000	10.207399
2435.000000	10.272694
2434.000000	10.321408
2433.000000	10.384438
2432.000000	10.456943
2431.000000	10.514102
2430.000000	10.574248
2429.000000	10.631819
2428.000000	10.691553
2427.000000	10.745725
2426.000000	10.800104
2425.000000	10.856542
2424.000000	10.914113
2423.000000	10.949748
2422.000000	10.995990
2421.000000	11.060770
2420.000000	11.123079
2419.000000	11.170351
2418.000000	11.193112
2417.000000	11.241208
2416.000000	11.280447
2415.000000	11.333487
2414.000000	11.379832
2413.000000	11.416393
2412.000000	11.446569
2411.000000	11.479938
2410.000000	11.515984
2409.000000	11.551619
2408.000000	11.591064
2407.000000	11.620107
2406.000000	11.633701
2405.000000	11.662332
2404.000000	11.699512
2403.000000	11.731747
2402.000000	11.760996
2401.000000	11.789525
2400.000000	11.823511
2399.000000	11.862750
2398.000000	11.887880
2397.000000	11.893441
2396.000000	11.919291
2395.000000	11.944833
2394.000000	11.946996
2393.000000	11.975421
2392.000000	12.000756
2391.000000	12.015484
2390.000000	12.055547
2389.000000	12.075630
2388.000000	12.076659
2387.000000	12.097257
2386.000000	12.125065
2385.000000	12.126712
2384.000000	12.132686
2383.000000	12.144942
2382.000000	12.165951
2381.000000	12.162862
2380.000000	12.152151
2379.000000	12.167290
2378.000000	12.171513
2377.000000	12.165951
2376.000000	12.165128
2375.000000	12.148443
2374.000000	12.134334
2373.000000	12.132892
2372.000000	12.124756
2371.000000	12.129287
2370.000000	12.128154
2369.000000	12.121460
2368.000000	12.113530
2367.000000	12.096227
2366.000000	12.080161
2365.000000	12.060181
2364.000000	12.052663
2363.000000	12.033095
2362.000000	11.999932
2361.000000	11.981600
2360.000000	11.954411
2359.000000	11.936285
2358.000000	11.902092
2357.000000	11.868518
2356.000000	11.845139
2355.000000	11.815272
2354.000000	11.800235
2353.000000	11.788907
2352.000000	11.755744
2351.000000	11.738957
2350.000000	11.734013
2349.000000	11.729276
2348.000000	11.737721
2347.000000	11.745651
2346.000000	11.762438
2345.000000	11.787568
2344.000000	11.809608
2343.000000	11.831956
2342.000000	11.853687
2341.000000	11.859866
2340.000000	11.886335
2339.000000	11.926810
2338.000000	11.946378
2337.000000	11.975627
2336.000000	11.994989
2335.000000	11.995298
2334.000000	11.991899
2333.000000	12.008377
2332.000000	12.017955
2331.000000	12.015587
2330.000000	12.007039
2329.000000	11.988912
2328.000000	11.981703
2327.000000	11.967079
2326.000000	11.934122
2325.000000	11.901680
2324.000000	11.866561
2323.000000	11.832986
2322.000000	11.790143
2321.000000	11.739266
2320.000000	11.682930
2319.000000	11.611250
2318.000000	11.529373
2317.000000	11.461297
2316.000000	11.406300
2315.000000	11.323497
2314.000000	11.237706
2313.000000	11.155521
2312.000000	11.077455
2311.000000	11.018442
2310.000000	10.955618
2309.000000	10.878685
2308.000000	10.815140
2307.000000	10.784964
2306.000000	10.758908
2305.000000	10.748609
2304.000000	10.719463
2303.000000	10.717712
2302.000000	10.738413
2301.000000	10.771885
2300.000000	10.796499
2299.000000	10.833781
2298.000000	10.895266
2297.000000	10.967565
2296.000000	11.020810
2295.000000	11.086518
2294.000000	11.156551
2293.000000	11.234308
2292.000000	11.279314
2291.000000	11.329470
2290.000000	11.377360
2289.000000	11.421440
2288.000000	11.471493
2287.000000	11.495489
2286.000000	11.534625
2285.000000	11.540702
2284.000000	11.547499
2283.000000	11.552031
2282.000000	11.550383
2281.000000	11.558828
2280.000000	11.544718
2279.000000	11.539054
2278.000000	11.512174
2277.000000	11.476951
2276.000000	11.461915
2275.000000	11.427722
2274.000000	11.411862
2273.000000	11.401151
2272.000000	11.377051
2271.000000	11.380141
2270.000000	11.400842
2269.000000	11.405682
2268.000000	11.437403
2267.000000	11.503111
2266.000000	11.548632
2265.000000	11.608469
2264.000000	11.697143
2263.000000	11.795498
2262.000000	11.935461
2261.000000	12.085929
2260.000000	12.214151
2259.000000	12.349067
2258.000000	12.563800
2257.000000	12.742075
2256.000000	12.897898
2255.000000	13.107791
2254.000000	13.281534
2253.000000	13.482467
2252.000000	13.651164
2251.000000	13.852200
2250.000000	14.028724
2249.000000	14.205351
2248.000000	14.368589
2247.000000	14.517924
2246.000000	14.668804
2245.000000	14.815976
2244.000000	14.932045
2243.000000	15.052852
2242.000000	15.154297
2241.000000	15.266555
2240.000000	15.349874
2239.000000	15.443079
2238.000000	15.517026
2237.000000	15.582424
2236.000000	15.642776
2235.000000	15.700759
2234.000000	15.757816
2233.000000	15.780370
2232.000000	15.829496
2231.000000	15.839280
2230.000000	15.852566
2229.000000	15.886038
2228.000000	15.896234
2227.000000	15.892114
2226.000000	15.904473
2225.000000	15.879549
2224.000000	15.881094
2223.000000	15.884596
2222.000000	15.846902
2221.000000	15.818785
2220.000000	15.793965
2219.000000	15.768629
2218.000000	15.721151
2217.000000	15.674394
2216.000000	15.654002
2215.000000	15.601683
2214.000000	15.564813
2213.000000	15.532062
2212.000000	15.499724
2211.000000	15.482421
2210.000000	15.452760
2209.000000	15.400751
2208.000000	15.395395
2207.000000	15.357289
2206.000000	15.317844
2205.000000	15.308678
2204.000000	15.306103
2203.000000	15.273250
2202.000000	15.242765
2201.000000	15.231333
2200.000000	15.208675
2199.000000	15.200539
2198.000000	15.172011
2197.000000	15.156459
2196.000000	15.136994
2195.000000	15.121443
2194.000000	15.103420
2193.000000	15.079114
2192.000000	15.057692
2191.000000	15.044510
2190.000000	15.035241
2189.000000	15.023294
2188.000000	15.013304
2187.000000	15.001048
2186.000000	14.965620
2185.000000	14.957484
2184.000000	14.948318
2183.000000	14.914640
2182.000000	14.890128
2181.000000	14.874062
2180.000000	14.857790
2179.000000	14.841929
2178.000000	14.832660
2177.000000	14.826893
2176.000000	14.816388
2175.000000	14.806604
2174.000000	14.808767
2173.000000	14.814225
2172.000000	14.819478
2171.000000	14.805574
2170.000000	14.819478
2169.000000	14.827511
2168.000000	14.832454
2167.000000	14.836986
2166.000000	14.830394
2165.000000	14.857275
2164.000000	14.901148
2163.000000	14.915670
2162.000000	14.938122
2161.000000	14.970872
2160.000000	14.980038
2159.000000	15.036374
2158.000000	15.072111
2157.000000	15.105377
2156.000000	15.156665
2155.000000	15.191785
2154.000000	15.244001
2153.000000	15.297555
2152.000000	15.338339
2151.000000	15.387156
2150.000000	15.431133
2149.000000	15.477993
2148.000000	15.519292
2147.000000	15.562238
2146.000000	15.625989
2145.000000	15.652045
2144.000000	15.706424
2143.000000	15.751945
2142.000000	15.773264
2141.000000	15.824862
2140.000000	15.865646
2139.000000	15.914154
2138.000000	15.950097
2137.000000	15.979964
2136.000000	16.004682
2135.000000	16.034137
2134.000000	16.071213
2133.000000	16.101492
2132.000000	16.114983
2131.000000	16.143614
2130.000000	16.167096
2129.000000	16.187385
2128.000000	16.199332
2127.000000	16.214883
2126.000000	16.202318
2125.000000	16.208292
2124.000000	16.205099
2123.000000	16.214059
2122.000000	16.220033
2121.000000	16.214265
2120.000000	16.212926
2119.000000	16.196963
2118.000000	16.185325
2117.000000	16.176880
2116.000000	16.173069
2115.000000	16.152884
2114.000000	16.120854
2113.000000	16.103860
2112.000000	16.091193
2111.000000	16.072243
2110.000000	16.044230
2109.000000	16.020954
2108.000000	16.000871
2107.000000	15.981715
2106.000000	15.966781
2105.000000	15.928675
2104.000000	15.895513
2103.000000	15.877489
2102.000000	15.860187
2101.000000	15.826304
2100.000000	15.802719
2099.000000	15.791802
2098.000000	15.769762
2097.000000	15.749473
2096.000000	15.729905
2095.000000	15.702098
2094.000000	15.697361
2093.000000	15.680779
2092.000000	15.659563
2091.000000	15.635464
2090.000000	15.614763
2089.000000	15.612497
2088.000000	15.604361
2087.000000	15.584484
2086.000000	15.560179
2085.000000	15.540096
2084.000000	15.526089
2083.000000	15.501680
2082.000000	15.467797
2081.000000	15.427631
2080.000000	15.399412
2079.000000	15.375415
2078.000000	15.331954
2077.000000	15.282416
2076.000000	15.239572
2075.000000	15.196934
2074.000000	15.141629
2073.000000	15.093636
2072.000000	15.042656
2071.000000	14.977670
2070.000000	14.906195
2069.000000	14.841105
2068.000000	14.788890
2067.000000	14.722255
2066.000000	14.655930
2065.000000	14.591150
2064.000000	14.512878
2063.000000	14.439961
2062.000000	14.368383
2061.000000	14.304015
2060.000000	14.241088
2059.000000	14.173630
2058.000000	14.112145
2057.000000	14.056016
2056.000000	14.011730
2055.000000	13.977847
2054.000000	13.947259
2053.000000	13.918216
2052.000000	13.898648
2051.000000	13.911522
2050.000000	13.923056
2049.000000	13.931502
2048.000000	13.969608
2047.000000	14.011215
2046.000000	14.060753
2045.000000	14.121105
2044.000000	14.173527
2043.000000	14.227803
2042.000000	14.298968
2041.000000	14.370443
2040.000000	14.462310
2039.000000	14.521529
2038.000000	14.579924
2037.000000	14.650884
2036.000000	14.704232
2035.000000	14.736571
2034.000000	14.790126
2033.000000	14.855215
2032.000000	14.905474
2031.000000	14.938019
2030.000000	14.956454
2029.000000	14.985806
2028.000000	15.019380
2027.000000	15.046673
2026.000000	15.066035
2025.000000	15.085294
2024.000000	15.088383
2023.000000	15.095799
2022.000000	15.104450
2021.000000	15.113925
2020.000000	15.095490
2019.000000	15.085603
2018.000000	15.082513
2017.000000	15.097961
2016.000000	15.081792
2015.000000	15.057486
2014.000000	15.046982
2013.000000	15.018247
2012.000000	14.978288
2011.000000	14.968092
2010.000000	14.940284
2009.000000	14.921437
2008.000000	14.879521
2007.000000	14.849654
2006.000000	14.825451
2005.000000	14.796717
2004.000000	14.753358
2003.000000	14.698362
2002.000000	14.661801
2001.000000	14.620502
2000.000000	14.576010
1999.000000	14.509273
1998.000000	14.454895
1997.000000	14.405048
1996.000000	14.345108
1995.000000	14.277238
1994.000000	14.226361
1993.000000	14.141497
1992.000000	14.055707
1991.000000	13.983305
1990.000000	13.933046
1989.000000	13.872489
1988.000000	13.769808
1987.000000	13.714297
1986.000000	13.638393
1985.000000	13.558473
1984.000000	13.460118
1983.000000	13.418717
1982.000000	13.334265
1981.000000	13.239515
1980.000000	13.164332
1979.000000	13.069582
1978.000000	13.004801
1977.000000	12.914995
1976.000000	12.837340
1975.000000	12.746092
1974.000000	12.670394
1973.000000	12.597581
1972.000000	12.514674
1971.000000	12.451439
1970.000000	12.374093
1969.000000	12.296851
1968.000000	12.246489
1967.000000	12.155446
1966.000000	12.083560
1965.000000	12.007450
1964.000000	11.945245
1963.000000	11.880670
1962.000000	11.799927
1961.000000	11.730100
1960.000000	11.681592
1959.000000	11.598273
1958.000000	11.546160
1957.000000	11.463975
1956.000000	11.426589
1955.000000	11.367679
1954.000000	11.298573
1953.000000	11.231321
1952.000000	11.189919
1951.000000	11.154182
1950.000000	11.081471
1949.000000	11.029771
1948.000000	10.980748
1947.000000	10.931210
1946.000000	10.906801
1945.000000	10.857984
1944.000000	10.820496
1943.000000	10.783419
1942.000000	10.762616
1941.000000	10.739031
1940.000000	10.737177
1939.000000	10.732131
1938.000000	10.684035
1937.000000	10.696702
1936.000000	10.688360
1935.000000	10.715961
1934.000000	10.718639
1933.000000	10.739031
1932.000000	10.736456
1931.000000	10.770031
1930.000000	10.809270
1929.000000	10.843050
1928.000000	10.899695
1927.000000	10.952940
1926.000000	11.038422
1925.000000	11.116591
1924.000000	11.178076
1923.000000	11.240590
1922.000000	11.322982
1921.000000	11.421131
1920.000000	11.548735
1919.000000	11.676339
1918.000000	11.798073
1917.000000	11.921042
1916.000000	12.048852
1915.000000	12.167084
1914.000000	12.301795
1913.000000	12.475950
1912.000000	12.704175
1911.000000	12.906652
1910.000000	13.071642
1909.000000	13.237661
1908.000000	13.403474
1907.000000	13.604407
1906.000000	13.834485
1905.000000	14.100404
1904.000000	14.385892
1903.000000	14.650266
1902.000000	14.934517
1901.000000	15.204144
1900.000000	15.521248
1899.000000	15.915287
1898.000000	16.283474
1897.000000	16.651456
1896.000000	16.999046
1895.000000	17.325523
1894.000000	17.637375
1893.000000	18.010815
1892.000000	18.426378
1891.000000	18.920625
1890.000000	19.446284
1889.000000	19.920036
1888.000000	20.374014
1887.000000	20.866613
1886.000000	21.326770
1885.000000	21.829977
1884.000000	22.338231
1883.000000	22.895713
1882.000000	23.392844
1881.000000	23.888224
1880.000000	24.377115
1879.000000	24.805552
1878.000000	25.229663
1877.000000	25.697853
1876.000000	26.131852
1875.000000	26.513222
1874.000000	26.922502
1873.000000	27.323853
1872.000000	27.722319
1871.000000	28.085152
1870.000000	28.434698
1869.000000	28.754172
1868.000000	29.080649
1867.000000	29.338020
1866.000000	29.557284
1865.000000	29.735971
1864.000000	29.929798
1863.000000	30.109823
1862.000000	30.250610
1861.000000	30.421882
1860.000000	30.591609
1859.000000	30.748359
1858.000000	30.876581
1857.000000	31.006863
1856.000000	31.111603
1855.000000	31.186991
1854.000000	31.275562
1853.000000	31.357130
1852.000000	31.404608
1851.000000	31.464651
1850.000000	31.510379
1849.000000	31.551471
1848.000000	31.596478
1847.000000	31.627787
1846.000000	31.648076
1845.000000	31.613265
1844.000000	31.611411
1843.000000	31.618415
1842.000000	31.658787
1841.000000	31.691846
1840.000000	31.687521
1839.000000	31.676398
1838.000000	31.642823
1837.000000	31.633966
1836.000000	31.612544
1835.000000	31.591740
1834.000000	31.554664
1833.000000	31.520575
1832.000000	31.492046
1831.000000	31.463209
1830.000000	31.447967
1829.000000	31.418100
1828.000000	31.380921
1827.000000	31.326748
1826.000000	31.280094
1825.000000	31.247034
1824.000000	31.203367
1823.000000	31.182769
1822.000000	31.181430
1821.000000	31.201410
1820.000000	31.180194
1819.000000	31.135291
1818.000000	31.092756
1817.000000	31.065670
1816.000000	31.051251
1815.000000	31.051457
1814.000000	31.040746
1813.000000	31.019736
1812.000000	31.004185
1811.000000	30.971331
1810.000000	30.930341
1809.000000	30.902431
1808.000000	30.879053
1807.000000	30.852275
1806.000000	30.829412
1805.000000	30.792953
1804.000000	30.748153
1803.000000	30.703043
1802.000000	30.670293
1801.000000	30.649386
1800.000000	30.605924
1799.000000	30.548044
1798.000000	30.492533
1797.000000	30.457825
1796.000000	30.435785
1795.000000	30.404374
1794.000000	30.367709
1793.000000	30.322188
1792.000000	30.284082
1791.000000	30.256893
1790.000000	30.223627
1789.000000	30.185727
1788.000000	30.151843
1787.000000	30.128156
1786.000000	30.099525
1785.000000	30.069761
1784.000000	30.025681
1783.000000	29.977070
1782.000000	29.934020
1781.000000	29.883143
1780.000000	29.836695
1779.000000	29.796014
1778.000000	29.747506
1777.000000	29.677164
1776.000000	29.625876
1775.000000	29.573351
1774.000000	29.503730
1773.000000	29.441215
1772.000000	29.368814
1771.000000	29.297854
1770.000000	29.215462
1769.000000	29.128951
1768.000000	29.033994
1767.000000	28.948513
1766.000000	28.875597
1765.000000	28.802783
1764.000000	28.754687
1763.000000	28.739547
1762.000000	28.739444
1761.000000	28.741504
1760.000000	28.758600
1759.000000	28.785481
1758.000000	28.835740
1757.000000	28.888264
1756.000000	28.942437
1755.000000	29.001656
1754.000000	29.056446
1753.000000	29.111134
1752.000000	29.154389
1751.000000	29.188788
1750.000000	29.225452
1749.000000	29.231837
1748.000000	29.217419
1747.000000	29.206502
1746.000000	29.198160
1745.000000	29.159333
1744.000000	29.097539
1743.000000	29.038629
1742.000000	28.950058
1741.000000	28.845936
1740.000000	28.719155
1739.000000	28.582179
1738.000000	28.437170
1737.000000	28.298031
1736.000000	28.150241
1735.000000	28.023770
1734.000000	27.918823
1733.000000	27.803063
1732.000000	27.715625
1731.000000	27.685037
1730.000000	27.681124
1729.000000	27.694615
1728.000000	27.731588
1727.000000	27.797502
1726.000000	27.861767
1725.000000	27.927681
1724.000000	27.981956
1723.000000	28.041690
1722.000000	28.099776
1721.000000	28.191952
1720.000000	28.274343
1719.000000	28.365283
1718.000000	28.472392
1717.000000	28.590109
1716.000000	28.695159
1715.000000	28.815348
1714.000000	28.934095
1713.000000	29.049649
1712.000000	29.177871
1711.000000	29.250582
1710.000000	29.362840
1709.000000	29.438949
1708.000000	29.496418
1707.000000	29.543587
1706.000000	29.568510
1705.000000	29.609088
1704.000000	29.636792
1703.000000	29.632570
1702.000000	29.624640
1701.000000	29.609088
1700.000000	29.582929
1699.000000	29.509703
1698.000000	29.464903
1697.000000	29.399298
1696.000000	29.382614
1695.000000	29.340388
1694.000000	29.321953
1693.000000	29.318761
1692.000000	29.360574
1691.000000	29.414850
1690.000000	29.472936
1689.000000	29.544926
1688.000000	29.609088
1687.000000	29.704354
1686.000000	29.768619
1685.000000	29.853997
1684.000000	29.949572
1683.000000	30.055857
1682.000000	30.193451
1681.000000	30.369460
1680.000000	30.598406
1679.000000	30.852687
1678.000000	31.149812
1677.000000	31.429944
1676.000000	31.750653
1675.000000	32.000918
1674.000000	32.240575
1673.000000	32.454793
1672.000000	32.664068
1671.000000	32.855319
1670.000000	33.025046
1669.000000	33.163876
1668.000000	33.288390
1667.000000	33.392719
1666.000000	33.492928
1665.000000	33.588193
1664.000000	33.659462
1663.000000	33.716518
1662.000000	33.799116
1661.000000	33.849581
1660.000000	33.895823
1659.000000	33.952364
1658.000000	34.012819
1657.000000	34.021573
1656.000000	34.058443
1655.000000	34.078526
1654.000000	34.076364
1653.000000	34.069257
1652.000000	34.056796
1651.000000	34.072862
1650.000000	34.062460
1649.000000	34.044025
1648.000000	34.029812
1647.000000	33.986866
1646.000000	33.964208
1645.000000	33.924248
1644.000000	33.896647
1643.000000	33.860806
1642.000000	33.799837
1641.000000	33.760392
1640.000000	33.715694
1639.000000	33.689535
1638.000000	33.632994
1637.000000	33.596638
1636.000000	33.554001
1635.000000	33.496532
1634.000000	33.446685
1633.000000	33.394779
1632.000000	33.321347
1631.000000	33.276238
1630.000000	33.200952
1629.000000	33.145544
1628.000000	33.085810
1627.000000	33.005478
1626.000000	32.942140
1625.000000	32.866545
1624.000000	32.805781
1623.000000	32.722257
1622.000000	32.656858
1621.000000	32.600626
1620.000000	32.543055
1619.000000	32.488368
1618.000000	32.405358
1617.000000	32.331205
1616.000000	32.277960
1615.000000	32.208648
1614.000000	32.155711
1613.000000	32.088150
1612.000000	32.031403
1611.000000	31.973832
1610.000000	31.905756
1609.000000	31.829646
1608.000000	31.757554
1607.000000	31.689580
1606.000000	31.627993
1605.000000	31.559505
1604.000000	31.515013
1603.000000	31.428296
1602.000000	31.363207
1601.000000	31.296984
1600.000000	31.213872
1599.000000	31.143942
1598.000000	31.080706
1597.000000	31.033125
1596.000000	30.972567
1595.000000	30.909949
1594.000000	30.854644
1593.000000	30.793468
1592.000000	30.727761
1591.000000	30.677502
1590.000000	30.624359
1589.000000	30.574306
1588.000000	30.525901
1587.000000	30.475951
1586.000000	30.431254
1585.000000	30.375743
1584.000000	30.309520
1583.000000	30.257305
1582.000000	30.221464
1581.000000	30.155345
1580.000000	30.114149
1579.000000	30.066980
1578.000000	30.038967
1577.000000	29.994063
1576.000000	29.958223
1575.000000	29.917233
1574.000000	29.887778
1573.000000	29.866974
1572.000000	29.828044
1571.000000	29.810124
1570.000000	29.772327
1569.000000	29.770988
1568.000000	29.744108
1567.000000	29.739061
1566.000000	29.717639
1565.000000	29.702809
1564.000000	29.684889
1563.000000	29.658832
1562.000000	29.647400
1561.000000	29.648430
1560.000000	29.614856
1559.000000	29.591889
1558.000000	29.560992
1557.000000	29.524122
1556.000000	29.501258
1555.000000	29.461710
1554.000000	29.413511
1553.000000	29.378701
1552.000000	29.326073
1551.000000	29.275299
1550.000000	29.225143
1549.000000	29.164894
1548.000000	29.105778
1547.000000	29.049134
1546.000000	28.995888
1545.000000	28.933889
1544.000000	28.881776
1543.000000	28.830075
1542.000000	28.776418
1541.000000	28.719155
1540.000000	28.666734
1539.000000	28.611222
1538.000000	28.579399
1537.000000	28.535628
1536.000000	28.490416
1535.000000	28.453339
1534.000000	28.396798
1533.000000	28.340051
1532.000000	28.289998
1531.000000	28.252201
1530.000000	28.196380
1529.000000	28.126141
1528.000000	28.071454
1527.000000	28.017899
1526.000000	27.950029
1525.000000	27.887515
1524.000000	27.835299
1523.000000	27.772063
1522.000000	27.715728
1521.000000	27.658260
1520.000000	27.589463
1519.000000	27.513354
1518.000000	27.438480
1517.000000	27.367726
1516.000000	27.301607
1515.000000	27.241358
1514.000000	27.161335
1513.000000	27.081312
1512.000000	27.007263
1511.000000	26.932698
1510.000000	26.860915
1509.000000	26.793456
1508.000000	26.717553
1507.000000	26.624863
1506.000000	26.537321
1505.000000	26.463993
1504.000000	26.394166
1503.000000	26.316718
1502.000000	26.238549
1501.000000	26.159350
1500.000000	26.090965
1499.000000	26.029892
1498.000000	25.966450
1497.000000	25.897962
1496.000000	25.829474
1495.000000	25.765209
1494.000000	25.703415
1493.000000	25.643372
1492.000000	25.597130
1491.000000	25.542648
1490.000000	25.482502
1489.000000	25.433994
1488.000000	25.386516
1487.000000	25.334815
1486.000000	25.297739
1485.000000	25.255616
1484.000000	25.207005
1483.000000	25.148816
1482.000000	25.111431
1481.000000	25.080637
1480.000000	25.045930
1479.000000	25.010192
1478.000000	24.970438
1477.000000	24.962199
1476.000000	24.947883
1475.000000	24.929860
1474.000000	24.914412
1473.000000	24.923269
1472.000000	24.938511
1471.000000	24.934186
1470.000000	24.931920
1469.000000	24.942734
1468.000000	24.947471
1467.000000	24.946751
1466.000000	24.947986
1465.000000	24.953651
1464.000000	24.979192
1463.000000	25.001026
1462.000000	24.998863
1461.000000	25.046136
1460.000000	25.092790
1459.000000	25.131102
1458.000000	25.158188
1457.000000	25.194955
1456.000000	25.224204
1455.000000	25.282497
1454.000000	25.347277
1453.000000	25.383529
1452.000000	25.447795
1451.000000	25.529363
1450.000000	25.602176
1449.000000	25.652229
1448.000000	25.705990
1447.000000	25.791059
1446.000000	25.866241
1445.000000	25.945749
1444.000000	26.019696
1443.000000	26.096320
1442.000000	26.165117
1441.000000	26.260691
1440.000000	26.361312
1439.000000	26.453900
1438.000000	26.539278
1437.000000	26.642165
1436.000000	26.745669
1435.000000	26.841450
1434.000000	26.944233
1433.000000	27.077811
1432.000000	27.214375
1431.000000	27.329208
1430.000000	27.471540
1429.000000	27.606147
1428.000000	27.752392
1427.000000	27.900800
1426.000000	28.043441
1425.000000	28.209975
1424.000000	28.372595
1423.000000	28.562508
1422.000000	28.754790
1421.000000	28.937802
1420.000000	29.159230
1419.000000	29.399607
1418.000000	29.631128
1417.000000	29.846582
1416.000000	30.062860
1415.000000	30.293042
1414.000000	30.586047
1413.000000	30.872049
1412.000000	31.129214
1411.000000	31.363001
1410.000000	31.682783
1409.000000	32.046130
1408.000000	32.392278
1407.000000	32.753875
1406.000000	33.098478
1405.000000	33.457705
1404.000000	33.814255
1403.000000	34.178014
1402.000000	34.540744
1401.000000	34.928190
1400.000000	35.387524
1399.000000	35.807927
1398.000000	36.106391
1397.000000	36.413815
1396.000000	36.779634
1395.000000	37.256063
1394.000000	37.652161
1393.000000	37.955878
1392.000000	38.311604
1391.000000	38.740246
1390.000000	39.149527
1389.000000	39.535841
1388.000000	40.038018
1387.000000	40.520524
1386.000000	40.992525
1385.000000	41.465453
1384.000000	41.965467
1383.000000	42.454565
1382.000000	42.989905
1381.000000	43.419783
1380.000000	43.770359
1379.000000	44.063777
1378.000000	44.349779
1377.000000	44.587685
1376.000000	44.820441
1375.000000	45.030643
1374.000000	45.226941
1373.000000	45.467834
1372.000000	45.708417
1371.000000	46.011103
1370.000000	46.253438
1369.000000	46.492271
1368.000000	46.757469
1367.000000	46.987136
1366.000000	47.193836
1365.000000	47.358722
1364.000000	47.555123
1363.000000	47.693747
1362.000000	47.848746
1361.000000	48.039174
1360.000000	48.178107
1359.000000	48.179755
1358.000000	48.337947
1357.000000	48.435375
1356.000000	48.566996
1355.000000	48.735075
1354.000000	48.956708
1353.000000	49.167116
1352.000000	49.355587
1351.000000	49.715123
1350.000000	50.020487
1349.000000	50.322865
1348.000000	50.608764
1347.000000	50.903520
1346.000000	51.161818
1345.000000	51.401680
1344.000000	51.695510
1343.000000	51.962047
1342.000000	52.203763
1341.000000	52.469270
1340.000000	52.718917
1339.000000	52.987102
1338.000000	53.213782
1337.000000	53.462708
1336.000000	53.719358
1335.000000	53.964576
1334.000000	54.173645
1333.000000	54.413919
1332.000000	54.662948
1331.000000	54.887774
1330.000000	55.098800
1329.000000	55.327128
1328.000000	55.546289
1327.000000	55.755152
1326.000000	55.945065
1325.000000	56.133433
1324.000000	56.339206
1323.000000	56.523248
1322.000000	56.700699
1321.000000	56.879180
1320.000000	57.024602
1319.000000	57.197933
1318.000000	57.357979
1317.000000	57.518437
1316.000000	57.665300
1315.000000	57.787960
1314.000000	57.930704
1313.000000	58.075095
1312.000000	58.209806
1311.000000	58.321240
1310.000000	58.438545
1309.000000	58.554821
1308.000000	58.659355
1307.000000	58.759770
1306.000000	58.852769
1305.000000	58.931145
1304.000000	59.027337
1303.000000	59.116526
1302.000000	59.174303
1301.000000	59.233728
1300.000000	59.292123
1299.000000	59.364216
1298.000000	59.415298
1297.000000	59.454537
1296.000000	59.496042
1295.000000	59.540843
1294.000000	59.559072
1293.000000	59.582759
1292.000000	59.612935
1291.000000	59.639816
1290.000000	59.655161
1289.000000	59.652277
1288.000000	59.666284
1287.000000	59.670301
1286.000000	59.664430
1285.000000	59.651557
1284.000000	59.634460
1283.000000	59.608610
1282.000000	59.589557
1281.000000	59.570916
1280.000000	59.553407
1279.000000	59.517773
1278.000000	59.483169
1277.000000	59.460511
1276.000000	59.447431
1275.000000	59.420242
1274.000000	59.393671
1273.000000	59.381621
1272.000000	59.362259
1271.000000	59.342691
1270.000000	59.338674
1269.000000	59.309116
1268.000000	59.284811
1267.000000	59.269568
1266.000000	59.251339
1265.000000	59.213542
1264.000000	59.187589
1263.000000	59.167815
1262.000000	59.139904
1261.000000	59.115702
1260.000000	59.082745
1259.000000	59.052981
1258.000000	59.026410
1257.000000	58.992835
1256.000000	58.944636
1255.000000	58.913739
1254.000000	58.875221
1253.000000	58.821564
1252.000000	58.751325
1251.000000	58.709820
1250.000000	58.665019
1249.000000	58.591073
1248.000000	58.518774
1247.000000	58.442253
1246.000000	58.362642
1245.000000	58.285091
1244.000000	58.198992
1243.000000	58.104035
1242.000000	58.001561
1241.000000	57.906707
1240.000000	57.816179
1239.000000	57.712675
1238.000000	57.605978
1237.000000	57.504327
1236.000000	57.414314
1235.000000	57.319667
1234.000000	57.205142
1233.000000	57.093811
1232.000000	56.981449
1231.000000	56.857141
1230.000000	56.731802
1229.000000	56.605228
1228.000000	56.472269
1227.000000	56.341575
1226.000000	56.217266
1225.000000	56.084410
1224.000000	55.944756
1223.000000	55.807265
1222.000000	55.670907
1221.000000	55.526618
1220.000000	55.379240
1219.000000	55.248547
1218.000000	55.124856
1217.000000	54.997355
1216.000000	54.866970
1215.000000	54.749974
1214.000000	54.650486
1213.000000	54.542553
1212.000000	54.431839
1211.000000	54.335132
1210.000000	54.227817
1209.000000	54.129977
1208.000000	54.054280
1207.000000	53.969725
1206.000000	53.891247
1205.000000	53.824098
1204.000000	53.772500
1203.000000	53.722859
1202.000000	53.667451
1201.000000	53.620900
1200.000000	53.588355
1199.000000	53.554368
1198.000000	53.512451
1197.000000	53.440565
1196.000000	53.358276
1195.000000	53.262702
1194.000000	53.147250
1193.000000	53.002344
1192.000000	52.825820
1191.000000	52.611293
1190.000000	52.385849
1189.000000	52.167820
1188.000000	51.959678
1187.000000	51.793762
1186.000000	51.675736
1185.000000	51.618988
1184.000000	51.641852
1183.000000	51.734749
1182.000000	51.885010
1181.000000	52.113956
1180.000000	52.403357
1179.000000	52.682871
1178.000000	52.980407
1177.000000	53.272795
1176.000000	53.523883
1175.000000	53.749122
1174.000000	53.981981
1173.000000	54.190329
1172.000000	54.384155
1171.000000	54.585500
1170.000000	54.786020
1169.000000	55.002299
1168.000000	55.229288
1167.000000	55.455247
1166.000000	55.683986
1165.000000	55.939092
1164.000000	56.206968
1163.000000	56.469179
1162.000000	56.739424
1161.000000	57.006578
1160.000000	57.297627
1159.000000	57.568696
1158.000000	57.841206
1157.000000	58.116085
1156.000000	58.386124
1155.000000	58.628458
1154.000000	58.882533
1153.000000	59.099018
1152.000000	59.288003
1151.000000	59.466896
1150.000000	59.619115
1149.000000	59.780808
1148.000000	59.930761
1147.000000	60.089777
1146.000000	60.264859
1145.000000	60.449108
1144.000000	60.677230
1143.000000	60.915856
1142.000000	61.210510
1141.000000	61.533073
1140.000000	61.864390
1139.000000	62.194678
1138.000000	62.558334
1137.000000	62.949282
1136.000000	63.335596
1135.000000	63.750335
1134.000000	64.169812
1133.000000	64.542634
1132.000000	64.865609
1131.000000	65.198884
1130.000000	65.501879
1129.000000	65.789117
1128.000000	66.015179
1127.000000	66.219304
1126.000000	66.391709
1125.000000	66.551239
1124.000000	66.679667
1123.000000	66.763604
1122.000000	66.869271
1121.000000	66.936729
1120.000000	66.974115
1119.000000	67.036629
1118.000000	67.070513
1117.000000	67.125715
1116.000000	67.144150
1115.000000	67.161968
1114.000000	67.170825
1113.000000	67.177416
1112.000000	67.184728
1111.000000	67.182566
1110.000000	67.202751
1109.000000	67.205635
1108.000000	67.214389
1107.000000	67.212330
1106.000000	67.227675
1105.000000	67.215625
1104.000000	67.223349
1103.000000	67.225615
1102.000000	67.213771
1101.000000	67.200280
1100.000000	67.216140
1099.000000	67.214286
1098.000000	67.204708
1097.000000	67.216037
1096.000000	67.189466
1095.000000	67.171855
1094.000000	67.141576
1093.000000	67.140855
1092.000000	67.113871
1091.000000	67.088639
1090.000000	67.058978
1089.000000	67.058257
1088.000000	67.036011
1087.000000	66.988533
1086.000000	66.953105
1085.000000	66.924783
1084.000000	66.897078
1083.000000	66.849394
1082.000000	66.818909
1081.000000	66.805521
1080.000000	66.753408
1079.000000	66.711800
1078.000000	66.682654
1077.000000	66.630644
1076.000000	66.583475
1075.000000	66.555771
1074.000000	66.520240
1073.000000	66.488107
1072.000000	66.452575
1071.000000	66.402214
1070.000000	66.360709
1069.000000	66.318998
1068.000000	66.257307
1067.000000	66.218789
1066.000000	66.186038
1065.000000	66.138457
1064.000000	66.096026
1063.000000	66.053800
1062.000000	66.008073
1061.000000	65.959976
1060.000000	65.922282
1059.000000	65.875113
1058.000000	65.807964
1057.000000	65.772329
1056.000000	65.720320
1055.000000	65.661616
1054.000000	65.592407
1053.000000	65.558523
1052.000000	65.514135
1051.000000	65.467583
1050.000000	65.428859
1049.000000	65.386530
1048.000000	65.339567
1047.000000	65.301461
1046.000000	65.236475
1045.000000	65.210727
1044.000000	65.165412
1043.000000	65.113505
1042.000000	65.080754
1041.000000	65.047386
1040.000000	64.998466
1039.000000	64.968084
1038.000000	64.932347
1037.000000	64.875599
1036.000000	64.823590
1035.000000	64.771786
1034.000000	64.716995
1033.000000	64.694956
1032.000000	64.615139
1031.000000	64.577341
1030.000000	64.502468
1029.000000	64.458080
1028.000000	64.394844
1027.000000	64.337891
1026.000000	64.279084
1025.000000	64.210287
1024.000000	64.133250
1023.000000	64.056523
1022.000000	63.995759
1021.000000	63.926550
1020.000000	63.858371
1019.000000	63.775156
1018.000000	63.725515
1017.000000	63.666811
1016.000000	63.585655
1015.000000	63.530350
1014.000000	63.470925
1013.000000	63.411706
1012.000000	63.373702
1011.000000	63.329314
1010.000000	63.296769
1009.000000	63.255264
1008.000000	63.208816
1007.000000	63.193265
1006.000000	63.178846
1005.000000	63.166693
1004.000000	63.129617
1003.000000	63.113242
1002.000000	63.098205
1001.000000	63.081315
1000.000000	63.074518
999.000000	63.084096
998.000000	63.081212
997.000000	63.064734
996.000000	63.071943
995.000000	63.093880
994.000000	63.081933
993.000000	63.099441
992.000000	63.135694
991.000000	63.149494
990.000000	63.170298
989.000000	63.200062
988.000000	63.243730
987.000000	63.265769
986.000000	63.313145
985.000000	63.350118
984.000000	63.398935
983.000000	63.435290
982.000000	63.478340
981.000000	63.535293
980.000000	63.586170
979.000000	63.612741
978.000000	63.648170
977.000000	63.686791
976.000000	63.727266
975.000000	63.772787
974.000000	63.805847
973.000000	63.830152
972.000000	63.881132
971.000000	63.925624
970.000000	63.949929
969.000000	63.982474
968.000000	64.039942
967.000000	64.082683
966.000000	64.118832
965.000000	64.153848
964.000000	64.183921
963.000000	64.245818
962.000000	64.298343
961.000000	64.338097
960.000000	64.392475
959.000000	64.450252
958.000000	64.490521
957.000000	64.539338
956.000000	64.606282
955.000000	64.671268
954.000000	64.726161
953.000000	64.785483
952.000000	64.877659
951.000000	64.963655
950.000000	65.042854
949.000000	65.136884
948.000000	65.236887
947.000000	65.326385
946.000000	65.430610
945.000000	65.550078
944.000000	65.657290
943.000000	65.761310
942.000000	65.865741
941.000000	65.961624
940.000000	66.056375
939.000000	66.164926
938.000000	66.265340
937.000000	66.352367
936.000000	66.443924
935.000000	66.541455
934.000000	66.642385
933.000000	66.727043
932.000000	66.817571
931.000000	66.917058
930.000000	67.004291
929.000000	67.100998
928.000000	67.222320
927.000000	67.332930
926.000000	67.441893
925.000000	67.551474
924.000000	67.675165
923.000000	67.794324
922.000000	67.897107
921.000000	67.998861
920.000000	68.116990
919.000000	68.226983
918.000000	68.319982
917.000000	68.425032
916.000000	68.529772
915.000000	68.616798
914.000000	68.715050
913.000000	68.807329
912.000000	68.909701
911.000000	69.010115
910.000000	69.119696
909.000000	69.229071
908.000000	69.331958
907.000000	69.451426
906.000000	69.576455
905.000000	69.685418
904.000000	69.816421
903.000000	69.946702
902.000000	70.053812
901.000000	70.186050
900.000000	70.305415
899.000000	70.421381
898.000000	70.551560
897.000000	70.684211
896.000000	70.775974
895.000000	70.873815
894.000000	71.006053
893.000000	71.136541
892.000000	71.253537
891.000000	71.380523
890.000000	71.510908
889.000000	71.653034
888.000000	71.795983
887.000000	71.936358
886.000000	72.081985
885.000000	72.247386
884.000000	72.403107
883.000000	72.582823
882.000000	72.750593
881.000000	72.950496
880.000000	73.138967
879.000000	73.319714
878.000000	73.501078
877.000000	73.653915
876.000000	73.791509
875.000000	73.960515
874.000000	74.079056
873.000000	74.149192
872.000000	74.251151
871.000000	74.411506
870.000000	74.643954
869.000000	74.887421
868.000000	75.162712
867.000000	75.418538
866.000000	75.663859
865.000000	75.883845
864.000000	76.119279
863.000000	76.340089
862.000000	76.576656
861.000000	76.805602
860.000000	77.046494
859.000000	77.260404
858.000000	77.499133
857.000000	77.035200
856.000000	77.796300
855.000000	77.665900
854.000000	77.859400
853.000000	78.207600
852.000000	78.912900
851.000000	79.051100
850.000000	78.893300
849.000000	79.479000
848.000000	79.320200
847.000000	80.145600
846.000000	79.978200
845.000000	80.502100
844.000000	81.053200
843.000000	81.114700
842.000000	81.360300
841.000000	81.700900
840.000000	81.920000
839.000000	82.451900
838.000000	82.077200
837.000000	82.528600
836.000000	82.764600
835.000000	83.063100
834.000000	83.197200
833.000000	83.275800
832.000000	83.175800
831.000000	83.199900
830.000000	83.611400
829.000000	83.637900
828.000000	83.479000
827.000000	83.480300
826.000000	83.587200
825.000000	83.582700
824.000000	83.696100
823.000000	83.605600
822.000000	83.828700
821.000000	83.894300
820.000000	83.982600
819.000000	83.960800
818.000000	83.864900
817.000000	84.049200
816.000000	84.028200
815.000000	84.464300
814.000000	84.635100
813.000000	84.874300
812.000000	84.995900
811.000000	85.303800
810.000000	85.667100
809.000000	85.728800
808.000000	86.263600
807.000000	86.420300
806.000000	86.623100
805.000000	86.868600
804.000000	87.033200
803.000000	87.200800
802.000000	87.321200
801.000000	87.575400
800.000000	87.768800
799.000000	87.852500
798.000000	88.058300
797.000000	88.015300
796.000000	88.285900
795.000000	88.278300
794.000000	88.367200
793.000000	88.196800
792.000000	88.221500
791.000000	88.216600
790.000000	87.934600
789.000000	88.031400
788.000000	87.901700
787.000000	87.669400
786.000000	87.594900
785.000000	87.342800
784.000000	87.255900
783.000000	86.961100
782.000000	86.944100
781.000000	86.790500
780.000000	86.540400
779.000000	86.402300
778.000000	86.214900
777.000000	86.045300
776.000000	85.950800
775.000000	85.661200
774.000000	85.675900
773.000000	85.461600
772.000000	85.528200
771.000000	85.232900
770.000000	85.272900
769.000000	85.155800
768.000000	84.973600
767.000000	84.993200
766.000000	84.760800
765.000000	84.848100
764.000000	84.867300
763.000000	84.655100
762.000000	84.772700
761.000000	84.607200
760.000000	84.523300
759.000000	84.521600
758.000000	84.414300
757.000000	84.155900
756.000000	83.963800
755.000000	83.799000
754.000000	83.550400
753.000000	83.253900
752.000000	83.011500
751.000000	82.760200
750.000000	82.367200
749.000000	82.045500
748.000000	81.752000
747.000000	81.375600
746.000000	81.131000
745.000000	80.843000
744.000000	80.452900
743.000000	80.124000
742.000000	79.962300
741.000000	79.657000
740.000000	79.338300
739.000000	79.234600
738.000000	79.117700
737.000000	78.974700
736.000000	78.742900
735.000000	78.638300
734.000000	78.622200
733.000000	78.573300
732.000000	78.473100
731.000000	78.396800
730.000000	78.364700
729.000000	78.335100
728.000000	78.334600
727.000000	78.289500
726.000000	78.339100
725.000000	78.305600
724.000000	78.242900
723.000000	78.182500
722.000000	78.125700
721.000000	78.089000
720.000000	77.991700
719.000000	77.929300
718.000000	77.891400
717.000000	77.768900
716.000000	77.851300
715.000000	77.801600
714.000000	77.627300
713.000000	77.625400
712.000000	77.544200
711.000000	77.506200
710.000000	77.458800
709.000000	77.433900
708.000000	77.389700
707.000000	77.342700
706.000000	77.370400
705.000000	77.365000
704.000000	77.315200
703.000000	77.200100
702.000000	77.034300
701.000000	76.962200
700.000000	76.838100
699.000000	76.734400
698.000000	76.628200
697.000000	76.482400
696.000000	76.274700
695.000000	76.069600
694.000000	75.754300
693.000000	75.450500
692.000000	75.154800
691.000000	74.868600
690.000000	74.490400
689.000000	74.104600
688.000000	73.675200
687.000000	73.224400
686.000000	72.722700
685.000000	72.144300
684.000000	71.531300
683.000000	70.862300
682.000000	70.174200
681.000000	69.434800
680.000000	68.699200
679.000000	67.895500
678.000000	67.065300
677.000000	66.244900
676.000000	65.512600
675.000000	64.713800
674.000000	63.906200
673.000000	63.169400
672.000000	62.477700
671.000000	61.739000
670.000000	61.011500
669.000000	60.350700
668.000000	59.778900
667.000000	59.208700
666.000000	58.648600
665.000000	58.202000
664.000000	57.765600
663.000000	57.402100
662.000000	57.174000
661.000000	57.055600
660.000000	57.045200
659.000000	57.081800
658.000000	57.247400
657.000000	57.517500
656.000000	57.884200
655.000000	58.347600
654.000000	58.912200
653.000000	59.616600
652.000000	60.405200
651.000000	61.242200
650.000000	62.112400
649.000000	63.022000
648.000000	63.930300
647.000000	64.864200
646.000000	65.805500
645.000000	66.708300
644.000000	67.599100
643.000000	68.484100
642.000000	69.365600
641.000000	70.227800
640.000000	71.029700
639.000000	71.793200
638.000000	72.559100
637.000000	73.339600
636.000000	74.117000
635.000000	74.854200
634.000000	75.667100
633.000000	76.526800
632.000000	77.313200
631.000000	78.089900
630.000000	78.846600
629.000000	79.537000
628.000000	80.219500
627.000000	80.879800
626.000000	81.493100
625.000000	82.054300
624.000000	82.638500
623.000000	83.209800
622.000000	83.778700
621.000000	84.270500
620.000000	84.733200
619.000000	85.215900
618.000000	85.637900
617.000000	86.081500
616.000000	86.499800
615.000000	86.960700
614.000000	87.365600
613.000000	87.724900
612.000000	88.072600
611.000000	88.451200
610.000000	88.747500
609.000000	89.062700
608.000000	89.365800
607.000000	89.575400
606.000000	89.806800
605.000000	90.051400
604.000000	90.213900
603.000000	90.334600
602.000000	90.460700
601.000000	90.572500
600.000000	90.646100
599.000000	90.712900
598.000000	90.784800
597.000000	90.848500
596.000000	90.796000
595.000000	90.819600
594.000000	90.804300
593.000000	90.806400
592.000000	90.854400
591.000000	90.882800
590.000000	90.844500
589.000000	90.786400
588.000000	90.772200
587.000000	90.717200
586.000000	90.694900
585.000000	90.634800
584.000000	90.533200
583.000000	90.466200
582.000000	90.326300
581.000000	90.198000
580.000000	90.082700
579.000000	89.956200
578.000000	89.776100
577.000000	89.617800
576.000000	89.455700
575.000000	89.247800
574.000000	89.031200
573.000000	88.780000
572.000000	88.470400
571.000000	88.195200
570.000000	87.932800
569.000000	87.593500
568.000000	87.257700
567.000000	86.898800
566.000000	86.508000
565.000000	86.036300
564.000000	85.605900
563.000000	85.142400
562.000000	84.556600
561.000000	84.030300
560.000000	83.470300
559.000000	82.853000
558.000000	82.242400
557.000000	81.693000
556.000000	81.079600
555.000000	80.448300
554.000000	79.816300
553.000000	79.177700
552.000000	78.496100
551.000000	77.826300
550.000000	77.033700
549.000000	76.221800
548.000000	75.375700
547.000000	74.470600
546.000000	73.475100
545.000000	72.447100
544.000000	71.288300
543.000000	70.071400
542.000000	68.797500
541.000000	67.411000
540.000000	65.974500
539.000000	64.502300
538.000000	62.958600
537.000000	61.390400
536.000000	59.796700
535.000000	58.183100
534.000000	56.547000
533.000000	54.935400
532.000000	53.326600
531.000000	51.773600
530.000000	50.300600
529.000000	48.814500
528.000000	47.443500
527.000000	46.158600
526.000000	44.918800
525.000000	43.832400
524.000000	42.831200
523.000000	41.915600
522.000000	41.086200
521.000000	40.377900
520.000000	39.754900
519.000000	39.238700
518.000000	38.791500
517.000000	38.454700
516.000000	38.129800
515.000000	37.910400
514.000000	37.689500
513.000000	37.490200
512.000000	37.279800
511.000000	37.121800
510.000000	36.940900
509.000000	36.718900
508.000000	36.550100
507.000000	36.342500
506.000000	36.085100
505.000000	35.804100
504.000000	35.476300
503.000000	35.088500
502.000000	34.693100
501.000000	34.284600
500.000000	33.800200
499.000000	33.244400
498.000000	32.733400
497.000000	32.214000
496.000000	31.657100
495.000000	31.120800
494.000000	30.565000
493.000000	30.105300
492.000000	29.573800
491.000000	29.191300
490.000000	28.811900
489.000000	28.509400
488.000000	28.228700
487.000000	28.062300
486.000000	27.901900
485.000000	27.780400
484.000000	27.765000
483.000000	27.742600
482.000000	27.790400
481.000000	27.805100
480.000000	27.902400
479.000000	28.026300
478.000000	28.134500
477.000000	28.262200
476.000000	28.409100
475.000000	28.540900
474.000000	28.674400
473.000000	28.814000
472.000000	28.940100
471.000000	29.061900
470.000000	29.178900
469.000000	29.243200
468.000000	29.309800
467.000000	29.379800
466.000000	29.439700
465.000000	29.443800
464.000000	29.456800
463.000000	29.461700
462.000000	29.453800
461.000000	29.427400
460.000000	29.384300
459.000000	29.317700
458.000000	29.241300
457.000000	29.159000
456.000000	29.060700
455.000000	28.910400
454.000000	28.793300
453.000000	28.669100
452.000000	28.531600
451.000000	28.313600
450.000000	28.116800
449.000000	27.917400
448.000000	27.693600
447.000000	27.499800
446.000000	27.242400
445.000000	26.975400
444.000000	26.684600
443.000000	26.395300
442.000000	26.032900
441.000000	25.702400
440.000000	25.372800
439.000000	24.988500
438.000000	24.555500
437.000000	24.217900
436.000000	23.789800
435.000000	23.334800
434.000000	22.884000
433.000000	22.416500
432.000000	21.939100
431.000000	21.427000
430.000000	20.911800
429.000000	20.371900
428.000000	19.849400
427.000000	19.332600
426.000000	18.788400
425.000000	18.228000
424.000000	17.681300
423.000000	17.123400
422.000000	16.554400
421.000000	15.989200
420.000000	15.468800
419.000000	14.936300
418.000000	14.422300
417.000000	13.944900
416.000000	13.468000
415.000000	13.008600
414.000000	12.573900
413.000000	12.137500
412.000000	11.733000
411.000000	11.368000
410.000000	11.039800
409.000000	10.720700
408.000000	10.401000
407.000000	10.126300
406.000000	9.855300
405.000000	9.628100
404.000000	9.435800
403.000000	9.189000
402.000000	8.971300
401.000000	8.827100
400.000000	8.658300
399.000000	8.502900
398.000000	8.383200
397.000000	8.273200
396.000000	8.129900
395.000000	8.009600
394.000000	7.919300
393.000000	7.815700
392.000000	7.711300
391.000000	7.635400
390.000000	7.545700
389.000000	7.481100
388.000000	7.426300
387.000000	7.356300
386.000000	7.284500
385.000000	7.201500
384.000000	7.156500
383.000000	7.077100
382.000000	7.008700
381.000000	6.963800
380.000000	6.907300
379.000000	6.857000
378.000000	6.833400
377.000000	6.803700
376.000000	6.655300
375.000000	6.377900
374.000000	6.268500
373.000000	6.349400
372.000000	6.553800
371.000000	6.508300
370.000000	6.565500
369.000000	6.505000
368.000000	6.371800
367.000000	6.409900
366.000000	6.445200
365.000000	6.282500
364.000000	6.354700
363.000000	6.466500
362.000000	6.437100
361.000000	6.341500
360.000000	6.392100
359.000000	6.512800
358.000000	6.253200
357.000000	6.243600
356.000000	6.386200
355.000000	6.301100
354.000000	6.248100
353.000000	6.168300
352.000000	6.164800
351.000000	6.129300
350.000000	5.926700
349.000000	5.814900
348.000000	6.036800
347.000000	6.140200
346.000000	6.089800
345.000000	6.086000
344.000000	6.073300
343.000000	6.093400
342.000000	6.142100
341.000000	6.189300
340.000000	6.300200
339.000000	6.317700
338.000000	6.161100
337.000000	6.164600
336.000000	6.188300
335.000000	6.225400
334.000000	6.038100
333.000000	5.919000
332.000000	6.094700
331.000000	6.104000
330.000000	6.176600
329.000000	6.213400
328.000000	6.179400
327.000000	6.042500
326.000000	6.179100
325.000000	6.621200
324.000000	6.850800
323.000000	6.935300
322.000000	6.818500
321.000000	6.695700
320.000000	6.859800
319.000000	6.811400
318.000000	6.883300
317.000000	7.348400
316.000000	6.686900
315.000000	5.961100
314.000000	5.931500
313.000000	5.948300
312.000000	5.972600
311.000000	5.987000
310.000000	5.961700
309.000000	5.981300
308.000000	5.998700
307.000000	5.991600
306.000000	6.023300
305.000000	6.026100
304.000000	6.024400
303.000000	5.994200
302.000000	5.985600
301.000000	5.995400
300.000000	6.001800
299.000000	6.024100
298.000000	6.008100
297.000000	6.001800
296.000000	5.998000
295.000000	6.024900
294.000000	6.022800
293.000000	6.027000
292.000000	6.052000
291.000000	6.057400
290.000000	6.082800
289.000000	6.055400
288.000000	6.027700
287.000000	6.075100
286.000000	6.075600
285.000000	6.085800
284.000000	6.073200
283.000000	6.114100
282.000000	6.121700
281.000000	6.129500
280.000000	6.110900
279.000000	6.114200
278.000000	6.124800
277.000000	6.097700
276.000000	6.096100
275.000000	6.144700
274.000000	6.187200
273.000000	6.205700
272.000000	6.203400
271.000000	6.210400
270.000000	6.219800
269.000000	6.268900
268.000000	6.337100
267.000000	6.343000
266.000000	6.344200
265.000000	6.433900
264.000000	6.428600
263.000000	6.424700
262.000000	6.474900
261.000000	6.477800
260.000000	6.522000
259.000000	6.550500
258.000000	6.576900
257.000000	6.579900
256.000000	6.597200
255.000000	6.617300
254.000000	6.616100
253.000000	6.609300
252.000000	6.657500
251.000000	6.671400
250.000000	6.752000
