PE UV       SUBTECH     SPECTRUM    ASCII       PEDS        4.00        
   -1
CICIMAUCR0213-3.Sample.ASC
24/06/13
14:28:28.00
24/06/13
14:28:28.00
Vinicio Soto Monge
C. resplendens. Sex M. Ventral 
250,000000
1
Lambda 1050
1050L1511233
PerkinElmer UV WinLab 6.3.2.0749 / 2.02.05 Lambda 900 UV/VIS/NIR, Aug  7 2015 09:38:08

0
0
3350/servo 860,8/2
0
0
UV/VIS
1
1
1
DoubleDePol,CommonBeamDepol,RBeamAtt,SBeamAtt,60mm sphere, WB InGaAs Detector
0
0
0
0
Program
Program
3350/servo 860,8/2
3350/0,2 860,8/0,2
3350/0,2 860,8/0,2
0
15.00
 
 
 
0
 
860,8
319,2
860,8
Front
100
on
S:100 R:100
0
0
0
0
 
0
 
 
 
0
 
 
0
0
0
0
0
 
 
 
 
0
0


0
0
#HDR
-1
-1
#GR
nm
%R
1.0
0.0
2500,000000
-1,000000
2251
8
59,020700
4,209200
#DATA
2482.000000	5.135088
2481.000000	5.221646
2480.000000	5.174423
2479.000000	5.159522
2478.000000	5.149989
2477.000000	5.137608
2476.000000	5.175957
2475.000000	5.105943
2474.000000	5.148017
2473.000000	5.155029
2472.000000	5.115037
2471.000000	5.087207
2470.000000	5.106162
2469.000000	5.115147
2468.000000	5.104190
2467.000000	5.138375
2466.000000	5.093562
2465.000000	5.111750
2464.000000	5.073950
2463.000000	5.116790
2462.000000	5.114380
2461.000000	5.105834
2460.000000	5.163137
2459.000000	5.135417
2458.000000	5.132897
2457.000000	5.177929
2456.000000	5.157330
2455.000000	5.184832
2454.000000	5.190858
2453.000000	5.191734
2452.000000	5.203020
2451.000000	5.200609
2450.000000	5.224824
2449.000000	5.255174
2448.000000	5.270732
2447.000000	5.292646
2446.000000	5.294728
2445.000000	5.303603
2444.000000	5.317627
2443.000000	5.321024
2442.000000	5.349511
2441.000000	5.383148
2440.000000	5.361345
2439.000000	5.402432
2438.000000	5.424784
2437.000000	5.427304
2436.000000	5.450094
2435.000000	5.442972
2434.000000	5.488662
2433.000000	5.486032
2432.000000	5.517149
2431.000000	5.528215
2430.000000	5.541035
2429.000000	5.552539
2428.000000	5.570618
2427.000000	5.588697
2426.000000	5.585190
2425.000000	5.607652
2424.000000	5.611158
2423.000000	5.607761
2422.000000	5.623758
2421.000000	5.624087
2420.000000	5.645672
2419.000000	5.674269
2418.000000	5.669229
2417.000000	5.673392
2416.000000	5.689827
2415.000000	5.714151
2414.000000	5.715466
2413.000000	5.698593
2412.000000	5.716781
2411.000000	5.730257
2410.000000	5.740666
2409.000000	5.767839
2408.000000	5.774851
2407.000000	5.771455
2406.000000	5.770907
2405.000000	5.768058
2404.000000	5.798627
2403.000000	5.812433
2402.000000	5.795998
2401.000000	5.812433
2400.000000	5.825143
2399.000000	5.830183
2398.000000	5.844317
2397.000000	5.846070
2396.000000	5.834018
2395.000000	5.849686
2394.000000	5.847714
2393.000000	5.840811
2392.000000	5.857136
2391.000000	5.857246
2390.000000	5.874558
2389.000000	5.880365
2388.000000	5.874119
2387.000000	5.891321
2386.000000	5.889897
2385.000000	5.889240
2384.000000	5.897238
2383.000000	5.888473
2382.000000	5.894061
2381.000000	5.902826
2380.000000	5.897348
2379.000000	5.893622
2378.000000	5.882775
2377.000000	5.881789
2376.000000	5.898662
2375.000000	5.907976
2374.000000	5.906442
2373.000000	5.894718
2372.000000	5.881351
2371.000000	5.893951
2370.000000	5.881679
2369.000000	5.855164
2368.000000	5.842235
2367.000000	5.842673
2366.000000	5.843002
2365.000000	5.833251
2364.000000	5.821089
2363.000000	5.808488
2362.000000	5.811228
2361.000000	5.789972
2360.000000	5.768496
2359.000000	5.762032
2358.000000	5.749870
2357.000000	5.744173
2356.000000	5.734311
2355.000000	5.720725
2354.000000	5.706043
2353.000000	5.697059
2352.000000	5.709659
2351.000000	5.711741
2350.000000	5.709988
2349.000000	5.712508
2348.000000	5.721821
2347.000000	5.728724
2346.000000	5.729381
2345.000000	5.729929
2344.000000	5.740228
2343.000000	5.766743
2342.000000	5.772550
2341.000000	5.763456
2340.000000	5.782192
2339.000000	5.785699
2338.000000	5.790410
2337.000000	5.802353
2336.000000	5.794683
2335.000000	5.794683
2334.000000	5.796436
2333.000000	5.800928
2332.000000	5.805859
2331.000000	5.779344
2330.000000	5.764771
2329.000000	5.752828
2328.000000	5.758855
2327.000000	5.755677
2326.000000	5.737160
2325.000000	5.726313
2324.000000	5.714589
2323.000000	5.705605
2322.000000	5.677775
2321.000000	5.650493
2320.000000	5.644028
2319.000000	5.633181
2318.000000	5.604036
2317.000000	5.586067
2316.000000	5.571385
2315.000000	5.529311
2314.000000	5.516820
2313.000000	5.505097
2312.000000	5.490415
2311.000000	5.458092
2310.000000	5.428290
2309.000000	5.412512
2308.000000	5.402104
2307.000000	5.397721
2306.000000	5.402980
2305.000000	5.385011
2304.000000	5.375260
2303.000000	5.394543
2302.000000	5.398597
2301.000000	5.421935
2300.000000	5.430591
2299.000000	5.442534
2298.000000	5.460393
2297.000000	5.468173
2296.000000	5.489648
2295.000000	5.504878
2294.000000	5.520984
2293.000000	5.541035
2292.000000	5.556922
2291.000000	5.570508
2290.000000	5.564482
2289.000000	5.584971
2288.000000	5.587491
2287.000000	5.588258
2286.000000	5.580479
2285.000000	5.579383
2284.000000	5.594394
2283.000000	5.585738
2282.000000	5.592422
2281.000000	5.587382
2280.000000	5.550348
2279.000000	5.549910
2278.000000	5.522518
2277.000000	5.535228
2276.000000	5.526682
2275.000000	5.512876
2274.000000	5.509370
2273.000000	5.517040
2272.000000	5.508384
2271.000000	5.482745
2270.000000	5.483183
2269.000000	5.485156
2268.000000	5.488771
2267.000000	5.510356
2266.000000	5.534570
2265.000000	5.531612
2264.000000	5.581027
2263.000000	5.610939
2262.000000	5.604584
2261.000000	5.678870
2260.000000	5.723903
2259.000000	5.781206
2258.000000	5.843112
2257.000000	5.894937
2256.000000	5.958924
2255.000000	6.042962
2254.000000	6.101800
2253.000000	6.172252
2252.000000	6.253770
2251.000000	6.310416
2250.000000	6.353366
2249.000000	6.429735
2248.000000	6.508295
2247.000000	6.547958
2246.000000	6.617862
2245.000000	6.662565
2244.000000	6.720965
2243.000000	6.781446
2242.000000	6.826916
2241.000000	6.877536
2240.000000	6.917857
2239.000000	6.963985
2238.000000	7.006606
2237.000000	7.040024
2236.000000	7.053063
2235.000000	7.085166
2234.000000	7.093931
2233.000000	7.123295
2232.000000	7.140169
2231.000000	7.145318
2230.000000	7.185530
2229.000000	7.203389
2228.000000	7.209415
2227.000000	7.201307
2226.000000	7.222783
2225.000000	7.213141
2224.000000	7.191337
2223.000000	7.207334
2222.000000	7.210292
2221.000000	7.191994
2220.000000	7.189912
2219.000000	7.194843
2218.000000	7.174025
2217.000000	7.176216
2216.000000	7.172929
2215.000000	7.147291
2214.000000	7.163397
2213.000000	7.146743
2212.000000	7.125049
2211.000000	7.098314
2210.000000	7.097766
2209.000000	7.112558
2208.000000	7.101272
2207.000000	7.106641
2206.000000	7.083303
2205.000000	7.075853
2204.000000	7.059637
2203.000000	7.059746
2202.000000	7.054706
2201.000000	7.045612
2200.000000	7.042325
2199.000000	7.038710
2198.000000	7.034984
2197.000000	7.058651
2196.000000	7.035203
2195.000000	7.018001
2194.000000	7.020850
2193.000000	7.013619
2192.000000	7.021727
2191.000000	7.015591
2190.000000	7.012742
2189.000000	6.993568
2188.000000	6.992472
2187.000000	7.001566
2186.000000	7.001457
2185.000000	6.996307
2184.000000	6.980529
2183.000000	6.959602
2182.000000	6.966505
2181.000000	6.956315
2180.000000	6.958287
2179.000000	6.959383
2178.000000	6.951494
2177.000000	6.977352
2176.000000	6.951165
2175.000000	6.929033
2174.000000	6.944153
2173.000000	6.937360
2172.000000	6.931115
2171.000000	6.917309
2170.000000	6.920486
2169.000000	6.944372
2168.000000	6.939770
2167.000000	6.949412
2166.000000	6.957739
2165.000000	6.945577
2164.000000	6.976037
2163.000000	6.990719
2162.000000	7.005730
2161.000000	6.994883
2160.000000	7.008469
2159.000000	7.030492
2158.000000	7.041339
2157.000000	7.051310
2156.000000	7.065663
2155.000000	7.071799
2154.000000	7.104779
2153.000000	7.118694
2152.000000	7.131513
2151.000000	7.145647
2150.000000	7.154084
2149.000000	7.172053
2148.000000	7.179832
2147.000000	7.200979
2146.000000	7.205361
2145.000000	7.246778
2144.000000	7.235164
2143.000000	7.262227
2142.000000	7.274827
2141.000000	7.295864
2140.000000	7.316682
2139.000000	7.328077
2138.000000	7.336075
2137.000000	7.340019
2136.000000	7.334870
2135.000000	7.339033
2134.000000	7.355688
2133.000000	7.355249
2132.000000	7.366973
2131.000000	7.377491
2130.000000	7.366425
2129.000000	7.370150
2128.000000	7.366425
2127.000000	7.388229
2126.000000	7.391407
2125.000000	7.377491
2124.000000	7.380669
2123.000000	7.360947
2122.000000	7.359303
2121.000000	7.365987
2120.000000	7.352948
2119.000000	7.339800
2118.000000	7.333007
2117.000000	7.331583
2116.000000	7.318763
2115.000000	7.301671
2114.000000	7.300466
2113.000000	7.295206
2112.000000	7.283045
2111.000000	7.270883
2110.000000	7.248202
2109.000000	7.234835
2108.000000	7.222783
2107.000000	7.206895
2106.000000	7.193309
2105.000000	7.183448
2104.000000	7.165479
2103.000000	7.170190
2102.000000	7.162411
2101.000000	7.145318
2100.000000	7.125377
2099.000000	7.112887
2098.000000	7.116502
2097.000000	7.099739
2096.000000	7.079907
2095.000000	7.081769
2094.000000	7.066649
2093.000000	7.059856
2092.000000	7.063253
2091.000000	7.042435
2090.000000	7.016358
2089.000000	7.002662
2088.000000	6.999375
2087.000000	6.996636
2086.000000	6.992691
2085.000000	6.980639
2084.000000	6.963766
2083.000000	6.957739
2082.000000	6.956753
2081.000000	6.936812
2080.000000	6.922130
2079.000000	6.909092
2078.000000	6.886411
2077.000000	6.867018
2076.000000	6.856937
2075.000000	6.852445
2074.000000	6.833600
2073.000000	6.808180
2072.000000	6.779583
2071.000000	6.772571
2070.000000	6.758327
2069.000000	6.737509
2068.000000	6.716472
2067.000000	6.712090
2066.000000	6.695545
2065.000000	6.663442
2064.000000	6.642186
2063.000000	6.624107
2062.000000	6.600769
2061.000000	6.594305
2060.000000	6.591018
2059.000000	6.579842
2058.000000	6.563845
2057.000000	6.553108
2056.000000	6.549163
2055.000000	6.541165
2054.000000	6.559024
2053.000000	6.578527
2052.000000	6.578965
2051.000000	6.573049
2050.000000	6.580280
2049.000000	6.600769
2048.000000	6.619834
2047.000000	6.635173
2046.000000	6.651170
2045.000000	6.683273
2044.000000	6.703982
2043.000000	6.726881
2042.000000	6.755478
2041.000000	6.774652
2040.000000	6.796785
2039.000000	6.811358
2038.000000	6.834695
2037.000000	6.851021
2036.000000	6.868990
2035.000000	6.902956
2034.000000	6.913365
2033.000000	6.926622
2032.000000	6.932320
2031.000000	6.963437
2030.000000	6.981625
2029.000000	6.986008
2028.000000	6.998718
2027.000000	7.001566
2026.000000	7.016358
2025.000000	7.015591
2024.000000	7.021946
2023.000000	7.022822
2022.000000	7.034327
2021.000000	7.035532
2020.000000	7.030382
2019.000000	7.034765
2018.000000	7.033341
2017.000000	7.038929
2016.000000	7.034546
2015.000000	7.034217
2014.000000	7.022494
2013.000000	7.009784
2012.000000	6.997293
2011.000000	6.989404
2010.000000	6.997293
2009.000000	6.979105
2008.000000	6.986994
2007.000000	6.960479
2006.000000	6.942838
2005.000000	6.927937
2004.000000	6.914899
2003.000000	6.906900
2002.000000	6.875235
2001.000000	6.857704
2000.000000	6.831408
1999.000000	6.814316
1998.000000	6.792731
1997.000000	6.770818
1996.000000	6.738714
1995.000000	6.717568
1994.000000	6.717787
1993.000000	6.681082
1992.000000	6.645582
1991.000000	6.627723
1990.000000	6.614356
1989.000000	6.597044
1988.000000	6.556833
1987.000000	6.542479
1986.000000	6.509609
1985.000000	6.504460
1984.000000	6.467207
1983.000000	6.421956
1982.000000	6.389414
1981.000000	6.378019
1980.000000	6.348436
1979.000000	6.309320
1978.000000	6.307129
1977.000000	6.285983
1976.000000	6.236458
1975.000000	6.217393
1974.000000	6.199424
1973.000000	6.178059
1972.000000	6.164144
1971.000000	6.122946
1970.000000	6.101143
1969.000000	6.069916
1968.000000	6.054577
1967.000000	6.027294
1966.000000	6.030143
1965.000000	5.982153
1964.000000	5.993328
1963.000000	5.972730
1962.000000	5.941284
1961.000000	5.922548
1960.000000	5.915426
1959.000000	5.864916
1958.000000	5.847385
1957.000000	5.832703
1956.000000	5.846399
1955.000000	5.803996
1954.000000	5.811666
1953.000000	5.777481
1952.000000	5.782850
1951.000000	5.756882
1950.000000	5.736722
1949.000000	5.719629
1948.000000	5.699360
1947.000000	5.705276
1946.000000	5.695963
1945.000000	5.688622
1944.000000	5.676241
1943.000000	5.673830
1942.000000	5.646439
1941.000000	5.640631
1940.000000	5.646000
1939.000000	5.630770
1938.000000	5.639317
1937.000000	5.632633
1936.000000	5.632852
1935.000000	5.642385
1934.000000	5.648082
1933.000000	5.657724
1932.000000	5.655861
1931.000000	5.672187
1930.000000	5.676789
1929.000000	5.694429
1928.000000	5.719849
1927.000000	5.726751
1926.000000	5.747131
1925.000000	5.765100
1924.000000	5.781097
1923.000000	5.795998
1922.000000	5.821308
1921.000000	5.858889
1920.000000	5.900196
1919.000000	5.913344
1918.000000	5.939093
1917.000000	5.989494
1916.000000	6.038580
1915.000000	6.077805
1914.000000	6.106840
1913.000000	6.173019
1912.000000	6.211148
1911.000000	6.284339
1910.000000	6.333206
1909.000000	6.386894
1908.000000	6.433022
1907.000000	6.495913
1906.000000	6.560120
1905.000000	6.644158
1904.000000	6.732798
1903.000000	6.808509
1902.000000	6.903175
1901.000000	7.002662
1900.000000	7.082865
1899.000000	7.209087
1898.000000	7.316243
1897.000000	7.453641
1896.000000	7.585669
1895.000000	7.690306
1894.000000	7.785301
1893.000000	7.942092
1892.000000	8.093623
1891.000000	8.292926
1890.000000	8.468453
1889.000000	8.673562
1888.000000	8.859169
1887.000000	9.065046
1886.000000	9.293165
1885.000000	9.574315
1884.000000	9.825443
1883.000000	10.160609
1882.000000	10.485695
1881.000000	10.823381
1880.000000	11.170381
1879.000000	11.507738
1878.000000	11.842028
1877.000000	12.199656
1876.000000	12.545669
1875.000000	12.894641
1874.000000	13.261581
1873.000000	13.612635
1872.000000	13.943747
1871.000000	14.262588
1870.000000	14.603013
1869.000000	14.913308
1868.000000	15.223931
1867.000000	15.484920
1866.000000	15.694303
1865.000000	15.899084
1864.000000	16.101893
1863.000000	16.262300
1862.000000	16.433115
1861.000000	16.594288
1860.000000	16.752942
1859.000000	16.869960
1858.000000	17.011411
1857.000000	17.119115
1856.000000	17.238434
1855.000000	17.301764
1854.000000	17.361916
1853.000000	17.423932
1852.000000	17.461075
1851.000000	17.503039
1850.000000	17.538320
1849.000000	17.536567
1848.000000	17.540292
1847.000000	17.544236
1846.000000	17.555084
1845.000000	17.545661
1844.000000	17.528349
1843.000000	17.520460
1842.000000	17.507970
1841.000000	17.517831
1840.000000	17.524514
1839.000000	17.504573
1838.000000	17.481564
1837.000000	17.463376
1836.000000	17.429300
1835.000000	17.398074
1834.000000	17.374626
1833.000000	17.342633
1832.000000	17.285986
1831.000000	17.240297
1830.000000	17.203373
1829.000000	17.156040
1828.000000	17.095778
1827.000000	17.027408
1826.000000	16.973829
1825.000000	16.937672
1824.000000	16.888586
1823.000000	16.856373
1822.000000	16.810245
1821.000000	16.776170
1820.000000	16.765761
1819.000000	16.744067
1818.000000	16.707252
1817.000000	16.677012
1816.000000	16.662330
1815.000000	16.656523
1814.000000	16.652688
1813.000000	16.649401
1812.000000	16.625953
1811.000000	16.594727
1810.000000	16.579716
1809.000000	16.538519
1808.000000	16.496007
1807.000000	16.465437
1806.000000	16.438155
1805.000000	16.398382
1804.000000	16.355980
1803.000000	16.318179
1802.000000	16.268216
1801.000000	16.226909
1800.000000	16.177933
1799.000000	16.119862
1798.000000	16.060477
1797.000000	16.020923
1796.000000	15.984766
1795.000000	15.944993
1794.000000	15.908178
1793.000000	15.854271
1792.000000	15.805185
1791.000000	15.756428
1790.000000	15.704931
1789.000000	15.660447
1788.000000	15.606540
1787.000000	15.569835
1786.000000	15.521187
1785.000000	15.467061
1784.000000	15.406689
1783.000000	15.335470
1782.000000	15.284083
1781.000000	15.231162
1780.000000	15.159177
1779.000000	15.106584
1778.000000	15.057498
1777.000000	14.976857
1776.000000	14.907829
1775.000000	14.841322
1774.000000	14.769665
1773.000000	14.698556
1772.000000	14.613422
1771.000000	14.529822
1770.000000	14.448085
1769.000000	14.360103
1768.000000	14.279680
1767.000000	14.194437
1766.000000	14.136257
1765.000000	14.080925
1764.000000	14.034907
1763.000000	14.001708
1762.000000	13.977822
1761.000000	13.993929
1760.000000	14.017048
1759.000000	14.027895
1758.000000	14.088705
1757.000000	14.141297
1756.000000	14.211091
1755.000000	14.280776
1754.000000	14.331725
1753.000000	14.363718
1752.000000	14.387385
1751.000000	14.412585
1750.000000	14.416091
1749.000000	14.405573
1748.000000	14.394726
1747.000000	14.361856
1746.000000	14.308935
1745.000000	14.246481
1744.000000	14.186000
1743.000000	14.076543
1742.000000	13.980562
1741.000000	13.874720
1740.000000	13.731515
1739.000000	13.588201
1738.000000	13.413661
1737.000000	13.253912
1736.000000	13.134483
1735.000000	13.036969
1734.000000	12.941426
1733.000000	12.877877
1732.000000	12.873385
1731.000000	12.908117
1730.000000	12.935838
1729.000000	12.995333
1728.000000	13.056800
1727.000000	13.118267
1726.000000	13.200224
1725.000000	13.296862
1724.000000	13.367423
1723.000000	13.421988
1722.000000	13.450804
1721.000000	13.485099
1720.000000	13.519174
1719.000000	13.551058
1718.000000	13.587982
1717.000000	13.626988
1716.000000	13.695906
1715.000000	13.738637
1714.000000	13.800104
1713.000000	13.844041
1712.000000	13.910767
1711.000000	13.974426
1710.000000	14.022964
1709.000000	14.044878
1708.000000	14.047069
1707.000000	14.030743
1706.000000	14.006858
1705.000000	13.969605
1704.000000	13.949664
1703.000000	13.885238
1702.000000	13.842288
1701.000000	13.751237
1700.000000	13.652189
1699.000000	13.536376
1698.000000	13.440614
1697.000000	13.313735
1696.000000	13.238134
1695.000000	13.164395
1694.000000	13.123088
1693.000000	13.156287
1692.000000	13.211947
1691.000000	13.278564
1690.000000	13.376517
1689.000000	13.483455
1688.000000	13.604527
1687.000000	13.674540
1686.000000	13.728667
1685.000000	13.787066
1684.000000	13.836809
1683.000000	13.912411
1682.000000	14.051890
1681.000000	14.247248
1680.000000	14.538588
1679.000000	14.884601
1678.000000	15.290438
1677.000000	15.695727
1676.000000	16.127532
1675.000000	16.505539
1674.000000	16.836213
1673.000000	17.162833
1672.000000	17.443215
1671.000000	17.702561
1670.000000	17.874691
1669.000000	18.073227
1668.000000	18.246234
1667.000000	18.384069
1666.000000	18.509962
1665.000000	18.619091
1664.000000	18.701705
1663.000000	18.770842
1662.000000	18.852250
1661.000000	18.918648
1660.000000	18.956010
1659.000000	19.029092
1658.000000	19.037309
1657.000000	19.059880
1656.000000	19.084642
1655.000000	19.102940
1654.000000	19.080917
1653.000000	19.088258
1652.000000	19.088148
1651.000000	19.053854
1650.000000	19.043226
1649.000000	19.013314
1648.000000	18.977924
1647.000000	18.940561
1646.000000	18.878765
1645.000000	18.846881
1644.000000	18.805027
1643.000000	18.728330
1642.000000	18.681216
1641.000000	18.641443
1640.000000	18.583920
1639.000000	18.506127
1638.000000	18.464711
1637.000000	18.402148
1636.000000	18.330381
1635.000000	18.284144
1634.000000	18.190464
1633.000000	18.127244
1632.000000	18.064023
1631.000000	18.013403
1630.000000	17.919942
1629.000000	17.835137
1628.000000	17.778382
1627.000000	17.704643
1626.000000	17.638245
1625.000000	17.546428
1624.000000	17.457459
1623.000000	17.394020
1622.000000	17.339893
1621.000000	17.226163
1620.000000	17.187705
1619.000000	17.113418
1618.000000	17.053266
1617.000000	16.973391
1616.000000	16.899762
1615.000000	16.827228
1614.000000	16.768829
1613.000000	16.717332
1612.000000	16.642388
1611.000000	16.582674
1610.000000	16.512442
1609.000000	16.455248
1608.000000	16.394219
1607.000000	16.330670
1606.000000	16.253753
1605.000000	16.180015
1604.000000	16.131476
1603.000000	16.084582
1602.000000	15.997476
1601.000000	15.946965
1600.000000	15.879581
1599.000000	15.810554
1598.000000	15.745361
1597.000000	15.675567
1596.000000	15.627357
1595.000000	15.571369
1594.000000	15.517242
1593.000000	15.454679
1592.000000	15.388501
1591.000000	15.337662
1590.000000	15.284850
1589.000000	15.242667
1588.000000	15.195991
1587.000000	15.137592
1586.000000	15.091245
1585.000000	15.043035
1584.000000	15.005015
1583.000000	14.949355
1582.000000	14.912212
1581.000000	14.893586
1580.000000	14.843185
1579.000000	14.813930
1578.000000	14.788511
1577.000000	14.741835
1576.000000	14.730659
1575.000000	14.702172
1574.000000	14.679382
1573.000000	14.653524
1572.000000	14.636869
1571.000000	14.629309
1570.000000	14.621311
1569.000000	14.606629
1568.000000	14.575731
1567.000000	14.582305
1566.000000	14.571129
1565.000000	14.557543
1564.000000	14.534643
1563.000000	14.533438
1562.000000	14.533328
1561.000000	14.525111
1560.000000	14.502869
1559.000000	14.506265
1558.000000	14.493336
1557.000000	14.460357
1556.000000	14.443374
1555.000000	14.431760
1554.000000	14.404368
1553.000000	14.385194
1552.000000	14.382454
1551.000000	14.359336
1550.000000	14.325808
1549.000000	14.294253
1548.000000	14.254370
1547.000000	14.215693
1546.000000	14.180741
1545.000000	14.146337
1544.000000	14.142064
1543.000000	14.125300
1542.000000	14.099333
1541.000000	14.069421
1540.000000	14.048603
1539.000000	14.011679
1538.000000	13.998750
1537.000000	13.975302
1536.000000	13.948458
1535.000000	13.924025
1534.000000	13.902769
1533.000000	13.883595
1532.000000	13.829030
1531.000000	13.797913
1530.000000	13.775123
1529.000000	13.735021
1528.000000	13.706753
1527.000000	13.669610
1526.000000	13.616031
1525.000000	13.573629
1524.000000	13.544484
1523.000000	13.511614
1522.000000	13.460336
1521.000000	13.420673
1520.000000	13.383530
1519.000000	13.325130
1518.000000	13.281851
1517.000000	13.241202
1516.000000	13.196827
1515.000000	13.152124
1514.000000	13.110817
1513.000000	13.074660
1512.000000	13.031381
1511.000000	12.976159
1510.000000	12.924881
1509.000000	12.866044
1508.000000	12.815643
1507.000000	12.770501
1506.000000	12.719552
1505.000000	12.694680
1504.000000	12.635514
1503.000000	12.575033
1502.000000	12.539752
1501.000000	12.486284
1500.000000	12.437088
1499.000000	12.393699
1498.000000	12.350749
1497.000000	12.310647
1496.000000	12.270546
1495.000000	12.230882
1494.000000	12.198450
1493.000000	12.167662
1492.000000	12.143557
1491.000000	12.104880
1490.000000	12.069818
1489.000000	12.045714
1488.000000	12.024348
1487.000000	12.006927
1486.000000	11.979316
1485.000000	11.942392
1484.000000	11.931106
1483.000000	11.896373
1482.000000	11.867886
1481.000000	11.846301
1480.000000	11.836659
1479.000000	11.814965
1478.000000	11.814198
1477.000000	11.805104
1476.000000	11.774316
1475.000000	11.780013
1474.000000	11.785382
1473.000000	11.772124
1472.000000	11.766646
1471.000000	11.751635
1470.000000	11.754922
1469.000000	11.761825
1468.000000	11.757114
1467.000000	11.741884
1466.000000	11.739911
1465.000000	11.771138
1464.000000	11.770919
1463.000000	11.776178
1462.000000	11.783300
1461.000000	11.798420
1460.000000	11.824716
1459.000000	11.852218
1458.000000	11.872597
1457.000000	11.897907
1456.000000	11.924971
1455.000000	11.968250
1454.000000	11.993450
1453.000000	12.048562
1452.000000	12.087130
1451.000000	12.129423
1450.000000	12.205244
1449.000000	12.229020
1448.000000	12.268683
1447.000000	12.332342
1446.000000	12.385591
1445.000000	12.455276
1444.000000	12.527590
1443.000000	12.583908
1442.000000	12.632885
1441.000000	12.718128
1440.000000	12.789018
1439.000000	12.858703
1438.000000	12.923786
1437.000000	13.008591
1436.000000	13.080028
1435.000000	13.156616
1434.000000	13.240435
1433.000000	13.337183
1432.000000	13.429877
1431.000000	13.527939
1430.000000	13.628193
1429.000000	13.732611
1428.000000	13.850615
1427.000000	13.975193
1426.000000	14.104482
1425.000000	14.238593
1424.000000	14.387494
1423.000000	14.545381
1422.000000	14.696255
1421.000000	14.860387
1420.000000	15.042268
1419.000000	15.237079
1418.000000	15.445476
1417.000000	15.640177
1416.000000	15.822168
1415.000000	16.043823
1414.000000	16.287610
1413.000000	16.541915
1412.000000	16.803781
1411.000000	17.006809
1410.000000	17.294861
1409.000000	17.629370
1408.000000	17.957962
1407.000000	18.306496
1406.000000	18.627528
1405.000000	19.021532
1404.000000	19.412248
1403.000000	19.802637
1402.000000	20.215705
1401.000000	20.608504
1400.000000	21.048526
1399.000000	21.517035
1398.000000	21.897781
1397.000000	22.173343
1396.000000	22.540941
1395.000000	23.004739
1394.000000	23.452650
1393.000000	23.807429
1392.000000	24.147087
1391.000000	24.595546
1390.000000	25.057701
1389.000000	25.459374
1388.000000	25.933910
1387.000000	26.528641
1386.000000	27.095433
1385.000000	27.689944
1384.000000	28.288291
1383.000000	28.944380
1382.000000	29.639036
1381.000000	30.285264
1380.000000	30.882186
1379.000000	31.290324
1378.000000	31.698133
1377.000000	31.965149
1376.000000	32.290016
1375.000000	32.550457
1374.000000	32.846946
1373.000000	33.151433
1372.000000	33.510047
1371.000000	33.925745
1370.000000	34.367849
1369.000000	34.734461
1368.000000	35.115536
1367.000000	35.488065
1366.000000	35.810083
1365.000000	36.072825
1364.000000	36.336115
1363.000000	36.561276
1362.000000	36.827853
1361.000000	37.019815
1360.000000	37.255932
1359.000000	37.391905
1358.000000	37.492159
1357.000000	37.647306
1356.000000	37.845952
1355.000000	38.105955
1354.000000	38.481442
1353.000000	38.918286
1352.000000	39.352063
1351.000000	39.921484
1350.000000	40.512709
1349.000000	41.052656
1348.000000	41.513715
1347.000000	41.988361
1346.000000	42.457966
1345.000000	42.893167
1344.000000	43.339654
1343.000000	43.742642
1342.000000	44.128099
1341.000000	44.543359
1340.000000	44.932213
1339.000000	45.335640
1338.000000	45.717482
1337.000000	46.076534
1336.000000	46.474482
1335.000000	46.857310
1334.000000	47.223155
1333.000000	47.585603
1332.000000	47.929097
1331.000000	48.282889
1330.000000	48.629012
1329.000000	48.972287
1328.000000	49.293099
1327.000000	49.606462
1326.000000	49.903170
1325.000000	50.199440
1324.000000	50.499764
1323.000000	50.772257
1322.000000	51.023276
1321.000000	51.292154
1320.000000	51.563881
1319.000000	51.781591
1318.000000	52.029651
1317.000000	52.263139
1316.000000	52.461236
1315.000000	52.661087
1314.000000	52.887234
1313.000000	53.074484
1312.000000	53.273568
1311.000000	53.451396
1310.000000	53.612788
1309.000000	53.776263
1308.000000	53.955624
1307.000000	54.073628
1306.000000	54.197658
1305.000000	54.316867
1304.000000	54.441226
1303.000000	54.551670
1302.000000	54.626176
1301.000000	54.699695
1300.000000	54.777817
1299.000000	54.848926
1298.000000	54.902285
1297.000000	54.953015
1296.000000	55.010866
1295.000000	55.066198
1294.000000	55.094685
1293.000000	55.120214
1292.000000	55.127775
1291.000000	55.156262
1290.000000	55.177409
1289.000000	55.175984
1288.000000	55.168643
1287.000000	55.155057
1286.000000	55.131719
1285.000000	55.091070
1284.000000	55.046585
1283.000000	54.980516
1282.000000	54.941291
1281.000000	54.897574
1280.000000	54.842571
1279.000000	54.798744
1278.000000	54.745823
1277.000000	54.678439
1276.000000	54.622998
1275.000000	54.578185
1274.000000	54.522635
1273.000000	54.472782
1272.000000	54.438487
1271.000000	54.386881
1270.000000	54.342944
1269.000000	54.317634
1268.000000	54.281148
1267.000000	54.227460
1266.000000	54.175635
1265.000000	54.127973
1264.000000	54.075491
1263.000000	54.018516
1262.000000	53.961212
1261.000000	53.909606
1260.000000	53.851645
1259.000000	53.779769
1258.000000	53.720712
1257.000000	53.671845
1256.000000	53.591970
1255.000000	53.504864
1254.000000	53.443945
1253.000000	53.362975
1252.000000	53.264803
1251.000000	53.166521
1250.000000	53.069225
1249.000000	52.959329
1248.000000	52.851296
1247.000000	52.737894
1246.000000	52.611782
1245.000000	52.498161
1244.000000	52.358681
1243.000000	52.210875
1242.000000	52.046086
1241.000000	51.883927
1240.000000	51.745105
1239.000000	51.588862
1238.000000	51.409829
1237.000000	51.247560
1236.000000	51.089564
1235.000000	50.902533
1234.000000	50.717145
1233.000000	50.540961
1232.000000	50.358312
1231.000000	50.155613
1230.000000	49.954009
1229.000000	49.757445
1228.000000	49.543789
1227.000000	49.327394
1226.000000	49.114176
1225.000000	48.900082
1224.000000	48.676565
1223.000000	48.447679
1222.000000	48.220874
1221.000000	47.981580
1220.000000	47.768471
1219.000000	47.554925
1218.000000	47.338639
1217.000000	47.138240
1216.000000	46.927981
1215.000000	46.732622
1214.000000	46.531567
1213.000000	46.351876
1212.000000	46.191799
1211.000000	46.014300
1210.000000	45.834390
1209.000000	45.660945
1208.000000	45.520480
1207.000000	45.388451
1206.000000	45.252040
1205.000000	45.127243
1204.000000	45.024907
1203.000000	44.949635
1202.000000	44.873705
1201.000000	44.828125
1200.000000	44.777176
1199.000000	44.702670
1198.000000	44.626740
1197.000000	44.519145
1196.000000	44.370900
1195.000000	44.200633
1194.000000	43.960462
1193.000000	43.647099
1192.000000	43.283007
1191.000000	42.848244
1190.000000	42.373380
1189.000000	41.899611
1188.000000	41.471532
1187.000000	41.117191
1186.000000	40.890497
1185.000000	40.785422
1184.000000	40.808979
1183.000000	40.986039
1182.000000	41.306305
1181.000000	41.756735
1180.000000	42.289890
1179.000000	42.855695
1178.000000	43.424020
1177.000000	43.935918
1176.000000	44.426232
1175.000000	44.864610
1174.000000	45.254560
1173.000000	45.622158
1172.000000	45.976828
1171.000000	46.352095
1170.000000	46.726048
1169.000000	47.119176
1168.000000	47.508578
1167.000000	47.904773
1166.000000	48.313130
1165.000000	48.723240
1164.000000	49.156031
1163.000000	49.600436
1162.000000	50.059303
1161.000000	50.513679
1160.000000	50.947455
1159.000000	51.390655
1158.000000	51.830458
1157.000000	52.254812
1156.000000	52.634901
1155.000000	52.998335
1154.000000	53.342267
1153.000000	53.636564
1152.000000	53.877612
1151.000000	54.062781
1150.000000	54.221763
1149.000000	54.358174
1148.000000	54.500940
1147.000000	54.653677
1146.000000	54.831066
1145.000000	55.068827
1144.000000	55.370904
1143.000000	55.725902
1142.000000	56.144339
1141.000000	56.612849
1140.000000	57.103820
1139.000000	57.614513
1138.000000	58.134300
1137.000000	58.664934
1136.000000	59.244873
1135.000000	59.831496
1134.000000	60.459755
1133.000000	61.028080
1132.000000	61.529789
1131.000000	62.037743
1130.000000	62.473711
1129.000000	62.860154
1128.000000	63.210550
1127.000000	63.486550
1126.000000	63.741513
1125.000000	63.922190
1124.000000	64.066051
1123.000000	64.212214
1122.000000	64.313673
1121.000000	64.413818
1120.000000	64.473532
1119.000000	64.546942
1118.000000	64.580141
1117.000000	64.621119
1116.000000	64.667357
1115.000000	64.664946
1114.000000	64.649716
1113.000000	64.645991
1112.000000	64.643142
1111.000000	64.650045
1110.000000	64.634048
1109.000000	64.631638
1108.000000	64.613778
1107.000000	64.626598
1106.000000	64.605451
1105.000000	64.599425
1104.000000	64.571047
1103.000000	64.576306
1102.000000	64.553407
1101.000000	64.529630
1100.000000	64.510018
1099.000000	64.486242
1098.000000	64.474299
1097.000000	64.454906
1096.000000	64.418201
1095.000000	64.386645
1094.000000	64.345448
1093.000000	64.321124
1092.000000	64.256589
1091.000000	64.208379
1090.000000	64.170031
1089.000000	64.113932
1088.000000	64.048849
1087.000000	63.992751
1086.000000	63.952211
1085.000000	63.863681
1084.000000	63.820073
1083.000000	63.744252
1082.000000	63.666021
1081.000000	63.586695
1080.000000	63.527200
1079.000000	63.458501
1078.000000	63.395719
1077.000000	63.300396
1076.000000	63.245721
1075.000000	63.164313
1074.000000	63.095833
1073.000000	63.019794
1072.000000	62.937728
1071.000000	62.852923
1070.000000	62.789703
1069.000000	62.698871
1068.000000	62.612423
1067.000000	62.531781
1066.000000	62.462973
1065.000000	62.379264
1064.000000	62.289638
1063.000000	62.204175
1062.000000	62.110167
1061.000000	62.025033
1060.000000	61.918533
1059.000000	61.822005
1058.000000	61.733036
1057.000000	61.637055
1056.000000	61.532857
1055.000000	61.438629
1054.000000	61.348455
1053.000000	61.252693
1052.000000	61.141811
1051.000000	61.055910
1050.000000	60.954780
1049.000000	60.857594
1048.000000	60.750327
1047.000000	60.694667
1046.000000	60.609424
1045.000000	60.517387
1044.000000	60.427433
1043.000000	60.342299
1042.000000	60.245332
1041.000000	60.156035
1040.000000	60.062136
1039.000000	59.983576
1038.000000	59.901839
1037.000000	59.796654
1036.000000	59.693990
1035.000000	59.614553
1034.000000	59.510684
1033.000000	59.400130
1032.000000	59.290344
1031.000000	59.199293
1030.000000	59.076030
1029.000000	58.955835
1028.000000	58.858868
1027.000000	58.748863
1026.000000	58.630749
1025.000000	58.514827
1024.000000	58.393645
1023.000000	58.289776
1022.000000	58.149749
1021.000000	58.026376
1020.000000	57.916918
1019.000000	57.801215
1018.000000	57.682444
1017.000000	57.558414
1016.000000	57.462762
1015.000000	57.365138
1014.000000	57.271019
1013.000000	57.194651
1012.000000	57.097246
1011.000000	57.022850
1010.000000	56.956123
1009.000000	56.912187
1008.000000	56.862662
1007.000000	56.822780
1006.000000	56.767448
1005.000000	56.725265
1004.000000	56.674207
1003.000000	56.647363
1002.000000	56.605618
1001.000000	56.539001
1000.000000	56.483669
999.000000	56.461208
998.000000	56.430200
997.000000	56.389332
996.000000	56.331152
995.000000	56.300144
994.000000	56.278669
993.000000	56.230569
992.000000	56.209094
991.000000	56.176114
990.000000	56.139409
989.000000	56.112894
988.000000	56.073230
987.000000	56.062931
986.000000	56.045181
985.000000	56.012530
984.000000	56.001354
983.000000	55.995876
982.000000	55.976044
981.000000	55.954898
980.000000	55.951063
979.000000	55.950405
978.000000	55.927177
977.000000	55.909866
976.000000	55.907017
975.000000	55.896170
974.000000	55.892116
973.000000	55.887404
972.000000	55.861108
971.000000	55.851685
970.000000	55.833935
969.000000	55.839743
968.000000	55.856835
967.000000	55.848508
966.000000	55.832402
965.000000	55.829881
964.000000	55.827690
963.000000	55.823198
962.000000	55.857273
961.000000	55.878858
960.000000	55.886856
959.000000	55.893869
958.000000	55.881816
957.000000	55.909427
956.000000	55.925972
955.000000	55.923781
954.000000	55.944818
953.000000	55.943503
952.000000	55.925643
951.000000	55.945584
950.000000	55.957527
949.000000	55.953583
948.000000	55.965416
947.000000	55.963554
946.000000	55.950515
945.000000	55.950077
944.000000	55.934737
943.000000	55.912166
942.000000	55.882583
941.000000	55.865272
940.000000	55.840400
939.000000	55.787589
938.000000	55.750555
937.000000	55.719876
936.000000	55.716479
935.000000	55.686348
934.000000	55.640549
933.000000	55.605488
932.000000	55.559250
931.000000	55.530325
930.000000	55.502166
929.000000	55.448807
928.000000	55.428975
927.000000	55.391393
926.000000	55.333651
925.000000	55.284784
924.000000	55.230220
923.000000	55.167219
922.000000	55.138074
921.000000	55.098630
920.000000	55.030479
919.000000	54.986323
918.000000	54.920145
917.000000	54.851775
916.000000	54.783843
915.000000	54.717774
914.000000	54.645460
913.000000	54.573255
912.000000	54.505323
911.000000	54.438049
910.000000	54.359599
909.000000	54.308212
908.000000	54.253757
907.000000	54.221325
906.000000	54.176512
905.000000	54.143970
904.000000	54.113949
903.000000	54.099048
902.000000	54.055659
901.000000	54.041963
900.000000	54.045031
899.000000	54.031664
898.000000	54.026514
897.000000	54.025418
896.000000	54.009531
895.000000	53.993425
894.000000	53.972059
893.000000	53.961212
892.000000	53.933601
891.000000	53.869614
890.000000	53.841126
889.000000	53.814502
888.000000	53.751172
887.000000	53.706140
886.000000	53.653766
885.000000	53.577398
884.000000	53.494236
883.000000	53.407350
882.000000	53.353990
881.000000	53.259653
880.000000	53.192707
879.000000	53.081387
878.000000	52.987597
877.000000	52.837819
876.000000	52.678289
875.000000	52.550095
874.000000	52.432530
873.000000	52.267741
872.000000	52.075998
871.000000	51.904635
870.000000	51.826294
869.000000	51.865191
868.000000	51.905730
867.000000	51.924138
866.000000	51.965116
865.000000	51.985386
864.000000	52.009491
863.000000	52.043676
862.000000	52.041594
861.000000	52.056605
860.000000	52.125961
859.000000	52.131549
858.000000	52.153133
857.000000	51.661600
856.000000	52.435100
855.000000	52.362700
854.000000	52.623700
853.000000	52.679300
852.000000	52.908200
851.000000	52.380000
850.000000	52.345500
849.000000	52.245400
848.000000	52.658300
847.000000	52.997100
846.000000	52.659200
845.000000	52.534100
844.000000	52.704000
843.000000	52.712900
842.000000	52.668500
841.000000	52.714800
840.000000	52.725600
839.000000	52.458600
838.000000	52.710700
837.000000	52.714900
836.000000	52.620000
835.000000	52.679900
834.000000	52.557500
833.000000	52.489700
832.000000	52.706500
831.000000	52.799500
830.000000	52.606100
829.000000	52.686900
828.000000	52.698700
827.000000	52.620500
826.000000	52.733500
825.000000	52.639800
824.000000	52.480300
823.000000	52.533600
822.000000	52.407500
821.000000	52.452700
820.000000	52.484300
819.000000	52.582900
818.000000	52.249900
817.000000	52.406800
816.000000	52.377300
815.000000	52.279700
814.000000	52.343800
813.000000	52.282700
812.000000	52.202900
811.000000	52.078900
810.000000	52.096600
809.000000	52.070000
808.000000	52.070300
807.000000	52.077300
806.000000	52.003500
805.000000	52.027300
804.000000	51.869600
803.000000	51.818300
802.000000	51.602800
801.000000	51.645300
800.000000	51.558000
799.000000	51.661100
798.000000	51.473800
797.000000	51.430100
796.000000	51.223300
795.000000	51.273600
794.000000	51.255200
793.000000	51.130700
792.000000	51.058600
791.000000	51.044900
790.000000	50.760600
789.000000	50.829900
788.000000	50.784400
787.000000	50.711200
786.000000	50.609100
785.000000	50.607500
784.000000	50.516500
783.000000	50.361000
782.000000	50.336700
781.000000	50.180200
780.000000	50.105100
779.000000	50.078800
778.000000	49.972500
777.000000	49.809000
776.000000	49.765100
775.000000	49.616200
774.000000	49.581100
773.000000	49.559400
772.000000	49.396300
771.000000	49.290300
770.000000	49.204700
769.000000	49.070900
768.000000	48.888900
767.000000	48.758100
766.000000	48.782100
765.000000	48.609700
764.000000	48.546800
763.000000	48.393300
762.000000	48.381700
761.000000	48.180500
760.000000	48.092700
759.000000	47.930400
758.000000	47.808200
757.000000	47.723700
756.000000	47.634100
755.000000	47.569800
754.000000	47.336400
753.000000	47.247000
752.000000	47.091500
751.000000	46.899900
750.000000	46.824300
749.000000	46.727300
748.000000	46.725500
747.000000	46.470200
746.000000	46.366300
745.000000	46.220900
744.000000	46.040500
743.000000	45.941900
742.000000	45.758300
741.000000	45.647700
740.000000	45.478400
739.000000	45.375900
738.000000	45.189100
737.000000	45.044600
736.000000	44.892200
735.000000	44.753300
734.000000	44.579000
733.000000	44.473000
732.000000	44.321600
731.000000	44.101500
730.000000	43.976000
729.000000	43.838300
728.000000	43.595900
727.000000	43.449200
726.000000	43.274300
725.000000	43.161500
724.000000	43.016300
723.000000	42.797500
722.000000	42.667700
721.000000	42.517000
720.000000	42.302200
719.000000	42.128400
718.000000	41.919500
717.000000	41.718100
716.000000	41.553100
715.000000	41.406000
714.000000	41.208000
713.000000	41.028600
712.000000	40.852300
711.000000	40.636900
710.000000	40.423200
709.000000	40.205000
708.000000	40.068700
707.000000	39.876800
706.000000	39.661500
705.000000	39.444100
704.000000	39.226200
703.000000	39.023800
702.000000	38.816800
701.000000	38.628400
700.000000	38.373200
699.000000	38.097600
698.000000	37.901900
697.000000	37.694200
696.000000	37.502000
695.000000	37.266300
694.000000	37.047600
693.000000	36.783400
692.000000	36.574200
691.000000	36.352600
690.000000	36.122000
689.000000	35.903900
688.000000	35.698700
687.000000	35.441500
686.000000	35.185700
685.000000	34.927600
684.000000	34.665800
683.000000	34.435300
682.000000	34.214100
681.000000	33.996300
680.000000	33.746500
679.000000	33.495700
678.000000	33.256600
677.000000	33.057000
676.000000	32.835800
675.000000	32.590800
674.000000	32.344000
673.000000	32.102600
672.000000	31.852800
671.000000	31.631600
670.000000	31.408600
669.000000	31.172800
668.000000	30.940400
667.000000	30.721500
666.000000	30.520700
665.000000	30.298600
664.000000	30.078400
663.000000	29.863700
662.000000	29.628600
661.000000	29.438600
660.000000	29.233500
659.000000	29.021700
658.000000	28.813800
657.000000	28.617600
656.000000	28.424000
655.000000	28.243500
654.000000	28.040000
653.000000	27.831900
652.000000	27.655100
651.000000	27.466800
650.000000	27.311400
649.000000	27.131200
648.000000	26.943600
647.000000	26.788000
646.000000	26.661100
645.000000	26.509200
644.000000	26.338100
643.000000	26.198900
642.000000	26.053900
641.000000	25.910300
640.000000	25.777200
639.000000	25.646800
638.000000	25.532100
637.000000	25.409800
636.000000	25.280700
635.000000	25.179400
634.000000	25.078200
633.000000	24.978800
632.000000	24.869800
631.000000	24.767200
630.000000	24.685000
629.000000	24.589200
628.000000	24.483900
627.000000	24.402000
626.000000	24.327300
625.000000	24.255900
624.000000	24.201600
623.000000	24.133800
622.000000	24.051600
621.000000	24.000800
620.000000	23.965600
619.000000	23.906600
618.000000	23.845500
617.000000	23.786400
616.000000	23.737100
615.000000	23.702900
614.000000	23.685200
613.000000	23.655800
612.000000	23.637600
611.000000	23.636200
610.000000	23.615700
609.000000	23.603200
608.000000	23.609200
607.000000	23.617200
606.000000	23.614000
605.000000	23.641600
604.000000	23.656800
603.000000	23.685700
602.000000	23.732300
601.000000	23.767000
600.000000	23.790000
599.000000	23.860900
598.000000	23.919700
597.000000	23.974300
596.000000	24.044900
595.000000	24.126400
594.000000	24.220900
593.000000	24.311600
592.000000	24.419000
591.000000	24.520500
590.000000	24.615000
589.000000	24.720300
588.000000	24.849400
587.000000	24.980500
586.000000	25.112100
585.000000	25.228600
584.000000	25.352000
583.000000	25.482400
582.000000	25.627400
581.000000	25.742400
580.000000	25.862300
579.000000	25.973000
578.000000	26.098300
577.000000	26.207500
576.000000	26.319400
575.000000	26.419300
574.000000	26.507200
573.000000	26.599500
572.000000	26.681400
571.000000	26.783700
570.000000	26.853800
569.000000	26.915300
568.000000	26.963900
567.000000	27.019400
566.000000	27.068100
565.000000	27.104700
564.000000	27.131800
563.000000	27.144100
562.000000	27.167300
561.000000	27.149200
560.000000	27.141500
559.000000	27.133500
558.000000	27.114500
557.000000	27.095100
556.000000	27.049800
555.000000	26.993800
554.000000	26.926100
553.000000	26.863200
552.000000	26.783900
551.000000	26.684700
550.000000	26.585100
549.000000	26.501700
548.000000	26.394600
547.000000	26.273200
546.000000	26.149400
545.000000	26.001700
544.000000	25.846100
543.000000	25.694000
542.000000	25.527000
541.000000	25.354500
540.000000	25.175000
539.000000	24.978800
538.000000	24.790700
537.000000	24.581200
536.000000	24.363300
535.000000	24.150000
534.000000	23.911800
533.000000	23.664100
532.000000	23.427300
531.000000	23.160600
530.000000	22.890200
529.000000	22.633700
528.000000	22.361000
527.000000	22.079700
526.000000	21.804600
525.000000	21.493200
524.000000	21.186600
523.000000	20.882000
522.000000	20.564500
521.000000	20.247800
520.000000	19.924300
519.000000	19.613400
518.000000	19.287500
517.000000	18.974300
516.000000	18.643500
515.000000	18.329800
514.000000	17.986900
513.000000	17.691100
512.000000	17.373600
511.000000	17.086400
510.000000	16.763700
509.000000	16.479200
508.000000	16.206900
507.000000	15.916000
506.000000	15.650000
505.000000	15.381100
504.000000	15.114700
503.000000	14.873100
502.000000	14.622000
501.000000	14.378000
500.000000	14.156000
499.000000	13.939800
498.000000	13.707800
497.000000	13.526400
496.000000	13.323900
495.000000	13.153400
494.000000	12.980400
493.000000	12.814600
492.000000	12.648300
491.000000	12.478600
490.000000	12.338200
489.000000	12.231700
488.000000	12.097000
487.000000	11.946500
486.000000	11.835400
485.000000	11.721000
484.000000	11.616000
483.000000	11.505800
482.000000	11.416500
481.000000	11.313200
480.000000	11.224700
479.000000	11.116500
478.000000	11.006600
477.000000	10.907900
476.000000	10.818100
475.000000	10.716300
474.000000	10.628500
473.000000	10.560100
472.000000	10.491100
471.000000	10.390500
470.000000	10.317100
469.000000	10.247500
468.000000	10.186600
467.000000	10.117800
466.000000	10.057200
465.000000	9.997000
464.000000	9.912900
463.000000	9.879600
462.000000	9.820800
461.000000	9.749600
460.000000	9.702600
459.000000	9.663200
458.000000	9.597200
457.000000	9.550800
456.000000	9.513900
455.000000	9.465000
454.000000	9.416500
453.000000	9.372300
452.000000	9.331600
451.000000	9.284900
450.000000	9.259700
449.000000	9.219700
448.000000	9.178000
447.000000	9.132800
446.000000	9.096300
445.000000	9.067200
444.000000	9.010400
443.000000	8.968500
442.000000	8.928400
441.000000	8.903400
440.000000	8.843200
439.000000	8.814400
438.000000	8.769700
437.000000	8.723100
436.000000	8.680200
435.000000	8.664300
434.000000	8.603200
433.000000	8.568500
432.000000	8.532500
431.000000	8.498300
430.000000	8.463200
429.000000	8.421900
428.000000	8.389400
427.000000	8.337700
426.000000	8.302800
425.000000	8.263700
424.000000	8.226400
423.000000	8.198200
422.000000	8.153500
421.000000	8.105200
420.000000	8.075900
419.000000	8.017100
418.000000	7.987600
417.000000	7.957000
416.000000	7.894200
415.000000	7.852400
414.000000	7.800400
413.000000	7.755400
412.000000	7.713300
411.000000	7.660300
410.000000	7.596100
409.000000	7.547500
408.000000	7.506200
407.000000	7.453700
406.000000	7.389600
405.000000	7.343200
404.000000	7.272900
403.000000	7.215500
402.000000	7.157700
401.000000	7.106200
400.000000	7.036700
399.000000	6.981000
398.000000	6.912800
397.000000	6.850000
396.000000	6.786800
395.000000	6.714700
394.000000	6.631500
393.000000	6.568400
392.000000	6.519800
391.000000	6.450400
390.000000	6.381000
389.000000	6.314300
388.000000	6.239400
387.000000	6.166000
386.000000	6.102400
385.000000	6.029500
384.000000	5.937900
383.000000	5.882400
382.000000	5.825900
381.000000	5.772200
380.000000	5.697400
379.000000	5.648400
378.000000	5.583900
377.000000	5.516700
376.000000	5.443600
375.000000	5.327000
374.000000	5.249200
373.000000	5.241200
372.000000	5.162600
371.000000	5.109300
370.000000	5.127700
369.000000	5.050300
368.000000	5.060000
367.000000	5.002900
366.000000	4.915400
365.000000	4.866600
364.000000	4.848800
363.000000	4.834400
362.000000	4.725100
361.000000	4.707200
360.000000	4.728400
359.000000	4.689900
358.000000	4.654500
357.000000	4.666200
356.000000	4.683000
355.000000	4.639400
354.000000	4.594400
353.000000	4.600900
352.000000	4.555300
351.000000	4.549400
350.000000	4.555600
349.000000	4.515000
348.000000	4.454600
347.000000	4.468500
346.000000	4.494900
345.000000	4.411600
344.000000	4.409800
343.000000	4.474900
342.000000	4.508900
341.000000	4.423000
340.000000	4.371100
339.000000	4.372300
338.000000	4.402200
337.000000	4.379700
336.000000	4.324200
335.000000	4.383600
334.000000	4.339100
333.000000	4.253300
332.000000	4.209200
331.000000	4.230600
330.000000	4.299400
329.000000	4.285600
328.000000	4.361100
327.000000	4.434300
326.000000	4.432200
325.000000	4.335700
324.000000	4.323100
323.000000	4.310300
322.000000	4.309400
321.000000	4.295100
320.000000	4.225100
319.000000	4.278400
318.000000	4.220200
317.000000	4.241600
316.000000	4.272200
315.000000	4.256300
314.000000	4.273200
313.000000	4.267900
312.000000	4.274500
311.000000	4.307800
310.000000	4.320500
309.000000	4.300400
308.000000	4.312100
307.000000	4.308500
306.000000	4.304100
305.000000	4.302300
304.000000	4.318500
303.000000	4.315600
302.000000	4.313000
301.000000	4.319500
300.000000	4.323400
299.000000	4.315300
298.000000	4.324700
297.000000	4.324900
296.000000	4.339100
295.000000	4.304600
294.000000	4.285400
293.000000	4.291900
292.000000	4.302700
291.000000	4.319900
290.000000	4.319200
289.000000	4.303600
288.000000	4.304300
287.000000	4.312800
286.000000	4.294300
285.000000	4.310200
284.000000	4.328100
283.000000	4.347200
282.000000	4.331900
281.000000	4.325900
280.000000	4.360200
279.000000	4.384200
278.000000	4.369200
277.000000	4.342900
276.000000	4.391400
275.000000	4.395100
274.000000	4.405900
273.000000	4.400000
272.000000	4.427300
271.000000	4.419600
270.000000	4.400500
269.000000	4.437100
268.000000	4.457900
267.000000	4.472200
266.000000	4.490100
265.000000	4.494700
264.000000	4.504200
263.000000	4.566400
262.000000	4.563300
261.000000	4.573800
260.000000	4.635500
259.000000	4.618900
258.000000	4.659100
257.000000	4.663900
256.000000	4.658300
255.000000	4.641000
254.000000	4.683800
253.000000	4.701800
252.000000	4.679400
251.000000	4.664000
250.000000	4.672400
