PE UV       SUBTECH     SPECTRUM    ASCII       PEDS        4.00        
   -1
CICIMAUCR0158-3.Sample.ASC
24/04/11
14:00:06.00
24/04/11
14:00:06.00
Vinicio Soto Monge
C.cupreomarginata
250,000000
1
Lambda 1050
1050L1511233
PerkinElmer UV WinLab 6.3.2.0749 / 2.02.05 Lambda 900 UV/VIS/NIR, Aug  7 2015 09:38:08

0
0
3350/2 860,8/2
0
0
UV/VIS
1
1
1
DoubleDePol,CommonBeamDepol,RBeamAtt,SBeamAtt,60mm sphere, WB InGaAs Detector
0
0
0
0
Program
Program
3350/2 860,8/2
3350/0,2 860,8/0,2
3350/0,2 860,8/0,2
0
15.00
 
 
 
0
 
860,8
319,2
860,8
Front
100
on
S:100 R:100
0
0
0
0
 
0
 
 
 
0
 
 
0
0
0
0
0
 
 
 
 
0
0


0
0
#HDR
-1
-1
#GR
nm
%R
1.0
0.0
2400,000000
-1,000000
2151
8
47,716700
2,683800
#DATA
2382.000000	17.765091
2381.000000	18.103761
2380.000000	18.436123
2379.000000	18.940474
2378.000000	17.982729
2377.000000	18.396981
2376.000000	18.043495
2375.000000	18.019969
2374.000000	18.130290
2373.000000	17.481281
2372.000000	17.146716
2371.000000	18.276049
2370.000000	17.569978
2369.000000	17.958402
2368.000000	17.955098
2367.000000	17.167739
2366.000000	17.567375
2365.000000	17.508611
2364.000000	17.969714
2363.000000	17.432828
2362.000000	16.679906
2361.000000	17.549055
2360.000000	18.253424
2359.000000	17.879516
2358.000000	17.214390
2357.000000	17.638553
2356.000000	18.481072
2355.000000	17.732555
2354.000000	17.790319
2353.000000	17.583493
2352.000000	16.988643
2351.000000	17.488789
2350.000000	17.734257
2349.000000	17.269050
2348.000000	16.792930
2347.000000	17.478678
2346.000000	17.331418
2345.000000	16.773409
2344.000000	17.121889
2343.000000	16.982036
2342.000000	17.333720
2341.000000	17.217794
2340.000000	17.219696
2339.000000	16.786723
2338.000000	16.421324
2337.000000	17.094960
2336.000000	17.382373
2335.000000	16.983938
2334.000000	16.576594
2333.000000	16.993148
2332.000000	17.521125
2331.000000	17.628542
2330.000000	17.242521
2329.000000	17.116483
2328.000000	17.521425
2327.000000	16.936286
2326.000000	16.877722
2325.000000	17.107573
2324.000000	16.884129
2323.000000	17.017475
2322.000000	17.106272
2321.000000	17.496898
2320.000000	16.962715
2319.000000	17.513817
2318.000000	17.514918
2317.000000	16.933283
2316.000000	16.822762
2315.000000	17.532437
2314.000000	17.448545
2313.000000	17.199574
2312.000000	17.141610
2311.000000	17.065127
2310.000000	17.163935
2309.000000	17.475475
2308.000000	17.717039
2307.000000	17.084648
2306.000000	16.962615
2305.000000	17.432128
2304.000000	17.510313
2303.000000	17.322007
2302.000000	17.144714
2301.000000	17.139008
2300.000000	17.495296
2299.000000	17.603314
2298.000000	17.385477
2297.000000	17.130899
2296.000000	17.324911
2295.000000	17.938981
2294.000000	17.776303
2293.000000	17.670588
2292.000000	17.539445
2291.000000	17.436632
2290.000000	17.436632
2289.000000	17.726849
2288.000000	17.723746
2287.000000	17.585395
2286.000000	17.360049
2285.000000	17.360149
2284.000000	17.301185
2283.000000	17.139608
2282.000000	17.134202
2281.000000	17.341328
2280.000000	17.541247
2279.000000	17.182255
2278.000000	16.894341
2277.000000	16.939089
2276.000000	17.275757
2275.000000	17.500903
2274.000000	17.413507
2273.000000	17.387779
2272.000000	17.267348
2271.000000	17.194468
2270.000000	17.394987
2269.000000	17.344932
2268.000000	17.222699
2267.000000	17.401494
2266.000000	17.564872
2265.000000	17.673691
2264.000000	17.495296
2263.000000	17.501103
2262.000000	17.801130
2261.000000	17.835868
2260.000000	17.822854
2259.000000	18.271143
2258.000000	18.370552
2257.000000	18.026576
2256.000000	18.408693
2255.000000	18.897927
2254.000000	19.020361
2253.000000	19.120470
2252.000000	18.651659
2251.000000	18.917849
2250.000000	19.460842
2249.000000	19.407584
2248.000000	19.562253
2247.000000	19.575267
2246.000000	19.533521
2245.000000	19.769579
2244.000000	20.189738
2243.000000	19.897118
2242.000000	19.924748
2241.000000	20.217067
2240.000000	20.359623
2239.000000	20.022355
2238.000000	20.067104
2237.000000	20.465338
2236.000000	20.558640
2235.000000	20.458431
2234.000000	20.438309
2233.000000	20.555437
2232.000000	20.386552
2231.000000	20.386052
2230.000000	20.491467
2229.000000	20.464037
2228.000000	20.425695
2227.000000	20.476150
2226.000000	20.590275
2225.000000	20.315375
2224.000000	20.213764
2223.000000	20.348911
2222.000000	20.340102
2221.000000	20.283640
2220.000000	20.413782
2219.000000	20.043378
2218.000000	20.281137
2217.000000	20.572155
2216.000000	20.184332
2215.000000	19.847864
2214.000000	20.024157
2213.000000	20.309568
2212.000000	20.184632
2211.000000	19.786998
2210.000000	19.732138
2209.000000	19.658358
2208.000000	19.674876
2207.000000	19.775786
2206.000000	19.780891
2205.000000	19.669069
2204.000000	19.676177
2203.000000	19.555846
2202.000000	19.620216
2201.000000	19.476559
2200.000000	19.569360
2199.000000	19.540729
2198.000000	19.481164
2197.000000	19.480163
2196.000000	19.351122
2195.000000	19.282948
2194.000000	19.106856
2193.000000	19.212971
2192.000000	19.244005
2191.000000	19.276341
2190.000000	19.428407
2189.000000	19.336606
2188.000000	19.228088
2187.000000	19.481865
2186.000000	19.426304
2185.000000	19.009249
2184.000000	19.057101
2183.000000	18.880508
2182.000000	18.762279
2181.000000	18.604007
2180.000000	18.963899
2179.000000	19.130181
2178.000000	18.882911
2177.000000	18.753169
2176.000000	18.811433
2175.000000	18.948983
2174.000000	18.965902
2173.000000	19.075421
2172.000000	18.808230
2171.000000	18.922654
2170.000000	18.806227
2169.000000	18.725239
2168.000000	19.020862
2167.000000	18.582183
2166.000000	18.720734
2165.000000	18.555454
2164.000000	19.361333
2163.000000	19.211270
2162.000000	18.903534
2161.000000	19.013854
2160.000000	19.206264
2159.000000	18.970707
2158.000000	19.087234
2157.000000	19.003343
2156.000000	19.089537
2155.000000	19.069214
2154.000000	18.825949
2153.000000	19.093241
2152.000000	19.069214
2151.000000	18.674283
2150.000000	19.203761
2149.000000	19.350021
2148.000000	18.921353
2147.000000	19.084831
2146.000000	19.300767
2145.000000	18.940274
2144.000000	19.377851
2143.000000	19.300267
2142.000000	19.586779
2141.000000	19.710314
2140.000000	19.167121
2139.000000	19.391967
2138.000000	19.176732
2137.000000	19.604198
2136.000000	19.672873
2135.000000	19.897819
2134.000000	19.697600
2133.000000	19.245407
2132.000000	19.710414
2131.000000	19.951878
2130.000000	19.404480
2129.000000	19.540429
2128.000000	20.036370
2127.000000	19.569260
2126.000000	19.541330
2125.000000	19.137289
2124.000000	19.499284
2123.000000	19.716621
2122.000000	19.703807
2121.000000	19.579071
2120.000000	19.258621
2119.000000	19.703507
2118.000000	19.575867
2117.000000	19.383057
2116.000000	19.243304
2115.000000	19.242604
2114.000000	19.682984
2113.000000	19.288954
2112.000000	19.339009
2111.000000	19.215374
2110.000000	19.555645
2109.000000	19.493578
2108.000000	19.419196
2107.000000	19.351422
2106.000000	19.304171
2105.000000	19.190747
2104.000000	19.380955
2103.000000	19.262425
2102.000000	19.490674
2101.000000	19.170225
2100.000000	19.402879
2099.000000	19.131082
2098.000000	19.195753
2097.000000	19.248510
2096.000000	19.048992
2095.000000	19.295461
2094.000000	19.411788
2093.000000	19.141093
2092.000000	19.223082
2091.000000	18.996635
2090.000000	19.184140
2089.000000	19.341111
2088.000000	19.472855
2087.000000	19.256419
2086.000000	19.555545
2085.000000	19.070115
2084.000000	19.350722
2083.000000	19.351823
2082.000000	19.280445
2081.000000	19.388062
2080.000000	19.253916
2079.000000	19.340210
2078.000000	19.171927
2077.000000	19.256118
2076.000000	19.171626
2075.000000	19.064509
2074.000000	19.419397
2073.000000	19.445826
2072.000000	19.226987
2071.000000	19.196654
2070.000000	18.924757
2069.000000	18.939973
2068.000000	19.056501
2067.000000	18.860587
2066.000000	18.906036
2065.000000	19.036178
2064.000000	18.977514
2063.000000	18.823847
2062.000000	18.896526
2061.000000	18.989628
2060.000000	18.955891
2059.000000	18.927059
2058.000000	18.748564
2057.000000	18.769888
2056.000000	18.908239
2055.000000	18.840765
2054.000000	18.953989
2053.000000	18.956592
2052.000000	18.924857
2051.000000	18.943677
2050.000000	19.105354
2049.000000	19.275039
2048.000000	19.256919
2047.000000	19.299866
2046.000000	19.497081
2045.000000	19.569761
2044.000000	19.659359
2043.000000	19.770079
2042.000000	19.887107
2041.000000	19.903425
2040.000000	20.028461
2039.000000	20.163108
2038.000000	20.230282
2037.000000	20.213363
2036.000000	20.253007
2035.000000	20.528607
2034.000000	20.707002
2033.000000	20.717714
2032.000000	20.788591
2031.000000	20.825732
2030.000000	20.834341
2029.000000	20.944561
2028.000000	20.961680
2027.000000	20.980701
2026.000000	21.195035
2025.000000	21.200541
2024.000000	21.228672
2023.000000	21.279927
2022.000000	21.321873
2021.000000	21.343797
2020.000000	21.236280
2019.000000	21.291340
2018.000000	21.431393
2017.000000	21.505374
2016.000000	21.527297
2015.000000	21.436198
2014.000000	21.400059
2013.000000	21.339092
2012.000000	21.368524
2011.000000	21.439101
2010.000000	21.330383
2009.000000	21.270517
2008.000000	21.329682
2007.000000	21.315967
2006.000000	21.217359
2005.000000	21.293542
2004.000000	21.306156
2003.000000	21.167605
2002.000000	21.101533
2001.000000	21.081611
2000.000000	20.992314
1999.000000	20.907421
1998.000000	20.877588
1997.000000	20.804509
1996.000000	20.775076
1995.000000	20.703999
1994.000000	20.601988
1993.000000	20.524903
1992.000000	20.434204
1991.000000	20.345808
1990.000000	20.233585
1989.000000	20.172018
1988.000000	20.145990
1987.000000	20.035069
1986.000000	20.002233
1985.000000	19.957384
1984.000000	19.815329
1983.000000	19.727633
1982.000000	19.568159
1981.000000	19.422500
1980.000000	19.421399
1979.000000	19.351823
1978.000000	19.209568
1977.000000	19.161816
1976.000000	19.099548
1975.000000	19.066211
1974.000000	18.961797
1973.000000	18.813035
1972.000000	18.798519
1971.000000	18.743259
1970.000000	18.641748
1969.000000	18.499493
1968.000000	18.384767
1967.000000	18.321899
1966.000000	18.266538
1965.000000	18.159722
1964.000000	18.115273
1963.000000	18.107765
1962.000000	18.011560
1961.000000	17.836769
1960.000000	17.786715
1959.000000	17.730954
1958.000000	17.650766
1957.000000	17.584494
1956.000000	17.534139
1955.000000	17.392084
1954.000000	17.321507
1953.000000	17.261942
1952.000000	17.120287
1951.000000	16.999655
1950.000000	16.974428
1949.000000	16.937888
1948.000000	16.815354
1947.000000	16.794732
1946.000000	16.747881
1945.000000	16.663489
1944.000000	16.603523
1943.000000	16.539653
1942.000000	16.486996
1941.000000	16.525538
1940.000000	16.522234
1939.000000	16.481890
1938.000000	16.382382
1937.000000	16.345842
1936.000000	16.250638
1935.000000	16.258046
1934.000000	16.265354
1933.000000	16.278568
1932.000000	16.324218
1931.000000	16.368767
1930.000000	16.364362
1929.000000	16.495005
1928.000000	16.541155
1927.000000	16.461668
1926.000000	16.426129
1925.000000	16.601120
1924.000000	16.829069
1923.000000	16.718048
1922.000000	16.894741
1921.000000	17.283565
1920.000000	17.379971
1919.000000	17.107473
1918.000000	17.291674
1917.000000	17.477777
1916.000000	17.722144
1915.000000	17.811341
1914.000000	18.063717
1913.000000	18.220388
1912.000000	18.474966
1911.000000	18.586488
1910.000000	18.794515
1909.000000	19.066712
1908.000000	19.378552
1907.000000	19.817731
1906.000000	20.098638
1905.000000	20.402670
1904.000000	20.536116
1903.000000	21.063391
1902.000000	21.325477
1901.000000	21.774567
1900.000000	22.340685
1899.000000	22.608878
1898.000000	22.921619
1897.000000	23.305939
1896.000000	23.721392
1895.000000	24.194208
1894.000000	24.736300
1893.000000	25.139440
1892.000000	25.605749
1891.000000	26.111301
1890.000000	26.479303
1889.000000	26.907470
1888.000000	27.247541
1887.000000	27.683717
1886.000000	28.035501
1885.000000	28.423825
1884.000000	28.825063
1883.000000	29.044903
1882.000000	29.309492
1881.000000	29.797925
1880.000000	29.985730
1879.000000	30.277148
1878.000000	30.557454
1877.000000	30.900929
1876.000000	31.031371
1875.000000	31.264226
1874.000000	31.632327
1873.000000	31.665263
1872.000000	31.830944
1871.000000	32.140782
1870.000000	32.158602
1869.000000	32.227077
1868.000000	32.580462
1867.000000	32.364426
1866.000000	32.233984
1865.000000	32.478851
1864.000000	32.663653
1863.000000	32.494569
1862.000000	32.557838
1861.000000	32.849656
1860.000000	33.094223
1859.000000	32.893104
1858.000000	32.908220
1857.000000	33.080208
1856.000000	33.014536
1855.000000	33.043167
1854.000000	33.282529
1853.000000	33.130963
1852.000000	33.029352
1851.000000	33.085614
1850.000000	33.159394
1849.000000	33.280426
1848.000000	33.541711
1847.000000	33.347499
1846.000000	32.995415
1845.000000	32.957574
1844.000000	32.985805
1843.000000	33.109740
1842.000000	33.289036
1841.000000	33.182419
1840.000000	32.988708
1839.000000	32.911223
1838.000000	32.976194
1837.000000	32.942257
1836.000000	32.922536
1835.000000	32.751549
1834.000000	32.627414
1833.000000	32.703396
1832.000000	32.700093
1831.000000	32.742039
1830.000000	32.609594
1829.000000	32.619905
1828.000000	32.547026
1827.000000	32.520797
1826.000000	32.552131
1825.000000	32.405972
1824.000000	32.392357
1823.000000	32.490864
1822.000000	32.591074
1821.000000	32.633020
1820.000000	32.588071
1819.000000	32.454325
1818.000000	32.411177
1817.000000	32.454825
1816.000000	32.447517
1815.000000	32.466438
1814.000000	32.381445
1813.000000	32.405371
1812.000000	32.428196
1811.000000	32.414481
1810.000000	32.386350
1809.000000	32.292748
1808.000000	32.297353
1807.000000	32.339599
1806.000000	32.290446
1805.000000	32.236086
1804.000000	32.229179
1803.000000	32.223673
1802.000000	32.222171
1801.000000	32.218267
1800.000000	32.157400
1799.000000	32.087424
1798.000000	32.081418
1797.000000	32.119759
1796.000000	32.104443
1795.000000	32.081818
1794.000000	32.029461
1793.000000	32.057792
1792.000000	32.045578
1791.000000	32.003032
1790.000000	32.011241
1789.000000	31.973400
1788.000000	31.991419
1787.000000	31.979406
1786.000000	32.032965
1785.000000	32.023154
1784.000000	31.986214
1783.000000	32.001030
1782.000000	31.997126
1781.000000	31.981408
1780.000000	31.956781
1779.000000	31.959585
1778.000000	31.967193
1777.000000	31.935058
1776.000000	31.945569
1775.000000	31.906627
1774.000000	31.851467
1773.000000	31.835449
1772.000000	31.827641
1771.000000	31.796006
1770.000000	31.778987
1769.000000	31.762169
1768.000000	31.742047
1767.000000	31.721224
1766.000000	31.739945
1765.000000	31.709612
1764.000000	31.694595
1763.000000	31.679479
1762.000000	31.659757
1761.000000	31.687788
1760.000000	31.709912
1759.000000	31.695096
1758.000000	31.718622
1757.000000	31.722326
1756.000000	31.730635
1755.000000	31.726630
1754.000000	31.714517
1753.000000	31.724328
1752.000000	31.732637
1751.000000	31.727431
1750.000000	31.718622
1749.000000	31.721324
1748.000000	31.715018
1747.000000	31.672071
1746.000000	31.639035
1745.000000	31.637733
1744.000000	31.608802
1743.000000	31.547635
1742.000000	31.498581
1741.000000	31.447125
1740.000000	31.431008
1739.000000	31.407081
1738.000000	31.356827
1737.000000	31.325793
1736.000000	31.271934
1735.000000	31.226084
1734.000000	31.218175
1733.000000	31.209366
1732.000000	31.177030
1731.000000	31.129579
1730.000000	31.131981
1729.000000	31.140891
1728.000000	31.081426
1727.000000	31.033874
1726.000000	31.046388
1725.000000	31.033574
1724.000000	31.018758
1723.000000	31.017957
1722.000000	31.070114
1721.000000	31.160312
1720.000000	31.252212
1719.000000	31.387660
1718.000000	31.540227
1717.000000	31.622417
1716.000000	31.722926
1715.000000	31.878997
1714.000000	31.995824
1713.000000	32.101039
1712.000000	32.214263
1711.000000	32.281636
1710.000000	32.357118
1709.000000	32.440610
1708.000000	32.492566
1707.000000	32.537816
1706.000000	32.548327
1705.000000	32.577559
1704.000000	32.627614
1703.000000	32.650138
1702.000000	32.675566
1701.000000	32.694687
1700.000000	32.746744
1699.000000	32.756254
1698.000000	32.778879
1697.000000	32.777878
1696.000000	32.769168
1695.000000	32.741939
1694.000000	32.713207
1693.000000	32.698491
1692.000000	32.646234
1691.000000	32.603487
1690.000000	32.560741
1689.000000	32.547026
1688.000000	32.547026
1687.000000	32.596580
1686.000000	32.657146
1685.000000	32.745943
1684.000000	32.864672
1683.000000	32.981700
1682.000000	33.097827
1681.000000	33.237079
1680.000000	33.355208
1679.000000	33.485450
1678.000000	33.590965
1677.000000	33.692576
1676.000000	33.782975
1675.000000	33.880381
1674.000000	33.958767
1673.000000	34.039054
1672.000000	34.145070
1671.000000	34.218450
1670.000000	34.327569
1669.000000	34.444697
1668.000000	34.547710
1667.000000	34.633503
1666.000000	34.724903
1665.000000	34.795780
1664.000000	34.878270
1663.000000	34.946044
1662.000000	35.020426
1661.000000	35.104617
1660.000000	35.161179
1659.000000	35.185305
1658.000000	35.230855
1657.000000	35.269898
1656.000000	35.280409
1655.000000	35.318050
1654.000000	35.312945
1653.000000	35.310843
1652.000000	35.323757
1651.000000	35.331365
1650.000000	35.354090
1649.000000	35.322455
1648.000000	35.324457
1647.000000	35.299931
1646.000000	35.316248
1645.000000	35.278207
1644.000000	35.255983
1643.000000	35.252879
1642.000000	35.214537
1641.000000	35.209732
1640.000000	35.199121
1639.000000	35.168487
1638.000000	35.143960
1637.000000	35.115730
1636.000000	35.109423
1635.000000	35.084395
1634.000000	35.046054
1633.000000	34.956356
1632.000000	34.918314
1631.000000	34.935433
1630.000000	34.911907
1629.000000	34.839828
1628.000000	34.800385
1627.000000	34.783167
1626.000000	34.686962
1625.000000	34.673447
1624.000000	34.631801
1623.000000	34.561625
1622.000000	34.554117
1621.000000	34.515975
1620.000000	34.505063
1619.000000	34.401850
1618.000000	34.377624
1617.000000	34.356901
1616.000000	34.274812
1615.000000	34.254289
1614.000000	34.189118
1613.000000	34.125449
1612.000000	34.084204
1611.000000	34.043259
1610.000000	33.987498
1609.000000	33.929535
1608.000000	33.833930
1607.000000	33.778970
1606.000000	33.691475
1605.000000	33.651732
1604.000000	33.574647
1603.000000	33.497964
1602.000000	33.437898
1601.000000	33.376932
1600.000000	33.290337
1599.000000	33.229471
1598.000000	33.167303
1597.000000	33.102532
1596.000000	33.038963
1595.000000	32.999920
1594.000000	32.947062
1593.000000	32.871280
1592.000000	32.794196
1591.000000	32.775775
1590.000000	32.745142
1589.000000	32.665956
1588.000000	32.643431
1587.000000	32.610195
1586.000000	32.558638
1585.000000	32.535613
1584.000000	32.477650
1583.000000	32.496671
1582.000000	32.438407
1581.000000	32.410377
1580.000000	32.381045
1579.000000	32.352213
1578.000000	32.308465
1577.000000	32.314572
1576.000000	32.297954
1575.000000	32.308766
1574.000000	32.286141
1573.000000	32.262916
1572.000000	32.254506
1571.000000	32.237087
1570.000000	32.236387
1569.000000	32.245797
1568.000000	32.226075
1567.000000	32.235886
1566.000000	32.238089
1565.000000	32.264117
1564.000000	32.231581
1563.000000	32.221771
1562.000000	32.225475
1561.000000	32.224574
1560.000000	32.190537
1559.000000	32.168713
1558.000000	32.124364
1557.000000	32.098937
1556.000000	32.065901
1555.000000	32.020151
1554.000000	31.986114
1553.000000	31.941965
1552.000000	31.895515
1551.000000	31.823936
1550.000000	31.780189
1549.000000	31.735840
1548.000000	31.672972
1547.000000	31.612806
1546.000000	31.574664
1545.000000	31.505389
1544.000000	31.478560
1543.000000	31.455534
1542.000000	31.430107
1541.000000	31.393066
1540.000000	31.340809
1539.000000	31.317784
1538.000000	31.315582
1537.000000	31.247808
1536.000000	31.242302
1535.000000	31.217575
1534.000000	31.175929
1533.000000	31.152203
1532.000000	31.107454
1531.000000	31.082527
1530.000000	31.066710
1529.000000	31.018457
1528.000000	30.982518
1527.000000	30.959993
1526.000000	30.892620
1525.000000	30.825447
1524.000000	30.786304
1523.000000	30.725638
1522.000000	30.700010
1521.000000	30.651457
1520.000000	30.610312
1519.000000	30.579078
1518.000000	30.515108
1517.000000	30.448936
1516.000000	30.418803
1515.000000	30.370750
1514.000000	30.331107
1513.000000	30.266336
1512.000000	30.197962
1511.000000	30.122379
1510.000000	30.074127
1509.000000	30.015262
1508.000000	29.955998
1507.000000	29.898335
1506.000000	29.861995
1505.000000	29.804332
1504.000000	29.761986
1503.000000	29.711631
1502.000000	29.649763
1501.000000	29.606116
1500.000000	29.575282
1499.000000	29.536940
1498.000000	29.492892
1497.000000	29.476875
1496.000000	29.467264
1495.000000	29.425919
1494.000000	29.403595
1493.000000	29.392282
1492.000000	29.387677
1491.000000	29.384274
1490.000000	29.371259
1489.000000	29.365753
1488.000000	29.359747
1487.000000	29.384073
1486.000000	29.392783
1485.000000	29.378167
1484.000000	29.381270
1483.000000	29.398890
1482.000000	29.420914
1481.000000	29.434428
1480.000000	29.456052
1479.000000	29.464661
1478.000000	29.480679
1477.000000	29.498598
1476.000000	29.507408
1475.000000	29.549754
1474.000000	29.594103
1473.000000	29.623034
1472.000000	29.672989
1471.000000	29.717037
1470.000000	29.750473
1469.000000	29.772297
1468.000000	29.813142
1467.000000	29.883318
1466.000000	29.928167
1465.000000	29.966910
1464.000000	30.040890
1463.000000	30.109565
1462.000000	30.160821
1461.000000	30.234201
1460.000000	30.280151
1459.000000	30.327403
1458.000000	30.391273
1457.000000	30.451538
1456.000000	30.524919
1455.000000	30.587086
1454.000000	30.643748
1453.000000	30.703113
1452.000000	30.777895
1451.000000	30.863889
1450.000000	30.915245
1449.000000	30.963497
1448.000000	31.039981
1447.000000	31.116965
1446.000000	31.202758
1445.000000	31.266828
1444.000000	31.320687
1443.000000	31.416792
1442.000000	31.496880
1441.000000	31.553742
1440.000000	31.620615
1439.000000	31.710613
1438.000000	31.820232
1437.000000	31.916738
1436.000000	31.998027
1435.000000	32.083220
1434.000000	32.175220
1433.000000	32.309166
1432.000000	32.431199
1431.000000	32.525402
1430.000000	32.633720
1429.000000	32.793795
1428.000000	32.945861
1427.000000	33.076303
1426.000000	33.207847
1425.000000	33.392549
1424.000000	33.582356
1423.000000	33.749538
1422.000000	33.880882
1421.000000	34.100822
1420.000000	34.350695
1419.000000	34.580646
1418.000000	34.748729
1417.000000	34.891485
1416.000000	35.121536
1415.000000	35.424467
1414.000000	35.710879
1413.000000	35.912399
1412.000000	36.166577
1411.000000	36.469407
1410.000000	36.789356
1409.000000	37.070263
1408.000000	37.329346
1407.000000	37.669918
1406.000000	37.945819
1405.000000	38.236035
1404.000000	38.492415
1403.000000	38.713156
1402.000000	39.049023
1401.000000	39.410517
1400.000000	39.671002
1399.000000	39.798641
1398.000000	39.993554
1397.000000	40.325816
1396.000000	40.660382
1395.000000	40.873715
1394.000000	40.989341
1393.000000	41.186656
1392.000000	41.425317
1391.000000	41.557861
1390.000000	41.739560
1389.000000	41.994137
1388.000000	42.243009
1387.000000	42.373351
1386.000000	42.538932
1385.000000	42.745558
1384.000000	42.927056
1383.000000	43.157507
1382.000000	43.279741
1381.000000	43.360529
1380.000000	43.407080
1379.000000	43.454231
1378.000000	43.504987
1377.000000	43.570959
1376.000000	43.663059
1375.000000	43.724526
1374.000000	43.806816
1373.000000	43.879896
1372.000000	44.017646
1371.000000	44.115053
1370.000000	44.125764
1369.000000	44.153695
1368.000000	44.320677
1367.000000	44.364024
1366.000000	44.421887
1365.000000	44.562741
1364.000000	44.562441
1363.000000	44.600082
1362.000000	44.822825
1361.000000	44.840845
1360.000000	44.736931
1359.000000	44.755051
1358.000000	44.862869
1357.000000	44.927239
1356.000000	44.985703
1355.000000	45.051575
1354.000000	45.110739
1353.000000	45.168502
1352.000000	45.251493
1351.000000	45.342492
1350.000000	45.463124
1349.000000	45.552722
1348.000000	45.681662
1347.000000	45.765054
1346.000000	45.847343
1345.000000	45.953359
1344.000000	46.070887
1343.000000	46.165390
1342.000000	46.237269
1341.000000	46.321060
1340.000000	46.413661
1339.000000	46.461213
1338.000000	46.566729
1337.000000	46.630198
1336.000000	46.692466
1335.000000	46.757437
1334.000000	46.804088
1333.000000	46.856645
1332.000000	46.927622
1331.000000	46.968767
1330.000000	47.023127
1329.000000	47.097208
1328.000000	47.125639
1327.000000	47.158775
1326.000000	47.208529
1325.000000	47.243868
1324.000000	47.270797
1323.000000	47.305335
1322.000000	47.354689
1321.000000	47.358893
1320.000000	47.394933
1319.000000	47.402541
1318.000000	47.447190
1317.000000	47.467312
1316.000000	47.493240
1315.000000	47.490837
1314.000000	47.521871
1313.000000	47.536988
1312.000000	47.552004
1311.000000	47.572026
1310.000000	47.605562
1309.000000	47.601758
1308.000000	47.590546
1307.000000	47.624984
1306.000000	47.615774
1305.000000	47.626285
1304.000000	47.636396
1303.000000	47.653214
1302.000000	47.637698
1301.000000	47.639399
1300.000000	47.636096
1299.000000	47.630690
1298.000000	47.641201
1297.000000	47.626285
1296.000000	47.601558
1295.000000	47.588344
1294.000000	47.586442
1293.000000	47.593750
1292.000000	47.564818
1291.000000	47.547900
1290.000000	47.557810
1289.000000	47.536187
1288.000000	47.532182
1287.000000	47.513562
1286.000000	47.496744
1285.000000	47.475621
1284.000000	47.456600
1283.000000	47.449292
1282.000000	47.436378
1281.000000	47.402341
1280.000000	47.390728
1279.000000	47.385422
1278.000000	47.359194
1277.000000	47.343276
1276.000000	47.342876
1275.000000	47.336469
1274.000000	47.322453
1273.000000	47.320551
1272.000000	47.327359
1271.000000	47.321753
1270.000000	47.312242
1269.000000	47.328360
1268.000000	47.306136
1267.000000	47.296225
1266.000000	47.303933
1265.000000	47.285613
1264.000000	47.296625
1263.000000	47.284412
1262.000000	47.280207
1261.000000	47.269496
1260.000000	47.265691
1259.000000	47.270997
1258.000000	47.271798
1257.000000	47.268094
1256.000000	47.265491
1255.000000	47.233556
1254.000000	47.224747
1253.000000	47.210431
1252.000000	47.190309
1251.000000	47.187706
1250.000000	47.179598
1249.000000	47.156672
1248.000000	47.124337
1247.000000	47.098909
1246.000000	47.065273
1245.000000	47.049355
1244.000000	47.019923
1243.000000	46.995797
1242.000000	46.978378
1241.000000	46.924119
1240.000000	46.911905
1239.000000	46.892584
1238.000000	46.854943
1237.000000	46.832318
1236.000000	46.819805
1235.000000	46.790473
1234.000000	46.782164
1233.000000	46.757237
1232.000000	46.706481
1231.000000	46.699473
1230.000000	46.675848
1229.000000	46.652823
1228.000000	46.639007
1227.000000	46.609275
1226.000000	46.585649
1225.000000	46.569031
1224.000000	46.559020
1223.000000	46.536696
1222.000000	46.495551
1221.000000	46.478432
1220.000000	46.454706
1219.000000	46.417265
1218.000000	46.393740
1217.000000	46.359302
1216.000000	46.330871
1215.000000	46.317056
1214.000000	46.291929
1213.000000	46.284120
1212.000000	46.275811
1211.000000	46.244777
1210.000000	46.229460
1209.000000	46.205634
1208.000000	46.157782
1207.000000	46.113133
1206.000000	46.075693
1205.000000	46.037451
1204.000000	46.014726
1203.000000	46.001111
1202.000000	45.976785
1201.000000	45.946151
1200.000000	45.937241
1199.000000	45.915618
1198.000000	45.882882
1197.000000	45.864963
1196.000000	45.832427
1195.000000	45.780470
1194.000000	45.748836
1193.000000	45.713697
1192.000000	45.665445
1191.000000	45.638315
1190.000000	45.600073
1189.000000	45.574245
1188.000000	45.567238
1187.000000	45.571943
1186.000000	45.572744
1185.000000	45.564234
1184.000000	45.566537
1183.000000	45.581854
1182.000000	45.610585
1181.000000	45.644822
1180.000000	45.691073
1179.000000	45.718202
1178.000000	45.746133
1177.000000	45.771561
1176.000000	45.799491
1175.000000	45.843139
1174.000000	45.875274
1173.000000	45.890591
1172.000000	45.925328
1171.000000	45.958665
1170.000000	45.995605
1169.000000	46.036450
1168.000000	46.113734
1167.000000	46.164590
1166.000000	46.211641
1165.000000	46.267802
1164.000000	46.351093
1163.000000	46.418166
1162.000000	46.467821
1161.000000	46.524082
1160.000000	46.594959
1159.000000	46.653523
1158.000000	46.710686
1157.000000	46.780762
1156.000000	46.810595
1155.000000	46.852440
1154.000000	46.886578
1153.000000	46.948645
1152.000000	46.969168
1151.000000	46.982582
1150.000000	47.040346
1149.000000	47.061669
1148.000000	47.082091
1147.000000	47.128942
1146.000000	47.147963
1145.000000	47.161378
1144.000000	47.173090
1143.000000	47.209831
1142.000000	47.235258
1141.000000	47.274101
1140.000000	47.279406
1139.000000	47.329261
1138.000000	47.373009
1137.000000	47.395433
1136.000000	47.468913
1135.000000	47.543795
1134.000000	47.562115
1133.000000	47.540892
1132.000000	47.581336
1131.000000	47.605262
1130.000000	47.639199
1129.000000	47.675839
1128.000000	47.685350
1127.000000	47.727395
1126.000000	47.745715
1125.000000	47.751021
1124.000000	47.768841
1123.000000	47.755826
1122.000000	47.742011
1121.000000	47.696161
1120.000000	47.713380
1119.000000	47.721990
1118.000000	47.717985
1117.000000	47.687752
1116.000000	47.668631
1115.000000	47.662324
1114.000000	47.663225
1113.000000	47.619177
1112.000000	47.613471
1111.000000	47.604962
1110.000000	47.562015
1109.000000	47.553906
1108.000000	47.539490
1107.000000	47.532082
1106.000000	47.520870
1105.000000	47.460104
1104.000000	47.442685
1103.000000	47.463507
1102.000000	47.422162
1101.000000	47.419860
1100.000000	47.415956
1099.000000	47.397335
1098.000000	47.349383
1097.000000	47.305034
1096.000000	47.339772
1095.000000	47.280408
1094.000000	47.272299
1093.000000	47.292921
1092.000000	47.247371
1091.000000	47.195114
1090.000000	47.197117
1089.000000	47.165883
1088.000000	47.179397
1087.000000	47.128442
1086.000000	47.110622
1085.000000	47.089900
1084.000000	47.065273
1083.000000	46.981481
1082.000000	46.968167
1081.000000	46.935331
1080.000000	46.958256
1079.000000	46.930926
1078.000000	46.877268
1077.000000	46.870560
1076.000000	46.851439
1075.000000	46.781563
1074.000000	46.758638
1073.000000	46.719095
1072.000000	46.665236
1071.000000	46.683456
1070.000000	46.617184
1069.000000	46.613580
1068.000000	46.578441
1067.000000	46.515973
1066.000000	46.539599
1065.000000	46.496852
1064.000000	46.467420
1063.000000	46.387433
1062.000000	46.410358
1061.000000	46.312952
1060.000000	46.328669
1059.000000	46.291128
1058.000000	46.258492
1057.000000	46.163989
1056.000000	46.161987
1055.000000	46.195724
1054.000000	46.118339
1053.000000	46.079597
1052.000000	46.083801
1051.000000	46.012724
1050.000000	45.984994
1049.000000	45.935039
1048.000000	45.876775
1047.000000	45.848945
1046.000000	45.811004
1045.000000	45.749937
1044.000000	45.760248
1043.000000	45.745332
1042.000000	45.739426
1041.000000	45.668348
1040.000000	45.611786
1039.000000	45.562032
1038.000000	45.526293
1037.000000	45.553923
1036.000000	45.515882
1035.000000	45.434192
1034.000000	45.415272
1033.000000	45.333683
1032.000000	45.303350
1031.000000	45.300647
1030.000000	45.284329
1029.000000	45.246187
1028.000000	45.163297
1027.000000	45.134966
1026.000000	45.040863
1025.000000	45.004623
1024.000000	44.968384
1023.000000	44.966382
1022.000000	44.908218
1021.000000	44.911322
1020.000000	44.848353
1019.000000	44.815017
1018.000000	44.795395
1017.000000	44.754551
1016.000000	44.685375
1015.000000	44.722616
1014.000000	44.633619
1013.000000	44.559438
1012.000000	44.567046
1011.000000	44.475546
1010.000000	44.478950
1009.000000	44.462732
1008.000000	44.428795
1007.000000	44.420986
1006.000000	44.378840
1005.000000	44.354714
1004.000000	44.278631
1003.000000	44.240990
1002.000000	44.143183
1001.000000	44.128467
1000.000000	44.141181
999.000000	44.134874
998.000000	44.072406
997.000000	44.042173
996.000000	44.036066
995.000000	43.999226
994.000000	43.951574
993.000000	43.922743
992.000000	43.878294
991.000000	43.892710
990.000000	43.874490
989.000000	43.768074
988.000000	43.748853
987.000000	43.663760
986.000000	43.687486
985.000000	43.660957
984.000000	43.599290
983.000000	43.615908
982.000000	43.567455
981.000000	43.421696
980.000000	43.375045
979.000000	43.436812
978.000000	43.335602
977.000000	43.339506
976.000000	43.324490
975.000000	43.232789
974.000000	43.238396
973.000000	43.275136
972.000000	43.188341
971.000000	43.152602
970.000000	43.065607
969.000000	43.013750
968.000000	43.042382
967.000000	42.998834
966.000000	42.971004
965.000000	42.943073
964.000000	42.899025
963.000000	42.806825
962.000000	42.730842
961.000000	42.692700
960.000000	42.695103
959.000000	42.662867
958.000000	42.685592
957.000000	42.698106
956.000000	42.672077
955.000000	42.525618
954.000000	42.465552
953.000000	42.435820
952.000000	42.395476
951.000000	42.494584
950.000000	42.461648
949.000000	42.365743
948.000000	42.303075
947.000000	42.249316
946.000000	42.210774
945.000000	42.194256
944.000000	42.209673
943.000000	42.175535
942.000000	42.101955
941.000000	42.082834
940.000000	42.100253
939.000000	41.981924
938.000000	41.911647
937.000000	41.839469
936.000000	41.888722
935.000000	41.867199
934.000000	41.852383
933.000000	41.771094
932.000000	41.560064
931.000000	41.513913
930.000000	41.568173
929.000000	41.579084
928.000000	41.465360
927.000000	41.358944
926.000000	41.195666
925.000000	41.210883
924.000000	41.286865
923.000000	41.273451
922.000000	41.092553
921.000000	41.178647
920.000000	41.172741
919.000000	40.999151
918.000000	40.968017
917.000000	41.010163
916.000000	40.967016
915.000000	40.809044
914.000000	40.797531
913.000000	40.786319
912.000000	40.741070
911.000000	40.666088
910.000000	40.521730
909.000000	40.612630
908.000000	40.522731
907.000000	40.503510
906.000000	40.437438
905.000000	40.263148
904.000000	40.465068
903.000000	40.425826
902.000000	40.295583
901.000000	40.418418
900.000000	40.001262
899.000000	40.219701
898.000000	40.256040
897.000000	40.193872
896.000000	40.394491
895.000000	40.257041
894.000000	40.097067
893.000000	40.043408
892.000000	39.917271
891.000000	39.551671
890.000000	39.879129
889.000000	39.571894
888.000000	39.664995
887.000000	39.857405
886.000000	39.623950
885.000000	39.967025
884.000000	40.022886
883.000000	39.781823
882.000000	39.608133
881.000000	39.371575
880.000000	39.121102
879.000000	39.403610
878.000000	39.463876
877.000000	39.564886
876.000000	39.483297
875.000000	39.168954
874.000000	39.227017
873.000000	39.513630
872.000000	38.989558
871.000000	39.138220
870.000000	39.139822
869.000000	39.645274
868.000000	40.408707
867.000000	39.953710
866.000000	39.267161
865.000000	39.072949
864.000000	39.930585
863.000000	39.135117
862.000000	38.697039
861.000000	39.742179
860.000000	39.821266
859.000000	38.682523
858.000000	39.577800
857.000000	39.561000
856.000000	39.583100
855.000000	39.589300
854.000000	39.147300
853.000000	39.348800
852.000000	39.203200
851.000000	38.956300
850.000000	38.895800
849.000000	39.081900
848.000000	39.024100
847.000000	38.935700
846.000000	38.969500
845.000000	38.706200
844.000000	38.757700
843.000000	38.738600
842.000000	38.572800
841.000000	38.428700
840.000000	38.405500
839.000000	38.235400
838.000000	38.124500
837.000000	38.154000
836.000000	38.072100
835.000000	38.025200
834.000000	37.849900
833.000000	37.834600
832.000000	37.762600
831.000000	37.718900
830.000000	37.643700
829.000000	37.459900
828.000000	37.265400
827.000000	37.386000
826.000000	37.121800
825.000000	37.080300
824.000000	37.013200
823.000000	37.001100
822.000000	36.931500
821.000000	36.761300
820.000000	36.574100
819.000000	36.460200
818.000000	36.442400
817.000000	36.248800
816.000000	36.315900
815.000000	36.230600
814.000000	36.088200
813.000000	35.960900
812.000000	35.895000
811.000000	35.794200
810.000000	35.816700
809.000000	35.619700
808.000000	35.384400
807.000000	35.405100
806.000000	35.343300
805.000000	35.249000
804.000000	35.190600
803.000000	35.123200
802.000000	34.957800
801.000000	34.894600
800.000000	34.747400
799.000000	34.667600
798.000000	34.582900
797.000000	34.539800
796.000000	34.576400
795.000000	34.425400
794.000000	34.294000
793.000000	34.197000
792.000000	34.167600
791.000000	34.016400
790.000000	33.962000
789.000000	33.945700
788.000000	33.757700
787.000000	33.747400
786.000000	33.737500
785.000000	33.582100
784.000000	33.501300
783.000000	33.439100
782.000000	33.334900
781.000000	33.206700
780.000000	33.145400
779.000000	33.140800
778.000000	33.012700
777.000000	32.887600
776.000000	32.833700
775.000000	32.796500
774.000000	32.737200
773.000000	32.720900
772.000000	32.538400
771.000000	32.512700
770.000000	32.479000
769.000000	32.455300
768.000000	32.310900
767.000000	32.232100
766.000000	32.148800
765.000000	32.083700
764.000000	31.943600
763.000000	31.917000
762.000000	31.853100
761.000000	31.824200
760.000000	31.654300
759.000000	31.602700
758.000000	31.502200
757.000000	31.443400
756.000000	31.331600
755.000000	31.259600
754.000000	31.196600
753.000000	31.066800
752.000000	31.022900
751.000000	30.965600
750.000000	30.858500
749.000000	30.750700
748.000000	30.691700
747.000000	30.524300
746.000000	30.479000
745.000000	30.414900
744.000000	30.328000
743.000000	30.257400
742.000000	30.157800
741.000000	30.059100
740.000000	29.963000
739.000000	29.855400
738.000000	29.814700
737.000000	29.724200
736.000000	29.655600
735.000000	29.598400
734.000000	29.507500
733.000000	29.463600
732.000000	29.318100
731.000000	29.241100
730.000000	29.148500
729.000000	29.045000
728.000000	28.975400
727.000000	28.884800
726.000000	28.800900
725.000000	28.771300
724.000000	28.715300
723.000000	28.584100
722.000000	28.498500
721.000000	28.405400
720.000000	28.335300
719.000000	28.258300
718.000000	28.179000
717.000000	28.106700
716.000000	28.027700
715.000000	27.928800
714.000000	27.828600
713.000000	27.724500
712.000000	27.661200
711.000000	27.570100
710.000000	27.455900
709.000000	27.351900
708.000000	27.261400
707.000000	27.174400
706.000000	27.067600
705.000000	26.986500
704.000000	26.880000
703.000000	26.823500
702.000000	26.701900
701.000000	26.625700
700.000000	26.531800
699.000000	26.445500
698.000000	26.343500
697.000000	26.254600
696.000000	26.157000
695.000000	26.036400
694.000000	25.945000
693.000000	25.855600
692.000000	25.764100
691.000000	25.677800
690.000000	25.591400
689.000000	25.466000
688.000000	25.363800
687.000000	25.277800
686.000000	25.190900
685.000000	25.101600
684.000000	24.991400
683.000000	24.887300
682.000000	24.798500
681.000000	24.702500
680.000000	24.602400
679.000000	24.491900
678.000000	24.395400
677.000000	24.302200
676.000000	24.209300
675.000000	24.124700
674.000000	24.037400
673.000000	23.922700
672.000000	23.804400
671.000000	23.709500
670.000000	23.629000
669.000000	23.535500
668.000000	23.445500
667.000000	23.341600
666.000000	23.239400
665.000000	23.143500
664.000000	23.050000
663.000000	22.973100
662.000000	22.881400
661.000000	22.793100
660.000000	22.701600
659.000000	22.592000
658.000000	22.480700
657.000000	22.376200
656.000000	22.273600
655.000000	22.182300
654.000000	22.065100
653.000000	21.967100
652.000000	21.907000
651.000000	21.797800
650.000000	21.698500
649.000000	21.610900
648.000000	21.494000
647.000000	21.389700
646.000000	21.294600
645.000000	21.192400
644.000000	21.076700
643.000000	20.975300
642.000000	20.893500
641.000000	20.809700
640.000000	20.701200
639.000000	20.595800
638.000000	20.523900
637.000000	20.453000
636.000000	20.358300
635.000000	20.275100
634.000000	20.195400
633.000000	20.092100
632.000000	19.992300
631.000000	19.920600
630.000000	19.843400
629.000000	19.752800
628.000000	19.654500
627.000000	19.564900
626.000000	19.467100
625.000000	19.381400
624.000000	19.308100
623.000000	19.231800
622.000000	19.148400
621.000000	19.046600
620.000000	18.955600
619.000000	18.885200
618.000000	18.810200
617.000000	18.724900
616.000000	18.654400
615.000000	18.591500
614.000000	18.520100
613.000000	18.448700
612.000000	18.393700
611.000000	18.338500
610.000000	18.276100
609.000000	18.190400
608.000000	18.116400
607.000000	18.058600
606.000000	17.984500
605.000000	17.919600
604.000000	17.856300
603.000000	17.777400
602.000000	17.722600
601.000000	17.665800
600.000000	17.617900
599.000000	17.557000
598.000000	17.504700
597.000000	17.446000
596.000000	17.391900
595.000000	17.344400
594.000000	17.279500
593.000000	17.225500
592.000000	17.175900
591.000000	17.129600
590.000000	17.083000
589.000000	17.011200
588.000000	16.955100
587.000000	16.915300
586.000000	16.871000
585.000000	16.825000
584.000000	16.779700
583.000000	16.729900
582.000000	16.690300
581.000000	16.655700
580.000000	16.612300
579.000000	16.598500
578.000000	16.595200
577.000000	16.571400
576.000000	16.571100
575.000000	16.567800
574.000000	16.561100
573.000000	16.563600
572.000000	16.574900
571.000000	16.580800
570.000000	16.596600
569.000000	16.606200
568.000000	16.625500
567.000000	16.640200
566.000000	16.649600
565.000000	16.679900
564.000000	16.691300
563.000000	16.711100
562.000000	16.719400
561.000000	16.742100
560.000000	16.768000
559.000000	16.906500
558.000000	16.995700
557.000000	17.069700
556.000000	17.115000
555.000000	17.122300
554.000000	17.146900
553.000000	17.182300
552.000000	17.215400
551.000000	17.256100
550.000000	17.259600
549.000000	17.289100
548.000000	17.304200
547.000000	17.326100
546.000000	17.330200
545.000000	17.328900
544.000000	17.319400
543.000000	17.340000
542.000000	17.350500
541.000000	17.330600
540.000000	17.298700
539.000000	17.274600
538.000000	17.234200
537.000000	17.189400
536.000000	17.139600
535.000000	17.086700
534.000000	17.026500
533.000000	16.955500
532.000000	16.871900
531.000000	16.799700
530.000000	16.727600
529.000000	16.617900
528.000000	16.525600
527.000000	16.442800
526.000000	16.349700
525.000000	16.219500
524.000000	16.093900
523.000000	15.970300
522.000000	15.856200
521.000000	15.717700
520.000000	15.581200
519.000000	15.432300
518.000000	15.296400
517.000000	15.158300
516.000000	15.033300
515.000000	14.872500
514.000000	14.724200
513.000000	14.554400
512.000000	14.381800
511.000000	14.227500
510.000000	14.078700
509.000000	13.908000
508.000000	13.756300
507.000000	13.605800
506.000000	13.470700
505.000000	13.314000
504.000000	13.174700
503.000000	13.030100
502.000000	12.868100
501.000000	12.760800
500.000000	12.631200
499.000000	12.489500
498.000000	12.357700
497.000000	12.217200
496.000000	12.101100
495.000000	11.947300
494.000000	11.800600
493.000000	11.675300
492.000000	11.550100
491.000000	11.418200
490.000000	11.272400
489.000000	11.149400
488.000000	10.972800
487.000000	10.816200
486.000000	10.669300
485.000000	10.522900
484.000000	10.394000
483.000000	10.246000
482.000000	10.068500
481.000000	9.870100
480.000000	9.697100
479.000000	9.555000
478.000000	9.420500
477.000000	9.285200
476.000000	9.148700
475.000000	9.032100
474.000000	8.913200
473.000000	8.783900
472.000000	8.670800
471.000000	8.548500
470.000000	8.444900
469.000000	8.352400
468.000000	8.256300
467.000000	8.160800
466.000000	8.078600
465.000000	8.010000
464.000000	7.948400
463.000000	7.876400
462.000000	7.819600
461.000000	7.760700
460.000000	7.679300
459.000000	7.636400
458.000000	7.584800
457.000000	7.527300
456.000000	7.487600
455.000000	7.434000
454.000000	7.390000
453.000000	7.340100
452.000000	7.283800
451.000000	7.214500
450.000000	7.154700
449.000000	7.109700
448.000000	7.046900
447.000000	6.993400
446.000000	6.932300
445.000000	6.893400
444.000000	6.849800
443.000000	6.775700
442.000000	6.726400
441.000000	6.682100
440.000000	6.628900
439.000000	6.585400
438.000000	6.535300
437.000000	6.502700
436.000000	6.459700
435.000000	6.412500
434.000000	6.363600
433.000000	6.325100
432.000000	6.285900
431.000000	6.264100
430.000000	6.207300
429.000000	6.167000
428.000000	6.141800
427.000000	6.127400
426.000000	6.058400
425.000000	6.035700
424.000000	6.004400
423.000000	5.975200
422.000000	5.943600
421.000000	5.920000
420.000000	5.889900
419.000000	5.855600
418.000000	5.822900
417.000000	5.785500
416.000000	5.776100
415.000000	5.746500
414.000000	5.718500
413.000000	5.676700
412.000000	5.656500
411.000000	5.621300
410.000000	5.588400
409.000000	5.564800
408.000000	5.544400
407.000000	5.523300
406.000000	5.503700
405.000000	5.478600
404.000000	5.441900
403.000000	5.427000
402.000000	5.408200
401.000000	5.378200
400.000000	5.353000
399.000000	5.342800
398.000000	5.292100
397.000000	5.259800
396.000000	5.234900
395.000000	5.189600
394.000000	5.138700
393.000000	5.115300
392.000000	5.082700
391.000000	5.047200
390.000000	4.999500
389.000000	4.958600
388.000000	4.912600
387.000000	4.844400
386.000000	4.796100
385.000000	4.767100
384.000000	4.692200
383.000000	4.633800
382.000000	4.591300
381.000000	4.527700
380.000000	4.477800
379.000000	4.416900
378.000000	4.352800
377.000000	4.300700
376.000000	4.208800
375.000000	3.998400
374.000000	3.886900
373.000000	3.954600
372.000000	3.822300
371.000000	3.872900
370.000000	3.876400
369.000000	3.775900
368.000000	3.755200
367.000000	3.730500
366.000000	3.700700
365.000000	3.635600
364.000000	3.569200
363.000000	3.525800
362.000000	3.447100
361.000000	3.459200
360.000000	3.498600
359.000000	3.422200
358.000000	3.405900
357.000000	3.429800
356.000000	3.412200
355.000000	3.294400
354.000000	3.273100
353.000000	3.279900
352.000000	3.284600
351.000000	3.347200
350.000000	3.282400
349.000000	3.221000
348.000000	3.153900
347.000000	3.109100
346.000000	3.230700
345.000000	3.236600
344.000000	3.132700
343.000000	3.112600
342.000000	3.122000
341.000000	3.139700
340.000000	3.115000
339.000000	3.035200
338.000000	2.948700
337.000000	2.914500
336.000000	2.986500
335.000000	2.960600
334.000000	2.979700
333.000000	3.043400
332.000000	3.006600
331.000000	3.152300
330.000000	3.219200
329.000000	2.997200
328.000000	3.040800
327.000000	3.190000
326.000000	3.114100
325.000000	3.022800
324.000000	3.101900
323.000000	3.263400
322.000000	3.147500
321.000000	3.077000
320.000000	3.069800
319.000000	2.974100
318.000000	3.120400
317.000000	3.323100
316.000000	3.111700
315.000000	2.846300
314.000000	2.773900
313.000000	2.797200
312.000000	2.804800
311.000000	2.777900
310.000000	2.803900
309.000000	2.809500
308.000000	2.782800
307.000000	2.766500
306.000000	2.792600
305.000000	2.798100
304.000000	2.776900
303.000000	2.770000
302.000000	2.776100
301.000000	2.791400
300.000000	2.775000
299.000000	2.778800
298.000000	2.790700
297.000000	2.754700
296.000000	2.730100
295.000000	2.778100
294.000000	2.779000
293.000000	2.736000
292.000000	2.754100
291.000000	2.762800
290.000000	2.719200
289.000000	2.683800
288.000000	2.706700
287.000000	2.726700
286.000000	2.710900
285.000000	2.698100
284.000000	2.710800
283.000000	2.733400
282.000000	2.752900
281.000000	2.754700
280.000000	2.765700
279.000000	2.761000
278.000000	2.770500
277.000000	2.771800
276.000000	2.745300
275.000000	2.754900
274.000000	2.757900
273.000000	2.806500
272.000000	2.788000
271.000000	2.795200
270.000000	2.838300
269.000000	2.834500
268.000000	2.809000
267.000000	2.810200
266.000000	2.829200
265.000000	2.838100
264.000000	2.862200
263.000000	2.856600
262.000000	2.878400
261.000000	2.883100
260.000000	2.881500
259.000000	2.911900
258.000000	2.917200
257.000000	2.934600
256.000000	2.914700
255.000000	2.885700
254.000000	2.925900
253.000000	2.908200
252.000000	2.874200
251.000000	2.896700
250.000000	2.884400
