PE UV       SUBTECH     SPECTRUM    ASCII       PEDS        4.00        
   -1
CICIMAUCR0113-1.Sample.ASC
24/04/18
14:46:15.00
24/04/18
14:46:15.00
Vinicio Soto Monge
C. kalinini
250,000000
1
Lambda 1050
1050L1511233
PerkinElmer UV WinLab 6.3.2.0749 / 2.02.05 Lambda 900 UV/VIS/NIR, Aug  7 2015 09:38:08

0
0
3350/servo 860,8/2
0
0
UV/VIS
1
1
1
DoubleDePol,CommonBeamDepol,RBeamAtt,SBeamAtt,60mm sphere, WB InGaAs Detector
0
0
0
0
Program
Program
3350/servo 860,8/2
3350/0,2 860,8/0,2
3350/0,2 860,8/0,2
0
15.00
 
 
 
0
 
860,8
319,2
860,8
Front
100
on
S:100 R:100
0
0
0
0
 
0
 
 
 
0
 
 
0
0
0
0
0
 
 
 
 
0
0


0
0
#HDR
-1
-1
#GR
nm
%R
1.0
0.0
2500,000000
-1,000000
2251
8
90,738500
4,918600
#DATA
2482.000000	7.708141
2481.000000	7.746629
2480.000000	7.673581
2479.000000	7.682670
2478.000000	7.758299
2477.000000	7.779506
2476.000000	7.752127
2475.000000	7.711844
2474.000000	7.706571
2473.000000	7.722953
2472.000000	7.768509
2471.000000	7.735969
2470.000000	7.705448
2469.000000	7.788483
2468.000000	7.780965
2467.000000	7.800713
2466.000000	7.844026
2465.000000	7.893061
2464.000000	7.890368
2463.000000	7.893958
2462.000000	7.924254
2461.000000	7.971045
2460.000000	8.014806
2459.000000	8.026925
2458.000000	8.084151
2457.000000	8.156750
2456.000000	8.202643
2455.000000	8.231256
2454.000000	8.277822
2453.000000	8.336732
2452.000000	8.388123
2451.000000	8.416063
2450.000000	8.479124
2449.000000	8.515928
2448.000000	8.574837
2447.000000	8.630381
2446.000000	8.693890
2445.000000	8.726992
2444.000000	8.800264
2443.000000	8.829999
2442.000000	8.875555
2441.000000	8.939739
2440.000000	8.994047
2439.000000	9.036350
2438.000000	9.102553
2437.000000	9.133859
2436.000000	9.172907
2435.000000	9.194788
2434.000000	9.237651
2433.000000	9.298580
2432.000000	9.350533
2431.000000	9.381502
2430.000000	9.406412
2429.000000	9.447144
2428.000000	9.479572
2427.000000	9.519182
2426.000000	9.540052
2425.000000	9.553742
2424.000000	9.568441
2423.000000	9.530851
2422.000000	9.463302
2421.000000	9.404280
2420.000000	9.367027
2419.000000	9.385429
2418.000000	9.395640
2417.000000	9.418531
2416.000000	9.413481
2415.000000	9.376116
2414.000000	9.353787
2413.000000	9.373311
2412.000000	9.385990
2411.000000	9.348289
2410.000000	9.315187
2409.000000	9.317992
2408.000000	9.352328
2407.000000	9.356255
2406.000000	9.308679
2405.000000	9.280403
2404.000000	9.293194
2403.000000	9.297234
2402.000000	9.283881
2401.000000	9.286686
2400.000000	9.300263
2399.000000	9.266489
2398.000000	9.259532
2397.000000	9.255941
2396.000000	9.283657
2395.000000	9.301161
2394.000000	9.292633
2393.000000	9.264245
2392.000000	9.269967
2391.000000	9.261439
2390.000000	9.232377
2389.000000	9.239559
2388.000000	9.232041
2387.000000	9.216781
2386.000000	9.227328
2385.000000	9.210609
2384.000000	9.185474
2383.000000	9.168643
2382.000000	9.146987
2381.000000	9.125555
2380.000000	9.089761
2379.000000	9.083253
2378.000000	9.081233
2377.000000	9.055650
2376.000000	9.027822
2375.000000	9.013459
2374.000000	8.968015
2373.000000	8.930537
2372.000000	8.913370
2371.000000	8.896763
2370.000000	8.865232
2369.000000	8.821471
2368.000000	8.791287
2367.000000	8.772212
2366.000000	8.730582
2365.000000	8.664380
2364.000000	8.625892
2363.000000	8.597504
2362.000000	8.546449
2361.000000	8.483724
2360.000000	8.445461
2359.000000	8.426723
2358.000000	8.375219
2357.000000	8.329326
2356.000000	8.301835
2355.000000	8.266265
2354.000000	8.246629
2353.000000	8.239335
2352.000000	8.240457
2351.000000	8.246741
2350.000000	8.245170
2349.000000	8.242365
2348.000000	8.246741
2347.000000	8.271988
2346.000000	8.293307
2345.000000	8.315524
2344.000000	8.332580
2343.000000	8.349299
2342.000000	8.352441
2341.000000	8.371516
2340.000000	8.391040
2339.000000	8.395753
2338.000000	8.397324
2337.000000	8.382288
2336.000000	8.374321
2335.000000	8.369160
2334.000000	8.356593
2333.000000	8.328204
2332.000000	8.301723
2331.000000	8.272100
2330.000000	8.256278
2329.000000	8.240457
2328.000000	8.210610
2327.000000	8.166736
2326.000000	8.131727
2325.000000	8.075623
2324.000000	8.037585
2323.000000	7.978339
2322.000000	7.935026
2321.000000	7.906077
2320.000000	7.859061
2319.000000	7.799928
2318.000000	7.742814
2317.000000	7.688729
2316.000000	7.608164
2315.000000	7.557446
2314.000000	7.492477
2313.000000	7.442320
2312.000000	7.397213
2311.000000	7.352329
2310.000000	7.328317
2309.000000	7.305875
2308.000000	7.291176
2307.000000	7.285341
2306.000000	7.272213
2305.000000	7.286575
2304.000000	7.309802
2303.000000	7.341782
2302.000000	7.381279
2301.000000	7.433568
2300.000000	7.488887
2299.000000	7.522998
2298.000000	7.583029
2297.000000	7.637226
2296.000000	7.698267
2295.000000	7.773334
2294.000000	7.811036
2293.000000	7.842455
2292.000000	7.865121
2291.000000	7.888572
2290.000000	7.904394
2289.000000	7.926611
2288.000000	7.923581
2287.000000	7.911126
2286.000000	7.927845
2285.000000	7.915053
2284.000000	7.900803
2283.000000	7.888348
2282.000000	7.854685
2281.000000	7.855807
2280.000000	7.807558
2279.000000	7.801611
2278.000000	7.779057
2277.000000	7.744609
2276.000000	7.733613
2275.000000	7.721943
2274.000000	7.725983
2273.000000	7.709600
2272.000000	7.714088
2271.000000	7.733837
2270.000000	7.766826
2269.000000	7.789941
2268.000000	7.832805
2267.000000	7.861530
2266.000000	7.939178
2265.000000	8.016153
2264.000000	8.103226
2263.000000	8.199052
2262.000000	8.293307
2261.000000	8.446135
2260.000000	8.577306
2259.000000	8.696135
2258.000000	8.887786
2257.000000	9.030515
2256.000000	9.193553
2255.000000	9.351991
2254.000000	9.502014
2253.000000	9.626228
2252.000000	9.799365
2251.000000	9.955896
2250.000000	10.074612
2249.000000	10.206008
2248.000000	10.361977
2247.000000	10.454212
2246.000000	10.587179
2245.000000	10.685025
2244.000000	10.768844
2243.000000	10.888795
2242.000000	10.944899
2241.000000	11.030514
2240.000000	11.120168
2239.000000	11.207915
2238.000000	11.258296
2237.000000	11.328763
2236.000000	11.441532
2235.000000	11.447704
2234.000000	11.498646
2233.000000	11.549140
2232.000000	11.592340
2231.000000	11.640477
2230.000000	11.664827
2229.000000	11.684126
2228.000000	11.698489
2227.000000	11.724297
2226.000000	11.724746
2225.000000	11.724634
2224.000000	11.702865
2223.000000	11.705895
2222.000000	11.695908
2221.000000	11.704212
2220.000000	11.682219
2219.000000	11.678067
2218.000000	11.662246
2217.000000	11.665500
2216.000000	11.630715
2215.000000	11.612986
2214.000000	11.589423
2213.000000	11.605132
2212.000000	11.555760
2211.000000	11.564512
2210.000000	11.530065
2209.000000	11.523220
2208.000000	11.493260
2207.000000	11.502012
2206.000000	11.480469
2205.000000	11.468911
2204.000000	11.454324
2203.000000	11.470033
2202.000000	11.492363
2201.000000	11.457802
2200.000000	11.456456
2199.000000	11.442879
2198.000000	11.426721
2197.000000	11.430648
2196.000000	11.427057
2195.000000	11.418305
2194.000000	11.399566
2193.000000	11.387224
2192.000000	11.402596
2191.000000	11.391375
2190.000000	11.378022
2189.000000	11.381613
2188.000000	11.368934
2187.000000	11.351766
2186.000000	11.345258
2185.000000	11.316196
2184.000000	11.296896
2183.000000	11.276362
2182.000000	11.285900
2181.000000	11.279279
2180.000000	11.238660
2179.000000	11.238884
2178.000000	11.211393
2177.000000	11.218238
2176.000000	11.207690
2175.000000	11.196021
2174.000000	11.192879
2173.000000	11.199275
2172.000000	11.184688
2171.000000	11.193777
2170.000000	11.206456
2169.000000	11.208588
2168.000000	11.224185
2167.000000	11.202417
2166.000000	11.203202
2165.000000	11.236752
2164.000000	11.254706
2163.000000	11.229347
2162.000000	11.246739
2161.000000	11.274342
2160.000000	11.281187
2159.000000	11.296559
2158.000000	11.328426
2157.000000	11.320011
2156.000000	11.328314
2155.000000	11.367138
2154.000000	11.407421
2153.000000	11.415276
2152.000000	11.439288
2151.000000	11.464872
2150.000000	11.507062
2149.000000	11.544764
2148.000000	11.557331
2147.000000	11.580558
2146.000000	11.609396
2145.000000	11.651810
2144.000000	11.684575
2143.000000	11.693327
2142.000000	11.712627
2141.000000	11.733498
2140.000000	11.748085
2139.000000	11.777708
2138.000000	11.796559
2137.000000	11.799028
2136.000000	11.823938
2135.000000	11.864782
2134.000000	11.877798
2133.000000	11.884306
2132.000000	11.924252
2131.000000	11.954997
2130.000000	11.955558
2129.000000	11.968125
2128.000000	11.966442
2127.000000	11.979346
2126.000000	11.994382
2125.000000	12.000217
2124.000000	12.017497
2123.000000	12.016150
2122.000000	12.011774
2121.000000	12.024903
2120.000000	12.013009
2119.000000	12.011662
2118.000000	12.020527
2117.000000	12.028044
2116.000000	12.015365
2115.000000	12.005154
2114.000000	12.011774
2113.000000	11.996514
2112.000000	11.991016
2111.000000	11.983498
2110.000000	11.972838
2109.000000	11.969023
2108.000000	11.963076
2107.000000	11.953538
2106.000000	11.943552
2105.000000	11.939400
2104.000000	11.949948
2103.000000	11.953650
2102.000000	11.934687
2101.000000	11.923915
2100.000000	11.916846
2099.000000	11.917856
2098.000000	11.927169
2097.000000	11.918754
2096.000000	11.904615
2095.000000	11.919427
2094.000000	11.935024
2093.000000	11.916510
2092.000000	11.914939
2091.000000	11.933229
2090.000000	11.932331
2089.000000	11.936931
2088.000000	11.934351
2087.000000	11.941869
2086.000000	11.963076
2085.000000	11.981590
2084.000000	11.978673
2083.000000	11.963974
2082.000000	11.966218
2081.000000	11.979571
2080.000000	11.975755
2079.000000	11.968238
2078.000000	11.965208
2077.000000	11.961617
2076.000000	11.948152
2075.000000	11.938727
2074.000000	11.948825
2073.000000	11.944001
2072.000000	11.950060
2071.000000	11.948040
2070.000000	11.941532
2069.000000	11.927394
2068.000000	11.926047
2067.000000	11.930199
2066.000000	11.914041
2065.000000	11.904615
2064.000000	11.900239
2063.000000	11.899678
2062.000000	11.893395
2061.000000	11.880491
2060.000000	11.885877
2059.000000	11.928628
2058.000000	11.940747
2057.000000	11.945571
2056.000000	11.976878
2055.000000	12.020414
2054.000000	12.044427
2053.000000	12.083700
2052.000000	12.140701
2051.000000	12.174588
2050.000000	12.264018
2049.000000	12.348511
2048.000000	12.440297
2047.000000	12.517160
2046.000000	12.605804
2045.000000	12.717676
2044.000000	12.830894
2043.000000	12.915611
2042.000000	13.024341
2041.000000	13.120391
2040.000000	13.245952
2039.000000	13.355580
2038.000000	13.452191
2037.000000	13.540947
2036.000000	13.628021
2035.000000	13.729682
2034.000000	13.808564
2033.000000	13.900575
2032.000000	13.993034
2031.000000	14.045211
2030.000000	14.141373
2029.000000	14.206342
2028.000000	14.293528
2027.000000	14.361302
2026.000000	14.407419
2025.000000	14.480354
2024.000000	14.528380
2023.000000	14.597275
2022.000000	14.646759
2021.000000	14.715543
2020.000000	14.766598
2019.000000	14.826853
2018.000000	14.862872
2017.000000	14.906521
2016.000000	14.947702
2015.000000	14.978671
2014.000000	15.021310
2013.000000	15.038815
2012.000000	15.070794
2011.000000	15.111301
2010.000000	15.117024
2009.000000	15.159775
2008.000000	15.177055
2007.000000	15.150013
2006.000000	15.185246
2005.000000	15.178402
2004.000000	15.165049
2003.000000	15.178626
2002.000000	15.181992
2001.000000	15.143168
2000.000000	15.146198
1999.000000	15.120278
1998.000000	15.101763
1997.000000	15.100417
1996.000000	15.071018
1995.000000	15.041844
1994.000000	15.014017
1993.000000	14.960157
1992.000000	14.925933
1991.000000	14.882509
1990.000000	14.839757
1989.000000	14.790610
1988.000000	14.757172
1987.000000	14.703873
1986.000000	14.636885
1985.000000	14.598958
1984.000000	14.561144
1983.000000	14.499542
1982.000000	14.441979
1981.000000	14.399003
1980.000000	14.334708
1979.000000	14.280960
1978.000000	14.241014
1977.000000	14.165162
1976.000000	14.108721
1975.000000	14.047792
1974.000000	14.005938
1973.000000	13.942765
1972.000000	13.903492
1971.000000	13.833362
1970.000000	13.790386
1969.000000	13.752572
1968.000000	13.702752
1967.000000	13.640813
1966.000000	13.616688
1965.000000	13.539489
1964.000000	13.483497
1963.000000	13.470930
1962.000000	13.395526
1961.000000	13.349296
1960.000000	13.266598
1959.000000	13.252797
1958.000000	13.199161
1957.000000	13.166733
1956.000000	13.133520
1955.000000	13.093125
1954.000000	13.020189
1953.000000	13.072142
1952.000000	13.069673
1951.000000	13.048915
1950.000000	12.998758
1949.000000	12.971715
1948.000000	12.950171
1947.000000	12.928852
1946.000000	12.907869
1945.000000	12.879592
1944.000000	12.854009
1943.000000	12.825171
1942.000000	12.837290
1941.000000	12.839197
1940.000000	12.852550
1939.000000	12.866352
1938.000000	12.888120
1937.000000	12.904503
1936.000000	12.913591
1935.000000	12.965768
1934.000000	12.998309
1933.000000	13.009305
1932.000000	13.084597
1931.000000	13.149229
1930.000000	13.205557
1929.000000	13.272209
1928.000000	13.351091
1927.000000	13.429749
1926.000000	13.537132
1925.000000	13.637895
1924.000000	13.743708
1923.000000	13.838299
1922.000000	13.957015
1921.000000	14.093909
1920.000000	14.225866
1919.000000	14.375103
1918.000000	14.531746
1917.000000	14.700058
1916.000000	14.829995
1915.000000	14.985403
1914.000000	15.182553
1913.000000	15.365453
1912.000000	15.552840
1911.000000	15.763006
1910.000000	15.950394
1909.000000	16.132283
1908.000000	16.330106
1907.000000	16.526359
1906.000000	16.740003
1905.000000	16.963409
1904.000000	17.210492
1903.000000	17.430308
1902.000000	17.672116
1901.000000	17.897430
1900.000000	18.151806
1899.000000	18.417740
1898.000000	18.647879
1897.000000	18.911007
1896.000000	19.160558
1895.000000	19.393390
1894.000000	19.642604
1893.000000	19.877456
1892.000000	20.141594
1891.000000	20.401468
1890.000000	20.633403
1889.000000	20.856921
1888.000000	21.140135
1887.000000	21.442424
1886.000000	21.721598
1885.000000	22.047338
1884.000000	22.417064
1883.000000	22.813047
1882.000000	23.214640
1881.000000	23.608603
1880.000000	24.030281
1879.000000	24.412126
1878.000000	24.776690
1877.000000	25.115671
1876.000000	25.421663
1875.000000	25.673682
1874.000000	25.921438
1873.000000	26.149894
1872.000000	26.347044
1871.000000	26.542398
1870.000000	26.713628
1869.000000	26.855234
1868.000000	27.022986
1867.000000	27.152137
1866.000000	27.226419
1865.000000	27.325723
1864.000000	27.413358
1863.000000	27.476643
1862.000000	27.540602
1861.000000	27.570562
1860.000000	27.566298
1859.000000	27.526127
1858.000000	27.492914
1857.000000	27.491567
1856.000000	27.478663
1855.000000	27.445562
1854.000000	27.413134
1853.000000	27.335373
1852.000000	27.256491
1851.000000	27.231693
1850.000000	27.219126
1849.000000	27.160890
1848.000000	27.039817
1847.000000	26.911563
1846.000000	26.800140
1845.000000	26.744822
1844.000000	26.731693
1843.000000	26.739323
1842.000000	26.733489
1841.000000	26.665490
1840.000000	26.577631
1839.000000	26.499310
1838.000000	26.440176
1837.000000	26.389795
1836.000000	26.328417
1835.000000	26.260307
1834.000000	26.177834
1833.000000	26.117802
1832.000000	26.073592
1831.000000	26.017039
1830.000000	25.939503
1829.000000	25.854225
1828.000000	25.751891
1827.000000	25.658758
1826.000000	25.590087
1825.000000	25.526802
1824.000000	25.482031
1823.000000	25.459701
1822.000000	25.476420
1821.000000	25.448032
1820.000000	25.366344
1819.000000	25.302497
1818.000000	25.284769
1817.000000	25.283085
1816.000000	25.283647
1815.000000	25.276129
1814.000000	25.262551
1813.000000	25.257951
1812.000000	25.235397
1811.000000	25.197471
1810.000000	25.138561
1809.000000	25.108377
1808.000000	25.083692
1807.000000	25.037574
1806.000000	24.985397
1805.000000	24.932098
1804.000000	24.889908
1803.000000	24.856694
1802.000000	24.819666
1801.000000	24.765245
1800.000000	24.697695
1799.000000	24.635195
1798.000000	24.602655
1797.000000	24.570227
1796.000000	24.533871
1795.000000	24.492242
1794.000000	24.434567
1793.000000	24.399109
1792.000000	24.338966
1791.000000	24.279495
1790.000000	24.243140
1789.000000	24.184455
1788.000000	24.125770
1787.000000	24.058670
1786.000000	23.998638
1785.000000	23.952745
1784.000000	23.857256
1783.000000	23.792400
1782.000000	23.713405
1781.000000	23.640806
1780.000000	23.562149
1779.000000	23.477768
1778.000000	23.401579
1777.000000	23.312149
1776.000000	23.218118
1775.000000	23.114438
1774.000000	22.988091
1773.000000	22.861408
1772.000000	22.728666
1771.000000	22.620722
1770.000000	22.505708
1769.000000	22.394510
1768.000000	22.266368
1767.000000	22.168186
1766.000000	22.099739
1765.000000	22.049582
1764.000000	21.999201
1763.000000	21.968680
1762.000000	22.002006
1761.000000	22.044421
1760.000000	22.111633
1759.000000	22.187823
1758.000000	22.252791
1757.000000	22.314057
1756.000000	22.359501
1755.000000	22.412015
1754.000000	22.463294
1753.000000	22.462508
1752.000000	22.438945
1751.000000	22.401579
1750.000000	22.377006
1749.000000	22.321799
1748.000000	22.258065
1747.000000	22.194667
1746.000000	22.074717
1745.000000	21.942423
1744.000000	21.807100
1743.000000	21.642715
1742.000000	21.443097
1741.000000	21.226647
1740.000000	21.011544
1739.000000	20.807662
1738.000000	20.593456
1737.000000	20.424583
1736.000000	20.292065
1735.000000	20.202748
1734.000000	20.161455
1733.000000	20.153600
1732.000000	20.189844
1731.000000	20.270072
1730.000000	20.376670
1729.000000	20.484278
1728.000000	20.595701
1727.000000	20.694332
1726.000000	20.802164
1725.000000	20.867244
1724.000000	20.882841
1723.000000	20.937936
1722.000000	20.940068
1721.000000	20.942761
1720.000000	20.962285
1719.000000	20.982258
1718.000000	21.007168
1717.000000	21.038362
1716.000000	21.082460
1715.000000	21.151917
1714.000000	21.204991
1713.000000	21.273999
1712.000000	21.320566
1711.000000	21.337958
1710.000000	21.356472
1709.000000	21.369601
1708.000000	21.345700
1707.000000	21.289708
1706.000000	21.274897
1705.000000	21.232707
1704.000000	21.196127
1703.000000	21.077747
1702.000000	20.994601
1701.000000	20.878129
1700.000000	20.721598
1699.000000	20.548573
1698.000000	20.403600
1697.000000	20.310019
1696.000000	20.223843
1695.000000	20.178511
1694.000000	20.220252
1693.000000	20.306765
1692.000000	20.430418
1691.000000	20.561253
1690.000000	20.713183
1689.000000	20.847384
1688.000000	20.883739
1687.000000	20.879812
1686.000000	20.887779
1685.000000	20.881495
1684.000000	20.947361
1683.000000	21.100637
1682.000000	21.389910
1681.000000	21.808110
1680.000000	22.321575
1679.000000	22.809119
1678.000000	23.343679
1677.000000	23.844015
1676.000000	24.281627
1675.000000	24.669868
1674.000000	25.025119
1673.000000	25.311362
1672.000000	25.586048
1671.000000	25.761092
1670.000000	25.968902
1669.000000	26.151913
1668.000000	26.293632
1667.000000	26.440737
1666.000000	26.547335
1665.000000	26.652474
1664.000000	26.730234
1663.000000	26.801823
1662.000000	26.881042
1661.000000	26.934229
1660.000000	26.994934
1659.000000	27.043295
1658.000000	27.057434
1657.000000	27.080773
1656.000000	27.103888
1655.000000	27.110059
1654.000000	27.131715
1653.000000	27.116006
1652.000000	27.099624
1651.000000	27.100521
1650.000000	27.057209
1649.000000	27.058107
1648.000000	27.034767
1647.000000	26.990445
1646.000000	26.961832
1645.000000	26.919530
1644.000000	26.871841
1643.000000	26.835149
1642.000000	26.798681
1641.000000	26.770181
1640.000000	26.713067
1639.000000	26.655728
1638.000000	26.595472
1637.000000	26.548345
1636.000000	26.501891
1635.000000	26.448480
1634.000000	26.401016
1633.000000	26.343677
1632.000000	26.279606
1631.000000	26.224400
1630.000000	26.157075
1629.000000	26.093341
1628.000000	26.021191
1627.000000	25.964526
1626.000000	25.905280
1625.000000	25.836384
1624.000000	25.776465
1623.000000	25.712170
1622.000000	25.647538
1621.000000	25.595136
1620.000000	25.529607
1619.000000	25.468341
1618.000000	25.420092
1617.000000	25.343902
1616.000000	25.284993
1615.000000	25.229562
1614.000000	25.167848
1613.000000	25.113876
1612.000000	25.068095
1611.000000	25.005595
1610.000000	24.957345
1609.000000	24.888786
1608.000000	24.853328
1607.000000	24.793633
1606.000000	24.730124
1605.000000	24.669082
1604.000000	24.600186
1603.000000	24.544531
1602.000000	24.494599
1601.000000	24.438270
1600.000000	24.390806
1599.000000	24.333916
1598.000000	24.267153
1597.000000	24.198032
1596.000000	24.166053
1595.000000	24.121619
1594.000000	24.075613
1593.000000	24.029720
1592.000000	23.993140
1591.000000	23.943769
1590.000000	23.901354
1589.000000	23.866794
1588.000000	23.834029
1587.000000	23.804630
1586.000000	23.757503
1585.000000	23.728778
1584.000000	23.706560
1583.000000	23.661902
1582.000000	23.627790
1581.000000	23.620385
1580.000000	23.602319
1579.000000	23.583244
1578.000000	23.595923
1577.000000	23.585376
1576.000000	23.561587
1575.000000	23.561475
1574.000000	23.563607
1573.000000	23.567086
1572.000000	23.571574
1571.000000	23.585824
1570.000000	23.603217
1569.000000	23.610398
1568.000000	23.631718
1567.000000	23.658423
1566.000000	23.662575
1565.000000	23.675367
1564.000000	23.701287
1563.000000	23.726534
1562.000000	23.750434
1561.000000	23.776803
1560.000000	23.798796
1559.000000	23.811587
1558.000000	23.809343
1557.000000	23.812822
1556.000000	23.828980
1555.000000	23.827745
1554.000000	23.831112
1553.000000	23.844240
1552.000000	23.832458
1551.000000	23.812485
1550.000000	23.800591
1549.000000	23.818432
1548.000000	23.820901
1547.000000	23.803733
1546.000000	23.801489
1545.000000	23.803621
1544.000000	23.803733
1543.000000	23.807884
1542.000000	23.799020
1541.000000	23.806314
1540.000000	23.832570
1539.000000	23.834366
1538.000000	23.829877
1537.000000	23.851758
1536.000000	23.866120
1535.000000	23.881044
1534.000000	23.882952
1533.000000	23.887664
1532.000000	23.893724
1531.000000	23.913809
1530.000000	23.915941
1529.000000	23.910106
1528.000000	23.909769
1527.000000	23.912687
1526.000000	23.911340
1525.000000	23.939953
1524.000000	23.941300
1523.000000	23.939505
1522.000000	23.922786
1521.000000	23.921215
1520.000000	23.905730
1519.000000	23.916614
1518.000000	23.922337
1517.000000	23.920541
1516.000000	23.924357
1515.000000	23.915492
1514.000000	23.920878
1513.000000	23.912238
1512.000000	23.902925
1511.000000	23.885645
1510.000000	23.889348
1509.000000	23.882503
1508.000000	23.866457
1507.000000	23.842332
1506.000000	23.839639
1505.000000	23.828643
1504.000000	23.821686
1503.000000	23.826287
1502.000000	23.807772
1501.000000	23.802498
1500.000000	23.801713
1499.000000	23.796439
1498.000000	23.819330
1497.000000	23.830326
1496.000000	23.828306
1495.000000	23.840761
1494.000000	23.868701
1493.000000	23.875434
1492.000000	23.884635
1491.000000	23.901690
1490.000000	23.919868
1489.000000	23.947696
1488.000000	23.963068
1487.000000	23.983939
1486.000000	23.999087
1485.000000	24.016928
1484.000000	24.037799
1483.000000	24.054406
1482.000000	24.078755
1481.000000	24.120721
1480.000000	24.130371
1479.000000	24.185016
1478.000000	24.219801
1477.000000	24.243140
1476.000000	24.271416
1475.000000	24.313270
1474.000000	24.344127
1473.000000	24.409208
1472.000000	24.440514
1471.000000	24.473055
1470.000000	24.492018
1469.000000	24.550815
1468.000000	24.587507
1467.000000	24.623189
1466.000000	24.643162
1465.000000	24.690065
1464.000000	24.721820
1463.000000	24.818544
1462.000000	24.867466
1461.000000	24.943656
1460.000000	25.021304
1459.000000	25.086946
1458.000000	25.144396
1457.000000	25.219351
1456.000000	25.337282
1455.000000	25.411676
1454.000000	25.508848
1453.000000	25.587057
1452.000000	25.734611
1451.000000	25.825051
1450.000000	25.921101
1449.000000	25.995495
1448.000000	26.126667
1447.000000	26.274445
1446.000000	26.424131
1445.000000	26.518722
1444.000000	26.638673
1443.000000	26.753349
1442.000000	26.902362
1441.000000	27.056424
1440.000000	27.196684
1439.000000	27.329314
1438.000000	27.449938
1437.000000	27.585373
1436.000000	27.713627
1435.000000	27.873075
1434.000000	28.021077
1433.000000	28.159879
1432.000000	28.326957
1431.000000	28.465759
1430.000000	28.611629
1429.000000	28.791611
1428.000000	28.990444
1427.000000	29.185237
1426.000000	29.401799
1425.000000	29.652360
1424.000000	29.910439
1423.000000	30.130143
1422.000000	30.353437
1421.000000	30.607140
1420.000000	30.874532
1419.000000	31.148207
1418.000000	31.355232
1417.000000	31.555411
1416.000000	31.776686
1415.000000	32.054289
1414.000000	32.310348
1413.000000	32.497399
1412.000000	32.718000
1411.000000	32.983933
1410.000000	33.284876
1409.000000	33.615553
1408.000000	33.966989
1407.000000	34.286109
1406.000000	34.654152
1405.000000	35.016809
1404.000000	35.355229
1403.000000	35.750202
1402.000000	36.119367
1401.000000	36.537006
1400.000000	36.863980
1399.000000	37.046543
1398.000000	37.239990
1397.000000	37.491561
1396.000000	37.750874
1395.000000	37.932090
1394.000000	37.980227
1393.000000	38.102422
1392.000000	38.260748
1391.000000	38.404038
1390.000000	38.549908
1389.000000	38.784536
1388.000000	39.057314
1387.000000	39.292053
1386.000000	39.574706
1385.000000	39.942636
1384.000000	40.343444
1383.000000	40.663462
1382.000000	40.953520
1381.000000	41.122842
1380.000000	41.179732
1379.000000	41.290593
1378.000000	41.346585
1377.000000	41.418062
1376.000000	41.527577
1375.000000	41.698246
1374.000000	41.932424
1373.000000	42.259287
1372.000000	42.593555
1371.000000	42.951387
1370.000000	43.262203
1369.000000	43.573918
1368.000000	43.881032
1367.000000	44.108365
1366.000000	44.312248
1365.000000	44.541601
1364.000000	44.717656
1363.000000	44.865210
1362.000000	45.076946
1361.000000	45.146179
1360.000000	45.163010
1359.000000	45.177597
1358.000000	45.313032
1357.000000	45.481233
1356.000000	45.758387
1355.000000	46.176699
1354.000000	46.698355
1353.000000	47.219225
1352.000000	47.801698
1351.000000	48.384844
1350.000000	48.917833
1349.000000	49.391015
1348.000000	49.846355
1347.000000	50.250642
1346.000000	50.596131
1345.000000	50.972813
1344.000000	51.298666
1343.000000	51.591978
1342.000000	51.913230
1341.000000	52.207328
1340.000000	52.473261
1339.000000	52.729994
1338.000000	52.959459
1337.000000	53.182529
1336.000000	53.421084
1335.000000	53.632933
1334.000000	53.827053
1333.000000	54.019266
1332.000000	54.217650
1331.000000	54.383157
1330.000000	54.540809
1329.000000	54.687690
1328.000000	54.824696
1327.000000	54.959346
1326.000000	55.079858
1325.000000	55.192290
1324.000000	55.312577
1323.000000	55.415809
1322.000000	55.511522
1321.000000	55.620140
1320.000000	55.702837
1319.000000	55.778802
1318.000000	55.857348
1317.000000	55.923214
1316.000000	55.991437
1315.000000	56.053488
1314.000000	56.114529
1313.000000	56.167716
1312.000000	56.214395
1311.000000	56.257595
1310.000000	56.298999
1309.000000	56.323910
1308.000000	56.347473
1307.000000	56.367895
1306.000000	56.392020
1305.000000	56.395947
1304.000000	56.390113
1303.000000	56.377209
1302.000000	56.354430
1301.000000	56.329408
1300.000000	56.311679
1299.000000	56.294848
1298.000000	56.267245
1297.000000	56.223147
1296.000000	56.188474
1295.000000	56.175234
1294.000000	56.154139
1293.000000	56.110378
1292.000000	56.066953
1291.000000	56.020387
1290.000000	55.956203
1289.000000	55.900548
1288.000000	55.834570
1287.000000	55.746823
1286.000000	55.668389
1285.000000	55.597474
1284.000000	55.518255
1283.000000	55.437577
1282.000000	55.352187
1281.000000	55.265113
1280.000000	55.173776
1279.000000	55.093771
1278.000000	55.034525
1277.000000	54.968771
1276.000000	54.914014
1275.000000	54.852973
1274.000000	54.787331
1273.000000	54.742111
1272.000000	54.702726
1271.000000	54.666034
1270.000000	54.618457
1269.000000	54.572452
1268.000000	54.546532
1267.000000	54.499741
1266.000000	54.439261
1265.000000	54.399427
1264.000000	54.358920
1263.000000	54.320096
1262.000000	54.267134
1261.000000	54.228646
1260.000000	54.200370
1259.000000	54.149203
1258.000000	54.083561
1257.000000	54.042605
1256.000000	54.004342
1255.000000	53.933314
1254.000000	53.869131
1253.000000	53.817403
1252.000000	53.757035
1251.000000	53.671084
1250.000000	53.597363
1249.000000	53.490429
1248.000000	53.377659
1247.000000	53.282731
1246.000000	53.163678
1245.000000	53.046196
1244.000000	52.896174
1243.000000	52.759392
1242.000000	52.628333
1241.000000	52.474383
1240.000000	52.313028
1239.000000	52.158069
1238.000000	51.972476
1237.000000	51.814263
1236.000000	51.643257
1235.000000	51.455084
1234.000000	51.274541
1233.000000	51.084685
1232.000000	50.898195
1231.000000	50.692069
1230.000000	50.502325
1229.000000	50.302482
1228.000000	50.117563
1227.000000	49.912334
1226.000000	49.712379
1225.000000	49.512873
1224.000000	49.318416
1223.000000	49.117227
1222.000000	48.922994
1221.000000	48.721244
1220.000000	48.564265
1219.000000	48.387761
1218.000000	48.228538
1217.000000	48.053830
1216.000000	47.930401
1215.000000	47.770504
1214.000000	47.638884
1213.000000	47.501204
1212.000000	47.394943
1211.000000	47.271851
1210.000000	47.161214
1209.000000	47.022973
1208.000000	46.922547
1207.000000	46.854212
1206.000000	46.820998
1205.000000	46.756254
1204.000000	46.720235
1203.000000	46.682197
1202.000000	46.664243
1201.000000	46.636977
1200.000000	46.588727
1199.000000	46.529481
1198.000000	46.411887
1197.000000	46.254010
1196.000000	46.088279
1195.000000	45.839513
1194.000000	45.523198
1193.000000	45.152350
1192.000000	44.720124
1191.000000	44.255246
1190.000000	43.823805
1189.000000	43.429394
1188.000000	43.128563
1187.000000	42.994362
1186.000000	42.963056
1185.000000	43.016355
1184.000000	43.244138
1183.000000	43.583792
1182.000000	44.029259
1181.000000	44.550241
1180.000000	45.042947
1179.000000	45.508724
1178.000000	45.934217
1177.000000	46.311685
1176.000000	46.620146
1175.000000	46.900891
1174.000000	47.184665
1173.000000	47.482353
1172.000000	47.790365
1171.000000	48.116554
1170.000000	48.454188
1169.000000	48.774206
1168.000000	49.100283
1167.000000	49.421199
1166.000000	49.782509
1165.000000	50.120817
1164.000000	50.438029
1163.000000	50.788680
1162.000000	51.138657
1161.000000	51.430847
1160.000000	51.754343
1159.000000	52.044514
1158.000000	52.345793
1157.000000	52.588163
1156.000000	52.807417
1155.000000	52.965519
1154.000000	53.062018
1153.000000	53.125079
1152.000000	53.145949
1151.000000	53.105779
1150.000000	53.072790
1149.000000	53.045299
1148.000000	53.033741
1147.000000	53.044289
1146.000000	53.101515
1145.000000	53.258158
1144.000000	53.482462
1143.000000	53.697565
1142.000000	53.964284
1141.000000	54.239643
1140.000000	54.541819
1139.000000	54.828062
1138.000000	55.123170
1137.000000	55.448686
1136.000000	55.756697
1135.000000	56.095678
1134.000000	56.401894
1133.000000	56.593883
1132.000000	56.829295
1131.000000	57.036319
1130.000000	57.232908
1129.000000	57.396732
1128.000000	57.525659
1127.000000	57.603981
1126.000000	57.711027
1125.000000	57.763092
1124.000000	57.790583
1123.000000	57.856561
1122.000000	57.909524
1121.000000	57.931965
1120.000000	57.917603
1119.000000	57.920857
1118.000000	57.918164
1117.000000	57.901893
1116.000000	57.891458
1115.000000	57.844667
1114.000000	57.818523
1113.000000	57.782167
1112.000000	57.752769
1111.000000	57.740538
1110.000000	57.686342
1109.000000	57.639326
1108.000000	57.598931
1107.000000	57.546081
1106.000000	57.505462
1105.000000	57.459681
1104.000000	57.398191
1103.000000	57.351063
1102.000000	57.311903
1101.000000	57.263653
1100.000000	57.210803
1099.000000	57.122720
1098.000000	57.056517
1097.000000	56.996710
1096.000000	56.939708
1095.000000	56.872720
1094.000000	56.809996
1093.000000	56.723034
1092.000000	56.650211
1091.000000	56.585691
1090.000000	56.502994
1089.000000	56.403914
1088.000000	56.346351
1087.000000	56.262195
1086.000000	56.194085
1085.000000	56.116773
1084.000000	56.028129
1083.000000	55.958223
1082.000000	55.896958
1081.000000	55.818636
1080.000000	55.734817
1079.000000	55.642469
1078.000000	55.577052
1077.000000	55.503556
1076.000000	55.437353
1075.000000	55.370252
1074.000000	55.304835
1073.000000	55.233246
1072.000000	55.152007
1071.000000	55.075033
1070.000000	55.002995
1069.000000	54.920634
1068.000000	54.852860
1067.000000	54.778017
1066.000000	54.691954
1065.000000	54.625975
1064.000000	54.556855
1063.000000	54.469108
1062.000000	54.392807
1061.000000	54.307865
1060.000000	54.211591
1059.000000	54.134279
1058.000000	54.049674
1057.000000	53.954634
1056.000000	53.853646
1055.000000	53.759392
1054.000000	53.670074
1053.000000	53.572565
1052.000000	53.485379
1051.000000	53.398642
1050.000000	53.323463
1049.000000	53.244917
1048.000000	53.168279
1047.000000	53.085581
1046.000000	53.004118
1045.000000	52.922767
1044.000000	52.828064
1043.000000	52.750303
1042.000000	52.672319
1041.000000	52.595232
1040.000000	52.533068
1039.000000	52.449473
1038.000000	52.361726
1037.000000	52.292943
1036.000000	52.217763
1035.000000	52.121713
1034.000000	52.030824
1033.000000	51.959797
1032.000000	51.881475
1031.000000	51.788567
1030.000000	51.698576
1029.000000	51.625528
1028.000000	51.520726
1027.000000	51.428828
1026.000000	51.353199
1025.000000	51.259505
1024.000000	51.155152
1023.000000	51.072342
1022.000000	50.983698
1021.000000	50.877100
1020.000000	50.794963
1019.000000	50.697455
1018.000000	50.602751
1017.000000	50.535089
1016.000000	50.451045
1015.000000	50.358361
1014.000000	50.300013
1013.000000	50.233361
1012.000000	50.170188
1011.000000	50.119134
1010.000000	50.053267
1009.000000	49.998398
1008.000000	49.971243
1007.000000	49.937132
1006.000000	49.895615
1005.000000	49.853088
1004.000000	49.806297
1003.000000	49.751652
1002.000000	49.689825
1001.000000	49.634843
1000.000000	49.604210
999.000000	49.554839
998.000000	49.508160
997.000000	49.472927
996.000000	49.445997
995.000000	49.388097
994.000000	49.345346
993.000000	49.311683
992.000000	49.279031
991.000000	49.246490
990.000000	49.191621
989.000000	49.158968
988.000000	49.146850
987.000000	49.101854
986.000000	49.091419
985.000000	49.076158
984.000000	49.033856
983.000000	49.020728
982.000000	48.987626
981.000000	48.973264
980.000000	48.963950
979.000000	48.939377
978.000000	48.916150
977.000000	48.895952
976.000000	48.873510
975.000000	48.855333
974.000000	48.851630
973.000000	48.847478
972.000000	48.820436
971.000000	48.801922
970.000000	48.799453
969.000000	48.806073
968.000000	48.784754
967.000000	48.762649
966.000000	48.765678
965.000000	48.738075
964.000000	48.734260
963.000000	48.733138
962.000000	48.749969
961.000000	48.778358
960.000000	48.772635
959.000000	48.772299
958.000000	48.798443
957.000000	48.825934
956.000000	48.838165
955.000000	48.830423
954.000000	48.843551
953.000000	48.881926
952.000000	48.877999
951.000000	48.918730
950.000000	48.936347
949.000000	48.964960
948.000000	48.986167
947.000000	49.029143
946.000000	49.059776
945.000000	49.121266
944.000000	49.189825
943.000000	49.252774
942.000000	49.317069
941.000000	49.361392
940.000000	49.441059
939.000000	49.504120
938.000000	49.597814
937.000000	49.685561
936.000000	49.782621
935.000000	49.921759
934.000000	50.057643
933.000000	50.221019
932.000000	50.348824
931.000000	50.484371
930.000000	50.613859
929.000000	50.733698
928.000000	50.860269
927.000000	51.042270
926.000000	51.142023
925.000000	51.283967
924.000000	51.428940
923.000000	51.614083
922.000000	51.813589
921.000000	51.962377
920.000000	52.070995
919.000000	52.265788
918.000000	52.422543
917.000000	52.599720
916.000000	52.738521
915.000000	52.905599
914.000000	53.054612
913.000000	53.290361
912.000000	53.407394
911.000000	53.568525
910.000000	53.774764
909.000000	53.954073
908.000000	54.121039
907.000000	54.304836
906.000000	54.519602
905.000000	54.696554
904.000000	54.905486
903.000000	55.086478
902.000000	55.276558
901.000000	55.508493
900.000000	55.707887
899.000000	55.883829
898.000000	56.086365
897.000000	56.295633
896.000000	56.499740
895.000000	56.688923
894.000000	56.824022
893.000000	57.010512
892.000000	57.227634
891.000000	57.399201
890.000000	57.599492
889.000000	57.808761
888.000000	57.971014
887.000000	58.113181
886.000000	58.269375
885.000000	58.438922
884.000000	58.644599
883.000000	58.807975
882.000000	58.951152
881.000000	59.136745
880.000000	59.328396
879.000000	59.496260
878.000000	59.647292
877.000000	59.858692
876.000000	60.037440
875.000000	60.229877
874.000000	60.396281
873.000000	60.577049
872.000000	60.766232
871.000000	60.993790
870.000000	61.176577
869.000000	61.435105
868.000000	61.660980
867.000000	61.862618
866.000000	62.102631
865.000000	62.363067
864.000000	62.604539
863.000000	62.857680
862.000000	63.125633
861.000000	63.350499
860.000000	63.564592
859.000000	63.803371
858.000000	65.338267
857.000000	64.949900
856.000000	65.210700
855.000000	65.854200
854.000000	66.246100
853.000000	66.771300
852.000000	67.019400
851.000000	67.392700
850.000000	68.123100
849.000000	68.403000
848.000000	68.442500
847.000000	68.860900
846.000000	69.340700
845.000000	69.775600
844.000000	70.221900
843.000000	70.624200
842.000000	71.128000
841.000000	71.714400
840.000000	71.988900
839.000000	72.418200
838.000000	72.784500
837.000000	73.357500
836.000000	73.754800
835.000000	73.895700
834.000000	74.311500
833.000000	74.731600
832.000000	75.079200
831.000000	75.505200
830.000000	75.940200
829.000000	76.357200
828.000000	76.780700
827.000000	77.104200
826.000000	77.506600
825.000000	77.926200
824.000000	78.347800
823.000000	78.767700
822.000000	79.081400
821.000000	79.394600
820.000000	79.701100
819.000000	79.976400
818.000000	80.434400
817.000000	80.809800
816.000000	81.212500
815.000000	81.513500
814.000000	81.803900
813.000000	81.930900
812.000000	82.325000
811.000000	82.649600
810.000000	82.907800
809.000000	83.281100
808.000000	83.708700
807.000000	83.973500
806.000000	84.252600
805.000000	84.588900
804.000000	84.826500
803.000000	85.137100
802.000000	85.405300
801.000000	85.790200
800.000000	85.917300
799.000000	86.106000
798.000000	86.352900
797.000000	86.718800
796.000000	86.973700
795.000000	87.146300
794.000000	87.429100
793.000000	87.700100
792.000000	87.890400
791.000000	88.071100
790.000000	88.293700
789.000000	88.412700
788.000000	88.529800
787.000000	88.783800
786.000000	89.005600
785.000000	89.089800
784.000000	89.151200
783.000000	89.375700
782.000000	89.636600
781.000000	89.729000
780.000000	89.787200
779.000000	89.828200
778.000000	89.970800
777.000000	90.073600
776.000000	90.138800
775.000000	90.210500
774.000000	90.283900
773.000000	90.274000
772.000000	90.465500
771.000000	90.561500
770.000000	90.503300
769.000000	90.642300
768.000000	90.666400
767.000000	90.595600
766.000000	90.601900
765.000000	90.629400
764.000000	90.664400
763.000000	90.691800
762.000000	90.640800
761.000000	90.622100
760.000000	90.722400
759.000000	90.738500
758.000000	90.648400
757.000000	90.535000
756.000000	90.498400
755.000000	90.534200
754.000000	90.518900
753.000000	90.371000
752.000000	90.338300
751.000000	90.315100
750.000000	90.155000
749.000000	90.018200
748.000000	89.934500
747.000000	89.851900
746.000000	89.761700
745.000000	89.703900
744.000000	89.603600
743.000000	89.432500
742.000000	89.253600
741.000000	89.055800
740.000000	88.924300
739.000000	88.663900
738.000000	88.383800
737.000000	88.267400
736.000000	87.999700
735.000000	87.699800
734.000000	87.525400
733.000000	87.229400
732.000000	86.901300
731.000000	86.621200
730.000000	86.334600
729.000000	86.025700
728.000000	85.694300
727.000000	85.261800
726.000000	84.931800
725.000000	84.624400
724.000000	84.202600
723.000000	83.802400
722.000000	83.399300
721.000000	82.930300
720.000000	82.455100
719.000000	82.055200
718.000000	81.647700
717.000000	81.177700
716.000000	80.760800
715.000000	80.309100
714.000000	79.817600
713.000000	79.302400
712.000000	78.827200
711.000000	78.351000
710.000000	77.840200
709.000000	77.357600
708.000000	76.974200
707.000000	76.505700
706.000000	76.017200
705.000000	75.576800
704.000000	75.145700
703.000000	74.754100
702.000000	74.408700
701.000000	74.079100
700.000000	73.766500
699.000000	73.512700
698.000000	73.261800
697.000000	73.046200
696.000000	72.832500
695.000000	72.638600
694.000000	72.470100
693.000000	72.351800
692.000000	72.212500
691.000000	72.078500
690.000000	71.941700
689.000000	71.840300
688.000000	71.711200
687.000000	71.555300
686.000000	71.358500
685.000000	71.166200
684.000000	70.955800
683.000000	70.756400
682.000000	70.549300
681.000000	70.231800
680.000000	69.988300
679.000000	69.727900
678.000000	69.422900
677.000000	69.095200
676.000000	68.794500
675.000000	68.418600
674.000000	68.033900
673.000000	67.742100
672.000000	67.356700
671.000000	66.912800
670.000000	66.475700
669.000000	66.041700
668.000000	65.621700
667.000000	65.125700
666.000000	64.699100
665.000000	64.261700
664.000000	63.802100
663.000000	63.352600
662.000000	62.952700
661.000000	62.457200
660.000000	61.967400
659.000000	61.562300
658.000000	61.154200
657.000000	60.748900
656.000000	60.386800
655.000000	60.064700
654.000000	59.713200
653.000000	59.411200
652.000000	59.166800
651.000000	58.959700
650.000000	58.637000
649.000000	58.447800
648.000000	58.280800
647.000000	58.130800
646.000000	57.981300
645.000000	57.876500
644.000000	57.724900
643.000000	57.592600
642.000000	57.480500
641.000000	57.386300
640.000000	57.302900
639.000000	57.268400
638.000000	57.198400
637.000000	57.133400
636.000000	57.137200
635.000000	57.083700
634.000000	57.060200
633.000000	57.037100
632.000000	57.035200
631.000000	57.072200
630.000000	57.169400
629.000000	57.246700
628.000000	57.350000
627.000000	57.516300
626.000000	57.648200
625.000000	57.811600
624.000000	57.995500
623.000000	58.194300
622.000000	58.424100
621.000000	58.670700
620.000000	58.923100
619.000000	59.180200
618.000000	59.482600
617.000000	59.747800
616.000000	60.091800
615.000000	60.398600
614.000000	60.694700
613.000000	61.055100
612.000000	61.358400
611.000000	61.739800
610.000000	62.103300
609.000000	62.426600
608.000000	62.802100
607.000000	63.137300
606.000000	63.458400
605.000000	63.780400
604.000000	64.073700
603.000000	64.440100
602.000000	64.735600
601.000000	65.052800
600.000000	65.300000
599.000000	65.555500
598.000000	65.779400
597.000000	65.980200
596.000000	66.207500
595.000000	66.354100
594.000000	66.481900
593.000000	66.621100
592.000000	66.777500
591.000000	66.879300
590.000000	66.993900
589.000000	67.134800
588.000000	67.241200
587.000000	67.342800
586.000000	67.390200
585.000000	67.494800
584.000000	67.551400
583.000000	67.591600
582.000000	67.606900
581.000000	67.712600
580.000000	67.727700
579.000000	67.726100
578.000000	67.766900
577.000000	67.766100
576.000000	67.766900
575.000000	67.720000
574.000000	67.691300
573.000000	67.605700
572.000000	67.526900
571.000000	67.441900
570.000000	67.337800
569.000000	67.225600
568.000000	67.068800
567.000000	66.952100
566.000000	66.782200
565.000000	66.560500
564.000000	66.339500
563.000000	66.107300
562.000000	65.867100
561.000000	65.642200
560.000000	65.348800
559.000000	65.066300
558.000000	64.767100
557.000000	64.463400
556.000000	64.184200
555.000000	63.821100
554.000000	63.493600
553.000000	63.149500
552.000000	62.811500
551.000000	62.395400
550.000000	61.999900
549.000000	61.585200
548.000000	61.193200
547.000000	60.729000
546.000000	60.262200
545.000000	59.818900
544.000000	59.312200
543.000000	58.783000
542.000000	58.268900
541.000000	57.758000
540.000000	57.270100
539.000000	56.719500
538.000000	56.146300
537.000000	55.597000
536.000000	55.023700
535.000000	54.424100
534.000000	53.837900
533.000000	53.230700
532.000000	52.625300
531.000000	52.000800
530.000000	51.350000
529.000000	50.691300
528.000000	50.038600
527.000000	49.359300
526.000000	48.649300
525.000000	47.949500
524.000000	47.230000
523.000000	46.472900
522.000000	45.732300
521.000000	44.967600
520.000000	44.180600
519.000000	43.379100
518.000000	42.577900
517.000000	41.792100
516.000000	40.945400
515.000000	40.109700
514.000000	39.274600
513.000000	38.432000
512.000000	37.586100
511.000000	36.737100
510.000000	35.898200
509.000000	35.064300
508.000000	34.277300
507.000000	33.508200
506.000000	32.772600
505.000000	32.079200
504.000000	31.431900
503.000000	30.830700
502.000000	30.284600
501.000000	29.791600
500.000000	29.362300
499.000000	29.009600
498.000000	28.712600
497.000000	28.472600
496.000000	28.268300
495.000000	28.130000
494.000000	28.012000
493.000000	27.927800
492.000000	27.861300
491.000000	27.801800
490.000000	27.774700
489.000000	27.766700
488.000000	27.762700
487.000000	27.753700
486.000000	27.748100
485.000000	27.742100
484.000000	27.727800
483.000000	27.716400
482.000000	27.660900
481.000000	27.574600
480.000000	27.483600
479.000000	27.399100
478.000000	27.368900
477.000000	27.331200
476.000000	27.301800
475.000000	27.267600
474.000000	27.204500
473.000000	27.140000
472.000000	27.086200
471.000000	27.021500
470.000000	26.959500
469.000000	26.902400
468.000000	26.833000
467.000000	26.760900
466.000000	26.676200
465.000000	26.597500
464.000000	26.529900
463.000000	26.436600
462.000000	26.330500
461.000000	26.222000
460.000000	26.119100
459.000000	25.991200
458.000000	25.863700
457.000000	25.740300
456.000000	25.604100
455.000000	25.433000
454.000000	25.272000
453.000000	25.111300
452.000000	24.907300
451.000000	24.707900
450.000000	24.506100
449.000000	24.285000
448.000000	24.055300
447.000000	23.822700
446.000000	23.599200
445.000000	23.353900
444.000000	23.087400
443.000000	22.805300
442.000000	22.511300
441.000000	22.195100
440.000000	21.849900
439.000000	21.514400
438.000000	21.189500
437.000000	20.834400
436.000000	20.469300
435.000000	20.103000
434.000000	19.722300
433.000000	19.334700
432.000000	18.934700
431.000000	18.534200
430.000000	18.127000
429.000000	17.721000
428.000000	17.312900
427.000000	16.892300
426.000000	16.481500
425.000000	16.071900
424.000000	15.638900
423.000000	15.199800
422.000000	14.812600
421.000000	14.415400
420.000000	13.996700
419.000000	13.594600
418.000000	13.209700
417.000000	12.847500
416.000000	12.492400
415.000000	12.134000
414.000000	11.759800
413.000000	11.418300
412.000000	11.100800
411.000000	10.778900
410.000000	10.469400
409.000000	10.174600
408.000000	9.913800
407.000000	9.662300
406.000000	9.416100
405.000000	9.178200
404.000000	8.950600
403.000000	8.740800
402.000000	8.544400
401.000000	8.354700
400.000000	8.161700
399.000000	7.995800
398.000000	7.836900
397.000000	7.694400
396.000000	7.564800
395.000000	7.434200
394.000000	7.313100
393.000000	7.198800
392.000000	7.087500
391.000000	6.980200
390.000000	6.903400
389.000000	6.823300
388.000000	6.735800
387.000000	6.661000
386.000000	6.587200
385.000000	6.514700
384.000000	6.449800
383.000000	6.392500
382.000000	6.349200
381.000000	6.310300
380.000000	6.254600
379.000000	6.199300
378.000000	6.182000
377.000000	6.134300
376.000000	6.091100
375.000000	6.035200
374.000000	6.027400
373.000000	5.983500
372.000000	5.906000
371.000000	5.897800
370.000000	5.885000
369.000000	5.842400
368.000000	5.766200
367.000000	5.805300
366.000000	5.748300
365.000000	5.681200
364.000000	5.692300
363.000000	5.664000
362.000000	5.584800
361.000000	5.613500
360.000000	5.608800
359.000000	5.574500
358.000000	5.537300
357.000000	5.479300
356.000000	5.499400
355.000000	5.488400
354.000000	5.443100
353.000000	5.409100
352.000000	5.371600
351.000000	5.401500
350.000000	5.395600
349.000000	5.362000
348.000000	5.329000
347.000000	5.255700
346.000000	5.273000
345.000000	5.289500
344.000000	5.275300
343.000000	5.304700
342.000000	5.240900
341.000000	5.228700
340.000000	5.235400
339.000000	5.201500
338.000000	5.215700
337.000000	5.250800
336.000000	5.314400
335.000000	5.181900
334.000000	5.153500
333.000000	5.186100
332.000000	5.074200
331.000000	5.090100
330.000000	5.117500
329.000000	5.036300
328.000000	5.162300
327.000000	5.096000
326.000000	5.102200
325.000000	5.055600
324.000000	5.046500
323.000000	4.918600
322.000000	4.984000
321.000000	5.092700
320.000000	5.073500
319.000000	4.986100
318.000000	5.081700
317.000000	5.191800
316.000000	5.153600
315.000000	5.151500
314.000000	5.168600
313.000000	5.164900
312.000000	5.208200
311.000000	5.150300
310.000000	5.118500
309.000000	5.121000
308.000000	5.155700
307.000000	5.162900
306.000000	5.177900
305.000000	5.203300
304.000000	5.181400
303.000000	5.119200
302.000000	5.160500
301.000000	5.222200
300.000000	5.189800
299.000000	5.202500
298.000000	5.214100
297.000000	5.213800
296.000000	5.248700
295.000000	5.254400
294.000000	5.216200
293.000000	5.244400
292.000000	5.239900
291.000000	5.216500
290.000000	5.239100
289.000000	5.230900
288.000000	5.233200
287.000000	5.225500
286.000000	5.278800
285.000000	5.291400
284.000000	5.282300
283.000000	5.223100
282.000000	5.257500
281.000000	5.276800
280.000000	5.214000
279.000000	5.285500
278.000000	5.277000
277.000000	5.312500
276.000000	5.299600
275.000000	5.307100
274.000000	5.305000
273.000000	5.336000
272.000000	5.332500
271.000000	5.396800
270.000000	5.385300
269.000000	5.415300
268.000000	5.424100
267.000000	5.420900
266.000000	5.443000
265.000000	5.492000
264.000000	5.470900
263.000000	5.492600
262.000000	5.510200
261.000000	5.555800
260.000000	5.588700
259.000000	5.584300
258.000000	5.625400
257.000000	5.603000
256.000000	5.592200
255.000000	5.656600
254.000000	5.682600
253.000000	5.698700
252.000000	5.714000
251.000000	5.678000
250.000000	5.697100
