PE UV       SUBTECH     SPECTRUM    ASCII       PEDS        4.00        
   -1
CICIMAUCR0012-3.Sample.ASC
24/04/04
15:58:33.00
24/04/04
15:58:33.00
Vinicio Soto Monge
C. cupreomarginata
250,000000
1
Lambda 1050
1050L1511233
PerkinElmer UV WinLab 6.3.2.0749 / 2.02.05 Lambda 900 UV/VIS/NIR, Aug  7 2015 09:38:08

0
0
3350/servo 860,8/2
0
0
UV/VIS
1
1
1
DoubleDePol,CommonBeamDepol,RBeamAtt,SBeamAtt,60mm sphere, WB InGaAs Detector
0
0
0
0
Program
Program
3350/servo 860,8/2
3350/0,2 860,8/0,2
3350/0,2 860,8/0,2
0
15.00
 
 
 
0
 
860,8
319,2
860,8
Front
100
on
S:100 R:100
0
0
0
0
 
0
 
 
 
0
 
 
0
0
0
0
0
 
 
 
 
0
0


0
0
#HDR
-1
-1
#GR
nm
%R
1.0
0.0
2500,000000
-1,000000
2251
8
59,015000
5,370900
#DATA
250.000000	1.884537
251.000000	1.901069
252.000000	1.878938
253.000000	1.859575
254.000000	1.857826
255.000000	1.863886
256.000000	1.844812
257.000000	1.855414
258.000000	1.838505
259.000000	1.835339
260.000000	1.843054
261.000000	1.816703
262.000000	1.803109
263.000000	1.821274
264.000000	1.777194
265.000000	1.772744
266.000000	1.789135
267.000000	1.771190
268.000000	1.738900
269.000000	1.744982
270.000000	1.737367
271.000000	1.713473
272.000000	1.741740
273.000000	1.716612
274.000000	1.738527
275.000000	1.725227
276.000000	1.714496
277.000000	1.703397
278.000000	1.712633
279.000000	1.719619
280.000000	1.713503
281.000000	1.680566
282.000000	1.686491
283.000000	1.689445
284.000000	1.663225
285.000000	1.694032
286.000000	1.687661
287.000000	1.695006
288.000000	1.670032
289.000000	1.706049
290.000000	1.688455
291.000000	1.670834
292.000000	1.701857
293.000000	1.664073
294.000000	1.694277
295.000000	1.681089
296.000000	1.643398
297.000000	1.666686
298.000000	1.692154
299.000000	1.675537
300.000000	1.651527
301.000000	1.647266
302.000000	1.646337
303.000000	1.664115
304.000000	1.659903
305.000000	1.650812
306.000000	1.635286
307.000000	1.641037
308.000000	1.648049
309.000000	1.640032
310.000000	1.609970
311.000000	1.636227
312.000000	1.629706
313.000000	1.625599
314.000000	1.641052
315.000000	1.596639
316.000000	1.617076
317.000000	1.607693
318.000000	1.441663
319.000000	1.705961
320.000000	1.486792
321.000000	1.591111
322.000000	1.484267
323.000000	1.607068
324.000000	1.583187
325.000000	1.471696
326.000000	1.393793
327.000000	1.453706
328.000000	1.477108
329.000000	1.602531
330.000000	1.465964
331.000000	1.410475
332.000000	1.521319
333.000000	1.523735
334.000000	1.525272
335.000000	1.523036
336.000000	1.558824
337.000000	1.630055
338.000000	1.492058
339.000000	1.524351
340.000000	1.524946
341.000000	1.490354
342.000000	1.499655
343.000000	1.583901
344.000000	1.538218
345.000000	1.546910
346.000000	1.572509
347.000000	1.555320
348.000000	1.591459
349.000000	1.528906
350.000000	1.563675
351.000000	1.560686
352.000000	1.530728
353.000000	1.557540
354.000000	1.586105
355.000000	1.623474
356.000000	1.574592
357.000000	1.538891
358.000000	1.539930
359.000000	1.559710
360.000000	1.547374
361.000000	1.540495
362.000000	1.581796
363.000000	1.547721
364.000000	1.596844
365.000000	1.617407
366.000000	1.577431
367.000000	1.577383
368.000000	1.599883
369.000000	1.576317
370.000000	1.614228
371.000000	1.648986
372.000000	1.649275
373.000000	1.654689
374.000000	1.665058
375.000000	1.626636
376.000000	1.630593
377.000000	1.804101
378.000000	1.799894
379.000000	1.805577
380.000000	1.812112
381.000000	1.822554
382.000000	1.830443
383.000000	1.834997
384.000000	1.846168
385.000000	1.855852
386.000000	1.870141
387.000000	1.877728
388.000000	1.896900
389.000000	1.905867
390.000000	1.923453
391.000000	1.939467
392.000000	1.956565
393.000000	1.972822
394.000000	1.993524
395.000000	2.015179
396.000000	2.050485
397.000000	2.076369
398.000000	2.093258
399.000000	2.126165
400.000000	2.161820
401.000000	2.196932
402.000000	2.229072
403.000000	2.263862
404.000000	2.314546
405.000000	2.357378
406.000000	2.399905
407.000000	2.449596
408.000000	2.499054
409.000000	2.552645
410.000000	2.607314
411.000000	2.659794
412.000000	2.713224
413.000000	2.770635
414.000000	2.835563
415.000000	2.889102
416.000000	2.943332
417.000000	3.000976
418.000000	3.057312
419.000000	3.113850
420.000000	3.169550
421.000000	3.228262
422.000000	3.291835
423.000000	3.351190
424.000000	3.403601
425.000000	3.449018
426.000000	3.509711
427.000000	3.566241
428.000000	3.618390
429.000000	3.663948
430.000000	3.714005
431.000000	3.765956
432.000000	3.807232
433.000000	3.856590
434.000000	3.900428
435.000000	3.947674
436.000000	3.987279
437.000000	4.028626
438.000000	4.071561
439.000000	4.105516
440.000000	4.146377
441.000000	4.171228
442.000000	4.186380
443.000000	4.218735
444.000000	4.250107
445.000000	4.273784
446.000000	4.288688
447.000000	4.298446
448.000000	4.309503
449.000000	4.313392
450.000000	4.311865
451.000000	4.307899
452.000000	4.300045
453.000000	4.289947
454.000000	4.278991
455.000000	4.268937
456.000000	4.262138
457.000000	4.237479
458.000000	4.212659
459.000000	4.199373
460.000000	4.186277
461.000000	4.168125
462.000000	4.153534
463.000000	4.147135
464.000000	4.144515
465.000000	4.145062
466.000000	4.151486
467.000000	4.163637
468.000000	4.174366
469.000000	4.202240
470.000000	4.239295
471.000000	4.275409
472.000000	4.321097
473.000000	4.380569
474.000000	4.447357
475.000000	4.525685
476.000000	4.619741
477.000000	4.715504
478.000000	4.814528
479.000000	4.919116
480.000000	5.032261
481.000000	5.153524
482.000000	5.272591
483.000000	5.372802
484.000000	5.459701
485.000000	5.541389
486.000000	5.624118
487.000000	5.694995
488.000000	5.768441
489.000000	5.847042
490.000000	5.904747
491.000000	5.965263
492.000000	6.031693
493.000000	6.080454
494.000000	6.123374
495.000000	6.157588
496.000000	6.202131
497.000000	6.253541
498.000000	6.297487
499.000000	6.351719
500.000000	6.404767
501.000000	6.460508
502.000000	6.532042
503.000000	6.591659
504.000000	6.657795
505.000000	6.751315
506.000000	6.846311
507.000000	6.963047
508.000000	7.094974
509.000000	7.225620
510.000000	7.370608
511.000000	7.516738
512.000000	7.685384
513.000000	7.860877
514.000000	8.052728
515.000000	8.250468
516.000000	8.465457
517.000000	8.685390
518.000000	8.907130
519.000000	9.129862
520.000000	9.357601
521.000000	9.576478
522.000000	9.804709
523.000000	10.038713
524.000000	10.272498
525.000000	10.528052
526.000000	10.768036
527.000000	11.010873
528.000000	11.261697
529.000000	11.506084
530.000000	11.747825
531.000000	11.974360
532.000000	12.208173
533.000000	12.441392
534.000000	12.664808
535.000000	12.900415
536.000000	13.094057
537.000000	13.287949
538.000000	13.480501
539.000000	13.659601
540.000000	13.826004
541.000000	13.989202
542.000000	14.111344
543.000000	14.232891
544.000000	14.343776
545.000000	14.437879
546.000000	14.537093
547.000000	14.628793
548.000000	14.697568
549.000000	14.784047
550.000000	14.869975
551.000000	14.931403
552.000000	15.025668
553.000000	15.122010
554.000000	15.200266
555.000000	15.278514
556.000000	15.346205
557.000000	15.403957
558.000000	15.461999
559.000000	15.498087
560.000000	15.905443
561.000000	15.965275
562.000000	15.956837
563.000000	15.946175
564.000000	15.930662
565.000000	15.909215
566.000000	15.869767
567.000000	15.869755
568.000000	15.831211
569.000000	15.804003
570.000000	15.802084
571.000000	15.800857
572.000000	15.797507
573.000000	15.802283
574.000000	15.829401
575.000000	15.843623
576.000000	15.867119
577.000000	15.866207
578.000000	15.885494
579.000000	15.877705
580.000000	15.843459
581.000000	15.823992
582.000000	15.772545
583.000000	15.743695
584.000000	15.680594
585.000000	15.610512
586.000000	15.544008
587.000000	15.461664
588.000000	15.382935
589.000000	15.276475
590.000000	15.196036
591.000000	15.098126
592.000000	15.000925
593.000000	14.927160
594.000000	14.816827
595.000000	14.693436
596.000000	14.601018
597.000000	14.493282
598.000000	14.347533
599.000000	14.248106
600.000000	14.112272
601.000000	14.000058
602.000000	13.876632
603.000000	13.761985
604.000000	13.651631
605.000000	13.529191
606.000000	13.426174
607.000000	13.298856
608.000000	13.180485
609.000000	13.044854
610.000000	12.938757
611.000000	12.820474
612.000000	12.689955
613.000000	12.534202
614.000000	12.412152
615.000000	12.243711
616.000000	12.100632
617.000000	11.934327
618.000000	11.773935
619.000000	11.604705
620.000000	11.440829
621.000000	11.285415
622.000000	11.150996
623.000000	11.028036
624.000000	10.937910
625.000000	10.831746
626.000000	10.776521
627.000000	10.703166
628.000000	10.680741
629.000000	10.661671
630.000000	10.638064
631.000000	10.615837
632.000000	10.612347
633.000000	10.622134
634.000000	10.605207
635.000000	10.604618
636.000000	10.601624
637.000000	10.586858
638.000000	10.591423
639.000000	10.592986
640.000000	10.599864
641.000000	10.622071
642.000000	10.659748
643.000000	10.698427
644.000000	10.742488
645.000000	10.798854
646.000000	10.879904
647.000000	10.964961
648.000000	11.072777
649.000000	11.162331
650.000000	11.255100
651.000000	11.363518
652.000000	11.466843
653.000000	11.561894
654.000000	11.630628
655.000000	11.693471
656.000000	11.772794
657.000000	11.821331
658.000000	11.873900
659.000000	11.930424
660.000000	11.967171
661.000000	12.020535
662.000000	12.072167
663.000000	12.133351
664.000000	12.210148
665.000000	12.290141
666.000000	12.348805
667.000000	12.410366
668.000000	12.491697
669.000000	12.554024
670.000000	12.635732
671.000000	12.708645
672.000000	12.765510
673.000000	12.813396
674.000000	12.887312
675.000000	12.949596
676.000000	12.999845
677.000000	13.038428
678.000000	13.066609
679.000000	13.097477
680.000000	13.130949
681.000000	13.152573
682.000000	13.171600
683.000000	13.216902
684.000000	13.260987
685.000000	13.289099
686.000000	13.294740
687.000000	13.331297
688.000000	13.392471
689.000000	13.440305
690.000000	13.468743
691.000000	13.510310
692.000000	13.532698
693.000000	13.563919
694.000000	13.593819
695.000000	13.615851
696.000000	13.655614
697.000000	13.695733
698.000000	13.714986
699.000000	13.751602
700.000000	13.758452
701.000000	13.779083
702.000000	13.813804
703.000000	13.861104
704.000000	13.899222
705.000000	13.962068
706.000000	14.005190
707.000000	14.048722
708.000000	14.095464
709.000000	14.137794
710.000000	14.176657
711.000000	14.228117
712.000000	14.267007
713.000000	14.329132
714.000000	14.394097
715.000000	14.431349
716.000000	14.465255
717.000000	14.493625
718.000000	14.510802
719.000000	14.573007
720.000000	14.627355
721.000000	14.649461
722.000000	14.686063
723.000000	14.714290
724.000000	14.737529
725.000000	14.795467
726.000000	14.831041
727.000000	14.864333
728.000000	14.926017
729.000000	14.949892
730.000000	14.974107
731.000000	15.000295
732.000000	15.025478
733.000000	15.049724
734.000000	15.065180
735.000000	15.093897
736.000000	15.110612
737.000000	15.114937
738.000000	15.131771
739.000000	15.145916
740.000000	15.179266
741.000000	15.197331
742.000000	15.202939
743.000000	15.226913
744.000000	15.256253
745.000000	15.300685
746.000000	15.361738
747.000000	15.411647
748.000000	15.423497
749.000000	15.441013
750.000000	15.465830
751.000000	15.481301
752.000000	15.477616
753.000000	15.488584
754.000000	15.493588
755.000000	15.496156
756.000000	15.514957
757.000000	15.527100
758.000000	15.535785
759.000000	15.560534
760.000000	15.601481
761.000000	15.622187
762.000000	15.646094
763.000000	15.685551
764.000000	15.718213
765.000000	15.748150
766.000000	15.772917
767.000000	15.777170
768.000000	15.795475
769.000000	15.815920
770.000000	15.840794
771.000000	15.872637
772.000000	15.913202
773.000000	15.878625
774.000000	15.876117
775.000000	15.909089
776.000000	15.943528
777.000000	15.976875
778.000000	16.015626
779.000000	16.055327
780.000000	16.106823
781.000000	16.197898
782.000000	16.286422
783.000000	16.325090
784.000000	16.371890
785.000000	16.438869
786.000000	16.509694
787.000000	16.558365
788.000000	16.622462
789.000000	16.636685
790.000000	16.686622
791.000000	16.716028
792.000000	16.751642
793.000000	16.843523
794.000000	16.891491
795.000000	16.949429
796.000000	17.000484
797.000000	17.095058
798.000000	17.163249
799.000000	17.170931
800.000000	17.227303
801.000000	17.322708
802.000000	17.372623
803.000000	17.449560
804.000000	17.488917
805.000000	17.546861
806.000000	17.628978
807.000000	17.695283
808.000000	17.662019
809.000000	17.635303
810.000000	17.679139
811.000000	17.759908
812.000000	17.840801
813.000000	17.820043
814.000000	17.866914
815.000000	17.869141
816.000000	17.921135
817.000000	18.005926
818.000000	18.009615
819.000000	18.038595
820.000000	18.102556
821.000000	18.165683
822.000000	18.169035
823.000000	18.171628
824.000000	18.257656
825.000000	18.305876
826.000000	18.375210
827.000000	18.412195
828.000000	18.471340
829.000000	18.471293
830.000000	18.487297
831.000000	18.502510
832.000000	18.499256
833.000000	18.582951
834.000000	18.722731
835.000000	18.757116
836.000000	18.708023
837.000000	18.661763
838.000000	18.719490
839.000000	18.773564
840.000000	18.773908
841.000000	18.829319
842.000000	18.793714
843.000000	18.764999
844.000000	18.745947
845.000000	18.872203
846.000000	19.017555
847.000000	18.997361
848.000000	19.000426
849.000000	19.011084
850.000000	19.052501
851.000000	19.050219
852.000000	19.025710
853.000000	19.002753
854.000000	18.828216
855.000000	18.960848
856.000000	18.929966
857.000000	18.858985
858.000000	18.371468
859.000000	19.189780
860.000000	19.266650
861.000000	19.319397
862.000000	19.332260
863.000000	19.317353
864.000000	19.324248
865.000000	19.305080
866.000000	19.276341
867.000000	19.245256
868.000000	19.230064
869.000000	19.190584
870.000000	19.174992
871.000000	19.124396
872.000000	19.099464
873.000000	19.050216
874.000000	19.017703
875.000000	18.964321
876.000000	18.924863
877.000000	18.884274
878.000000	18.823362
879.000000	18.788205
880.000000	18.760003
881.000000	18.701081
882.000000	18.677800
883.000000	18.601514
884.000000	18.549926
885.000000	18.525522
886.000000	18.497091
887.000000	18.443277
888.000000	18.397831
889.000000	18.349569
890.000000	18.313119
891.000000	18.276611
892.000000	18.226909
893.000000	18.171832
894.000000	18.124774
895.000000	18.057421
896.000000	18.015784
897.000000	17.980827
898.000000	17.932749
899.000000	17.882954
900.000000	17.835917
901.000000	17.793761
902.000000	17.754859
903.000000	17.724899
904.000000	17.672596
905.000000	17.628247
906.000000	17.580763
907.000000	17.571280
908.000000	17.528775
909.000000	17.499104
910.000000	17.453751
911.000000	17.425538
912.000000	17.413165
913.000000	17.385715
914.000000	17.379972
915.000000	17.332014
916.000000	17.303001
917.000000	17.303994
918.000000	17.281208
919.000000	17.260521
920.000000	17.233720
921.000000	17.217113
922.000000	17.199192
923.000000	17.198195
924.000000	17.163268
925.000000	17.150099
926.000000	17.134945
927.000000	17.122802
928.000000	17.118269
929.000000	17.098400
930.000000	17.094197
931.000000	17.089615
932.000000	17.059481
933.000000	17.056771
934.000000	17.037025
935.000000	17.037035
936.000000	17.003006
937.000000	17.002767
938.000000	16.986896
939.000000	16.984428
940.000000	16.983302
941.000000	16.984527
942.000000	16.967759
943.000000	16.978174
944.000000	16.982796
945.000000	16.987856
946.000000	16.991270
947.000000	16.992705
948.000000	17.009167
949.000000	17.008548
950.000000	17.009708
951.000000	17.020851
952.000000	17.023041
953.000000	17.023204
954.000000	17.031364
955.000000	17.034616
956.000000	17.031315
957.000000	17.038087
958.000000	17.036949
959.000000	17.042303
960.000000	17.042673
961.000000	17.038728
962.000000	17.030398
963.000000	17.033415
964.000000	17.017479
965.000000	17.033236
966.000000	17.035758
967.000000	17.039685
968.000000	17.036768
969.000000	17.028071
970.000000	17.036750
971.000000	17.029091
972.000000	17.032027
973.000000	17.020770
974.000000	17.023734
975.000000	17.020422
976.000000	17.018421
977.000000	17.002883
978.000000	17.008820
979.000000	17.001671
980.000000	16.996869
981.000000	16.989051
982.000000	16.969179
983.000000	16.967701
984.000000	16.954350
985.000000	16.941406
986.000000	16.938484
987.000000	16.937293
988.000000	16.938201
989.000000	16.924190
990.000000	16.908522
991.000000	16.908395
992.000000	16.910949
993.000000	16.896307
994.000000	16.885750
995.000000	16.888918
996.000000	16.890300
997.000000	16.885382
998.000000	16.881929
999.000000	16.877046
1000.000000	16.875620
1001.000000	16.875637
1002.000000	16.875952
1003.000000	16.877055
1004.000000	16.864458
1005.000000	16.854611
1006.000000	16.862689
1007.000000	16.865394
1008.000000	16.864412
1009.000000	16.861131
1010.000000	16.856698
1011.000000	16.864804
1012.000000	16.880528
1013.000000	16.885468
1014.000000	16.898171
1015.000000	16.918769
1016.000000	16.934897
1017.000000	16.957639
1018.000000	16.979984
1019.000000	16.986748
1020.000000	17.010411
1021.000000	17.044696
1022.000000	17.057740
1023.000000	17.075747
1024.000000	17.106778
1025.000000	17.127999
1026.000000	17.155909
1027.000000	17.179576
1028.000000	17.199449
1029.000000	17.225269
1030.000000	17.241394
1031.000000	17.259086
1032.000000	17.277680
1033.000000	17.294369
1034.000000	17.320556
1035.000000	17.344895
1036.000000	17.374541
1037.000000	17.393036
1038.000000	17.401428
1039.000000	17.416995
1040.000000	17.436022
1041.000000	17.446612
1042.000000	17.453377
1043.000000	17.470450
1044.000000	17.484071
1045.000000	17.497523
1046.000000	17.515924
1047.000000	17.534001
1048.000000	17.538910
1049.000000	17.551052
1050.000000	17.564074
1051.000000	17.573108
1052.000000	17.598360
1053.000000	17.612958
1054.000000	17.624366
1055.000000	17.642137
1056.000000	17.656782
1057.000000	17.666366
1058.000000	17.681511
1059.000000	17.682295
1060.000000	17.698448
1061.000000	17.713362
1062.000000	17.718702
1063.000000	17.725759
1064.000000	17.727612
1065.000000	17.748192
1066.000000	17.766371
1067.000000	17.764217
1068.000000	17.774911
1069.000000	17.792644
1070.000000	17.797887
1071.000000	17.799245
1072.000000	17.805074
1073.000000	17.813774
1074.000000	17.816695
1075.000000	17.824964
1076.000000	17.829340
1077.000000	17.837793
1078.000000	17.851826
1079.000000	17.855183
1080.000000	17.857402
1081.000000	17.867230
1082.000000	17.877740
1083.000000	17.886824
1084.000000	17.892218
1085.000000	17.895941
1086.000000	17.912675
1087.000000	17.927794
1088.000000	17.933921
1089.000000	17.941801
1090.000000	17.961133
1091.000000	17.971199
1092.000000	17.972545
1093.000000	17.993348
1094.000000	17.994311
1095.000000	17.987349
1096.000000	18.002696
1097.000000	18.012473
1098.000000	18.010207
1099.000000	18.016558
1100.000000	18.030518
1101.000000	18.041367
1102.000000	18.040130
1103.000000	18.050583
1104.000000	18.055062
1105.000000	18.067657
1106.000000	18.085817
1107.000000	18.068313
1108.000000	18.079593
1109.000000	18.086455
1110.000000	18.094143
1111.000000	18.102676
1112.000000	18.114054
1113.000000	18.124887
1114.000000	18.123810
1115.000000	18.128457
1116.000000	18.136251
1117.000000	18.139929
1118.000000	18.138675
1119.000000	18.135388
1120.000000	18.133557
1121.000000	18.132072
1122.000000	18.128783
1123.000000	18.101724
1124.000000	18.084127
1125.000000	18.055905
1126.000000	18.031209
1127.000000	18.016945
1128.000000	17.979237
1129.000000	17.944548
1130.000000	17.878362
1131.000000	17.823233
1132.000000	17.757105
1133.000000	17.698929
1134.000000	17.633824
1135.000000	17.544357
1136.000000	17.442714
1137.000000	17.318579
1138.000000	17.233577
1139.000000	17.164010
1140.000000	17.069681
1141.000000	16.979455
1142.000000	16.900627
1143.000000	16.827321
1144.000000	16.751254
1145.000000	16.703932
1146.000000	16.658882
1147.000000	16.630380
1148.000000	16.626018
1149.000000	16.633939
1150.000000	16.638530
1151.000000	16.643611
1152.000000	16.643408
1153.000000	16.609667
1154.000000	16.567835
1155.000000	16.520660
1156.000000	16.459368
1157.000000	16.379500
1158.000000	16.298933
1159.000000	16.206151
1160.000000	16.113376
1161.000000	16.020375
1162.000000	15.908934
1163.000000	15.800021
1164.000000	15.696984
1165.000000	15.595575
1166.000000	15.486162
1167.000000	15.391397
1168.000000	15.286905
1169.000000	15.173865
1170.000000	15.075315
1171.000000	14.963293
1172.000000	14.871748
1173.000000	14.776210
1174.000000	14.686581
1175.000000	14.590671
1176.000000	14.496654
1177.000000	14.402236
1178.000000	14.287967
1179.000000	14.151766
1180.000000	14.005422
1181.000000	13.873917
1182.000000	13.708837
1183.000000	13.593282
1184.000000	13.513789
1185.000000	13.454310
1186.000000	13.461069
1187.000000	13.492582
1188.000000	13.559977
1189.000000	13.652496
1190.000000	13.761824
1191.000000	13.903125
1192.000000	14.028297
1193.000000	14.163631
1194.000000	14.255649
1195.000000	14.329516
1196.000000	14.393506
1197.000000	14.445900
1198.000000	14.492609
1199.000000	14.521425
1200.000000	14.532689
1201.000000	14.562953
1202.000000	14.579882
1203.000000	14.593729
1204.000000	14.597482
1205.000000	14.617346
1206.000000	14.636745
1207.000000	14.651566
1208.000000	14.672899
1209.000000	14.704090
1210.000000	14.734947
1211.000000	14.764168
1212.000000	14.795358
1213.000000	14.825800
1214.000000	14.874175
1215.000000	14.911855
1216.000000	14.938006
1217.000000	14.981733
1218.000000	15.026011
1219.000000	15.049758
1220.000000	15.109325
1221.000000	15.155166
1222.000000	15.204614
1223.000000	15.256740
1224.000000	15.306827
1225.000000	15.351204
1226.000000	15.400981
1227.000000	15.448500
1228.000000	15.494140
1229.000000	15.548951
1230.000000	15.609871
1231.000000	15.662442
1232.000000	15.712211
1233.000000	15.753492
1234.000000	15.803183
1235.000000	15.838270
1236.000000	15.886737
1237.000000	15.930483
1238.000000	15.977549
1239.000000	16.023973
1240.000000	16.067916
1241.000000	16.095088
1242.000000	16.131813
1243.000000	16.167367
1244.000000	16.209724
1245.000000	16.252105
1246.000000	16.280695
1247.000000	16.313705
1248.000000	16.344804
1249.000000	16.361445
1250.000000	16.393743
1251.000000	16.415976
1252.000000	16.459366
1253.000000	16.479573
1254.000000	16.490212
1255.000000	16.503767
1256.000000	16.509891
1257.000000	16.523113
1258.000000	16.534301
1259.000000	16.556137
1260.000000	16.569150
1261.000000	16.565383
1262.000000	16.573811
1263.000000	16.585555
1264.000000	16.593628
1265.000000	16.599108
1266.000000	16.606857
1267.000000	16.614761
1268.000000	16.627480
1269.000000	16.642945
1270.000000	16.652768
1271.000000	16.656966
1272.000000	16.659350
1273.000000	16.668978
1274.000000	16.687558
1275.000000	16.698521
1276.000000	16.701385
1277.000000	16.716016
1278.000000	16.741389
1279.000000	16.757026
1280.000000	16.761696
1281.000000	16.781831
1282.000000	16.802648
1283.000000	16.820068
1284.000000	16.846511
1285.000000	16.863069
1286.000000	16.871933
1287.000000	16.886595
1288.000000	16.903583
1289.000000	16.920929
1290.000000	16.929836
1291.000000	16.932742
1292.000000	16.940768
1293.000000	16.952083
1294.000000	16.953554
1295.000000	16.951565
1296.000000	16.954553
1297.000000	16.951602
1298.000000	16.950449
1299.000000	16.949247
1300.000000	16.946450
1301.000000	16.949234
1302.000000	16.945486
1303.000000	16.934696
1304.000000	16.927114
1305.000000	16.927993
1306.000000	16.915892
1307.000000	16.900094
1308.000000	16.900726
1309.000000	16.883145
1310.000000	16.869570
1311.000000	16.856387
1312.000000	16.826132
1313.000000	16.811307
1314.000000	16.805234
1315.000000	16.774027
1316.000000	16.751399
1317.000000	16.732236
1318.000000	16.713714
1319.000000	16.700588
1320.000000	16.688075
1321.000000	16.661894
1322.000000	16.642624
1323.000000	16.609420
1324.000000	16.573291
1325.000000	16.554681
1326.000000	16.531558
1327.000000	16.495266
1328.000000	16.463459
1329.000000	16.430861
1330.000000	16.390322
1331.000000	16.347184
1332.000000	16.295698
1333.000000	16.247490
1334.000000	16.187019
1335.000000	16.129663
1336.000000	16.089248
1337.000000	16.032566
1338.000000	15.962004
1339.000000	15.888217
1340.000000	15.824484
1341.000000	15.743829
1342.000000	15.655231
1343.000000	15.574655
1344.000000	15.487323
1345.000000	15.390248
1346.000000	15.287732
1347.000000	15.181212
1348.000000	15.073654
1349.000000	14.947157
1350.000000	14.807119
1351.000000	14.657151
1352.000000	14.511734
1353.000000	14.354058
1354.000000	14.225211
1355.000000	14.087741
1356.000000	13.990510
1357.000000	13.928254
1358.000000	13.890091
1359.000000	13.867342
1360.000000	13.857826
1361.000000	13.855280
1362.000000	13.798741
1363.000000	13.704327
1364.000000	13.671180
1365.000000	13.612507
1366.000000	13.525183
1367.000000	13.450585
1368.000000	13.355573
1369.000000	13.218348
1370.000000	13.095425
1371.000000	12.938817
1372.000000	12.767452
1373.000000	12.569044
1374.000000	12.369348
1375.000000	12.201151
1376.000000	12.062734
1377.000000	11.937239
1378.000000	11.809164
1379.000000	11.727585
1380.000000	11.620313
1381.000000	11.560574
1382.000000	11.481093
1383.000000	11.361002
1384.000000	11.278412
1385.000000	11.190212
1386.000000	11.119024
1387.000000	11.093868
1388.000000	11.094361
1389.000000	11.034489
1390.000000	11.025788
1391.000000	11.033035
1392.000000	11.047282
1393.000000	11.042355
1394.000000	11.061338
1395.000000	11.091755
1396.000000	11.066958
1397.000000	11.014089
1398.000000	10.947718
1399.000000	10.949573
1400.000000	10.921563
1401.000000	10.849439
1402.000000	10.719190
1403.000000	10.633245
1404.000000	10.562350
1405.000000	10.486282
1406.000000	10.397636
1407.000000	10.309249
1408.000000	10.225442
1409.000000	10.145169
1410.000000	10.047033
1411.000000	9.985314
1412.000000	9.926942
1413.000000	9.881400
1414.000000	9.821595
1415.000000	9.757485
1416.000000	9.693647
1417.000000	9.633740
1418.000000	9.595217
1419.000000	9.541140
1420.000000	9.469810
1421.000000	9.388997
1422.000000	9.330648
1423.000000	9.283601
1424.000000	9.231124
1425.000000	9.173939
1426.000000	9.087525
1427.000000	9.040021
1428.000000	8.998609
1429.000000	8.961236
1430.000000	8.884164
1431.000000	8.871058
1432.000000	8.834580
1433.000000	8.795009
1434.000000	8.751335
1435.000000	8.704239
1436.000000	8.678297
1437.000000	8.640488
1438.000000	8.606059
1439.000000	8.566931
1440.000000	8.533994
1441.000000	8.496413
1442.000000	8.461589
1443.000000	8.418048
1444.000000	8.386627
1445.000000	8.344448
1446.000000	8.320325
1447.000000	8.265950
1448.000000	8.224763
1449.000000	8.204844
1450.000000	8.175424
1451.000000	8.146387
1452.000000	8.097815
1453.000000	8.049827
1454.000000	8.023664
1455.000000	7.998450
1456.000000	7.967461
1457.000000	7.923037
1458.000000	7.903680
1459.000000	7.881225
1460.000000	7.867346
1461.000000	7.838972
1462.000000	7.825880
1463.000000	7.804470
1464.000000	7.786429
1465.000000	7.768234
1466.000000	7.750820
1467.000000	7.739697
1468.000000	7.716909
1469.000000	7.697060
1470.000000	7.702453
1471.000000	7.685462
1472.000000	7.676032
1473.000000	7.645850
1474.000000	7.639489
1475.000000	7.633905
1476.000000	7.630973
1477.000000	7.611375
1478.000000	7.608464
1479.000000	7.598206
1480.000000	7.596352
1481.000000	7.582382
1482.000000	7.572013
1483.000000	7.571407
1484.000000	7.565235
1485.000000	7.570536
1486.000000	7.576520
1487.000000	7.574280
1488.000000	7.557434
1489.000000	7.554711
1490.000000	7.553532
1491.000000	7.557258
1492.000000	7.558472
1493.000000	7.556566
1494.000000	7.549599
1495.000000	7.557291
1496.000000	7.584763
1497.000000	7.565195
1498.000000	7.564261
1499.000000	7.576051
1500.000000	7.581992
1501.000000	7.597249
1502.000000	7.614462
1503.000000	7.625740
1504.000000	7.633509
1505.000000	7.637241
1506.000000	7.645650
1507.000000	7.652028
1508.000000	7.667578
1509.000000	7.683715
1510.000000	7.694746
1511.000000	7.707463
1512.000000	7.713073
1513.000000	7.732813
1514.000000	7.747466
1515.000000	7.745690
1516.000000	7.758977
1517.000000	7.777553
1518.000000	7.778746
1519.000000	7.785881
1520.000000	7.801336
1521.000000	7.813085
1522.000000	7.816174
1523.000000	7.826670
1524.000000	7.831172
1525.000000	7.844409
1526.000000	7.853897
1527.000000	7.857294
1528.000000	7.857602
1529.000000	7.869168
1530.000000	7.883069
1531.000000	7.883632
1532.000000	7.887365
1533.000000	7.892249
1534.000000	7.896654
1535.000000	7.905279
1536.000000	7.907065
1537.000000	7.909526
1538.000000	7.906059
1539.000000	7.905411
1540.000000	7.915288
1541.000000	7.914876
1542.000000	7.918829
1543.000000	7.922322
1544.000000	7.922920
1545.000000	7.931069
1546.000000	7.932838
1547.000000	7.936572
1548.000000	7.944853
1549.000000	7.952018
1550.000000	7.958730
1551.000000	7.963428
1552.000000	7.962794
1553.000000	7.976129
1554.000000	7.986395
1555.000000	7.978618
1556.000000	7.974705
1557.000000	7.973063
1558.000000	7.976522
1559.000000	7.965177
1560.000000	7.950336
1561.000000	7.943195
1562.000000	7.940983
1563.000000	7.939172
1564.000000	7.925698
1565.000000	7.902241
1566.000000	7.891173
1567.000000	7.893546
1568.000000	7.880246
1569.000000	7.869248
1570.000000	7.868562
1571.000000	7.858611
1572.000000	7.854447
1573.000000	7.841057
1574.000000	7.830698
1575.000000	7.829216
1576.000000	7.825539
1577.000000	7.820993
1578.000000	7.823076
1579.000000	7.826953
1580.000000	7.826917
1581.000000	7.831774
1582.000000	7.836390
1583.000000	7.851230
1584.000000	7.853604
1585.000000	7.848367
1586.000000	7.858050
1587.000000	7.885688
1588.000000	7.889097
1589.000000	7.890488
1590.000000	7.906457
1591.000000	7.922079
1592.000000	7.930969
1593.000000	7.941676
1594.000000	7.962068
1595.000000	7.974001
1596.000000	7.991849
1597.000000	8.011625
1598.000000	8.030815
1599.000000	8.048231
1600.000000	8.060896
1601.000000	8.078187
1602.000000	8.109050
1603.000000	8.135593
1604.000000	8.162602
1605.000000	8.182022
1606.000000	8.207831
1607.000000	8.228439
1608.000000	8.238510
1609.000000	8.268027
1610.000000	8.285027
1611.000000	8.294127
1612.000000	8.320115
1613.000000	8.342901
1614.000000	8.366791
1615.000000	8.396073
1616.000000	8.413215
1617.000000	8.429056
1618.000000	8.448100
1619.000000	8.473185
1620.000000	8.506571
1621.000000	8.527930
1622.000000	8.554070
1623.000000	8.570765
1624.000000	8.600978
1625.000000	8.627611
1626.000000	8.646366
1627.000000	8.681816
1628.000000	8.702499
1629.000000	8.738773
1630.000000	8.765678
1631.000000	8.792664
1632.000000	8.809076
1633.000000	8.827977
1634.000000	8.846851
1635.000000	8.871021
1636.000000	8.906480
1637.000000	8.917969
1638.000000	8.930681
1639.000000	8.937479
1640.000000	8.957498
1641.000000	8.989119
1642.000000	9.007710
1643.000000	9.020049
1644.000000	9.030881
1645.000000	9.054491
1646.000000	9.072654
1647.000000	9.089233
1648.000000	9.092784
1649.000000	9.108221
1650.000000	9.130681
1651.000000	9.149733
1652.000000	9.138521
1653.000000	9.149772
1654.000000	9.149042
1655.000000	9.140420
1656.000000	9.147288
1657.000000	9.131508
1658.000000	9.125078
1659.000000	9.099006
1660.000000	9.090062
1661.000000	9.079411
1662.000000	9.057238
1663.000000	9.037703
1664.000000	8.997076
1665.000000	8.966352
1666.000000	8.927488
1667.000000	8.885103
1668.000000	8.872567
1669.000000	8.815529
1670.000000	8.755895
1671.000000	8.688153
1672.000000	8.613350
1673.000000	8.515238
1674.000000	8.405906
1675.000000	8.291135
1676.000000	8.172776
1677.000000	8.033481
1678.000000	7.857763
1679.000000	7.681694
1680.000000	7.525840
1681.000000	7.369968
1682.000000	7.254206
1683.000000	7.175571
1684.000000	7.152237
1685.000000	7.119123
1686.000000	7.131540
1687.000000	7.126389
1688.000000	7.114015
1689.000000	7.078697
1690.000000	7.038713
1691.000000	7.001743
1692.000000	6.950774
1693.000000	6.933979
1694.000000	6.908654
1695.000000	6.911023
1696.000000	6.929195
1697.000000	6.947038
1698.000000	7.000911
1699.000000	7.050491
1700.000000	7.108932
1701.000000	7.150757
1702.000000	7.196061
1703.000000	7.223980
1704.000000	7.231343
1705.000000	7.256264
1706.000000	7.277301
1707.000000	7.277741
1708.000000	7.283726
1709.000000	7.279272
1710.000000	7.281315
1711.000000	7.271536
1712.000000	7.253657
1713.000000	7.250387
1714.000000	7.210949
1715.000000	7.205036
1716.000000	7.167111
1717.000000	7.152218
1718.000000	7.124465
1719.000000	7.124624
1720.000000	7.097406
1721.000000	7.112851
1722.000000	7.092088
1723.000000	7.102219
1724.000000	7.085057
1725.000000	7.061640
1726.000000	7.028012
1727.000000	6.996498
1728.000000	6.974069
1729.000000	6.944598
1730.000000	6.902130
1731.000000	6.887049
1732.000000	6.877481
1733.000000	6.862428
1734.000000	6.893319
1735.000000	6.909138
1736.000000	6.951813
1737.000000	6.996010
1738.000000	7.064473
1739.000000	7.128846
1740.000000	7.207959
1741.000000	7.281024
1742.000000	7.346110
1743.000000	7.413579
1744.000000	7.467148
1745.000000	7.505576
1746.000000	7.542449
1747.000000	7.583295
1748.000000	7.603787
1749.000000	7.631243
1750.000000	7.656226
1751.000000	7.675748
1752.000000	7.673842
1753.000000	7.686776
1754.000000	7.693777
1755.000000	7.681284
1756.000000	7.673683
1757.000000	7.668566
1758.000000	7.635119
1759.000000	7.620655
1760.000000	7.594344
1761.000000	7.602414
1762.000000	7.597261
1763.000000	7.599916
1764.000000	7.596275
1765.000000	7.625635
1766.000000	7.662622
1767.000000	7.699428
1768.000000	7.724446
1769.000000	7.764158
1770.000000	7.814834
1771.000000	7.849434
1772.000000	7.874098
1773.000000	7.931631
1774.000000	7.966819
1775.000000	8.017623
1776.000000	8.048694
1777.000000	8.079500
1778.000000	8.104996
1779.000000	8.133611
1780.000000	8.160636
1781.000000	8.177668
1782.000000	8.192173
1783.000000	8.217861
1784.000000	8.244550
1785.000000	8.265508
1786.000000	8.287849
1787.000000	8.312079
1788.000000	8.326819
1789.000000	8.338828
1790.000000	8.360027
1791.000000	8.375164
1792.000000	8.388365
1793.000000	8.399153
1794.000000	8.412902
1795.000000	8.434422
1796.000000	8.451426
1797.000000	8.464220
1798.000000	8.478122
1799.000000	8.490584
1800.000000	8.505454
1801.000000	8.529440
1802.000000	8.543340
1803.000000	8.540347
1804.000000	8.545171
1805.000000	8.571747
1806.000000	8.594953
1807.000000	8.609147
1808.000000	8.613630
1809.000000	8.617583
1810.000000	8.639050
1811.000000	8.648987
1812.000000	8.658649
1813.000000	8.651925
1814.000000	8.650800
1815.000000	8.661788
1816.000000	8.656564
1817.000000	8.652570
1818.000000	8.668184
1819.000000	8.693831
1820.000000	8.706000
1821.000000	8.713462
1822.000000	8.698405
1823.000000	8.671906
1824.000000	8.687409
1825.000000	8.733421
1826.000000	8.770222
1827.000000	8.784223
1828.000000	8.803227
1829.000000	8.829291
1830.000000	8.845283
1831.000000	8.867773
1832.000000	8.882586
1833.000000	8.904529
1834.000000	8.938936
1835.000000	8.993412
1836.000000	9.033456
1837.000000	9.042314
1838.000000	9.057298
1839.000000	9.074218
1840.000000	9.087110
1841.000000	9.096533
1842.000000	9.081553
1843.000000	9.065551
1844.000000	9.077336
1845.000000	9.110386
1846.000000	9.175140
1847.000000	9.228612
1848.000000	9.244803
1849.000000	9.222013
1850.000000	9.205529
1851.000000	9.221860
1852.000000	9.254596
1853.000000	9.293740
1854.000000	9.307806
1855.000000	9.312379
1856.000000	9.314550
1857.000000	9.329301
1858.000000	9.342330
1859.000000	9.344649
1860.000000	9.318951
1861.000000	9.294205
1862.000000	9.279816
1863.000000	9.263322
1864.000000	9.254605
1865.000000	9.249176
1866.000000	9.241691
1867.000000	9.236418
1868.000000	9.220163
1869.000000	9.173998
1870.000000	9.129851
1871.000000	9.058944
1872.000000	8.962261
1873.000000	8.865154
1874.000000	8.755386
1875.000000	8.646507
1876.000000	8.541507
1877.000000	8.415062
1878.000000	8.281714
1879.000000	8.146579
1880.000000	8.018699
1881.000000	7.887962
1882.000000	7.739837
1883.000000	7.622465
1884.000000	7.486991
1885.000000	7.345071
1886.000000	7.214087
1887.000000	7.115062
1888.000000	7.034862
1889.000000	6.929592
1890.000000	6.852487
1891.000000	6.751476
1892.000000	6.637192
1893.000000	6.523130
1894.000000	6.424424
1895.000000	6.350328
1896.000000	6.290729
1897.000000	6.206853
1898.000000	6.113883
1899.000000	6.029858
1900.000000	5.912137
1901.000000	5.816524
1902.000000	5.741834
1903.000000	5.662396
1904.000000	5.585576
1905.000000	5.495380
1906.000000	5.399747
1907.000000	5.293845
1908.000000	5.213159
1909.000000	5.150820
1910.000000	5.126260
1911.000000	5.058055
1912.000000	5.009752
1913.000000	4.938590
1914.000000	4.834006
1915.000000	4.754302
1916.000000	4.704500
1917.000000	4.671085
1918.000000	4.633791
1919.000000	4.602201
1920.000000	4.568806
1921.000000	4.500430
1922.000000	4.448589
1923.000000	4.398217
1924.000000	4.371012
1925.000000	4.340781
1926.000000	4.310346
1927.000000	4.286169
1928.000000	4.264678
1929.000000	4.232915
1930.000000	4.204769
1931.000000	4.177887
1932.000000	4.168946
1933.000000	4.152909
1934.000000	4.152416
1935.000000	4.160690
1936.000000	4.140783
1937.000000	4.143704
1938.000000	4.144429
1939.000000	4.146430
1940.000000	4.136066
1941.000000	4.147034
1942.000000	4.146904
1943.000000	4.142837
1944.000000	4.176879
1945.000000	4.174004
1946.000000	4.194769
1947.000000	4.206988
1948.000000	4.232248
1949.000000	4.234234
1950.000000	4.259307
1951.000000	4.295699
1952.000000	4.305139
1953.000000	4.319181
1954.000000	4.348739
1955.000000	4.360974
1956.000000	4.377971
1957.000000	4.404284
1958.000000	4.433192
1959.000000	4.453418
1960.000000	4.472078
1961.000000	4.485686
1962.000000	4.517525
1963.000000	4.537052
1964.000000	4.562026
1965.000000	4.596035
1966.000000	4.610297
1967.000000	4.636464
1968.000000	4.662254
1969.000000	4.679178
1970.000000	4.680564
1971.000000	4.709528
1972.000000	4.753237
1973.000000	4.767564
1974.000000	4.783732
1975.000000	4.806256
1976.000000	4.835052
1977.000000	4.866700
1978.000000	4.897712
1979.000000	4.925866
1980.000000	4.942035
1981.000000	4.957973
1982.000000	4.981032
1983.000000	5.021866
1984.000000	5.043119
1985.000000	5.049704
1986.000000	5.086597
1987.000000	5.119450
1988.000000	5.125432
1989.000000	5.147766
1990.000000	5.176449
1991.000000	5.200495
1992.000000	5.208626
1993.000000	5.240671
1994.000000	5.252619
1995.000000	5.280372
1996.000000	5.284230
1997.000000	5.290128
1998.000000	5.290236
1999.000000	5.312797
2000.000000	5.331777
2001.000000	5.342142
2002.000000	5.332539
2003.000000	5.347559
2004.000000	5.362162
2005.000000	5.343917
2006.000000	5.352512
2007.000000	5.363515
2008.000000	5.352021
2009.000000	5.356407
2010.000000	5.357255
2011.000000	5.350205
2012.000000	5.343023
2013.000000	5.332645
2014.000000	5.307201
2015.000000	5.301439
2016.000000	5.293593
2017.000000	5.286271
2018.000000	5.266319
2019.000000	5.240520
2020.000000	5.232511
2021.000000	5.207621
2022.000000	5.182687
2023.000000	5.162694
2024.000000	5.147981
2025.000000	5.137810
2026.000000	5.106390
2027.000000	5.102755
2028.000000	5.075625
2029.000000	5.043267
2030.000000	5.011199
2031.000000	4.983072
2032.000000	4.948075
2033.000000	4.913665
2034.000000	4.879365
2035.000000	4.844901
2036.000000	4.801236
2037.000000	4.771260
2038.000000	4.739956
2039.000000	4.704211
2040.000000	4.664890
2041.000000	4.615616
2042.000000	4.574628
2043.000000	4.540234
2044.000000	4.491945
2045.000000	4.450858
2046.000000	4.428173
2047.000000	4.404194
2048.000000	4.366296
2049.000000	4.331466
2050.000000	4.302174
2051.000000	4.280112
2052.000000	4.257526
2053.000000	4.239496
2054.000000	4.233609
2055.000000	4.225940
2056.000000	4.221879
2057.000000	4.223484
2058.000000	4.219813
2059.000000	4.226180
2060.000000	4.227028
2061.000000	4.236523
2062.000000	4.243082
2063.000000	4.255991
2064.000000	4.269373
2065.000000	4.278213
2066.000000	4.282102
2067.000000	4.301194
2068.000000	4.315227
2069.000000	4.331433
2070.000000	4.344891
2071.000000	4.355763
2072.000000	4.366810
2073.000000	4.376061
2074.000000	4.382395
2075.000000	4.399846
2076.000000	4.410176
2077.000000	4.417056
2078.000000	4.427863
2079.000000	4.443092
2080.000000	4.455280
2081.000000	4.456860
2082.000000	4.461531
2083.000000	4.468298
2084.000000	4.468512
2085.000000	4.465283
2086.000000	4.477839
2087.000000	4.489410
2088.000000	4.488003
2089.000000	4.489059
2090.000000	4.495638
2091.000000	4.506874
2092.000000	4.513505
2093.000000	4.515217
2094.000000	4.520709
2095.000000	4.525839
2096.000000	4.536162
2097.000000	4.537635
2098.000000	4.538286
2099.000000	4.554105
2100.000000	4.559004
2101.000000	4.562751
2102.000000	4.576372
2103.000000	4.583521
2104.000000	4.597907
2105.000000	4.609976
2106.000000	4.606789
2107.000000	4.605806
2108.000000	4.616415
2109.000000	4.634914
2110.000000	4.636969
2111.000000	4.636597
2112.000000	4.640210
2113.000000	4.651597
2114.000000	4.661279
2115.000000	4.679084
2116.000000	4.686894
2117.000000	4.682662
2118.000000	4.684673
2119.000000	4.691472
2120.000000	4.694996
2121.000000	4.698488
2122.000000	4.698027
2123.000000	4.696786
2124.000000	4.701713
2125.000000	4.704207
2126.000000	4.696147
2127.000000	4.692301
2128.000000	4.695373
2129.000000	4.696720
2130.000000	4.686496
2131.000000	4.673795
2132.000000	4.674904
2133.000000	4.658340
2134.000000	4.635686
2135.000000	4.630843
2136.000000	4.609553
2137.000000	4.601586
2138.000000	4.594425
2139.000000	4.574285
2140.000000	4.547713
2141.000000	4.516649
2142.000000	4.508850
2143.000000	4.503612
2144.000000	4.479896
2145.000000	4.450121
2146.000000	4.430013
2147.000000	4.422715
2148.000000	4.398660
2149.000000	4.368297
2150.000000	4.349345
2151.000000	4.337075
2152.000000	4.309521
2153.000000	4.282464
2154.000000	4.259976
2155.000000	4.248303
2156.000000	4.219905
2157.000000	4.196527
2158.000000	4.176458
2159.000000	4.164868
2160.000000	4.131104
2161.000000	4.114976
2162.000000	4.095718
2163.000000	4.085546
2164.000000	4.070512
2165.000000	4.042145
2166.000000	4.032406
2167.000000	4.031652
2168.000000	4.016030
2169.000000	4.002892
2170.000000	3.993046
2171.000000	3.985030
2172.000000	3.979369
2173.000000	3.962907
2174.000000	3.966503
2175.000000	3.935780
2176.000000	3.911774
2177.000000	3.910231
2178.000000	3.910294
2179.000000	3.899524
2180.000000	3.885922
2181.000000	3.875057
2182.000000	3.866916
2183.000000	3.851839
2184.000000	3.822035
2185.000000	3.818465
2186.000000	3.790237
2187.000000	3.763820
2188.000000	3.745629
2189.000000	3.710815
2190.000000	3.675620
2191.000000	3.647752
2192.000000	3.610552
2193.000000	3.570906
2194.000000	3.513882
2195.000000	3.470084
2196.000000	3.426637
2197.000000	3.396327
2198.000000	3.347878
2199.000000	3.294844
2200.000000	3.240479
2201.000000	3.192174
2202.000000	3.154454
2203.000000	3.123161
2204.000000	3.089097
2205.000000	3.065950
2206.000000	3.039991
2207.000000	3.014427
2208.000000	3.007515
2209.000000	2.995615
2210.000000	2.979218
2211.000000	2.987660
2212.000000	3.002002
2213.000000	3.005444
2214.000000	3.007069
2215.000000	3.031885
2216.000000	3.040625
2217.000000	3.070746
2218.000000	3.102062
2219.000000	3.113608
2220.000000	3.140363
2221.000000	3.158905
2222.000000	3.215279
2223.000000	3.215316
2224.000000	3.237815
2225.000000	3.257618
2226.000000	3.263509
2227.000000	3.285811
2228.000000	3.284135
2229.000000	3.296834
2230.000000	3.292725
2231.000000	3.301481
2232.000000	3.295352
2233.000000	3.312212
2234.000000	3.286755
2235.000000	3.287241
2236.000000	3.281388
2237.000000	3.262078
2238.000000	3.246977
2239.000000	3.234769
2240.000000	3.233657
2241.000000	3.209705
2242.000000	3.173455
2243.000000	3.160741
2244.000000	3.124866
2245.000000	3.113778
2246.000000	3.084863
2247.000000	3.052494
2248.000000	3.010773
2249.000000	2.973701
2250.000000	2.932842
2251.000000	2.901635
2252.000000	2.864909
2253.000000	2.809148
2254.000000	2.773663
2255.000000	2.728852
2256.000000	2.669356
2257.000000	2.638209
2258.000000	2.590916
2259.000000	2.544644
2260.000000	2.519648
2261.000000	2.491353
2262.000000	2.462795
2263.000000	2.434810
2264.000000	2.422699
2265.000000	2.379865
2266.000000	2.381853
2267.000000	2.369789
2268.000000	2.361552
2269.000000	2.359995
2270.000000	2.360562
2271.000000	2.369627
2272.000000	2.373464
2273.000000	2.381629
2274.000000	2.408803
2275.000000	2.413511
2276.000000	2.436028
2277.000000	2.455610
2278.000000	2.462450
2279.000000	2.498070
2280.000000	2.515370
2281.000000	2.541742
2282.000000	2.555882
2283.000000	2.569789
2284.000000	2.587876
2285.000000	2.601166
2286.000000	2.604844
2287.000000	2.624012
2288.000000	2.629324
2289.000000	2.633970
2290.000000	2.657439
2291.000000	2.643729
2292.000000	2.645040
2293.000000	2.627252
2294.000000	2.630387
2295.000000	2.611513
2296.000000	2.614097
2297.000000	2.599809
2298.000000	2.586284
2299.000000	2.567274
2300.000000	2.551963
2301.000000	2.548793
2302.000000	2.535426
2303.000000	2.527147
2304.000000	2.522934
2305.000000	2.516062
2306.000000	2.531905
2307.000000	2.536102
2308.000000	2.544561
2309.000000	2.563631
2310.000000	2.576781
2311.000000	2.606558
2312.000000	2.623348
2313.000000	2.662541
2314.000000	2.692288
2315.000000	2.712610
2316.000000	2.752641
2317.000000	2.783241
2318.000000	2.816320
2319.000000	2.841330
2320.000000	2.874026
2321.000000	2.904996
2322.000000	2.944638
2323.000000	2.982115
2324.000000	2.996292
2325.000000	3.011455
2326.000000	3.052758
2327.000000	3.082183
2328.000000	3.088433
2329.000000	3.109342
2330.000000	3.130067
2331.000000	3.155169
2332.000000	3.173855
2333.000000	3.185455
2334.000000	3.183908
2335.000000	3.199863
2336.000000	3.204479
2337.000000	3.202394
2338.000000	3.212288
2339.000000	3.222060
2340.000000	3.218461
2341.000000	3.211952
2342.000000	3.207884
2343.000000	3.204323
2344.000000	3.195850
2345.000000	3.189953
2346.000000	3.182161
2347.000000	3.180588
2348.000000	3.181096
2349.000000	3.168593
2350.000000	3.162409
2351.000000	3.162854
2352.000000	3.167380
2353.000000	3.173559
2354.000000	3.185731
2355.000000	3.204138
2356.000000	3.215902
2357.000000	3.215442
2358.000000	3.225118
2359.000000	3.252581
2360.000000	3.279863
2361.000000	3.293388
2362.000000	3.306476
2363.000000	3.326227
2364.000000	3.350315
2365.000000	3.362426
2366.000000	3.388329
2367.000000	3.408740
2368.000000	3.420284
2369.000000	3.445092
2370.000000	3.456543
2371.000000	3.474542
2372.000000	3.485221
2373.000000	3.485418
2374.000000	3.506938
2375.000000	3.529407
2376.000000	3.534719
2377.000000	3.537819
2378.000000	3.545496
2379.000000	3.544471
2380.000000	3.549537
2381.000000	3.564051
2382.000000	3.567372
2383.000000	3.563927
2384.000000	3.561732
2385.000000	3.577157
2386.000000	3.577823
2387.000000	3.573672
2388.000000	3.569293
2389.000000	3.575614
2390.000000	3.581332
2391.000000	3.583105
2392.000000	3.575108
2393.000000	3.570519
2394.000000	3.555426
2395.000000	3.554146
2396.000000	3.545234
2397.000000	3.534717
2398.000000	3.544906
2399.000000	3.542155
2400.000000	3.522120
2401.000000	3.513114
2402.000000	3.507209
2403.000000	3.502452
2404.000000	3.487076
2405.000000	3.476473
2406.000000	3.476762
2407.000000	3.475963
2408.000000	3.469799
2409.000000	3.466346
2410.000000	3.460316
2411.000000	3.446944
2412.000000	3.435360
2413.000000	3.417122
2414.000000	3.405072
2415.000000	3.403177
2416.000000	3.385692
2417.000000	3.383159
2418.000000	3.381707
2419.000000	3.371252
2420.000000	3.356397
2421.000000	3.330647
2422.000000	3.310088
2423.000000	3.304995
2424.000000	3.291679
2425.000000	3.289256
2426.000000	3.305067
2427.000000	3.311290
2428.000000	3.301210
2429.000000	3.274991
2430.000000	3.253912
2431.000000	3.241175
2432.000000	3.242091
2433.000000	3.217864
2434.000000	3.187094
2435.000000	3.170619
2436.000000	3.150471
2437.000000	3.135874
2438.000000	3.118445
2439.000000	3.099014
2440.000000	3.066721
2441.000000	3.046329
2442.000000	3.041230
2443.000000	3.009219
2444.000000	2.986780
2445.000000	2.964040
2446.000000	2.925849
2447.000000	2.908376
2448.000000	2.885287
2449.000000	2.868607
2450.000000	2.833104
2451.000000	2.822896
2452.000000	2.795045
2453.000000	2.772272
2454.000000	2.741359
2455.000000	2.741118
2456.000000	2.702213
2457.000000	2.700796
2458.000000	2.663776
2459.000000	2.663708
2460.000000	2.639445
2461.000000	2.611933
2462.000000	2.608805
2463.000000	2.602054
2464.000000	2.587222
2465.000000	2.572302
2466.000000	2.557280
2467.000000	2.555630
2468.000000	2.566087
2469.000000	2.525106
2470.000000	2.547681
2471.000000	2.543341
2472.000000	2.538109
2473.000000	2.510189
2474.000000	2.529743
2475.000000	2.502329
2476.000000	2.506782
2477.000000	2.531954
2478.000000	2.532137
2479.000000	2.528260
2480.000000	2.519173
2481.000000	2.495002
2482.000000	2.467627
2483.000000	2.494296
2484.000000	2.482009
2485.000000	2.462469
2486.000000	2.494162
2487.000000	2.498615
2488.000000	2.473041
2489.000000	2.435005
2490.000000	2.489670
2491.000000	2.480533
2492.000000	2.446716
2493.000000	2.507176
2494.000000	2.457217
2495.000000	2.461158
2496.000000	2.419605
2497.000000	2.450253
2498.000000	2.453734
2499.000000	2.440657
2500.000000	2.420854
