PE UV       SUBTECH     SPECTRUM    ASCII       PEDS        4.00        
   -1
CICIMAUCR0020-5.Sample.ASC
24/04/25
10:32:19.00
24/04/25
10:32:19.00
Vinicio Soto Monge
C. resplendens
250,000000
1
Lambda 1050
1050L1511233
PerkinElmer UV WinLab 6.3.2.0749 / 2.02.05 Lambda 900 UV/VIS/NIR, Aug  7 2015 09:38:08

0
0
3350/servo 860,8/2
0
0
UV/VIS
1
1
1
DoubleDePol,CommonBeamDepol,RBeamAtt,SBeamAtt,60mm sphere, WB InGaAs Detector
0
0
0
0
Program
Program
3350/servo 860,8/2
3350/0,2 860,8/0,2
3350/0,2 860,8/0,2
0
15.00
 
 
 
0
 
860,8
319,2
860,8
Front
100
on
S:100 R:100
0
0
0
0
 
0
 
 
 
0
 
 
0
0
0
0
0
 
 
 
 
0
0


0
0
#HDR
-1
-1
#GR
nm
%R
1.0
0.0
2500,000000
-1,000000
2251
8
88,766800
5,704900
#DATA
2482.000000	9.241720
2481.000000	9.216273
2480.000000	9.227702
2479.000000	9.200746
2478.000000	9.135726
2477.000000	9.213685
2476.000000	9.200853
2475.000000	9.214763
2474.000000	9.214224
2473.000000	9.228349
2472.000000	9.188130
2471.000000	9.173465
2470.000000	9.237407
2469.000000	9.227918
2468.000000	9.240749
2467.000000	9.255198
2466.000000	9.265010
2465.000000	9.297466
2464.000000	9.317953
2463.000000	9.346204
2462.000000	9.375748
2461.000000	9.366152
2460.000000	9.424486
2459.000000	9.473439
2458.000000	9.526598
2457.000000	9.577061
2456.000000	9.635287
2455.000000	9.711952
2454.000000	9.766728
2453.000000	9.815789
2452.000000	9.923400
2451.000000	9.962218
2450.000000	10.040500
2449.000000	10.097109
2448.000000	10.185958
2447.000000	10.281708
2446.000000	10.329476
2445.000000	10.426412
2444.000000	10.512134
2443.000000	10.580712
2442.000000	10.654681
2441.000000	10.709349
2440.000000	10.790327
2439.000000	10.857611
2438.000000	10.950881
2437.000000	10.997786
2436.000000	11.065501
2435.000000	11.122757
2434.000000	11.180228
2433.000000	11.230907
2432.000000	11.297328
2431.000000	11.345850
2430.000000	11.387256
2429.000000	11.435239
2428.000000	11.479663
2427.000000	11.520206
2426.000000	11.567758
2425.000000	11.604095
2424.000000	11.651323
2423.000000	11.665233
2422.000000	11.714833
2421.000000	11.765512
2420.000000	11.785568
2419.000000	11.812309
2418.000000	11.861478
2417.000000	11.874956
2416.000000	11.875819
2415.000000	11.915068
2414.000000	11.952807
2413.000000	11.979548
2412.000000	12.011680
2411.000000	12.075298
2410.000000	12.149051
2409.000000	12.214718
2408.000000	12.267337
2407.000000	12.318555
2406.000000	12.341846
2405.000000	12.363627
2404.000000	12.387349
2403.000000	12.439752
2402.000000	12.501214
2401.000000	12.549628
2400.000000	12.579927
2399.000000	12.600306
2398.000000	12.648936
2397.000000	12.709535
2396.000000	12.751048
2395.000000	12.788356
2394.000000	12.830408
2393.000000	12.864805
2392.000000	12.904485
2391.000000	12.922061
2390.000000	12.954194
2389.000000	13.002500
2388.000000	13.010803
2387.000000	13.030211
2386.000000	13.054796
2385.000000	13.074313
2384.000000	13.105798
2383.000000	13.118198
2382.000000	13.120894
2381.000000	13.117012
2380.000000	13.118198
2379.000000	13.118953
2378.000000	13.112483
2377.000000	13.109572
2376.000000	13.105798
2375.000000	13.105474
2374.000000	13.094907
2373.000000	13.082723
2372.000000	13.066765
2371.000000	13.038083
2370.000000	13.015331
2369.000000	12.990315
2368.000000	12.940176
2367.000000	12.902976
2366.000000	12.863727
2365.000000	12.792022
2364.000000	12.732825
2363.000000	12.689587
2362.000000	12.624999
2361.000000	12.566772
2360.000000	12.515770
2359.000000	12.452691
2358.000000	12.413443
2357.000000	12.368802
2356.000000	12.322006
2355.000000	12.304969
2354.000000	12.290304
2353.000000	12.295696
2352.000000	12.322437
2351.000000	12.330416
2350.000000	12.347345
2349.000000	12.402983
2348.000000	12.466062
2347.000000	12.522132
2346.000000	12.582838
2345.000000	12.651955
2344.000000	12.707810
2343.000000	12.776926
2342.000000	12.833751
2341.000000	12.885400
2340.000000	12.929501
2339.000000	12.971230
2338.000000	13.000559
2337.000000	13.012528
2336.000000	13.020938
2335.000000	13.018674
2334.000000	13.033123
2333.000000	13.011342
2332.000000	12.953439
2331.000000	12.905564
2330.000000	12.872461
2329.000000	12.836770
2328.000000	12.772290
2327.000000	12.684627
2326.000000	12.591141
2325.000000	12.526014
2324.000000	12.440723
2323.000000	12.340336
2322.000000	12.235636
2321.000000	12.127270
2320.000000	12.015023
2319.000000	11.893826
2318.000000	11.763787
2317.000000	11.647981
2316.000000	11.504571
2315.000000	11.375934
2314.000000	11.284066
2313.000000	11.189609
2312.000000	11.078979
2311.000000	10.974495
2310.000000	10.922199
2309.000000	10.872060
2308.000000	10.827743
2307.000000	10.805531
2306.000000	10.799816
2305.000000	10.824077
2304.000000	10.878314
2303.000000	10.944951
2302.000000	11.005010
2301.000000	11.110357
2300.000000	11.219801
2299.000000	11.325148
2298.000000	11.436856
2297.000000	11.546839
2296.000000	11.631375
2295.000000	11.741898
2294.000000	11.835384
2293.000000	11.910323
2292.000000	11.967148
2291.000000	12.023110
2290.000000	12.032706
2289.000000	12.051037
2288.000000	12.031628
2287.000000	12.050390
2286.000000	12.013513
2285.000000	11.969304
2284.000000	11.921321
2283.000000	11.879053
2282.000000	11.816406
2281.000000	11.754082
2280.000000	11.703943
2279.000000	11.642589
2278.000000	11.573365
2277.000000	11.523657
2276.000000	11.486025
2275.000000	11.445913
2274.000000	11.399764
2273.000000	11.381217
2272.000000	11.392755
2271.000000	11.398793
2270.000000	11.422407
2269.000000	11.490122
2268.000000	11.534655
2267.000000	11.638923
2266.000000	11.752573
2265.000000	11.891453
2264.000000	12.064300
2263.000000	12.269386
2262.000000	12.486765
2261.000000	12.722043
2260.000000	12.959801
2259.000000	13.214164
2258.000000	13.488691
2257.000000	13.766668
2256.000000	14.044969
2255.000000	14.325102
2254.000000	14.626478
2253.000000	14.876852
2252.000000	15.121079
2251.000000	15.369512
2250.000000	15.619239
2249.000000	15.837480
2248.000000	16.027363
2247.000000	16.212825
2246.000000	16.416833
2245.000000	16.564232
2244.000000	16.705485
2243.000000	16.848679
2242.000000	16.989500
2241.000000	17.127950
2240.000000	17.224671
2239.000000	17.346083
2238.000000	17.433639
2237.000000	17.533271
2236.000000	17.607887
2235.000000	17.681640
2234.000000	17.742994
2233.000000	17.780086
2232.000000	17.849203
2231.000000	17.875081
2230.000000	17.926838
2229.000000	17.954873
2228.000000	17.973527
2227.000000	17.979565
2226.000000	17.976223
2225.000000	17.996278
2224.000000	17.973096
2223.000000	17.942581
2222.000000	17.963930
2221.000000	17.941718
2220.000000	17.909478
2219.000000	17.888560
2218.000000	17.850065
2217.000000	17.851575
2216.000000	17.798524
2215.000000	17.790329
2214.000000	17.750541
2213.000000	17.711292
2212.000000	17.699216
2211.000000	17.651341
2210.000000	17.621257
2209.000000	17.590419
2208.000000	17.593114
2207.000000	17.565403
2206.000000	17.551062
2205.000000	17.544808
2204.000000	17.514185
2203.000000	17.495747
2202.000000	17.455096
2201.000000	17.449597
2200.000000	17.430512
2199.000000	17.436550
2198.000000	17.422209
2197.000000	17.387489
2196.000000	17.378755
2195.000000	17.384685
2194.000000	17.348887
2193.000000	17.343280
2192.000000	17.338428
2191.000000	17.315568
2190.000000	17.302629
2189.000000	17.297777
2188.000000	17.267909
2187.000000	17.242462
2186.000000	17.230493
2185.000000	17.222837
2184.000000	17.199008
2183.000000	17.175609
2182.000000	17.160621
2181.000000	17.158465
2180.000000	17.127519
2179.000000	17.117275
2178.000000	17.114040
2177.000000	17.086113
2176.000000	17.094739
2175.000000	17.113070
2174.000000	17.116520
2173.000000	17.105953
2172.000000	17.107355
2171.000000	17.096357
2170.000000	17.124392
2169.000000	17.149515
2168.000000	17.132479
2167.000000	17.166660
2166.000000	17.191676
2165.000000	17.207418
2164.000000	17.243432
2163.000000	17.268879
2162.000000	17.321175
2161.000000	17.341663
2160.000000	17.359670
2159.000000	17.378647
2158.000000	17.437844
2157.000000	17.473211
2156.000000	17.479357
2155.000000	17.542436
2154.000000	17.605514
2153.000000	17.626217
2152.000000	17.663525
2151.000000	17.719811
2150.000000	17.764020
2149.000000	17.806719
2148.000000	17.863220
2147.000000	17.906135
2146.000000	17.935033
2145.000000	17.983986
2144.000000	18.029058
2143.000000	18.072296
2142.000000	18.105076
2141.000000	18.140443
2140.000000	18.170203
2139.000000	18.205786
2138.000000	18.233605
2137.000000	18.245250
2136.000000	18.292910
2135.000000	18.331296
2134.000000	18.337227
2133.000000	18.356851
2132.000000	18.369035
2131.000000	18.381543
2130.000000	18.382514
2129.000000	18.409686
2128.000000	18.432006
2127.000000	18.411519
2126.000000	18.422302
2125.000000	18.435133
2124.000000	18.417018
2123.000000	18.397825
2122.000000	18.397070
2121.000000	18.395776
2120.000000	18.384562
2119.000000	18.364399
2118.000000	18.328708
2117.000000	18.307898
2116.000000	18.303477
2115.000000	18.284391
2114.000000	18.265522
2113.000000	18.232958
2112.000000	18.198346
2111.000000	18.185299
2110.000000	18.155970
2109.000000	18.120818
2108.000000	18.092460
2107.000000	18.065072
2106.000000	18.054613
2105.000000	18.020324
2104.000000	17.981183
2103.000000	17.952501
2102.000000	17.918428
2101.000000	17.886619
2100.000000	17.852761
2099.000000	17.821060
2098.000000	17.794535
2097.000000	17.772862
2096.000000	17.748277
2095.000000	17.722399
2094.000000	17.691129
2093.000000	17.661692
2092.000000	17.633334
2091.000000	17.602927
2090.000000	17.588586
2089.000000	17.563786
2088.000000	17.535427
2087.000000	17.520871
2086.000000	17.487768
2085.000000	17.461242
2084.000000	17.441834
2083.000000	17.410348
2082.000000	17.367864
2081.000000	17.329478
2080.000000	17.302306
2079.000000	17.264998
2078.000000	17.219171
2077.000000	17.174208
2076.000000	17.147359
2075.000000	17.122020
2074.000000	17.094955
2073.000000	17.041042
2072.000000	16.983247
2071.000000	16.953702
2070.000000	16.916394
2069.000000	16.875420
2068.000000	16.831319
2067.000000	16.788404
2066.000000	16.761770
2065.000000	16.734275
2064.000000	16.701819
2063.000000	16.662893
2062.000000	16.624723
2061.000000	16.615342
2060.000000	16.595178
2059.000000	16.588816
2058.000000	16.571995
2057.000000	16.584935
2056.000000	16.601971
2055.000000	16.608872
2054.000000	16.649738
2053.000000	16.687694
2052.000000	16.738049
2051.000000	16.805225
2050.000000	16.863990
2049.000000	16.916610
2048.000000	16.998127
2047.000000	17.084172
2046.000000	17.153397
2045.000000	17.260469
2044.000000	17.361287
2043.000000	17.447333
2042.000000	17.528526
2041.000000	17.617160
2040.000000	17.733828
2039.000000	17.817717
2038.000000	17.895676
2037.000000	17.968028
2036.000000	18.049006
2035.000000	18.108095
2034.000000	18.207619
2033.000000	18.267678
2032.000000	18.308113
2031.000000	18.365477
2030.000000	18.422517
2029.000000	18.460257
2028.000000	18.516650
2027.000000	18.550616
2026.000000	18.578974
2025.000000	18.605823
2024.000000	18.622105
2023.000000	18.665775
2022.000000	18.699524
2021.000000	18.705131
2020.000000	18.722599
2019.000000	18.737048
2018.000000	18.741577
2017.000000	18.753114
2016.000000	18.744812
2015.000000	18.752575
2014.000000	18.757212
2013.000000	18.751281
2012.000000	18.731549
2011.000000	18.714297
2010.000000	18.695535
2009.000000	18.648522
2008.000000	18.632456
2007.000000	18.612293
2006.000000	18.556115
2005.000000	18.530776
2004.000000	18.471255
2003.000000	18.419606
2002.000000	18.370329
2001.000000	18.304555
2000.000000	18.267678
1999.000000	18.219048
1998.000000	18.137639
1997.000000	18.096450
1996.000000	18.039301
1995.000000	17.943012
1994.000000	17.892765
1993.000000	17.815884
1992.000000	17.730917
1991.000000	17.653174
1990.000000	17.597967
1989.000000	17.507931
1988.000000	17.411642
1987.000000	17.342849
1986.000000	17.240845
1985.000000	17.153397
1984.000000	17.083957
1983.000000	16.975914
1982.000000	16.910571
1981.000000	16.825927
1980.000000	16.746351
1979.000000	16.671088
1978.000000	16.585797
1977.000000	16.502555
1976.000000	16.421793
1975.000000	16.334992
1974.000000	16.249270
1973.000000	16.158911
1972.000000	16.084834
1971.000000	16.000730
1970.000000	15.947679
1969.000000	15.859800
1968.000000	15.762972
1967.000000	15.732780
1966.000000	15.655145
1965.000000	15.561767
1964.000000	15.517450
1963.000000	15.444991
1962.000000	15.369835
1961.000000	15.348486
1960.000000	15.252089
1959.000000	15.186099
1958.000000	15.111806
1957.000000	15.048296
1956.000000	15.002685
1955.000000	14.939391
1954.000000	14.875234
1953.000000	14.824879
1952.000000	14.768701
1951.000000	14.704221
1950.000000	14.652033
1949.000000	14.614833
1948.000000	14.564046
1947.000000	14.518651
1946.000000	14.495684
1945.000000	14.473795
1944.000000	14.454063
1943.000000	14.440693
1942.000000	14.422039
1941.000000	14.425705
1940.000000	14.415785
1939.000000	14.421823
1938.000000	14.422039
1937.000000	14.418588
1936.000000	14.449858
1935.000000	14.492881
1934.000000	14.517034
1933.000000	14.591866
1932.000000	14.632732
1931.000000	14.717592
1930.000000	14.794472
1929.000000	14.882243
1928.000000	14.961711
1927.000000	15.052178
1926.000000	15.173483
1925.000000	15.285623
1924.000000	15.417710
1923.000000	15.551631
1922.000000	15.709813
1921.000000	15.866701
1920.000000	16.019815
1919.000000	16.187378
1918.000000	16.365723
1917.000000	16.554420
1916.000000	16.724031
1915.000000	16.950144
1914.000000	17.176256
1913.000000	17.374226
1912.000000	17.575000
1911.000000	17.812542
1910.000000	18.049868
1909.000000	18.289352
1908.000000	18.552341
1907.000000	18.826868
1906.000000	19.120156
1905.000000	19.417435
1904.000000	19.716222
1903.000000	20.002395
1902.000000	20.301398
1901.000000	20.625956
1900.000000	20.966581
1899.000000	21.287150
1898.000000	21.654731
1897.000000	21.982848
1896.000000	22.330373
1895.000000	22.682643
1894.000000	23.067045
1893.000000	23.465681
1892.000000	23.907662
1891.000000	24.351801
1890.000000	24.765855
1889.000000	25.224550
1888.000000	25.679794
1887.000000	26.131696
1886.000000	26.648617
1885.000000	27.230127
1884.000000	27.828134
1883.000000	28.369855
1882.000000	28.968294
1881.000000	29.557998
1880.000000	30.103385
1879.000000	30.621385
1878.000000	31.159117
1877.000000	31.647464
1876.000000	32.107992
1875.000000	32.550513
1874.000000	32.964675
1873.000000	33.341637
1872.000000	33.688731
1871.000000	33.987627
1870.000000	34.258056
1869.000000	34.532583
1868.000000	34.720957
1867.000000	34.865444
1866.000000	35.003247
1865.000000	35.138677
1864.000000	35.269902
1863.000000	35.394658
1862.000000	35.508415
1861.000000	35.613330
1860.000000	35.689456
1859.000000	35.741321
1858.000000	35.791460
1857.000000	35.812594
1856.000000	35.815506
1855.000000	35.834914
1854.000000	35.821328
1853.000000	35.790382
1852.000000	35.782295
1851.000000	35.793725
1850.000000	35.782618
1849.000000	35.752858
1848.000000	35.698837
1847.000000	35.606430
1846.000000	35.531490
1845.000000	35.511219
1844.000000	35.500112
1843.000000	35.521139
1842.000000	35.519413
1841.000000	35.457197
1840.000000	35.412018
1839.000000	35.363065
1838.000000	35.306132
1837.000000	35.243700
1836.000000	35.174584
1835.000000	35.094900
1834.000000	35.011657
1833.000000	34.935855
1832.000000	34.874394
1831.000000	34.821990
1830.000000	34.737885
1829.000000	34.650007
1828.000000	34.563206
1827.000000	34.477915
1826.000000	34.407073
1825.000000	34.353375
1824.000000	34.333104
1823.000000	34.332349
1822.000000	34.312509
1821.000000	34.268731
1820.000000	34.210289
1819.000000	34.165541
1818.000000	34.128880
1817.000000	34.121332
1816.000000	34.118637
1815.000000	34.093189
1814.000000	34.083593
1813.000000	34.071948
1812.000000	34.050059
1811.000000	34.005850
1810.000000	33.958514
1809.000000	33.915275
1808.000000	33.885839
1807.000000	33.835052
1806.000000	33.771974
1805.000000	33.705337
1804.000000	33.669107
1803.000000	33.639239
1802.000000	33.588021
1801.000000	33.521384
1800.000000	33.460139
1799.000000	33.396737
1798.000000	33.357164
1797.000000	33.326973
1796.000000	33.278451
1795.000000	33.221518
1794.000000	33.161567
1793.000000	33.091911
1792.000000	33.034870
1791.000000	32.991093
1790.000000	32.927690
1789.000000	32.875502
1788.000000	32.818139
1787.000000	32.756462
1786.000000	32.677425
1785.000000	32.590085
1784.000000	32.516332
1783.000000	32.436109
1782.000000	32.362679
1781.000000	32.301864
1780.000000	32.199752
1779.000000	32.110472
1778.000000	32.032837
1777.000000	31.927706
1776.000000	31.817938
1775.000000	31.706984
1774.000000	31.591071
1773.000000	31.462110
1772.000000	31.334443
1771.000000	31.209041
1770.000000	31.082021
1769.000000	30.961255
1768.000000	30.862701
1767.000000	30.780321
1766.000000	30.700314
1765.000000	30.635295
1764.000000	30.605966
1763.000000	30.602623
1762.000000	30.638745
1761.000000	30.697834
1760.000000	30.762422
1759.000000	30.833264
1758.000000	30.924162
1757.000000	30.998347
1756.000000	31.050535
1755.000000	31.083530
1754.000000	31.104233
1753.000000	31.111349
1752.000000	31.105096
1751.000000	31.067788
1750.000000	31.033499
1749.000000	30.978615
1748.000000	30.884482
1747.000000	30.801779
1746.000000	30.690717
1745.000000	30.551729
1744.000000	30.383196
1743.000000	30.193097
1742.000000	29.965259
1741.000000	29.742813
1740.000000	29.502683
1739.000000	29.275492
1738.000000	29.086148
1737.000000	28.911253
1736.000000	28.792967
1735.000000	28.729673
1734.000000	28.688699
1733.000000	28.719537
1732.000000	28.791997
1731.000000	28.892707
1730.000000	29.029431
1729.000000	29.155696
1728.000000	29.290695
1727.000000	29.412000
1726.000000	29.520151
1725.000000	29.605118
1724.000000	29.660865
1723.000000	29.708200
1722.000000	29.753380
1721.000000	29.778503
1720.000000	29.811822
1719.000000	29.853874
1718.000000	29.913287
1717.000000	29.970112
1716.000000	30.027907
1715.000000	30.115570
1714.000000	30.188784
1713.000000	30.243021
1712.000000	30.302541
1711.000000	30.342869
1710.000000	30.364434
1709.000000	30.348691
1708.000000	30.300169
1707.000000	30.267498
1706.000000	30.224906
1705.000000	30.169914
1704.000000	30.064029
1703.000000	29.947791
1702.000000	29.829290
1701.000000	29.662158
1700.000000	29.472815
1699.000000	29.274629
1698.000000	29.128308
1697.000000	29.022638
1696.000000	28.970450
1695.000000	28.983713
1694.000000	29.044958
1693.000000	29.203895
1692.000000	29.347412
1691.000000	29.537403
1690.000000	29.704750
1689.000000	29.805784
1688.000000	29.879861
1687.000000	29.944449
1686.000000	29.954369
1685.000000	30.030926
1684.000000	30.183608
1683.000000	30.462017
1682.000000	30.847713
1681.000000	31.354714
1680.000000	31.933744
1679.000000	32.510725
1678.000000	33.047378
1677.000000	33.598480
1676.000000	34.009300
1675.000000	34.425080
1674.000000	34.742522
1673.000000	35.038183
1672.000000	35.297614
1671.000000	35.504857
1670.000000	35.714364
1669.000000	35.891092
1668.000000	36.044745
1667.000000	36.197104
1666.000000	36.289404
1665.000000	36.391192
1664.000000	36.466455
1663.000000	36.556383
1662.000000	36.619138
1661.000000	36.648790
1660.000000	36.708203
1659.000000	36.729013
1658.000000	36.759421
1657.000000	36.761577
1656.000000	36.782172
1655.000000	36.768909
1654.000000	36.742600
1653.000000	36.753490
1652.000000	36.723946
1651.000000	36.706370
1650.000000	36.675208
1649.000000	36.627441
1648.000000	36.564578
1647.000000	36.522202
1646.000000	36.467210
1645.000000	36.416855
1644.000000	36.350973
1643.000000	36.311077
1642.000000	36.245842
1641.000000	36.183626
1640.000000	36.126909
1639.000000	36.045931
1638.000000	35.977893
1637.000000	35.903923
1636.000000	35.827474
1635.000000	35.762670
1634.000000	35.687192
1633.000000	35.610958
1632.000000	35.514561
1631.000000	35.436279
1630.000000	35.350557
1629.000000	35.273461
1628.000000	35.173613
1627.000000	35.076677
1626.000000	34.996130
1625.000000	34.918387
1624.000000	34.831695
1623.000000	34.755030
1622.000000	34.670601
1621.000000	34.572371
1620.000000	34.516086
1619.000000	34.424433
1618.000000	34.335584
1617.000000	34.270457
1616.000000	34.183225
1615.000000	34.116588
1614.000000	34.038306
1613.000000	33.950858
1612.000000	33.880771
1611.000000	33.821574
1610.000000	33.740596
1609.000000	33.667597
1608.000000	33.593520
1607.000000	33.510710
1606.000000	33.435015
1605.000000	33.364173
1604.000000	33.289988
1603.000000	33.192513
1602.000000	33.121563
1601.000000	33.057514
1600.000000	32.973948
1599.000000	32.901489
1598.000000	32.831186
1597.000000	32.775116
1596.000000	32.716997
1595.000000	32.649605
1594.000000	32.583615
1593.000000	32.525713
1592.000000	32.479455
1591.000000	32.428129
1590.000000	32.374000
1589.000000	32.312108
1588.000000	32.260351
1587.000000	32.204712
1586.000000	32.163846
1585.000000	32.127724
1584.000000	32.093543
1583.000000	32.060440
1582.000000	32.026583
1581.000000	31.982482
1580.000000	31.943233
1579.000000	31.932234
1578.000000	31.922206
1577.000000	31.902366
1576.000000	31.884359
1575.000000	31.863872
1574.000000	31.856432
1573.000000	31.861608
1572.000000	31.871097
1571.000000	31.874763
1570.000000	31.864303
1569.000000	31.870234
1568.000000	31.891152
1567.000000	31.888888
1566.000000	31.899886
1565.000000	31.920158
1564.000000	31.915737
1563.000000	31.913580
1562.000000	31.917139
1561.000000	31.920481
1560.000000	31.914982
1559.000000	31.902366
1558.000000	31.899563
1557.000000	31.891907
1556.000000	31.879184
1555.000000	31.855138
1554.000000	31.824947
1553.000000	31.793461
1552.000000	31.757016
1551.000000	31.732755
1550.000000	31.708386
1549.000000	31.672480
1548.000000	31.636142
1547.000000	31.608970
1546.000000	31.583199
1545.000000	31.545029
1544.000000	31.510416
1543.000000	31.492840
1542.000000	31.458875
1541.000000	31.424263
1540.000000	31.409922
1539.000000	31.398923
1538.000000	31.377681
1537.000000	31.343824
1536.000000	31.312770
1535.000000	31.276217
1534.000000	31.242467
1533.000000	31.232115
1532.000000	31.179388
1531.000000	31.132268
1530.000000	31.094313
1529.000000	31.056034
1528.000000	31.038890
1527.000000	30.987241
1526.000000	30.951982
1525.000000	30.898176
1524.000000	30.845018
1523.000000	30.809111
1522.000000	30.766627
1521.000000	30.715302
1520.000000	30.671848
1519.000000	30.608338
1518.000000	30.560247
1517.000000	30.517656
1516.000000	30.470320
1515.000000	30.419857
1514.000000	30.375756
1513.000000	30.324214
1512.000000	30.271919
1511.000000	30.226200
1510.000000	30.158700
1509.000000	30.118481
1508.000000	30.069312
1507.000000	30.014860
1506.000000	29.970219
1505.000000	29.927951
1504.000000	29.878782
1503.000000	29.845248
1502.000000	29.825624
1501.000000	29.774945
1500.000000	29.727394
1499.000000	29.698604
1498.000000	29.678332
1497.000000	29.653101
1496.000000	29.619459
1495.000000	29.588082
1494.000000	29.589483
1493.000000	29.588405
1492.000000	29.559831
1491.000000	29.549264
1490.000000	29.546568
1489.000000	29.532874
1488.000000	29.533198
1487.000000	29.534276
1486.000000	29.513358
1485.000000	29.513142
1484.000000	29.522307
1483.000000	29.543765
1482.000000	29.531041
1481.000000	29.540314
1480.000000	29.552391
1479.000000	29.562742
1478.000000	29.567702
1477.000000	29.576436
1476.000000	29.599727
1475.000000	29.619243
1474.000000	29.661943
1473.000000	29.702270
1472.000000	29.722434
1471.000000	29.729227
1470.000000	29.742489
1469.000000	29.759203
1468.000000	29.825947
1467.000000	29.849885
1466.000000	29.877488
1465.000000	29.913071
1464.000000	29.961593
1463.000000	30.009900
1462.000000	30.046992
1461.000000	30.126568
1460.000000	30.208624
1459.000000	30.276447
1458.000000	30.347721
1457.000000	30.449833
1456.000000	30.548602
1455.000000	30.634001
1454.000000	30.734064
1453.000000	30.833588
1452.000000	30.947776
1451.000000	31.038243
1450.000000	31.132376
1449.000000	31.260905
1448.000000	31.385768
1447.000000	31.523895
1446.000000	31.657384
1445.000000	31.752703
1444.000000	31.857295
1443.000000	32.017957
1442.000000	32.155436
1441.000000	32.282024
1440.000000	32.444950
1439.000000	32.549327
1438.000000	32.719369
1437.000000	32.819648
1436.000000	32.963812
1435.000000	33.151323
1434.000000	33.304976
1433.000000	33.471461
1432.000000	33.614762
1431.000000	33.782325
1430.000000	33.954740
1429.000000	34.183440
1428.000000	34.381195
1427.000000	34.586820
1426.000000	34.834282
1425.000000	35.085734
1424.000000	35.345165
1423.000000	35.570631
1422.000000	35.817662
1421.000000	36.127448
1420.000000	36.440900
1419.000000	36.668523
1418.000000	36.937982
1417.000000	37.203128
1416.000000	37.521324
1415.000000	37.843834
1414.000000	38.096364
1413.000000	38.357520
1412.000000	38.658141
1411.000000	39.025183
1410.000000	39.421015
1409.000000	39.802830
1408.000000	40.227559
1407.000000	40.620264
1406.000000	41.049846
1405.000000	41.447187
1404.000000	41.889276
1403.000000	42.292548
1402.000000	42.763428
1401.000000	43.197430
1400.000000	43.534712
1399.000000	43.812150
1398.000000	44.128945
1397.000000	44.491135
1396.000000	44.822163
1395.000000	45.062617
1394.000000	45.291425
1393.000000	45.552905
1392.000000	45.831529
1391.000000	46.098724
1390.000000	46.379073
1389.000000	46.763475
1388.000000	47.121568
1387.000000	47.490766
1386.000000	47.912692
1385.000000	48.357585
1384.000000	48.756329
1383.000000	49.154317
1382.000000	49.444263
1381.000000	49.642125
1380.000000	49.763969
1379.000000	49.905761
1378.000000	50.006040
1377.000000	50.182768
1376.000000	50.354320
1375.000000	50.561024
1374.000000	50.821102
1373.000000	51.154718
1372.000000	51.444880
1371.000000	51.735904
1370.000000	52.024880
1369.000000	52.298652
1368.000000	52.538782
1367.000000	52.736320
1366.000000	52.911862
1365.000000	53.105519
1364.000000	53.239871
1363.000000	53.398269
1362.000000	53.534669
1361.000000	53.594082
1360.000000	53.586965
1359.000000	53.707084
1358.000000	53.852219
1357.000000	54.060864
1356.000000	54.358142
1355.000000	54.693914
1354.000000	55.056643
1353.000000	55.450642
1352.000000	55.865667
1351.000000	56.268616
1350.000000	56.619268
1349.000000	56.934769
1348.000000	57.239919
1347.000000	57.507437
1346.000000	57.782179
1345.000000	58.059617
1344.000000	58.303306
1343.000000	58.517450
1342.000000	58.743131
1341.000000	58.964715
1340.000000	59.163224
1339.000000	59.344912
1338.000000	59.537922
1337.000000	59.728128
1336.000000	59.902699
1335.000000	60.061528
1334.000000	60.219279
1333.000000	60.365168
1332.000000	60.511597
1331.000000	60.636568
1330.000000	60.761431
1329.000000	60.887049
1328.000000	60.999297
1327.000000	61.099792
1326.000000	61.217215
1325.000000	61.312642
1324.000000	61.408823
1323.000000	61.511474
1322.000000	61.587923
1321.000000	61.665882
1320.000000	61.743841
1319.000000	61.811124
1318.000000	61.878840
1317.000000	61.949790
1316.000000	62.010388
1315.000000	62.069477
1314.000000	62.117029
1313.000000	62.173746
1312.000000	62.222160
1311.000000	62.252998
1310.000000	62.288473
1309.000000	62.328154
1308.000000	62.365354
1307.000000	62.389723
1306.000000	62.404818
1305.000000	62.427138
1304.000000	62.435765
1303.000000	62.440725
1302.000000	62.441695
1301.000000	62.439107
1300.000000	62.436843
1299.000000	62.427138
1298.000000	62.414631
1297.000000	62.403201
1296.000000	62.386272
1295.000000	62.367510
1294.000000	62.353601
1293.000000	62.321253
1292.000000	62.274564
1291.000000	62.246744
1290.000000	62.217523
1289.000000	62.179892
1288.000000	62.128243
1287.000000	62.072712
1286.000000	62.001331
1285.000000	61.948280
1284.000000	61.898356
1283.000000	61.844119
1282.000000	61.796029
1281.000000	61.740929
1280.000000	61.675910
1279.000000	61.624261
1278.000000	61.589648
1277.000000	61.527864
1276.000000	61.477509
1275.000000	61.442357
1274.000000	61.408176
1273.000000	61.376906
1272.000000	61.346607
1271.000000	61.303476
1270.000000	61.272314
1269.000000	61.250210
1268.000000	61.217862
1267.000000	61.179476
1266.000000	61.138825
1265.000000	61.096341
1264.000000	61.061621
1263.000000	61.025607
1262.000000	60.977408
1261.000000	60.945276
1260.000000	60.918535
1259.000000	60.871522
1258.000000	60.837449
1257.000000	60.795181
1256.000000	60.725633
1255.000000	60.677434
1254.000000	60.624060
1253.000000	60.559688
1252.000000	60.512675
1251.000000	60.469329
1250.000000	60.387812
1249.000000	60.335732
1248.000000	60.265428
1247.000000	60.170110
1246.000000	60.091396
1245.000000	60.009017
1244.000000	59.893319
1243.000000	59.806087
1242.000000	59.705916
1241.000000	59.614586
1240.000000	59.516356
1239.000000	59.414460
1238.000000	59.323131
1237.000000	59.225763
1236.000000	59.127102
1235.000000	59.014854
1234.000000	58.916193
1233.000000	58.807611
1232.000000	58.687061
1231.000000	58.578156
1230.000000	58.477446
1229.000000	58.367139
1228.000000	58.262547
1227.000000	58.143075
1226.000000	58.023819
1225.000000	57.905317
1224.000000	57.791776
1223.000000	57.680391
1222.000000	57.559841
1221.000000	57.442633
1220.000000	57.342678
1219.000000	57.232910
1218.000000	57.128426
1217.000000	57.042919
1216.000000	56.952237
1215.000000	56.868564
1214.000000	56.778420
1213.000000	56.679435
1212.000000	56.619053
1211.000000	56.538722
1210.000000	56.433806
1209.000000	56.349162
1208.000000	56.292230
1207.000000	56.237346
1206.000000	56.175777
1205.000000	56.150977
1204.000000	56.115610
1203.000000	56.085310
1202.000000	56.039160
1201.000000	56.000235
1200.000000	55.930148
1199.000000	55.854561
1198.000000	55.746411
1197.000000	55.604295
1196.000000	55.430694
1195.000000	55.214394
1194.000000	54.940622
1193.000000	54.602046
1192.000000	54.274684
1191.000000	53.914435
1190.000000	53.607237
1189.000000	53.362901
1188.000000	53.161481
1187.000000	53.098295
1186.000000	53.119537
1185.000000	53.230059
1184.000000	53.431911
1183.000000	53.702879
1182.000000	54.040700
1181.000000	54.403214
1180.000000	54.743407
1179.000000	55.052438
1178.000000	55.339473
1177.000000	55.567526
1176.000000	55.768300
1175.000000	55.999157
1174.000000	56.188932
1173.000000	56.408898
1172.000000	56.626385
1171.000000	56.861663
1170.000000	57.115702
1169.000000	57.327258
1168.000000	57.575368
1167.000000	57.823046
1166.000000	58.063715
1165.000000	58.331125
1164.000000	58.569314
1163.000000	58.815375
1162.000000	59.063484
1161.000000	59.311162
1160.000000	59.522718
1159.000000	59.746243
1158.000000	59.948957
1157.000000	60.134203
1156.000000	60.295404
1155.000000	60.406681
1154.000000	60.494129
1153.000000	60.559688
1152.000000	60.589556
1151.000000	60.612846
1150.000000	60.620502
1149.000000	60.672367
1148.000000	60.692422
1147.000000	60.784722
1146.000000	60.937297
1145.000000	61.053210
1144.000000	61.232203
1143.000000	61.423272
1142.000000	61.631162
1141.000000	61.870645
1140.000000	62.083926
1139.000000	62.310254
1138.000000	62.557070
1137.000000	62.810678
1136.000000	63.042074
1135.000000	63.278538
1134.000000	63.464755
1133.000000	63.609135
1132.000000	63.768287
1131.000000	63.946093
1130.000000	64.077965
1129.000000	64.173069
1128.000000	64.268927
1127.000000	64.331682
1126.000000	64.413199
1125.000000	64.463662
1124.000000	64.502156
1123.000000	64.544855
1122.000000	64.558549
1121.000000	64.588848
1120.000000	64.609228
1119.000000	64.610737
1118.000000	64.626049
1117.000000	64.640282
1116.000000	64.635322
1115.000000	64.645457
1114.000000	64.647937
1113.000000	64.650849
1112.000000	64.667778
1111.000000	64.681579
1110.000000	64.682119
1109.000000	64.692362
1108.000000	64.693548
1107.000000	64.720074
1106.000000	64.745736
1105.000000	64.765576
1104.000000	64.794797
1103.000000	64.815931
1102.000000	64.812481
1101.000000	64.834478
1100.000000	64.867365
1099.000000	64.883862
1098.000000	64.917612
1097.000000	64.936913
1096.000000	64.964301
1095.000000	64.979505
1094.000000	64.990503
1093.000000	65.030938
1092.000000	65.040642
1091.000000	65.048837
1090.000000	65.062100
1089.000000	65.079244
1088.000000	65.093154
1087.000000	65.097575
1086.000000	65.084312
1085.000000	65.091860
1084.000000	65.099624
1083.000000	65.085606
1082.000000	65.069432
1081.000000	65.062208
1080.000000	65.044416
1079.000000	65.025223
1078.000000	65.008510
1077.000000	64.974113
1076.000000	64.944892
1075.000000	64.904673
1074.000000	64.869306
1073.000000	64.839330
1072.000000	64.787897
1071.000000	64.742286
1070.000000	64.701312
1069.000000	64.628960
1068.000000	64.572027
1067.000000	64.513909
1066.000000	64.447380
1065.000000	64.395623
1064.000000	64.334377
1063.000000	64.270975
1062.000000	64.212857
1061.000000	64.172206
1060.000000	64.129938
1059.000000	64.071280
1058.000000	64.020817
1057.000000	63.989224
1056.000000	63.949759
1055.000000	63.910834
1054.000000	63.882799
1053.000000	63.876437
1052.000000	63.877947
1051.000000	63.861773
1050.000000	63.858430
1049.000000	63.881936
1048.000000	63.915255
1047.000000	63.942104
1046.000000	63.973697
1045.000000	64.021896
1044.000000	64.076672
1043.000000	64.128321
1042.000000	64.186763
1041.000000	64.249410
1040.000000	64.318742
1039.000000	64.385919
1038.000000	64.458702
1037.000000	64.538385
1036.000000	64.603189
1035.000000	64.681579
1034.000000	64.770429
1033.000000	64.843966
1032.000000	64.923866
1031.000000	65.000099
1030.000000	65.055307
1029.000000	65.131217
1028.000000	65.196452
1027.000000	65.256188
1026.000000	65.325413
1025.000000	65.357869
1024.000000	65.394422
1023.000000	65.450060
1022.000000	65.500200
1021.000000	65.543330
1020.000000	65.580639
1019.000000	65.606948
1018.000000	65.624740
1017.000000	65.646305
1016.000000	65.669811
1015.000000	65.681996
1014.000000	65.704639
1013.000000	65.726420
1012.000000	65.731380
1011.000000	65.753485
1010.000000	65.777961
1009.000000	65.785186
1008.000000	65.789175
1007.000000	65.815593
1006.000000	65.826160
1005.000000	65.812142
1004.000000	65.835541
1003.000000	65.850637
1002.000000	65.850744
1001.000000	65.856244
1000.000000	65.878132
999.000000	65.897326
998.000000	65.907353
997.000000	65.928056
996.000000	65.957385
995.000000	65.976039
994.000000	66.012377
993.000000	66.055076
992.000000	66.084405
991.000000	66.132603
990.000000	66.192879
989.000000	66.238274
988.000000	66.283777
987.000000	66.337259
986.000000	66.397749
985.000000	66.448320
984.000000	66.517329
983.000000	66.577820
982.000000	66.639281
981.000000	66.711309
980.000000	66.776005
979.000000	66.841995
978.000000	66.914239
977.000000	67.001471
976.000000	67.052689
975.000000	67.117061
974.000000	67.191354
973.000000	67.275135
972.000000	67.358270
971.000000	67.406684
970.000000	67.488417
969.000000	67.557857
968.000000	67.651558
967.000000	67.741486
966.000000	67.815778
965.000000	67.887268
964.000000	67.998006
963.000000	68.121575
962.000000	68.218835
961.000000	68.321594
960.000000	68.442036
959.000000	68.576388
958.000000	68.700173
957.000000	68.837005
956.000000	68.965319
955.000000	69.099348
954.000000	69.238336
953.000000	69.402233
952.000000	69.556533
951.000000	69.704040
950.000000	69.847557
949.000000	69.994741
948.000000	70.160578
947.000000	70.322103
946.000000	70.470364
945.000000	70.613127
944.000000	70.772063
943.000000	70.943292
942.000000	71.084330
941.000000	71.218790
940.000000	71.411045
939.000000	71.530624
938.000000	71.674681
937.000000	71.821757
936.000000	71.967323
935.000000	72.112134
934.000000	72.262983
933.000000	72.379113
932.000000	72.489204
931.000000	72.612989
930.000000	72.731491
929.000000	72.842013
928.000000	72.928598
927.000000	73.043110
926.000000	73.120206
925.000000	73.195685
924.000000	73.276015
923.000000	73.342976
922.000000	73.409505
921.000000	73.488003
920.000000	73.531673
919.000000	73.587203
918.000000	73.622247
917.000000	73.661388
916.000000	73.700421
915.000000	73.737622
914.000000	73.768244
913.000000	73.786575
912.000000	73.842537
911.000000	73.869170
910.000000	73.902273
909.000000	73.948962
908.000000	73.994249
907.000000	74.045036
906.000000	74.089029
905.000000	74.160087
904.000000	74.230174
903.000000	74.277618
902.000000	74.359243
901.000000	74.433859
900.000000	74.504270
899.000000	74.581042
898.000000	74.681752
897.000000	74.750438
896.000000	74.850393
895.000000	74.923284
894.000000	74.982265
893.000000	75.072408
892.000000	75.182284
891.000000	75.290003
890.000000	75.400633
889.000000	75.477298
888.000000	75.581890
887.000000	75.727671
886.000000	75.805414
885.000000	75.929954
884.000000	76.053632
883.000000	76.135149
882.000000	76.252572
881.000000	76.335059
880.000000	76.435015
879.000000	76.494858
878.000000	76.655520
877.000000	76.745124
876.000000	76.811006
875.000000	76.865782
874.000000	76.855323
873.000000	76.846266
872.000000	76.866968
871.000000	76.692828
870.000000	76.476204
869.000000	76.193159
868.000000	75.920573
867.000000	75.785359
866.000000	75.896420
865.000000	76.160164
864.000000	76.454316
863.000000	76.740596
862.000000	77.003908
861.000000	77.269917
860.000000	77.525143
859.000000	77.806570
858.000000	79.054233
857.000000	78.960700
856.000000	78.962400
855.000000	79.239600
854.000000	79.379100
853.000000	79.585100
852.000000	79.542800
851.000000	79.913800
850.000000	80.160900
849.000000	80.160800
848.000000	80.199300
847.000000	80.363300
846.000000	80.399600
845.000000	80.372300
844.000000	80.312800
843.000000	80.729300
842.000000	80.722600
841.000000	80.775300
840.000000	80.808200
839.000000	81.079300
838.000000	80.802000
837.000000	81.028100
836.000000	81.155400
835.000000	81.434100
834.000000	81.751900
833.000000	81.777100
832.000000	81.943600
831.000000	82.294900
830.000000	82.418300
829.000000	82.520400
828.000000	82.609800
827.000000	83.008500
826.000000	83.159800
825.000000	83.404000
824.000000	83.567300
823.000000	83.817100
822.000000	83.915300
821.000000	84.106400
820.000000	84.369400
819.000000	84.612800
818.000000	84.737600
817.000000	84.781900
816.000000	85.045800
815.000000	85.336300
814.000000	85.416900
813.000000	85.588400
812.000000	85.713200
811.000000	85.988800
810.000000	86.156800
809.000000	86.342800
808.000000	86.406700
807.000000	86.534500
806.000000	86.724300
805.000000	86.922000
804.000000	87.038400
803.000000	86.979300
802.000000	87.135000
801.000000	87.290700
800.000000	87.316300
799.000000	87.551400
798.000000	87.581100
797.000000	87.540600
796.000000	87.723000
795.000000	87.811500
794.000000	87.810900
793.000000	87.821500
792.000000	87.889100
791.000000	88.147300
790.000000	88.055600
789.000000	88.068000
788.000000	88.146800
787.000000	88.105700
786.000000	88.191800
785.000000	88.188700
784.000000	88.143700
783.000000	88.026600
782.000000	87.970100
781.000000	87.999000
780.000000	87.989000
779.000000	87.847700
778.000000	87.873500
777.000000	87.735900
776.000000	87.627600
775.000000	87.487900
774.000000	87.369400
773.000000	87.226500
772.000000	87.057600
771.000000	86.974700
770.000000	86.789400
769.000000	86.453400
768.000000	86.201300
767.000000	86.103100
766.000000	86.019100
765.000000	85.777000
764.000000	85.548200
763.000000	85.411800
762.000000	85.229900
761.000000	85.040500
760.000000	84.776500
759.000000	84.558300
758.000000	84.366100
757.000000	84.122100
756.000000	83.895500
755.000000	83.725100
754.000000	83.611500
753.000000	83.359400
752.000000	83.045700
751.000000	82.855800
750.000000	82.663100
749.000000	82.479100
748.000000	82.298000
747.000000	82.103700
746.000000	81.908900
745.000000	81.681600
744.000000	81.465800
743.000000	81.302600
742.000000	81.125500
741.000000	80.959600
740.000000	80.753800
739.000000	80.581400
738.000000	80.499800
737.000000	80.373600
736.000000	80.327400
735.000000	80.258000
734.000000	80.182200
733.000000	80.178900
732.000000	80.112200
731.000000	80.086500
730.000000	80.124100
729.000000	80.106600
728.000000	80.109900
727.000000	80.099400
726.000000	80.184700
725.000000	80.304600
724.000000	80.330000
723.000000	80.457300
722.000000	80.511400
721.000000	80.558800
720.000000	80.686400
719.000000	80.745100
718.000000	80.790600
717.000000	80.849500
716.000000	80.927500
715.000000	80.985200
714.000000	80.986200
713.000000	81.006500
712.000000	81.060300
711.000000	81.001200
710.000000	80.995800
709.000000	80.932000
708.000000	80.935600
707.000000	80.897500
706.000000	80.874900
705.000000	80.772500
704.000000	80.643900
703.000000	80.504900
702.000000	80.379100
701.000000	80.350400
700.000000	80.177100
699.000000	79.955200
698.000000	79.817200
697.000000	79.618800
696.000000	79.374300
695.000000	79.112100
694.000000	78.854800
693.000000	78.519700
692.000000	78.231500
691.000000	77.873100
690.000000	77.522700
689.000000	77.118200
688.000000	76.653900
687.000000	76.194200
686.000000	75.706100
685.000000	75.166000
684.000000	74.628000
683.000000	74.038300
682.000000	73.388100
681.000000	72.754100
680.000000	72.064400
679.000000	71.406100
678.000000	70.666500
677.000000	69.822200
676.000000	69.081700
675.000000	68.295400
674.000000	67.525700
673.000000	66.698000
672.000000	65.854700
671.000000	65.030800
670.000000	64.175200
669.000000	63.397900
668.000000	62.570600
667.000000	61.779900
666.000000	60.932100
665.000000	60.195700
664.000000	59.469900
663.000000	58.685600
662.000000	57.952500
661.000000	57.336900
660.000000	56.758300
659.000000	56.194000
658.000000	55.726200
657.000000	55.260000
656.000000	54.922700
655.000000	54.639000
654.000000	54.417000
653.000000	54.287700
652.000000	54.216400
651.000000	54.308300
650.000000	54.399200
649.000000	54.663700
648.000000	55.010500
647.000000	55.485300
646.000000	55.921500
645.000000	56.589600
644.000000	57.255300
643.000000	58.041100
642.000000	58.896500
641.000000	59.859100
640.000000	60.795200
639.000000	61.767000
638.000000	62.851100
637.000000	63.827800
636.000000	64.931900
635.000000	66.016200
634.000000	67.058100
633.000000	68.047300
632.000000	69.104700
631.000000	70.089200
630.000000	71.022000
629.000000	71.947100
628.000000	72.830400
627.000000	73.644800
626.000000	74.397000
625.000000	75.181200
624.000000	75.857000
623.000000	76.575600
622.000000	77.213600
621.000000	77.817200
620.000000	78.452900
619.000000	79.113300
618.000000	79.688000
617.000000	80.274100
616.000000	80.804800
615.000000	81.366100
614.000000	81.946000
613.000000	82.515300
612.000000	83.060200
611.000000	83.634100
610.000000	84.191500
609.000000	84.651100
608.000000	85.163200
607.000000	85.617000
606.000000	86.055400
605.000000	86.481000
604.000000	86.816800
603.000000	87.168200
602.000000	87.522100
601.000000	87.770200
600.000000	87.964900
599.000000	88.174500
598.000000	88.400600
597.000000	88.570500
596.000000	88.618600
595.000000	88.637500
594.000000	88.765300
593.000000	88.766800
592.000000	88.747000
591.000000	88.762500
590.000000	88.679700
589.000000	88.650700
588.000000	88.547500
587.000000	88.476200
586.000000	88.353600
585.000000	88.241100
584.000000	88.063200
583.000000	87.941800
582.000000	87.775200
581.000000	87.582800
580.000000	87.434100
579.000000	87.221800
578.000000	87.059800
577.000000	86.906000
576.000000	86.709900
575.000000	86.562700
574.000000	86.389600
573.000000	86.181700
572.000000	86.033400
571.000000	85.812000
570.000000	85.635900
569.000000	85.430600
568.000000	85.275900
567.000000	85.004000
566.000000	84.749300
565.000000	84.474200
564.000000	84.260700
563.000000	84.002000
562.000000	83.599000
561.000000	83.256100
560.000000	82.868100
559.000000	82.409300
558.000000	81.964400
557.000000	81.443000
556.000000	80.920600
555.000000	80.351200
554.000000	79.719700
553.000000	79.064700
552.000000	78.281300
551.000000	77.564000
550.000000	76.685100
549.000000	75.823000
548.000000	74.916700
547.000000	73.972500
546.000000	73.003500
545.000000	71.932500
544.000000	70.837200
543.000000	69.693800
542.000000	68.583700
541.000000	67.430700
540.000000	66.304400
539.000000	65.169000
538.000000	64.003400
537.000000	62.926500
536.000000	61.866500
535.000000	60.812400
534.000000	59.794500
533.000000	58.797700
532.000000	57.836000
531.000000	56.915300
530.000000	56.020100
529.000000	55.184800
528.000000	54.371300
527.000000	53.574200
526.000000	52.762400
525.000000	52.012600
524.000000	51.258300
523.000000	50.459800
522.000000	49.712500
521.000000	48.958500
520.000000	48.183900
519.000000	47.416300
518.000000	46.641200
517.000000	45.887000
516.000000	45.132400
515.000000	44.353700
514.000000	43.597600
513.000000	42.841200
512.000000	42.065300
511.000000	41.278600
510.000000	40.490200
509.000000	39.728300
508.000000	38.931100
507.000000	38.150200
506.000000	37.362500
505.000000	36.546200
504.000000	35.732900
503.000000	34.918800
502.000000	34.080800
501.000000	33.259500
500.000000	32.436000
499.000000	31.626400
498.000000	30.820200
497.000000	30.044600
496.000000	29.267600
495.000000	28.522800
494.000000	27.802300
493.000000	27.097300
492.000000	26.436800
491.000000	25.813100
490.000000	25.259700
489.000000	24.754600
488.000000	24.319400
487.000000	23.936800
486.000000	23.615700
485.000000	23.371400
484.000000	23.193900
483.000000	23.046000
482.000000	22.962300
481.000000	22.929800
480.000000	22.949900
479.000000	23.012900
478.000000	23.137400
477.000000	23.272000
476.000000	23.432300
475.000000	23.635300
474.000000	23.865300
473.000000	24.103900
472.000000	24.364500
471.000000	24.612800
470.000000	24.854400
469.000000	25.103500
468.000000	25.334300
467.000000	25.547500
466.000000	25.763500
465.000000	25.963300
464.000000	26.130100
463.000000	26.284100
462.000000	26.431900
461.000000	26.564000
460.000000	26.663000
459.000000	26.730800
458.000000	26.770300
457.000000	26.795200
456.000000	26.799200
455.000000	26.798300
454.000000	26.789500
453.000000	26.774500
452.000000	26.726000
451.000000	26.623600
450.000000	26.515700
449.000000	26.414300
448.000000	26.291100
447.000000	26.163700
446.000000	26.004700
445.000000	25.819000
444.000000	25.643600
443.000000	25.427800
442.000000	25.180800
441.000000	24.939600
440.000000	24.693100
439.000000	24.418700
438.000000	24.139800
437.000000	23.837100
436.000000	23.536100
435.000000	23.243800
434.000000	22.925600
433.000000	22.582800
432.000000	22.230900
431.000000	21.837100
430.000000	21.456000
429.000000	21.074700
428.000000	20.665900
427.000000	20.265600
426.000000	19.848700
425.000000	19.411700
424.000000	18.984600
423.000000	18.564400
422.000000	18.104800
421.000000	17.638300
420.000000	17.211900
419.000000	16.747900
418.000000	16.287600
417.000000	15.842100
416.000000	15.413800
415.000000	14.973000
414.000000	14.514200
413.000000	14.104700
412.000000	13.711500
411.000000	13.299000
410.000000	12.905500
409.000000	12.524100
408.000000	12.173500
407.000000	11.842100
406.000000	11.498000
405.000000	11.182700
404.000000	10.879100
403.000000	10.600000
402.000000	10.331600
401.000000	10.083400
400.000000	9.847500
399.000000	9.628700
398.000000	9.432100
397.000000	9.231100
396.000000	9.054000
395.000000	8.885700
394.000000	8.726200
393.000000	8.560100
392.000000	8.427900
391.000000	8.301700
390.000000	8.180300
389.000000	8.044000
388.000000	7.936100
387.000000	7.851300
386.000000	7.751100
385.000000	7.664700
384.000000	7.572600
383.000000	7.493800
382.000000	7.404500
381.000000	7.323600
380.000000	7.252500
379.000000	7.201100
378.000000	7.177000
377.000000	7.126600
376.000000	7.080200
375.000000	6.728600
374.000000	6.650500
373.000000	6.682200
372.000000	6.757000
371.000000	6.639300
370.000000	6.667500
369.000000	6.740400
368.000000	6.731700
367.000000	6.650000
366.000000	6.566600
365.000000	6.610100
364.000000	6.602000
363.000000	6.448400
362.000000	6.516200
361.000000	6.557900
360.000000	6.466400
359.000000	6.388300
358.000000	6.384500
357.000000	6.446100
356.000000	6.466100
355.000000	6.356600
354.000000	6.303200
353.000000	6.246400
352.000000	6.230500
351.000000	6.304600
350.000000	6.232700
349.000000	6.056200
348.000000	6.158200
347.000000	6.123300
346.000000	6.215700
345.000000	6.229000
344.000000	6.185900
343.000000	6.064200
342.000000	6.090700
341.000000	6.066200
340.000000	6.196400
339.000000	6.117200
338.000000	5.983100
337.000000	6.050800
336.000000	6.040400
335.000000	6.114600
334.000000	6.111000
333.000000	6.135900
332.000000	6.153900
331.000000	6.324200
330.000000	6.115900
329.000000	5.845600
328.000000	5.964300
327.000000	6.498700
326.000000	6.231900
325.000000	6.289700
324.000000	6.198600
323.000000	6.230100
322.000000	6.299000
321.000000	6.619400
320.000000	6.143100
319.000000	5.971400
318.000000	5.870100
317.000000	6.926200
316.000000	5.913100
315.000000	5.783200
314.000000	5.704900
313.000000	5.794800
312.000000	5.787000
311.000000	5.806700
310.000000	5.863500
309.000000	5.794200
308.000000	5.814600
307.000000	5.898600
306.000000	5.853000
305.000000	5.818900
304.000000	5.802500
303.000000	5.884600
302.000000	5.838700
301.000000	5.893600
300.000000	5.838400
299.000000	5.821600
298.000000	5.860800
297.000000	5.812500
296.000000	5.891100
295.000000	5.864800
294.000000	5.866600
293.000000	5.862500
292.000000	5.793700
291.000000	5.920600
290.000000	5.884000
289.000000	5.845200
288.000000	5.901200
287.000000	5.843600
286.000000	5.912900
285.000000	5.892000
284.000000	5.975100
283.000000	5.911600
282.000000	5.884900
281.000000	5.945400
280.000000	5.914500
279.000000	5.936000
278.000000	5.901400
277.000000	5.933700
276.000000	5.896600
275.000000	5.932800
274.000000	5.920300
273.000000	5.937800
272.000000	6.007900
271.000000	6.010400
270.000000	5.993300
269.000000	5.954600
268.000000	6.008900
267.000000	6.037100
266.000000	6.051200
265.000000	6.067700
264.000000	6.087000
263.000000	6.136200
262.000000	6.144100
261.000000	6.128600
260.000000	6.199900
259.000000	6.260200
258.000000	6.270800
257.000000	6.287900
256.000000	6.241900
255.000000	6.274700
254.000000	6.277800
253.000000	6.362900
252.000000	6.365700
251.000000	6.292500
250.000000	6.401300
