PE UV       SUBTECH     SPECTRUM    ASCII       PEDS        4.00        
   -1
CICIMAUCR0015-2.Sample.ASC
24/04/12
12:09:01.00
24/04/12
12:09:01.00
Vinicio Soto Monge
C. resplendens
250,000000
1
Lambda 1050
1050L1511233
PerkinElmer UV WinLab 6.3.2.0749 / 2.02.05 Lambda 900 UV/VIS/NIR, Aug  7 2015 09:38:08

0
0
3350/servo 860,8/2
0
0
UV/VIS
1
1
1
DoubleDePol,CommonBeamDepol,RBeamAtt,SBeamAtt,60mm sphere, WB InGaAs Detector
0
0
0
0
Program
Program
3350/servo 860,8/2
3350/0,2 860,8/0,2
3350/0,2 860,8/0,2
0
15.00
 
 
 
0
 
860,8
319,2
860,8
Front
100
on
S:100 R:100
0
0
0
0
 
0
 
 
 
0
 
 
0
0
0
0
0
 
 
 
 
0
0


0
0
#HDR
-1
-1
#GR
nm
%R
1.0
0.0
2500,000000
-1,000000
2251
8
80,862600
5,142300
#DATA
2482.000000	8.615133
2481.000000	8.652613
2480.000000	8.574928
2479.000000	8.562435
2478.000000	8.579698
2477.000000	8.544035
2476.000000	8.590260
2475.000000	8.583105
2474.000000	8.591056
2473.000000	8.622743
2472.000000	8.643187
2471.000000	8.639439
2470.000000	8.662267
2469.000000	8.632851
2468.000000	8.687140
2467.000000	8.687822
2466.000000	8.674874
2465.000000	8.724393
2464.000000	8.759260
2463.000000	8.796627
2462.000000	8.866930
2461.000000	8.873063
2460.000000	8.932008
2459.000000	8.995156
2458.000000	9.060008
2457.000000	9.109413
2456.000000	9.201977
2455.000000	9.267964
2454.000000	9.339516
2453.000000	9.418110
2452.000000	9.505904
2451.000000	9.582113
2450.000000	9.655142
2449.000000	9.743049
2448.000000	9.849809
2447.000000	9.906711
2446.000000	10.015970
2445.000000	10.098880
2444.000000	10.202233
2443.000000	10.249935
2442.000000	10.337047
2441.000000	10.429838
2440.000000	10.523197
2439.000000	10.588275
2438.000000	10.670390
2437.000000	10.731494
2436.000000	10.827124
2435.000000	10.909466
2434.000000	10.955691
2433.000000	11.014410
2432.000000	11.098001
2431.000000	11.151836
2430.000000	11.216573
2429.000000	11.277223
2428.000000	11.305844
2427.000000	11.336622
2426.000000	11.341165
2425.000000	11.387277
2424.000000	11.427596
2423.000000	11.466212
2422.000000	11.497445
2421.000000	11.530495
2420.000000	11.569565
2419.000000	11.615109
2418.000000	11.665082
2417.000000	11.700972
2416.000000	11.732318
2415.000000	11.754806
2414.000000	11.800123
2413.000000	11.845667
2412.000000	11.890869
2411.000000	11.921535
2410.000000	11.937890
2409.000000	11.968896
2408.000000	11.993882
2407.000000	12.021595
2406.000000	12.052714
2405.000000	12.073385
2404.000000	12.104164
2403.000000	12.148799
2402.000000	12.187982
2401.000000	12.218761
2400.000000	12.276684
2399.000000	12.297242
2398.000000	12.316436
2397.000000	12.351076
2396.000000	12.394121
2395.000000	12.443981
2394.000000	12.472715
2393.000000	12.494749
2392.000000	12.518713
2391.000000	12.552104
2390.000000	12.581066
2389.000000	12.599919
2388.000000	12.612981
2387.000000	12.616615
2386.000000	12.618773
2385.000000	12.623543
2384.000000	12.624111
2383.000000	12.641034
2382.000000	12.629108
2381.000000	12.610936
2380.000000	12.599124
2379.000000	12.588448
2378.000000	12.554944
2377.000000	12.535749
2376.000000	12.540747
2375.000000	12.518145
2374.000000	12.479075
2373.000000	12.437280
2372.000000	12.409340
2371.000000	12.392418
2370.000000	12.371065
2369.000000	12.323023
2368.000000	12.255673
2367.000000	12.200930
2366.000000	12.161065
2365.000000	12.104277
2364.000000	12.024320
2363.000000	11.945158
2362.000000	11.877240
2361.000000	11.810118
2360.000000	11.732886
2359.000000	11.663946
2358.000000	11.616131
2357.000000	11.573086
2356.000000	11.520501
2355.000000	11.489495
2354.000000	11.480522
2353.000000	11.466893
2352.000000	11.455309
2351.000000	11.471436
2350.000000	11.505850
2349.000000	11.545942
2348.000000	11.596369
2347.000000	11.641231
2346.000000	11.693135
2345.000000	11.733681
2344.000000	11.791832
2343.000000	11.843281
2342.000000	11.862362
2341.000000	11.892005
2340.000000	11.934937
2339.000000	11.978095
2338.000000	11.986727
2337.000000	11.975597
2336.000000	11.972757
2335.000000	11.956175
2334.000000	11.920058
2333.000000	11.887349
2332.000000	11.867132
2331.000000	11.823406
2330.000000	11.772070
2329.000000	11.708241
2328.000000	11.657132
2327.000000	11.594438
2326.000000	11.503919
2325.000000	11.435433
2324.000000	11.367401
2323.000000	11.264389
2322.000000	11.167736
2321.000000	11.054047
2320.000000	10.949785
2319.000000	10.845183
2318.000000	10.736945
2317.000000	10.605425
2316.000000	10.467659
2315.000000	10.354765
2314.000000	10.230854
2313.000000	10.121709
2312.000000	10.043228
2311.000000	9.965202
2310.000000	9.885018
2309.000000	9.831751
2308.000000	9.787116
2307.000000	9.749523
2306.000000	9.762924
2305.000000	9.790410
2304.000000	9.826413
2303.000000	9.866051
2302.000000	9.926246
2301.000000	10.008133
2300.000000	10.089907
2299.000000	10.180313
2298.000000	10.278897
2297.000000	10.364078
2296.000000	10.462548
2295.000000	10.546934
2294.000000	10.608833
2293.000000	10.674025
2292.000000	10.745350
2291.000000	10.789304
2290.000000	10.824512
2289.000000	10.823263
2288.000000	10.815199
2287.000000	10.808952
2286.000000	10.781808
2285.000000	10.763863
2284.000000	10.734333
2283.000000	10.701169
2282.000000	10.643927
2281.000000	10.619849
2280.000000	10.558064
2279.000000	10.522061
2278.000000	10.469135
2277.000000	10.446874
2276.000000	10.400649
2275.000000	10.383386
2274.000000	10.351358
2273.000000	10.346360
2272.000000	10.334208
2271.000000	10.395993
2270.000000	10.406328
2269.000000	10.460844
2268.000000	10.530466
2267.000000	10.616669
2266.000000	10.727064
2265.000000	10.886297
2264.000000	11.030992
2263.000000	11.218618
2262.000000	11.416239
2261.000000	11.649976
2260.000000	11.918128
2259.000000	12.151525
2258.000000	12.430920
2257.000000	12.727692
2256.000000	13.009244
2255.000000	13.328732
2254.000000	13.568602
2253.000000	13.871394
2252.000000	14.151697
2251.000000	14.429843
2250.000000	14.660628
2249.000000	14.918217
2248.000000	15.151500
2247.000000	15.350029
2246.000000	15.525617
2245.000000	15.734482
2244.000000	15.898598
2243.000000	16.091676
2242.000000	16.230578
2241.000000	16.394921
2240.000000	16.503726
2239.000000	16.643537
2238.000000	16.745074
2237.000000	16.877048
2236.000000	16.986762
2235.000000	17.036167
2234.000000	17.124074
2233.000000	17.212208
2232.000000	17.258661
2231.000000	17.326011
2230.000000	17.364626
2229.000000	17.378937
2228.000000	17.414486
2227.000000	17.417780
2226.000000	17.420278
2225.000000	17.438791
2224.000000	17.421528
2223.000000	17.409489
2222.000000	17.410511
2221.000000	17.372690
2220.000000	17.352928
2219.000000	17.331122
2218.000000	17.291257
2217.000000	17.242079
2216.000000	17.236514
2215.000000	17.174047
2214.000000	17.145426
2213.000000	17.110559
2212.000000	17.086935
2211.000000	17.034350
2210.000000	17.001981
2209.000000	16.993690
2208.000000	16.980288
2207.000000	16.964955
2206.000000	16.941899
2205.000000	16.900331
2204.000000	16.906237
2203.000000	16.906010
2202.000000	16.877616
2201.000000	16.857513
2200.000000	16.869666
2199.000000	16.845928
2198.000000	16.847405
2197.000000	16.836275
2196.000000	16.808676
2195.000000	16.816058
2194.000000	16.785506
2193.000000	16.763019
2192.000000	16.757794
2191.000000	16.736783
2190.000000	16.723608
2189.000000	16.710320
2188.000000	16.682948
2187.000000	16.669773
2186.000000	16.662277
2185.000000	16.653078
2184.000000	16.626728
2183.000000	16.605944
2182.000000	16.591520
2181.000000	16.599697
2180.000000	16.584705
2179.000000	16.560287
2178.000000	16.537117
2177.000000	16.510200
2176.000000	16.507020
2175.000000	16.517128
2174.000000	16.529849
2173.000000	16.534165
2172.000000	16.541660
2171.000000	16.548021
2170.000000	16.547907
2169.000000	16.556766
2168.000000	16.581412
2167.000000	16.608216
2166.000000	16.625593
2165.000000	16.663527
2164.000000	16.676020
2163.000000	16.707707
2162.000000	16.736215
2161.000000	16.777897
2160.000000	16.819920
2159.000000	16.886702
2158.000000	16.934631
2157.000000	16.960412
2156.000000	17.013679
2155.000000	17.079439
2154.000000	17.136227
2153.000000	17.196762
2152.000000	17.261387
2151.000000	17.331690
2150.000000	17.403810
2149.000000	17.444129
2148.000000	17.491149
2147.000000	17.551117
2146.000000	17.613583
2145.000000	17.674460
2144.000000	17.721593
2143.000000	17.782924
2142.000000	17.836759
2141.000000	17.881621
2140.000000	17.929777
2139.000000	18.000080
2138.000000	18.049485
2137.000000	18.090599
2136.000000	18.124558
2135.000000	18.151475
2134.000000	18.190545
2133.000000	18.240859
2132.000000	18.271184
2131.000000	18.299123
2130.000000	18.328880
2129.000000	18.352731
2128.000000	18.367950
2127.000000	18.386235
2126.000000	18.404294
2125.000000	18.402022
2124.000000	18.412585
2123.000000	18.427917
2122.000000	18.420762
2121.000000	18.399637
2120.000000	18.391346
2119.000000	18.377490
2118.000000	18.358750
2117.000000	18.350232
2116.000000	18.323769
2115.000000	18.294126
2114.000000	18.265164
2113.000000	18.235407
2112.000000	18.214396
2111.000000	18.191795
2110.000000	18.163514
2109.000000	18.136938
2108.000000	18.104115
2107.000000	18.076856
2106.000000	18.044715
2105.000000	18.017116
2104.000000	17.986678
2103.000000	17.945450
2102.000000	17.925801
2101.000000	17.902519
2100.000000	17.870150
2099.000000	17.825060
2098.000000	17.780539
2097.000000	17.767250
2096.000000	17.756802
2095.000000	17.726023
2094.000000	17.714892
2093.000000	17.712167
2092.000000	17.687861
2091.000000	17.669235
2090.000000	17.652880
2089.000000	17.634027
2088.000000	17.625281
2087.000000	17.602680
2086.000000	17.582464
2085.000000	17.560203
2084.000000	17.531809
2083.000000	17.510798
2082.000000	17.501598
2081.000000	17.470024
2080.000000	17.436974
2079.000000	17.395405
2078.000000	17.354518
2077.000000	17.321468
2076.000000	17.285692
2075.000000	17.250483
2074.000000	17.210618
2073.000000	17.153717
2072.000000	17.102836
2071.000000	17.056043
2070.000000	17.019698
2069.000000	16.981197
2068.000000	16.922705
2067.000000	16.881705
2066.000000	16.832640
2065.000000	16.786301
2064.000000	16.736442
2063.000000	16.701574
2062.000000	16.679200
2061.000000	16.660801
2060.000000	16.650238
2059.000000	16.637859
2058.000000	16.623094
2057.000000	16.628205
2056.000000	16.666139
2055.000000	16.706345
2054.000000	16.755977
2053.000000	16.822986
2052.000000	16.907600
2051.000000	17.002321
2050.000000	17.123279
2049.000000	17.245600
2048.000000	17.381549
2047.000000	17.535898
2046.000000	17.693427
2045.000000	17.880712
2044.000000	18.070496
2043.000000	18.225867
2042.000000	18.431665
2041.000000	18.602028
2040.000000	18.778751
2039.000000	18.960017
2038.000000	19.131857
2037.000000	19.287227
2036.000000	19.456568
2035.000000	19.607169
2034.000000	19.777759
2033.000000	19.923249
2032.000000	20.068057
2031.000000	20.214569
2030.000000	20.326100
2029.000000	20.443082
2028.000000	20.572104
2027.000000	20.697377
2026.000000	20.824809
2025.000000	20.932478
2024.000000	21.030834
2023.000000	21.134869
2022.000000	21.232430
2021.000000	21.321700
2020.000000	21.416081
2019.000000	21.520684
2018.000000	21.575313
2017.000000	21.652431
2016.000000	21.727959
2015.000000	21.800192
2014.000000	21.860047
2013.000000	21.943184
2012.000000	21.966239
2011.000000	22.018143
2010.000000	22.047105
2009.000000	22.073341
2008.000000	22.106278
2007.000000	22.122632
2006.000000	22.140237
2005.000000	22.151708
2004.000000	22.131832
2003.000000	22.144780
2002.000000	22.110707
2001.000000	22.115931
2000.000000	22.093671
1999.000000	22.043016
1998.000000	22.025980
1997.000000	22.003492
1996.000000	21.932735
1995.000000	21.900820
1994.000000	21.842329
1993.000000	21.778613
1992.000000	21.714102
1991.000000	21.660381
1990.000000	21.578948
1989.000000	21.523637
1988.000000	21.467985
1987.000000	21.351570
1986.000000	21.276270
1985.000000	21.191543
1984.000000	21.106248
1983.000000	21.026518
1982.000000	20.941337
1981.000000	20.818789
1980.000000	20.734857
1979.000000	20.661715
1978.000000	20.534283
1977.000000	20.447625
1976.000000	20.370281
1975.000000	20.243644
1974.000000	20.184926
1973.000000	20.054542
1972.000000	20.001956
1971.000000	19.916548
1970.000000	19.822167
1969.000000	19.756066
1968.000000	19.641468
1967.000000	19.567872
1966.000000	19.480646
1965.000000	19.407958
1964.000000	19.307671
1963.000000	19.205567
1962.000000	19.157525
1961.000000	19.056329
1960.000000	18.958995
1959.000000	18.865068
1958.000000	18.787156
1957.000000	18.686982
1956.000000	18.628832
1955.000000	18.520368
1954.000000	18.437003
1953.000000	18.381919
1952.000000	18.269821
1951.000000	18.206787
1950.000000	18.110248
1949.000000	18.028019
1948.000000	17.978500
1947.000000	17.905926
1946.000000	17.850842
1945.000000	17.791896
1944.000000	17.734654
1943.000000	17.703989
1942.000000	17.641977
1941.000000	17.640955
1940.000000	17.638683
1939.000000	17.629597
1938.000000	17.645839
1937.000000	17.659922
1936.000000	17.672983
1935.000000	17.700355
1934.000000	17.727158
1933.000000	17.783037
1932.000000	17.823129
1931.000000	17.915239
1930.000000	17.972140
1929.000000	18.090713
1928.000000	18.233590
1927.000000	18.351708
1926.000000	18.503899
1925.000000	18.664835
1924.000000	18.774322
1923.000000	18.907432
1922.000000	19.081316
1921.000000	19.344242
1920.000000	19.584794
1919.000000	19.835114
1918.000000	20.053974
1917.000000	20.217749
1916.000000	20.366305
1915.000000	20.604473
1914.000000	20.919417
1913.000000	21.288082
1912.000000	21.646184
1911.000000	21.944660
1910.000000	22.229279
1909.000000	22.411227
1908.000000	22.670178
1907.000000	23.004317
1906.000000	23.428293
1905.000000	23.887818
1904.000000	24.328490
1903.000000	24.654337
1902.000000	24.987340
1901.000000	25.337379
1900.000000	25.759765
1899.000000	26.256883
1898.000000	26.694261
1897.000000	27.053727
1896.000000	27.395020
1895.000000	27.666011
1894.000000	28.021161
1893.000000	28.406408
1892.000000	28.864911
1891.000000	29.351013
1890.000000	29.771468
1889.000000	30.147175
1888.000000	30.571151
1887.000000	30.946403
1886.000000	31.384690
1885.000000	31.897028
1884.000000	32.490913
1883.000000	33.100584
1882.000000	33.679023
1881.000000	34.228613
1880.000000	34.787063
1879.000000	35.302013
1878.000000	35.805264
1877.000000	36.298749
1876.000000	36.742941
1875.000000	37.163397
1874.000000	37.541261
1873.000000	37.915719
1872.000000	38.309825
1871.000000	38.660431
1870.000000	38.941643
1869.000000	39.171179
1868.000000	39.379589
1867.000000	39.493619
1866.000000	39.559493
1865.000000	39.630818
1864.000000	39.658189
1863.000000	39.671932
1862.000000	39.728493
1861.000000	39.793685
1860.000000	39.862625
1859.000000	39.918958
1858.000000	39.950191
1857.000000	39.946557
1856.000000	39.891132
1855.000000	39.852517
1854.000000	39.847519
1853.000000	39.795956
1852.000000	39.721678
1851.000000	39.651829
1850.000000	39.542456
1849.000000	39.480785
1848.000000	39.496345
1847.000000	39.527805
1846.000000	39.448757
1845.000000	39.272942
1844.000000	39.128475
1843.000000	39.043748
1842.000000	39.074754
1841.000000	39.133813
1840.000000	39.099172
1839.000000	39.018420
1838.000000	38.924834
1837.000000	38.884742
1836.000000	38.861005
1835.000000	38.797176
1834.000000	38.675764
1833.000000	38.525504
1832.000000	38.399663
1831.000000	38.313232
1830.000000	38.249403
1829.000000	38.161723
1828.000000	38.055075
1827.000000	37.970803
1826.000000	37.907087
1825.000000	37.820770
1824.000000	37.728887
1823.000000	37.645864
1822.000000	37.624966
1821.000000	37.664377
1820.000000	37.682776
1819.000000	37.642457
1818.000000	37.579763
1817.000000	37.541829
1816.000000	37.543306
1815.000000	37.548189
1814.000000	37.540807
1813.000000	37.511164
1812.000000	37.487313
1811.000000	37.467551
1810.000000	37.399292
1809.000000	37.326263
1808.000000	37.276858
1807.000000	37.244830
1806.000000	37.187361
1805.000000	37.112401
1804.000000	37.040622
1803.000000	36.980427
1802.000000	36.928523
1801.000000	36.870145
1800.000000	36.793596
1799.000000	36.704893
1798.000000	36.636408
1797.000000	36.577689
1796.000000	36.511475
1795.000000	36.440377
1794.000000	36.382340
1793.000000	36.302156
1792.000000	36.218678
1791.000000	36.151101
1790.000000	36.077050
1789.000000	35.988688
1788.000000	35.908504
1787.000000	35.815940
1786.000000	35.728487
1785.000000	35.636492
1784.000000	35.513717
1783.000000	35.411613
1782.000000	35.298832
1781.000000	35.184235
1780.000000	35.066003
1779.000000	34.946181
1778.000000	34.813185
1777.000000	34.684845
1776.000000	34.523114
1775.000000	34.365358
1774.000000	34.173984
1773.000000	33.993172
1772.000000	33.802593
1771.000000	33.603155
1770.000000	33.426204
1769.000000	33.239260
1768.000000	33.071736
1767.000000	32.911822
1766.000000	32.760427
1765.000000	32.670248
1764.000000	32.588701
1763.000000	32.551903
1762.000000	32.557581
1761.000000	32.605624
1760.000000	32.659913
1759.000000	32.725105
1758.000000	32.819372
1757.000000	32.885246
1756.000000	32.934878
1755.000000	32.982353
1754.000000	32.994846
1753.000000	32.984283
1752.000000	32.959410
1751.000000	32.907166
1750.000000	32.826982
1749.000000	32.719994
1748.000000	32.618117
1747.000000	32.478874
1746.000000	32.322254
1745.000000	32.135649
1744.000000	31.915200
1743.000000	31.638985
1742.000000	31.357432
1741.000000	31.048053
1740.000000	30.729475
1739.000000	30.409761
1738.000000	30.119008
1737.000000	29.884135
1736.000000	29.669705
1735.000000	29.527963
1734.000000	29.474355
1733.000000	29.470834
1732.000000	29.539775
1731.000000	29.643923
1730.000000	29.761473
1729.000000	29.905600
1728.000000	30.043821
1727.000000	30.202486
1726.000000	30.323103
1725.000000	30.445083
1724.000000	30.515272
1723.000000	30.584439
1722.000000	30.593412
1721.000000	30.645770
1720.000000	30.689837
1719.000000	30.753666
1718.000000	30.823969
1717.000000	30.947766
1716.000000	31.035674
1715.000000	31.153905
1714.000000	31.264982
1713.000000	31.380829
1712.000000	31.477254
1711.000000	31.549942
1710.000000	31.588898
1709.000000	31.609342
1708.000000	31.608093
1707.000000	31.632852
1706.000000	31.580380
1705.000000	31.541765
1704.000000	31.450905
1703.000000	31.365837
1702.000000	31.259757
1701.000000	31.079173
1700.000000	30.883710
1699.000000	30.673028
1698.000000	30.470410
1697.000000	30.338322
1696.000000	30.224974
1695.000000	30.205552
1694.000000	30.258819
1693.000000	30.379436
1692.000000	30.575126
1691.000000	30.803867
1690.000000	31.018864
1689.000000	31.206491
1688.000000	31.282473
1687.000000	31.346415
1686.000000	31.375263
1685.000000	31.427167
1684.000000	31.525637
1683.000000	31.818320
1682.000000	32.247407
1681.000000	32.810400
1680.000000	33.530467
1679.000000	34.309820
1678.000000	35.015689
1677.000000	35.708157
1676.000000	36.310106
1675.000000	36.836186
1674.000000	37.325128
1673.000000	37.725253
1672.000000	38.093805
1671.000000	38.387169
1670.000000	38.639079
1669.000000	38.879859
1668.000000	39.090654
1667.000000	39.317010
1666.000000	39.457275
1665.000000	39.596972
1664.000000	39.714068
1663.000000	39.824123
1662.000000	39.894539
1661.000000	39.972452
1660.000000	40.036508
1659.000000	40.099997
1658.000000	40.138953
1657.000000	40.155081
1656.000000	40.190403
1655.000000	40.189494
1654.000000	40.185746
1653.000000	40.167120
1652.000000	40.150652
1651.000000	40.116465
1650.000000	40.063539
1649.000000	40.022652
1648.000000	39.979834
1647.000000	39.930884
1646.000000	39.860921
1645.000000	39.791640
1644.000000	39.727357
1643.000000	39.673863
1642.000000	39.597654
1641.000000	39.510428
1640.000000	39.432629
1639.000000	39.356761
1638.000000	39.277485
1637.000000	39.177880
1636.000000	39.092585
1635.000000	38.997636
1634.000000	38.898712
1633.000000	38.815689
1632.000000	38.731416
1631.000000	38.628517
1630.000000	38.508695
1629.000000	38.402388
1628.000000	38.292675
1627.000000	38.191934
1626.000000	38.098915
1625.000000	38.005897
1624.000000	37.879261
1623.000000	37.780451
1622.000000	37.685729
1621.000000	37.583057
1620.000000	37.482884
1619.000000	37.395317
1618.000000	37.281628
1617.000000	37.197923
1616.000000	37.123304
1615.000000	37.038805
1614.000000	36.947717
1613.000000	36.854586
1612.000000	36.758047
1611.000000	36.679680
1610.000000	36.611875
1609.000000	36.517040
1608.000000	36.432427
1607.000000	36.356672
1606.000000	36.260928
1605.000000	36.166206
1604.000000	36.083524
1603.000000	36.007769
1602.000000	35.923382
1601.000000	35.844902
1600.000000	35.768239
1599.000000	35.681354
1598.000000	35.597649
1597.000000	35.537340
1596.000000	35.476918
1595.000000	35.408887
1594.000000	35.337221
1593.000000	35.273846
1592.000000	35.214900
1591.000000	35.162656
1590.000000	35.111660
1589.000000	35.071341
1588.000000	35.030454
1587.000000	34.993883
1586.000000	34.968669
1585.000000	34.922785
1584.000000	34.878377
1583.000000	34.869745
1582.000000	34.852255
1581.000000	34.816706
1580.000000	34.798988
1579.000000	34.787403
1578.000000	34.783542
1577.000000	34.796149
1576.000000	34.794445
1575.000000	34.795240
1574.000000	34.804553
1573.000000	34.821930
1572.000000	34.860659
1571.000000	34.889848
1570.000000	34.916538
1569.000000	34.962991
1568.000000	34.996155
1567.000000	35.024662
1566.000000	35.065322
1565.000000	35.106777
1564.000000	35.152320
1563.000000	35.181396
1562.000000	35.196842
1561.000000	35.229211
1560.000000	35.256469
1559.000000	35.276345
1558.000000	35.297015
1557.000000	35.299741
1556.000000	35.314847
1555.000000	35.320071
1554.000000	35.301331
1553.000000	35.285771
1552.000000	35.271688
1551.000000	35.251926
1550.000000	35.228984
1549.000000	35.198773
1548.000000	35.174808
1547.000000	35.142780
1546.000000	35.120633
1545.000000	35.107572
1544.000000	35.095760
1543.000000	35.077361
1542.000000	35.059302
1541.000000	35.032953
1540.000000	35.025230
1539.000000	35.032839
1538.000000	35.020914
1537.000000	34.992747
1536.000000	34.973439
1535.000000	34.974348
1534.000000	34.947658
1533.000000	34.905521
1532.000000	34.897344
1531.000000	34.877582
1530.000000	34.855662
1529.000000	34.821022
1528.000000	34.786608
1527.000000	34.765029
1526.000000	34.723120
1525.000000	34.683028
1524.000000	34.654634
1523.000000	34.620675
1522.000000	34.586375
1521.000000	34.554574
1520.000000	34.510961
1519.000000	34.481659
1518.000000	34.454969
1517.000000	34.404541
1516.000000	34.368311
1515.000000	34.320496
1514.000000	34.286196
1513.000000	34.243605
1512.000000	34.211577
1511.000000	34.178413
1510.000000	34.137753
1509.000000	34.108224
1508.000000	34.064043
1507.000000	34.027017
1506.000000	33.989083
1505.000000	33.957623
1504.000000	33.937293
1503.000000	33.910489
1502.000000	33.880165
1501.000000	33.863469
1500.000000	33.837120
1499.000000	33.825194
1498.000000	33.817130
1497.000000	33.817698
1496.000000	33.806795
1495.000000	33.822355
1494.000000	33.829851
1493.000000	33.854497
1492.000000	33.878120
1491.000000	33.929456
1490.000000	33.949332
1489.000000	33.955238
1488.000000	33.993058
1487.000000	34.042804
1486.000000	34.077785
1485.000000	34.099024
1484.000000	34.127077
1483.000000	34.173416
1482.000000	34.225774
1481.000000	34.278814
1480.000000	34.335828
1479.000000	34.376829
1478.000000	34.441112
1477.000000	34.494266
1476.000000	34.576040
1475.000000	34.634190
1474.000000	34.710740
1473.000000	34.768777
1472.000000	34.867133
1471.000000	34.938231
1470.000000	34.982980
1469.000000	35.036587
1468.000000	35.103824
1467.000000	35.170152
1466.000000	35.233300
1465.000000	35.332337
1464.000000	35.404798
1463.000000	35.484982
1462.000000	35.572094
1461.000000	35.689531
1460.000000	35.788796
1459.000000	35.894989
1458.000000	35.988575
1457.000000	36.113394
1456.000000	36.214589
1455.000000	36.365871
1454.000000	36.470929
1453.000000	36.620393
1452.000000	36.786440
1451.000000	36.941016
1450.000000	37.104337
1449.000000	37.195198
1448.000000	37.340574
1447.000000	37.501623
1446.000000	37.663695
1445.000000	37.850981
1444.000000	37.992155
1443.000000	38.130830
1442.000000	38.308575
1441.000000	38.474509
1440.000000	38.629312
1439.000000	38.791384
1438.000000	38.972877
1437.000000	39.122796
1436.000000	39.280552
1435.000000	39.425360
1434.000000	39.635247
1433.000000	39.822078
1432.000000	40.017769
1431.000000	40.199489
1430.000000	40.350657
1429.000000	40.553844
1428.000000	40.837668
1427.000000	41.059253
1426.000000	41.289243
1425.000000	41.570796
1424.000000	41.888125
1423.000000	42.176152
1422.000000	42.444530
1421.000000	42.724947
1420.000000	43.052725
1419.000000	43.380957
1418.000000	43.666031
1417.000000	43.876600
1416.000000	44.145773
1415.000000	44.474346
1414.000000	44.854255
1413.000000	45.095716
1412.000000	45.321049
1411.000000	45.602034
1410.000000	45.985918
1409.000000	46.439424
1408.000000	46.836710
1407.000000	47.294078
1406.000000	47.729411
1405.000000	48.203361
1404.000000	48.639830
1403.000000	49.096402
1402.000000	49.464954
1401.000000	50.000915
1400.000000	50.539830
1399.000000	50.836942
1398.000000	50.998333
1397.000000	51.240816
1396.000000	51.575863
1395.000000	51.885582
1394.000000	52.021872
1393.000000	52.126930
1392.000000	52.362712
1391.000000	52.550906
1390.000000	52.701961
1389.000000	52.941377
1388.000000	53.305045
1387.000000	53.568767
1386.000000	53.867924
1385.000000	54.250218
1384.000000	54.715990
1383.000000	55.096694
1382.000000	55.448550
1381.000000	55.720222
1380.000000	55.785187
1379.000000	55.930222
1378.000000	55.963613
1377.000000	56.039255
1376.000000	56.136816
1375.000000	56.331597
1374.000000	56.582485
1373.000000	56.888229
1372.000000	57.254850
1371.000000	57.642482
1370.000000	57.959243
1369.000000	58.259991
1368.000000	58.601965
1367.000000	58.830479
1366.000000	59.009700
1365.000000	59.274558
1364.000000	59.432655
1363.000000	59.538734
1362.000000	59.727496
1361.000000	59.886955
1360.000000	59.904787
1359.000000	59.927047
1358.000000	59.994625
1357.000000	60.142954
1356.000000	60.398044
1355.000000	60.817931
1354.000000	61.320729
1353.000000	61.814554
1352.000000	62.362781
1351.000000	62.913053
1350.000000	63.428912
1349.000000	63.874694
1348.000000	64.308892
1347.000000	64.704588
1346.000000	65.046790
1345.000000	65.355147
1344.000000	65.729264
1343.000000	66.020130
1342.000000	66.298843
1341.000000	66.610721
1340.000000	66.876828
1339.000000	67.111815
1338.000000	67.358841
1337.000000	67.608025
1336.000000	67.821773
1335.000000	68.010762
1334.000000	68.211791
1333.000000	68.420769
1332.000000	68.612825
1331.000000	68.772284
1330.000000	68.931857
1329.000000	69.086888
1328.000000	69.228289
1327.000000	69.371166
1326.000000	69.495304
1325.000000	69.626143
1324.000000	69.737787
1323.000000	69.857041
1322.000000	69.946765
1321.000000	70.022179
1320.000000	70.107134
1319.000000	70.198675
1318.000000	70.277837
1317.000000	70.354387
1316.000000	70.433208
1315.000000	70.488746
1314.000000	70.550077
1313.000000	70.609250
1312.000000	70.656043
1311.000000	70.714307
1310.000000	70.759396
1309.000000	70.782452
1308.000000	70.814253
1307.000000	70.839807
1306.000000	70.843328
1305.000000	70.835605
1304.000000	70.837309
1303.000000	70.832198
1302.000000	70.818114
1301.000000	70.817660
1300.000000	70.801305
1299.000000	70.774274
1298.000000	70.743268
1297.000000	70.713284
1296.000000	70.693636
1295.000000	70.658428
1294.000000	70.613793
1293.000000	70.566318
1292.000000	70.523841
1291.000000	70.487610
1290.000000	70.432299
1289.000000	70.364154
1288.000000	70.310547
1287.000000	70.243651
1286.000000	70.156652
1285.000000	70.078626
1284.000000	69.998442
1283.000000	69.915305
1282.000000	69.846706
1281.000000	69.764931
1280.000000	69.678955
1279.000000	69.595932
1278.000000	69.518360
1277.000000	69.446580
1276.000000	69.392178
1275.000000	69.336185
1274.000000	69.273264
1273.000000	69.223291
1272.000000	69.184562
1271.000000	69.123686
1270.000000	69.060311
1269.000000	69.029078
1268.000000	68.975584
1267.000000	68.911527
1266.000000	68.870867
1265.000000	68.815670
1264.000000	68.768195
1263.000000	68.723447
1262.000000	68.660299
1261.000000	68.619298
1260.000000	68.580456
1259.000000	68.547065
1258.000000	68.497659
1257.000000	68.435874
1256.000000	68.382835
1255.000000	68.332180
1254.000000	68.283229
1253.000000	68.226215
1252.000000	68.158865
1251.000000	68.101168
1250.000000	68.018713
1249.000000	67.924786
1248.000000	67.846987
1247.000000	67.751584
1246.000000	67.663790
1245.000000	67.554190
1244.000000	67.419604
1243.000000	67.279792
1242.000000	67.157131
1241.000000	67.024475
1240.000000	66.884096
1239.000000	66.708509
1238.000000	66.559726
1237.000000	66.409011
1236.000000	66.246826
1235.000000	66.088616
1234.000000	65.914505
1233.000000	65.752660
1232.000000	65.586045
1231.000000	65.413411
1230.000000	65.231691
1229.000000	65.061328
1228.000000	64.874724
1227.000000	64.699250
1226.000000	64.521164
1225.000000	64.332629
1224.000000	64.156702
1223.000000	63.994857
1222.000000	63.813364
1221.000000	63.655835
1220.000000	63.500010
1219.000000	63.340550
1218.000000	63.195742
1217.000000	63.048435
1216.000000	62.885114
1215.000000	62.768585
1214.000000	62.645583
1213.000000	62.489190
1212.000000	62.391856
1211.000000	62.275669
1210.000000	62.165955
1209.000000	62.051926
1208.000000	61.964019
1207.000000	61.889854
1206.000000	61.832385
1205.000000	61.783093
1204.000000	61.754018
1203.000000	61.710746
1202.000000	61.684737
1201.000000	61.639648
1200.000000	61.600351
1199.000000	61.506538
1198.000000	61.396256
1197.000000	61.246110
1196.000000	61.080063
1195.000000	60.823156
1194.000000	60.509234
1193.000000	60.141591
1192.000000	59.713640
1191.000000	59.268652
1190.000000	58.811512
1189.000000	58.407525
1188.000000	58.094966
1187.000000	57.936869
1186.000000	57.877015
1185.000000	57.924035
1184.000000	58.126199
1183.000000	58.439326
1182.000000	58.866369
1181.000000	59.349177
1180.000000	59.840162
1179.000000	60.292305
1178.000000	60.694475
1177.000000	61.044741
1176.000000	61.311756
1175.000000	61.613526
1174.000000	61.861347
1173.000000	62.138470
1172.000000	62.440239
1171.000000	62.741214
1170.000000	63.061837
1169.000000	63.356451
1168.000000	63.687522
1167.000000	63.978048
1166.000000	64.297308
1165.000000	64.607141
1164.000000	64.953772
1163.000000	65.270420
1162.000000	65.608079
1161.000000	65.907577
1160.000000	66.202872
1159.000000	66.495556
1158.000000	66.757119
1157.000000	67.007439
1156.000000	67.231977
1155.000000	67.379284
1154.000000	67.492405
1153.000000	67.545445
1152.000000	67.554985
1151.000000	67.521253
1150.000000	67.505012
1149.000000	67.480707
1148.000000	67.455834
1147.000000	67.474915
1146.000000	67.561459
1145.000000	67.696386
1144.000000	67.880492
1143.000000	68.105484
1142.000000	68.363641
1141.000000	68.629066
1140.000000	68.897785
1139.000000	69.171274
1138.000000	69.464071
1137.000000	69.765954
1136.000000	70.076582
1135.000000	70.366880
1134.000000	70.658655
1133.000000	70.849915
1132.000000	71.050603
1131.000000	71.280365
1130.000000	71.438462
1129.000000	71.601556
1128.000000	71.706159
1127.000000	71.789296
1126.000000	71.878225
1125.000000	71.928539
1124.000000	71.961476
1123.000000	72.002249
1122.000000	72.052336
1121.000000	72.029507
1120.000000	72.041206
1119.000000	72.033142
1118.000000	72.014970
1117.000000	72.001795
1116.000000	71.941827
1115.000000	71.914115
1114.000000	71.859258
1113.000000	71.820983
1112.000000	71.771465
1111.000000	71.725807
1110.000000	71.662319
1109.000000	71.600875
1108.000000	71.555445
1107.000000	71.478781
1106.000000	71.438349
1105.000000	71.383037
1104.000000	71.327272
1103.000000	71.237548
1102.000000	71.170992
1101.000000	71.110684
1100.000000	71.040267
1099.000000	70.963150
1098.000000	70.889894
1097.000000	70.825837
1096.000000	70.747130
1095.000000	70.683641
1094.000000	70.586080
1093.000000	70.504874
1092.000000	70.446496
1091.000000	70.387891
1090.000000	70.315998
1089.000000	70.216847
1088.000000	70.149724
1087.000000	70.081125
1086.000000	69.993445
1085.000000	69.919053
1084.000000	69.868853
1083.000000	69.798209
1082.000000	69.739263
1081.000000	69.669301
1080.000000	69.588322
1079.000000	69.524833
1078.000000	69.480880
1077.000000	69.415233
1076.000000	69.351972
1075.000000	69.291664
1074.000000	69.226244
1073.000000	69.182291
1072.000000	69.116076
1071.000000	69.049976
1070.000000	68.984443
1069.000000	68.911300
1068.000000	68.841111
1067.000000	68.768991
1066.000000	68.692214
1065.000000	68.624523
1064.000000	68.566259
1063.000000	68.490958
1062.000000	68.409298
1061.000000	68.328546
1060.000000	68.244273
1059.000000	68.168859
1058.000000	68.081293
1057.000000	67.992363
1056.000000	67.905705
1055.000000	67.807349
1054.000000	67.688890
1053.000000	67.572589
1052.000000	67.491156
1051.000000	67.407565
1050.000000	67.319089
1049.000000	67.212783
1048.000000	67.103069
1047.000000	67.018002
1046.000000	66.933047
1045.000000	66.840484
1044.000000	66.740424
1043.000000	66.648201
1042.000000	66.559044
1041.000000	66.476248
1040.000000	66.383798
1039.000000	66.289303
1038.000000	66.196399
1037.000000	66.098156
1036.000000	66.000141
1035.000000	65.921547
1034.000000	65.841249
1033.000000	65.745164
1032.000000	65.644423
1031.000000	65.557765
1030.000000	65.471448
1029.000000	65.383654
1028.000000	65.294839
1027.000000	65.217835
1026.000000	65.115503
1025.000000	65.019646
1024.000000	64.920949
1023.000000	64.835881
1022.000000	64.771143
1021.000000	64.677557
1020.000000	64.587152
1019.000000	64.501062
1018.000000	64.416448
1017.000000	64.347621
1016.000000	64.283565
1015.000000	64.210877
1014.000000	64.128648
1013.000000	64.052099
1012.000000	63.999854
1011.000000	63.964873
1010.000000	63.932618
1009.000000	63.889459
1008.000000	63.855386
1007.000000	63.809843
1006.000000	63.763504
1005.000000	63.729999
1004.000000	63.711146
1003.000000	63.668782
1002.000000	63.611313
1001.000000	63.574515
1000.000000	63.561795
999.000000	63.529994
998.000000	63.500237
997.000000	63.446856
996.000000	63.396088
995.000000	63.374509
994.000000	63.369625
993.000000	63.314882
992.000000	63.279674
991.000000	63.265023
990.000000	63.234584
989.000000	63.199035
988.000000	63.171209
987.000000	63.134638
986.000000	63.107494
985.000000	63.097045
984.000000	63.063199
983.000000	63.036169
982.000000	62.999143
981.000000	62.977109
980.000000	62.960868
979.000000	62.929294
978.000000	62.894313
977.000000	62.872961
976.000000	62.842296
975.000000	62.816173
974.000000	62.783577
973.000000	62.751436
972.000000	62.742917
971.000000	62.714183
970.000000	62.663869
969.000000	62.627752
968.000000	62.620824
967.000000	62.593680
966.000000	62.567444
965.000000	62.539504
964.000000	62.513950
963.000000	62.521105
962.000000	62.531668
961.000000	62.494642
960.000000	62.478514
959.000000	62.480104
958.000000	62.503842
957.000000	62.538028
956.000000	62.507362
955.000000	62.482944
954.000000	62.483625
953.000000	62.518606
952.000000	62.525989
951.000000	62.533712
950.000000	62.581981
949.000000	62.587660
948.000000	62.601743
947.000000	62.656032
946.000000	62.661711
945.000000	62.725540
944.000000	62.743258
943.000000	62.785167
942.000000	62.813107
941.000000	62.864102
940.000000	62.911463
939.000000	62.947012
938.000000	63.033102
937.000000	63.048094
936.000000	63.101361
935.000000	63.155309
934.000000	63.197445
933.000000	63.297278
932.000000	63.344525
931.000000	63.389842
930.000000	63.459918
929.000000	63.476386
928.000000	63.523633
927.000000	63.608020
926.000000	63.642547
925.000000	63.647544
924.000000	63.674802
923.000000	63.706944
922.000000	63.769864
921.000000	63.850730
920.000000	63.854137
919.000000	63.869243
918.000000	63.895592
917.000000	63.919329
916.000000	63.977934
915.000000	63.981455
914.000000	64.024841
913.000000	64.087307
912.000000	64.137053
911.000000	64.284246
910.000000	64.310028
909.000000	64.358184
908.000000	64.401797
907.000000	64.484480
906.000000	64.681305
905.000000	64.746498
904.000000	64.841787
903.000000	64.967061
902.000000	65.095741
901.000000	65.235666
900.000000	65.348787
899.000000	65.465315
898.000000	65.583547
897.000000	65.695646
896.000000	65.794910
895.000000	65.835911
894.000000	65.958459
893.000000	66.041482
892.000000	66.124733
891.000000	66.161531
890.000000	66.230244
889.000000	66.265793
888.000000	66.302819
887.000000	66.226155
886.000000	66.250915
885.000000	66.272608
884.000000	66.269314
883.000000	66.287599
882.000000	66.245349
881.000000	66.127799
880.000000	66.104062
879.000000	66.066582
878.000000	65.934494
877.000000	65.962888
876.000000	65.965614
875.000000	65.856922
874.000000	65.723131
873.000000	65.692125
872.000000	65.576164
871.000000	65.531984
870.000000	65.527100
869.000000	65.454525
868.000000	65.454866
867.000000	65.388311
866.000000	65.408527
865.000000	65.365710
864.000000	65.391605
863.000000	65.381724
862.000000	65.446916
861.000000	65.386721
860.000000	65.432719
859.000000	65.463271
858.000000	66.998467
857.000000	66.608400
856.000000	67.129100
855.000000	67.257900
854.000000	68.032100
853.000000	68.250600
852.000000	68.240400
851.000000	68.826300
850.000000	69.244000
849.000000	69.511900
848.000000	70.115200
847.000000	70.333600
846.000000	70.905300
845.000000	71.029200
844.000000	71.378800
843.000000	71.835200
842.000000	72.262700
841.000000	72.590600
840.000000	72.728900
839.000000	73.362800
838.000000	73.694900
837.000000	74.085500
836.000000	74.352900
835.000000	74.731300
834.000000	74.924400
833.000000	74.964300
832.000000	75.377300
831.000000	75.670400
830.000000	75.876500
829.000000	76.129600
828.000000	76.266800
827.000000	76.284300
826.000000	76.496900
825.000000	76.626000
824.000000	76.616500
823.000000	76.615100
822.000000	76.650300
821.000000	76.804200
820.000000	76.823600
819.000000	76.841700
818.000000	76.859900
817.000000	76.995700
816.000000	77.167600
815.000000	77.135700
814.000000	77.145900
813.000000	77.411400
812.000000	77.421600
811.000000	77.434400
810.000000	77.752400
809.000000	77.894400
808.000000	78.010800
807.000000	78.178600
806.000000	78.210400
805.000000	78.335100
804.000000	78.566300
803.000000	78.947500
802.000000	79.028400
801.000000	79.159100
800.000000	79.493500
799.000000	79.583100
798.000000	79.695300
797.000000	79.776400
796.000000	79.884400
795.000000	80.060100
794.000000	80.192800
793.000000	80.233600
792.000000	80.270400
791.000000	80.319500
790.000000	80.341000
789.000000	80.383200
788.000000	80.396400
787.000000	80.361700
786.000000	80.325200
785.000000	80.328800
784.000000	80.360400
783.000000	80.333100
782.000000	80.275000
781.000000	80.240600
780.000000	80.247100
779.000000	80.219900
778.000000	80.155100
777.000000	80.107000
776.000000	80.045400
775.000000	80.020100
774.000000	79.954500
773.000000	79.923500
772.000000	79.979100
771.000000	80.076600
770.000000	80.102800
769.000000	80.147000
768.000000	80.181900
767.000000	80.210200
766.000000	80.286500
765.000000	80.308300
764.000000	80.410000
763.000000	80.511800
762.000000	80.583800
761.000000	80.650800
760.000000	80.756400
759.000000	80.789600
758.000000	80.758100
757.000000	80.807700
756.000000	80.822000
755.000000	80.845300
754.000000	80.862600
753.000000	80.787300
752.000000	80.791800
751.000000	80.816900
750.000000	80.764200
749.000000	80.680000
748.000000	80.560500
747.000000	80.427600
746.000000	80.228700
745.000000	80.021200
744.000000	79.802000
743.000000	79.588100
742.000000	79.353300
741.000000	79.072400
740.000000	78.718700
739.000000	78.334400
738.000000	77.979900
737.000000	77.601900
736.000000	77.235900
735.000000	76.848600
734.000000	76.421500
733.000000	76.009900
732.000000	75.623500
731.000000	75.166700
730.000000	74.714000
729.000000	74.357200
728.000000	73.911500
727.000000	73.484500
726.000000	73.094600
725.000000	72.757400
724.000000	72.401000
723.000000	72.008600
722.000000	71.676100
721.000000	71.341700
720.000000	70.990800
719.000000	70.640100
718.000000	70.314700
717.000000	70.075500
716.000000	69.834200
715.000000	69.551200
714.000000	69.332500
713.000000	69.142500
712.000000	68.978800
711.000000	68.866400
710.000000	68.755700
709.000000	68.616800
708.000000	68.493300
707.000000	68.422100
706.000000	68.383800
705.000000	68.343900
704.000000	68.284300
703.000000	68.247600
702.000000	68.226600
701.000000	68.162300
700.000000	68.126800
699.000000	68.066800
698.000000	67.972400
697.000000	67.993500
696.000000	67.949000
695.000000	67.894200
694.000000	67.915900
693.000000	67.898200
692.000000	67.832400
691.000000	67.713900
690.000000	67.649200
689.000000	67.600900
688.000000	67.531300
687.000000	67.477200
686.000000	67.418900
685.000000	67.364000
684.000000	67.276000
683.000000	67.130100
682.000000	67.000600
681.000000	66.832100
680.000000	66.675900
679.000000	66.547100
678.000000	66.374600
677.000000	66.244300
676.000000	66.053900
675.000000	65.874700
674.000000	65.643800
673.000000	65.410500
672.000000	65.163300
671.000000	64.923500
670.000000	64.672900
669.000000	64.412400
668.000000	64.086500
667.000000	63.801400
666.000000	63.472100
665.000000	63.146900
664.000000	62.803000
663.000000	62.447000
662.000000	62.069100
661.000000	61.734000
660.000000	61.308100
659.000000	60.881000
658.000000	60.407900
657.000000	59.964200
656.000000	59.511600
655.000000	59.001100
654.000000	58.487600
653.000000	57.931500
652.000000	57.414300
651.000000	56.811000
650.000000	56.271300
649.000000	55.725500
648.000000	55.166100
647.000000	54.668100
646.000000	54.183800
645.000000	53.671800
644.000000	53.219000
643.000000	52.804600
642.000000	52.408600
641.000000	52.065600
640.000000	51.734300
639.000000	51.489800
638.000000	51.308700
637.000000	51.113900
636.000000	51.004600
635.000000	50.989100
634.000000	51.007300
633.000000	51.102100
632.000000	51.231400
631.000000	51.406600
630.000000	51.607600
629.000000	51.855700
628.000000	52.230600
627.000000	52.546900
626.000000	52.904800
625.000000	53.341100
624.000000	53.766400
623.000000	54.226700
622.000000	54.738200
621.000000	55.267800
620.000000	55.834700
619.000000	56.369800
618.000000	56.973700
617.000000	57.534400
616.000000	58.160100
615.000000	58.722200
614.000000	59.393500
613.000000	60.062100
612.000000	60.686800
611.000000	61.326800
610.000000	61.964900
609.000000	62.593300
608.000000	63.198300
607.000000	63.863100
606.000000	64.427000
605.000000	64.951500
604.000000	65.513400
603.000000	66.070000
602.000000	66.571600
601.000000	66.993800
600.000000	67.493500
599.000000	67.939900
598.000000	68.416800
597.000000	68.854000
596.000000	69.297400
595.000000	69.705600
594.000000	70.141200
593.000000	70.571600
592.000000	70.999200
591.000000	71.457000
590.000000	71.800000
589.000000	72.213600
588.000000	72.611300
587.000000	72.962300
586.000000	73.253000
585.000000	73.555300
584.000000	73.908200
583.000000	74.181700
582.000000	74.446200
581.000000	74.662200
580.000000	74.872400
579.000000	75.011300
578.000000	75.256600
577.000000	75.403700
576.000000	75.512900
575.000000	75.608600
574.000000	75.711500
573.000000	75.761100
572.000000	75.784100
571.000000	75.847200
570.000000	75.874000
569.000000	75.938100
568.000000	75.872300
567.000000	75.895200
566.000000	75.844200
565.000000	75.783900
564.000000	75.710000
563.000000	75.615700
562.000000	75.483100
561.000000	75.339900
560.000000	75.171400
559.000000	75.203200
558.000000	75.033200
557.000000	74.802500
556.000000	74.580400
555.000000	74.345700
554.000000	74.083800
553.000000	73.865300
552.000000	73.560300
551.000000	73.326700
550.000000	73.058200
549.000000	72.786700
548.000000	72.515500
547.000000	72.182100
546.000000	71.859700
545.000000	71.516100
544.000000	71.152400
543.000000	70.747900
542.000000	70.351900
541.000000	69.877000
540.000000	69.402100
539.000000	68.920800
538.000000	68.433400
537.000000	67.948200
536.000000	67.407200
535.000000	66.863900
534.000000	66.271100
533.000000	65.670400
532.000000	65.080200
531.000000	64.430500
530.000000	63.762200
529.000000	63.078700
528.000000	62.327300
527.000000	61.565700
526.000000	60.769300
525.000000	59.969200
524.000000	59.110500
523.000000	58.216400
522.000000	57.282300
521.000000	56.321100
520.000000	55.333100
519.000000	54.323500
518.000000	53.280700
517.000000	52.216600
516.000000	51.166600
515.000000	50.089300
514.000000	49.010900
513.000000	47.916400
512.000000	46.832900
511.000000	45.777300
510.000000	44.701000
509.000000	43.671200
508.000000	42.676500
507.000000	41.661300
506.000000	40.683600
505.000000	39.753900
504.000000	38.840400
503.000000	37.940100
502.000000	37.105500
501.000000	36.313400
500.000000	35.568000
499.000000	34.868900
498.000000	34.253800
497.000000	33.709900
496.000000	33.204000
495.000000	32.742300
494.000000	32.329900
493.000000	31.953800
492.000000	31.623600
491.000000	31.303700
490.000000	31.026600
489.000000	30.770900
488.000000	30.508500
487.000000	30.274000
486.000000	30.041300
485.000000	29.808300
484.000000	29.572600
483.000000	29.332600
482.000000	29.085600
481.000000	28.833100
480.000000	28.554100
479.000000	28.261300
478.000000	27.962300
477.000000	27.647600
476.000000	27.308800
475.000000	26.963900
474.000000	26.598100
473.000000	26.212400
472.000000	25.814100
471.000000	25.408500
470.000000	24.988500
469.000000	24.551200
468.000000	24.114600
467.000000	23.666400
466.000000	23.228500
465.000000	22.804600
464.000000	22.385200
463.000000	21.950400
462.000000	21.542300
461.000000	21.151300
460.000000	20.785200
459.000000	20.454100
458.000000	20.136800
457.000000	19.835200
456.000000	19.566300
455.000000	19.334700
454.000000	19.113500
453.000000	18.913100
452.000000	18.747700
451.000000	18.616900
450.000000	18.522000
449.000000	18.438300
448.000000	18.366100
447.000000	18.332800
446.000000	18.335000
445.000000	18.332500
444.000000	18.340700
443.000000	18.354100
442.000000	18.378600
441.000000	18.412100
440.000000	18.453500
439.000000	18.500700
438.000000	18.544800
437.000000	18.588200
436.000000	18.621800
435.000000	18.653600
434.000000	18.687900
433.000000	18.709300
432.000000	18.744900
431.000000	18.770800
430.000000	18.784100
429.000000	18.786800
428.000000	18.765600
427.000000	18.752100
426.000000	18.713800
425.000000	18.680400
424.000000	18.652000
423.000000	18.589200
422.000000	18.510200
421.000000	18.415800
420.000000	18.332300
419.000000	18.247500
418.000000	18.129400
417.000000	17.998400
416.000000	17.863100
415.000000	17.733700
414.000000	17.594200
413.000000	17.432400
412.000000	17.258100
411.000000	17.080600
410.000000	16.879900
409.000000	16.670100
408.000000	16.479600
407.000000	16.252500
406.000000	16.022100
405.000000	15.801400
404.000000	15.555600
403.000000	15.304900
402.000000	15.043400
401.000000	14.781100
400.000000	14.501300
399.000000	14.217300
398.000000	13.949200
397.000000	13.670000
396.000000	13.371900
395.000000	13.085900
394.000000	12.790200
393.000000	12.483400
392.000000	12.183600
391.000000	11.883100
390.000000	11.596400
389.000000	11.290800
388.000000	10.999600
387.000000	10.725000
386.000000	10.454900
385.000000	10.179400
384.000000	9.922400
383.000000	9.654900
382.000000	9.401300
381.000000	9.151700
380.000000	8.916400
379.000000	8.685500
378.000000	8.467500
377.000000	8.258000
376.000000	8.299400
375.000000	8.000800
374.000000	7.695800
373.000000	7.693200
372.000000	7.515600
371.000000	7.281300
370.000000	7.199000
369.000000	7.169400
368.000000	7.034400
367.000000	6.905500
366.000000	6.730800
365.000000	6.604600
364.000000	6.507300
363.000000	6.439000
362.000000	6.394100
361.000000	6.277500
360.000000	6.191000
359.000000	6.117400
358.000000	6.006600
357.000000	5.922500
356.000000	5.925800
355.000000	5.815800
354.000000	5.753000
353.000000	5.635100
352.000000	5.561400
351.000000	5.566900
350.000000	5.453500
349.000000	5.470400
348.000000	5.408400
347.000000	5.314700
346.000000	5.361900
345.000000	5.419300
344.000000	5.381000
343.000000	5.428700
342.000000	5.346900
341.000000	5.337100
340.000000	5.441400
339.000000	5.404100
338.000000	5.331000
337.000000	5.442100
336.000000	5.436800
335.000000	5.408200
334.000000	5.339400
333.000000	5.347700
332.000000	5.548200
331.000000	5.368400
330.000000	5.286800
329.000000	5.317200
328.000000	5.276900
327.000000	5.450300
326.000000	5.245000
325.000000	5.430800
324.000000	5.321800
323.000000	5.523300
322.000000	5.261300
321.000000	5.562000
320.000000	5.549800
319.000000	5.379000
318.000000	5.397200
317.000000	5.345100
316.000000	5.199200
315.000000	5.163500
314.000000	5.150800
313.000000	5.162300
312.000000	5.176900
311.000000	5.162400
310.000000	5.142500
309.000000	5.162900
308.000000	5.142300
307.000000	5.183500
306.000000	5.154300
305.000000	5.180400
304.000000	5.146300
303.000000	5.180900
302.000000	5.198400
301.000000	5.201100
300.000000	5.227400
299.000000	5.204900
298.000000	5.193500
297.000000	5.249000
296.000000	5.241300
295.000000	5.228300
294.000000	5.255800
293.000000	5.262800
292.000000	5.236700
291.000000	5.244700
290.000000	5.196900
289.000000	5.328600
288.000000	5.281700
287.000000	5.214900
286.000000	5.260900
285.000000	5.259200
284.000000	5.272000
283.000000	5.317800
282.000000	5.249500
281.000000	5.293200
280.000000	5.294100
279.000000	5.250100
278.000000	5.270500
277.000000	5.305400
276.000000	5.277200
275.000000	5.333100
274.000000	5.286800
273.000000	5.317900
272.000000	5.309200
271.000000	5.400200
270.000000	5.322300
269.000000	5.324000
268.000000	5.349300
267.000000	5.411200
266.000000	5.405200
265.000000	5.437500
264.000000	5.428800
263.000000	5.437100
262.000000	5.500500
261.000000	5.501400
260.000000	5.513300
259.000000	5.521000
258.000000	5.496100
257.000000	5.576300
256.000000	5.546900
255.000000	5.522400
254.000000	5.614600
253.000000	5.574700
252.000000	5.571800
251.000000	5.590800
250.000000	5.618600
