PE UV       SUBTECH     SPECTRUM    ASCII       PEDS        4.00        
   -1
CICIMAUCR0257-2.ASC
24/06/27
10:47:58.00
24/06/27
10:47:58.00
Vinicio Soto Monge
C. resplendens. Sex F. Ventral
250,000000
1
Lambda 1050
1050L1511233
PerkinElmer UV WinLab 6.3.2.0749 / 2.02.05 Lambda 900 UV/VIS/NIR, Aug  7 2015 09:38:08

0
0
3350/servo 860,8/2
0
0
UV/VIS
1
1
1
DoubleDePol,CommonBeamDepol,RBeamAtt,SBeamAtt,60mm sphere, WB InGaAs Detector
0
0
0
0
Program
Program
3350/servo 860,8/2
3350/0,2 860,8/0,2
3350/0,2 860,8/0,2
0
15.00
 
 
 
0
 
860,8
319,2
860,8
Front
100
on
S:100 R:100
0
0
0
0
 
0
 
 
 
0
 
 
0
0
0
0
0
 
 
 
 
0
0


0
0
#HDR
-1
-1
#GR
nm
%R
1.0
0.0
2500,000000
-1,000000
2251
8
58,971800
4,417200
#DATA
2482.000000	5.695369
2481.000000	5.686808
2480.000000	5.577095
2479.000000	5.619561
2478.000000	5.701338
2477.000000	5.593991
2476.000000	5.685118
2475.000000	5.620800
2474.000000	5.608635
2473.000000	5.615506
2472.000000	5.626657
2471.000000	5.629699
2470.000000	5.601426
2469.000000	5.622828
2468.000000	5.573265
2467.000000	5.583516
2466.000000	5.613028
2465.000000	5.597709
2464.000000	5.618435
2463.000000	5.642878
2462.000000	5.634993
2461.000000	5.611789
2460.000000	5.626995
2459.000000	5.666307
2458.000000	5.609648
2457.000000	5.677571
2456.000000	5.653804
2455.000000	5.685343
2454.000000	5.719136
2453.000000	5.720375
2452.000000	5.737947
2451.000000	5.784806
2450.000000	5.815669
2449.000000	5.833016
2448.000000	5.834818
2447.000000	5.848899
2446.000000	5.879875
2445.000000	5.882916
2444.000000	5.927860
2443.000000	5.934844
2442.000000	5.974832
2441.000000	5.989925
2440.000000	6.013805
2439.000000	6.027886
2438.000000	6.039713
2437.000000	6.066972
2436.000000	6.061227
2435.000000	6.105270
2434.000000	6.145934
2433.000000	6.119463
2432.000000	6.125095
2431.000000	6.157085
2430.000000	6.181979
2429.000000	6.200903
2428.000000	6.207999
2427.000000	6.223769
2426.000000	6.231766
2425.000000	6.259025
2424.000000	6.280653
2423.000000	6.291466
2422.000000	6.283243
2421.000000	6.308362
2420.000000	6.318275
2419.000000	6.311742
2418.000000	6.332242
2417.000000	6.339677
2416.000000	6.358037
2415.000000	6.376398
2414.000000	6.372568
2413.000000	6.373018
2412.000000	6.370428
2411.000000	6.381692
2410.000000	6.403544
2409.000000	6.413569
2408.000000	6.415484
2407.000000	6.427312
2406.000000	6.432944
2405.000000	6.444320
2404.000000	6.461217
2403.000000	6.477212
2402.000000	6.472255
2401.000000	6.482956
2400.000000	6.503344
2399.000000	6.502443
2398.000000	6.519114
2397.000000	6.527900
2396.000000	6.548964
2395.000000	6.555497
2394.000000	6.550541
2393.000000	6.563495
2392.000000	6.563720
2391.000000	6.562256
2390.000000	6.563044
2389.000000	6.565184
2388.000000	6.571380
2387.000000	6.570929
2386.000000	6.578589
2385.000000	6.593120
2384.000000	6.600329
2383.000000	6.602243
2382.000000	6.592218
2381.000000	6.587487
2380.000000	6.585235
2379.000000	6.582982
2378.000000	6.569352
2377.000000	6.549077
2376.000000	6.553582
2375.000000	6.544796
2374.000000	6.537700
2373.000000	6.537024
2372.000000	6.512694
2371.000000	6.491404
2370.000000	6.487237
2369.000000	6.476648
2368.000000	6.461667
2367.000000	6.440829
2366.000000	6.413682
2365.000000	6.392167
2364.000000	6.368400
2363.000000	6.351955
2362.000000	6.328413
2361.000000	6.296310
2360.000000	6.270177
2359.000000	6.248775
2358.000000	6.231879
2357.000000	6.208900
2356.000000	6.199326
2355.000000	6.196059
2354.000000	6.185358
2353.000000	6.173981
2352.000000	6.179839
2351.000000	6.193919
2350.000000	6.172517
2349.000000	6.159225
2348.000000	6.196847
2347.000000	6.206760
2346.000000	6.206760
2345.000000	6.234582
2344.000000	6.249676
2343.000000	6.250577
2342.000000	6.285609
2341.000000	6.295521
2340.000000	6.291354
2339.000000	6.296535
2338.000000	6.294170
2337.000000	6.294057
2336.000000	6.300477
2335.000000	6.292818
2334.000000	6.284933
2333.000000	6.281328
2332.000000	6.264432
2331.000000	6.245621
2330.000000	6.245509
2329.000000	6.217348
2328.000000	6.188061
2327.000000	6.157648
2326.000000	6.137373
2325.000000	6.104482
2324.000000	6.071703
2323.000000	6.053342
2322.000000	6.030364
2321.000000	5.997810
2320.000000	5.966609
2319.000000	5.927522
2318.000000	5.898235
2317.000000	5.867597
2316.000000	5.837747
2315.000000	5.791789
2314.000000	5.762277
2313.000000	5.720488
2312.000000	5.707083
2311.000000	5.681852
2310.000000	5.649636
2309.000000	5.651664
2308.000000	5.633416
2307.000000	5.602777
2306.000000	5.615731
2305.000000	5.623278
2304.000000	5.619110
2303.000000	5.651326
2302.000000	5.645694
2301.000000	5.656057
2300.000000	5.683541
2299.000000	5.703141
2298.000000	5.737496
2297.000000	5.762953
2296.000000	5.749436
2295.000000	5.785819
2294.000000	5.809474
2293.000000	5.821189
2292.000000	5.825357
2291.000000	5.846871
2290.000000	5.875707
2289.000000	5.868386
2288.000000	5.848110
2287.000000	5.854756
2286.000000	5.857121
2285.000000	5.856783
2284.000000	5.833129
2283.000000	5.823442
2282.000000	5.811276
2281.000000	5.806771
2280.000000	5.798773
2279.000000	5.769374
2278.000000	5.768585
2277.000000	5.753829
2276.000000	5.732090
2275.000000	5.729949
2274.000000	5.726795
2273.000000	5.703591
2272.000000	5.702915
2271.000000	5.709336
2270.000000	5.722966
2269.000000	5.736595
2268.000000	5.754956
2267.000000	5.775682
2266.000000	5.777033
2265.000000	5.824230
2264.000000	5.867034
2263.000000	5.929212
2262.000000	5.959512
2261.000000	6.024394
2260.000000	6.112367
2259.000000	6.181528
2258.000000	6.260152
2257.000000	6.310052
2256.000000	6.406135
2255.000000	6.516974
2254.000000	6.613282
2253.000000	6.714322
2252.000000	6.812319
2251.000000	6.910768
2250.000000	6.974072
2249.000000	7.071845
2248.000000	7.154298
2247.000000	7.247453
2246.000000	7.324161
2245.000000	7.406052
2244.000000	7.456966
2243.000000	7.540433
2242.000000	7.623900
2241.000000	7.682023
2240.000000	7.725390
2239.000000	7.789595
2238.000000	7.849633
2237.000000	7.882299
2236.000000	7.927468
2235.000000	7.977819
2234.000000	8.014315
2233.000000	8.049121
2232.000000	8.099697
2231.000000	8.112763
2230.000000	8.153427
2229.000000	8.172125
2228.000000	8.204340
2227.000000	8.205692
2226.000000	8.202200
2225.000000	8.249622
2224.000000	8.228671
2223.000000	8.235542
2222.000000	8.239484
2221.000000	8.253565
2220.000000	8.263590
2219.000000	8.236781
2218.000000	8.229234
2217.000000	8.229347
2216.000000	8.217857
2215.000000	8.216055
2214.000000	8.220673
2213.000000	8.192964
2212.000000	8.211324
2211.000000	8.179109
2210.000000	8.168633
2209.000000	8.163339
2208.000000	8.175392
2207.000000	8.181362
2206.000000	8.167845
2205.000000	8.169872
2204.000000	8.124928
2203.000000	8.167169
2202.000000	8.140473
2201.000000	8.152188
2200.000000	8.161537
2199.000000	8.145880
2198.000000	8.157932
2197.000000	8.153652
2196.000000	8.126055
2195.000000	8.142951
2194.000000	8.142050
2193.000000	8.141937
2192.000000	8.138558
2191.000000	8.142050
2190.000000	8.133827
2189.000000	8.125717
2188.000000	8.119296
2187.000000	8.122112
2186.000000	8.103526
2185.000000	8.089221
2184.000000	8.094515
2183.000000	8.101499
2182.000000	8.108595
2181.000000	8.088770
2180.000000	8.083138
2179.000000	8.074240
2178.000000	8.063877
2177.000000	8.073902
2176.000000	8.051937
2175.000000	8.070748
2174.000000	8.077732
2173.000000	8.062750
2172.000000	8.087757
2171.000000	8.081111
2170.000000	8.105554
2169.000000	8.093276
2168.000000	8.093727
2167.000000	8.084941
2166.000000	8.110510
2165.000000	8.142613
2164.000000	8.134615
2163.000000	8.132250
2162.000000	8.160185
2161.000000	8.168971
2160.000000	8.171900
2159.000000	8.186318
2158.000000	8.204228
2157.000000	8.214140
2156.000000	8.245117
2155.000000	8.267194
2154.000000	8.251424
2153.000000	8.260210
2152.000000	8.283753
2151.000000	8.297945
2150.000000	8.319572
2149.000000	8.344579
2148.000000	8.363277
2147.000000	8.359335
2146.000000	8.363277
2145.000000	8.386819
2144.000000	8.412276
2143.000000	8.421513
2142.000000	8.430862
2141.000000	8.443478
2140.000000	8.458797
2139.000000	8.466795
2138.000000	8.478284
2137.000000	8.479073
2136.000000	8.492927
2135.000000	8.483803
2134.000000	8.479523
2133.000000	8.512978
2132.000000	8.518384
2131.000000	8.508697
2130.000000	8.500136
2129.000000	8.504304
2128.000000	8.513541
2127.000000	8.494166
2126.000000	8.486619
2125.000000	8.484705
2124.000000	8.473103
2123.000000	8.468822
2122.000000	8.453503
2121.000000	8.426018
2120.000000	8.410699
2119.000000	8.414642
2118.000000	8.414191
2117.000000	8.390086
2116.000000	8.364066
2115.000000	8.345593
2114.000000	8.340636
2113.000000	8.315067
2112.000000	8.286005
2111.000000	8.276093
2110.000000	8.257845
2109.000000	8.245905
2108.000000	8.228333
2107.000000	8.211099
2106.000000	8.195442
2105.000000	8.182826
2104.000000	8.165254
2103.000000	8.143401
2102.000000	8.110736
2101.000000	8.098120
2100.000000	8.084603
2099.000000	8.075929
2098.000000	8.055316
2097.000000	8.034815
2096.000000	8.026255
2095.000000	8.019046
2094.000000	8.012174
2093.000000	7.994828
2092.000000	7.968920
2091.000000	7.952024
2090.000000	7.946505
2089.000000	7.938056
2088.000000	7.932086
2087.000000	7.931298
2086.000000	7.913163
2085.000000	7.902349
2084.000000	7.898069
2083.000000	7.888156
2082.000000	7.882524
2081.000000	7.864276
2080.000000	7.851548
2079.000000	7.840960
2078.000000	7.830259
2077.000000	7.821135
2076.000000	7.809195
2075.000000	7.791735
2074.000000	7.772361
2073.000000	7.755690
2072.000000	7.746341
2071.000000	7.738231
2070.000000	7.726516
2069.000000	7.707930
2068.000000	7.701397
2067.000000	7.702636
2066.000000	7.687317
2065.000000	7.669858
2064.000000	7.662423
2063.000000	7.660959
2062.000000	7.661522
2061.000000	7.668731
2060.000000	7.669970
2059.000000	7.664676
2058.000000	7.662874
2057.000000	7.658481
2056.000000	7.655665
2055.000000	7.674138
2054.000000	7.707254
2053.000000	7.740033
2052.000000	7.764251
2051.000000	7.792524
2050.000000	7.827105
2049.000000	7.871711
2048.000000	7.924427
2047.000000	7.975791
2046.000000	8.021974
2045.000000	8.083927
2044.000000	8.142951
2043.000000	8.199046
2042.000000	8.258408
2041.000000	8.316418
2040.000000	8.370261
2039.000000	8.423090
2038.000000	8.478847
2037.000000	8.528747
2036.000000	8.586532
2035.000000	8.648710
2034.000000	8.708973
2033.000000	8.744681
2032.000000	8.794806
2031.000000	8.841214
2030.000000	8.879174
2029.000000	8.923330
2028.000000	8.958361
2027.000000	8.989788
2026.000000	9.028537
2025.000000	9.055120
2024.000000	9.085533
2023.000000	9.112117
2022.000000	9.129351
2021.000000	9.179701
2020.000000	9.199414
2019.000000	9.221829
2018.000000	9.242442
2017.000000	9.259902
2016.000000	9.271279
2015.000000	9.281980
2014.000000	9.306648
2013.000000	9.314195
2012.000000	9.313406
2011.000000	9.303381
2010.000000	9.315096
2009.000000	9.322756
2008.000000	9.313857
2007.000000	9.318475
2006.000000	9.319376
2005.000000	9.335822
2004.000000	9.308450
2003.000000	9.284908
2002.000000	9.259113
2001.000000	9.253031
2000.000000	9.218788
1999.000000	9.208087
1998.000000	9.186347
1997.000000	9.167761
1996.000000	9.115383
1995.000000	9.098374
1994.000000	9.073255
1993.000000	9.013217
1992.000000	8.984494
1991.000000	8.950138
1990.000000	8.910489
1989.000000	8.876809
1988.000000	8.849099
1987.000000	8.809111
1986.000000	8.764055
1985.000000	8.717421
1984.000000	8.674392
1983.000000	8.645669
1982.000000	8.584054
1981.000000	8.541926
1980.000000	8.492589
1979.000000	8.438860
1978.000000	8.406081
1977.000000	8.368008
1976.000000	8.316306
1975.000000	8.279923
1974.000000	8.241850
1973.000000	8.201750
1972.000000	8.140360
1971.000000	8.127744
1970.000000	8.093952
1969.000000	8.054190
1968.000000	8.019046
1967.000000	7.984239
1966.000000	7.957769
1965.000000	7.915979
1964.000000	7.888044
1963.000000	7.847718
1962.000000	7.815165
1961.000000	7.771798
1960.000000	7.746904
1959.000000	7.703199
1958.000000	7.675490
1957.000000	7.652285
1956.000000	7.635164
1955.000000	7.602273
1954.000000	7.587742
1953.000000	7.535139
1952.000000	7.494700
1951.000000	7.457529
1950.000000	7.452347
1949.000000	7.438380
1948.000000	7.435000
1947.000000	7.392084
1946.000000	7.367754
1945.000000	7.366965
1944.000000	7.329343
1943.000000	7.320782
1942.000000	7.347478
1941.000000	7.313348
1940.000000	7.300619
1939.000000	7.304111
1938.000000	7.315150
1937.000000	7.297578
1936.000000	7.331483
1935.000000	7.330695
1934.000000	7.309180
1933.000000	7.344662
1932.000000	7.367528
1931.000000	7.374850
1930.000000	7.431734
1929.000000	7.478480
1928.000000	7.502811
1927.000000	7.574338
1926.000000	7.626491
1925.000000	7.637529
1924.000000	7.692048
1923.000000	7.755690
1922.000000	7.790384
1921.000000	7.894239
1920.000000	7.959909
1919.000000	8.048783
1918.000000	8.109496
1917.000000	8.188120
1916.000000	8.282964
1915.000000	8.353140
1914.000000	8.441000
1913.000000	8.547671
1912.000000	8.690050
1911.000000	8.810238
1910.000000	8.906321
1909.000000	9.030564
1908.000000	9.146472
1907.000000	9.239063
1906.000000	9.373782
1905.000000	9.554008
1904.000000	9.734910
1903.000000	9.888553
1902.000000	10.031833
1901.000000	10.193923
1900.000000	10.365138
1899.000000	10.562486
1898.000000	10.762311
1897.000000	10.963714
1896.000000	11.130536
1895.000000	11.299610
1894.000000	11.453253
1893.000000	11.631564
1892.000000	11.854143
1891.000000	12.146109
1890.000000	12.391893
1889.000000	12.625736
1888.000000	12.869604
1887.000000	13.151996
1886.000000	13.450383
1885.000000	13.792362
1884.000000	14.174892
1883.000000	14.623091
1882.000000	15.122655
1881.000000	15.593045
1880.000000	16.086414
1879.000000	16.571222
1878.000000	17.040261
1877.000000	17.539712
1876.000000	17.988024
1875.000000	18.426086
1874.000000	18.846689
1873.000000	19.245214
1872.000000	19.642161
1871.000000	20.006556
1870.000000	20.369937
1869.000000	20.662354
1868.000000	20.939676
1867.000000	21.130491
1866.000000	21.298214
1865.000000	21.409841
1864.000000	21.520680
1863.000000	21.618002
1862.000000	21.698991
1861.000000	21.796088
1860.000000	21.881245
1859.000000	21.928442
1858.000000	21.979693
1857.000000	22.012810
1856.000000	22.007065
1855.000000	21.985889
1854.000000	21.967190
1853.000000	21.932609
1852.000000	21.866038
1851.000000	21.809267
1850.000000	21.770744
1849.000000	21.691106
1848.000000	21.629492
1847.000000	21.594122
1846.000000	21.524961
1845.000000	21.438565
1844.000000	21.357463
1843.000000	21.291230
1842.000000	21.259803
1841.000000	21.236937
1840.000000	21.215648
1839.000000	21.178926
1838.000000	21.121367
1837.000000	21.057387
1836.000000	20.996673
1835.000000	20.941253
1834.000000	20.868712
1833.000000	20.763731
1832.000000	20.658974
1831.000000	20.565144
1830.000000	20.507247
1829.000000	20.414768
1828.000000	20.308097
1827.000000	20.217984
1826.000000	20.119873
1825.000000	20.035054
1824.000000	19.962851
1823.000000	19.889409
1822.000000	19.868345
1821.000000	19.853251
1820.000000	19.821148
1819.000000	19.786117
1818.000000	19.756943
1817.000000	19.732275
1816.000000	19.703551
1815.000000	19.697130
1814.000000	19.688006
1813.000000	19.660297
1812.000000	19.644978
1811.000000	19.626392
1810.000000	19.597668
1809.000000	19.551598
1808.000000	19.504964
1807.000000	19.463738
1806.000000	19.409332
1805.000000	19.334425
1804.000000	19.262898
1803.000000	19.209281
1802.000000	19.173799
1801.000000	19.135276
1800.000000	19.071408
1799.000000	18.990532
1798.000000	18.916526
1797.000000	18.875975
1796.000000	18.826075
1795.000000	18.763785
1794.000000	18.693159
1793.000000	18.627601
1792.000000	18.572295
1791.000000	18.508314
1790.000000	18.453345
1789.000000	18.374159
1788.000000	18.279540
1787.000000	18.214433
1786.000000	18.136485
1785.000000	18.040290
1784.000000	17.945558
1783.000000	17.845420
1782.000000	17.753505
1781.000000	17.664406
1780.000000	17.571702
1779.000000	17.462215
1778.000000	17.360612
1777.000000	17.249323
1776.000000	17.146932
1775.000000	17.015592
1774.000000	16.873439
1773.000000	16.716642
1772.000000	16.558156
1771.000000	16.430308
1770.000000	16.284438
1769.000000	16.125951
1768.000000	15.989881
1767.000000	15.865299
1766.000000	15.759867
1765.000000	15.654210
1764.000000	15.579190
1763.000000	15.552494
1762.000000	15.540104
1761.000000	15.569278
1760.000000	15.620079
1759.000000	15.675949
1758.000000	15.733171
1757.000000	15.827114
1756.000000	15.897289
1755.000000	15.948091
1754.000000	15.968817
1753.000000	15.985375
1752.000000	15.992471
1751.000000	15.969267
1750.000000	15.916213
1749.000000	15.859104
1748.000000	15.797489
1747.000000	15.729341
1746.000000	15.611969
1745.000000	15.485360
1744.000000	15.337124
1743.000000	15.167036
1742.000000	14.967548
1741.000000	14.740463
1740.000000	14.508197
1739.000000	14.256331
1738.000000	14.037469
1737.000000	13.838995
1736.000000	13.664063
1735.000000	13.544326
1734.000000	13.455564
1733.000000	13.441709
1732.000000	13.461760
1731.000000	13.507041
1730.000000	13.592424
1729.000000	13.700897
1728.000000	13.828858
1727.000000	13.951411
1726.000000	14.047156
1725.000000	14.149435
1724.000000	14.235493
1723.000000	14.272439
1722.000000	14.313328
1721.000000	14.326169
1720.000000	14.322114
1719.000000	14.334842
1718.000000	14.339686
1717.000000	14.373591
1716.000000	14.397245
1715.000000	14.440387
1714.000000	14.516307
1713.000000	14.556746
1712.000000	14.597296
1711.000000	14.630300
1710.000000	14.658235
1709.000000	14.681101
1708.000000	14.664994
1707.000000	14.622641
1706.000000	14.609687
1705.000000	14.573642
1704.000000	14.516420
1703.000000	14.416958
1702.000000	14.325831
1701.000000	14.212401
1700.000000	14.072388
1699.000000	13.931586
1698.000000	13.793263
1697.000000	13.659445
1696.000000	13.562461
1695.000000	13.504225
1694.000000	13.508055
1693.000000	13.582398
1692.000000	13.731761
1691.000000	13.898019
1690.000000	14.065292
1689.000000	14.202827
1688.000000	14.308371
1687.000000	14.395218
1686.000000	14.421463
1685.000000	14.416169
1684.000000	14.451764
1683.000000	14.590763
1682.000000	14.822917
1681.000000	15.208939
1680.000000	15.685974
1679.000000	16.285564
1678.000000	16.888871
1677.000000	17.524167
1676.000000	18.076335
1675.000000	18.600342
1674.000000	19.045839
1673.000000	19.465089
1672.000000	19.782287
1671.000000	20.098471
1670.000000	20.346845
1669.000000	20.594544
1668.000000	20.768574
1667.000000	20.956347
1666.000000	21.080703
1665.000000	21.220266
1664.000000	21.317813
1663.000000	21.422344
1662.000000	21.511669
1661.000000	21.566412
1660.000000	21.627351
1659.000000	21.664636
1658.000000	21.712734
1657.000000	21.728278
1656.000000	21.750694
1655.000000	21.744949
1654.000000	21.736388
1653.000000	21.735600
1652.000000	21.702483
1651.000000	21.676576
1650.000000	21.641206
1649.000000	21.611131
1648.000000	21.554473
1647.000000	21.495336
1646.000000	21.434847
1645.000000	21.378302
1644.000000	21.332682
1643.000000	21.255635
1642.000000	21.169690
1641.000000	21.097599
1640.000000	21.023369
1639.000000	20.931904
1638.000000	20.861053
1637.000000	20.776910
1636.000000	20.687247
1635.000000	20.609863
1634.000000	20.532478
1633.000000	20.441239
1632.000000	20.361489
1631.000000	20.251776
1630.000000	20.172364
1629.000000	20.058484
1628.000000	19.964766
1627.000000	19.842776
1626.000000	19.778232
1625.000000	19.668857
1624.000000	19.566129
1623.000000	19.494489
1622.000000	19.392886
1621.000000	19.294776
1620.000000	19.196327
1619.000000	19.096978
1618.000000	19.013060
1617.000000	18.908191
1616.000000	18.843535
1615.000000	18.735061
1614.000000	18.663421
1613.000000	18.579278
1612.000000	18.499416
1611.000000	18.417300
1610.000000	18.329665
1609.000000	18.273457
1608.000000	18.194270
1607.000000	18.109114
1606.000000	18.036009
1605.000000	17.966284
1604.000000	17.902304
1603.000000	17.823117
1602.000000	17.738862
1601.000000	17.660576
1600.000000	17.592203
1599.000000	17.522590
1598.000000	17.464017
1597.000000	17.388435
1596.000000	17.326482
1595.000000	17.260362
1594.000000	17.194016
1593.000000	17.133978
1592.000000	17.092977
1591.000000	17.028884
1590.000000	16.976280
1589.000000	16.920861
1588.000000	16.875692
1587.000000	16.840998
1586.000000	16.805854
1585.000000	16.766993
1584.000000	16.738157
1583.000000	16.711686
1582.000000	16.700985
1581.000000	16.667643
1580.000000	16.633513
1579.000000	16.606929
1578.000000	16.614927
1577.000000	16.612562
1576.000000	16.598707
1575.000000	16.590934
1574.000000	16.590146
1573.000000	16.598481
1572.000000	16.608844
1571.000000	16.611210
1570.000000	16.621798
1569.000000	16.634414
1568.000000	16.669333
1567.000000	16.703013
1566.000000	16.714389
1565.000000	16.741423
1564.000000	16.763839
1563.000000	16.786480
1562.000000	16.809346
1561.000000	16.834690
1560.000000	16.847869
1559.000000	16.868595
1558.000000	16.883464
1557.000000	16.894503
1556.000000	16.908020
1555.000000	16.920410
1554.000000	16.919396
1553.000000	16.918721
1552.000000	16.911849
1551.000000	16.898783
1550.000000	16.900473
1549.000000	16.880760
1548.000000	16.883239
1547.000000	16.873439
1546.000000	16.854966
1545.000000	16.847193
1544.000000	16.853727
1543.000000	16.852037
1542.000000	16.846067
1541.000000	16.840210
1540.000000	16.841111
1539.000000	16.849671
1538.000000	16.852150
1537.000000	16.847757
1536.000000	16.842237
1535.000000	16.827368
1534.000000	16.824440
1533.000000	16.826467
1532.000000	16.817681
1531.000000	16.790760
1530.000000	16.761586
1529.000000	16.758545
1528.000000	16.739734
1527.000000	16.717769
1526.000000	16.703350
1525.000000	16.681723
1524.000000	16.662800
1523.000000	16.626980
1522.000000	16.604113
1521.000000	16.575728
1520.000000	16.539908
1519.000000	16.522223
1518.000000	16.496090
1517.000000	16.460158
1516.000000	16.444501
1515.000000	16.413412
1514.000000	16.373987
1513.000000	16.356303
1512.000000	16.321159
1511.000000	16.281396
1510.000000	16.248618
1509.000000	16.215276
1508.000000	16.188354
1507.000000	16.150507
1506.000000	16.121783
1505.000000	16.100156
1504.000000	16.066251
1503.000000	16.045638
1502.000000	16.018379
1501.000000	15.977490
1500.000000	15.944261
1499.000000	15.926576
1498.000000	15.905512
1497.000000	15.885012
1496.000000	15.871382
1495.000000	15.850881
1494.000000	15.828804
1493.000000	15.827677
1492.000000	15.820919
1491.000000	15.807965
1490.000000	15.800418
1489.000000	15.805712
1488.000000	15.810894
1487.000000	15.801432
1486.000000	15.792082
1485.000000	15.792308
1484.000000	15.794561
1483.000000	15.810894
1482.000000	15.813597
1481.000000	15.827114
1480.000000	15.850431
1479.000000	15.853472
1478.000000	15.871945
1477.000000	15.885687
1476.000000	15.910018
1475.000000	15.918466
1474.000000	15.936151
1473.000000	15.977941
1472.000000	16.005876
1471.000000	16.005763
1470.000000	16.042371
1469.000000	16.070870
1468.000000	16.077065
1467.000000	16.101057
1466.000000	16.134061
1465.000000	16.168868
1464.000000	16.221020
1463.000000	16.259206
1462.000000	16.289619
1461.000000	16.357091
1460.000000	16.418368
1459.000000	16.490120
1458.000000	16.549595
1457.000000	16.619996
1456.000000	16.720021
1455.000000	16.808557
1454.000000	16.876593
1453.000000	16.972676
1452.000000	17.066956
1451.000000	17.168446
1450.000000	17.291338
1449.000000	17.385055
1448.000000	17.484067
1447.000000	17.601101
1446.000000	17.731991
1445.000000	17.864569
1444.000000	17.996698
1443.000000	18.091767
1442.000000	18.219615
1441.000000	18.361881
1440.000000	18.506062
1439.000000	18.643484
1438.000000	18.763897
1437.000000	18.899743
1436.000000	19.009455
1435.000000	19.142710
1434.000000	19.294663
1433.000000	19.424764
1432.000000	19.569846
1431.000000	19.729008
1430.000000	19.893126
1429.000000	20.046656
1428.000000	20.232852
1427.000000	20.431777
1426.000000	20.627435
1425.000000	20.839764
1424.000000	21.079126
1423.000000	21.318489
1422.000000	21.577339
1421.000000	21.811633
1420.000000	22.041533
1419.000000	22.320095
1418.000000	22.590998
1417.000000	22.861562
1416.000000	23.092364
1415.000000	23.371151
1414.000000	23.649713
1413.000000	23.972543
1412.000000	24.221030
1411.000000	24.483596
1410.000000	24.834136
1409.000000	25.203599
1408.000000	25.648082
1407.000000	26.117233
1406.000000	26.548311
1405.000000	27.032105
1404.000000	27.533021
1403.000000	28.064688
1402.000000	28.506017
1401.000000	29.006369
1400.000000	29.544231
1399.000000	30.029377
1398.000000	30.360993
1397.000000	30.643948
1396.000000	30.981083
1395.000000	31.335002
1394.000000	31.637895
1393.000000	31.839185
1392.000000	32.053203
1391.000000	32.341002
1390.000000	32.618662
1389.000000	32.872443
1388.000000	33.279078
1387.000000	33.721646
1386.000000	34.181335
1385.000000	34.680674
1384.000000	35.263930
1383.000000	35.945635
1382.000000	36.563360
1381.000000	37.143575
1380.000000	37.548521
1379.000000	37.798472
1378.000000	38.008548
1377.000000	38.153404
1376.000000	38.331603
1375.000000	38.582455
1374.000000	38.881067
1373.000000	39.302346
1372.000000	39.800107
1371.000000	40.310372
1370.000000	40.879887
1369.000000	41.340590
1368.000000	41.808727
1367.000000	42.272584
1366.000000	42.617829
1365.000000	42.913512
1364.000000	43.217757
1363.000000	43.457908
1362.000000	43.716307
1361.000000	43.947109
1360.000000	44.160113
1359.000000	44.182191
1358.000000	44.337636
1357.000000	44.498375
1356.000000	44.774572
1355.000000	45.249355
1354.000000	45.901548
1353.000000	46.643966
1352.000000	47.381542
1351.000000	48.241220
1350.000000	49.046605
1349.000000	49.767734
1348.000000	50.415422
1347.000000	51.058604
1346.000000	51.634651
1345.000000	52.166318
1344.000000	52.671401
1343.000000	53.186397
1342.000000	53.637526
1341.000000	54.094737
1340.000000	54.531897
1339.000000	54.973113
1338.000000	55.370850
1337.000000	55.759462
1336.000000	56.152017
1335.000000	56.524634
1334.000000	56.854448
1333.000000	57.203749
1332.000000	57.536266
1331.000000	57.863601
1330.000000	58.176406
1329.000000	58.449111
1328.000000	58.725307
1327.000000	58.968162
1326.000000	59.211580
1325.000000	59.428752
1324.000000	59.668227
1323.000000	59.880331
1322.000000	60.074975
1321.000000	60.262297
1320.000000	60.447142
1319.000000	60.598419
1318.000000	60.761411
1317.000000	60.921587
1316.000000	61.077820
1315.000000	61.212990
1314.000000	61.332840
1313.000000	61.467109
1312.000000	61.596759
1311.000000	61.718299
1310.000000	61.797373
1309.000000	61.884782
1308.000000	61.969151
1307.000000	62.040903
1306.000000	62.099477
1305.000000	62.161655
1304.000000	62.199840
1303.000000	62.225184
1302.000000	62.257512
1301.000000	62.276887
1300.000000	62.267087
1299.000000	62.275760
1298.000000	62.255034
1297.000000	62.263595
1296.000000	62.262581
1295.000000	62.248388
1294.000000	62.213244
1293.000000	62.197813
1292.000000	62.171567
1291.000000	62.141492
1290.000000	62.077737
1289.000000	62.017586
1288.000000	61.961041
1287.000000	61.880727
1286.000000	61.785095
1285.000000	61.697798
1284.000000	61.602391
1283.000000	61.489074
1282.000000	61.373053
1281.000000	61.256469
1280.000000	61.144279
1279.000000	61.050111
1278.000000	60.934090
1277.000000	60.824039
1276.000000	60.718495
1275.000000	60.636717
1274.000000	60.552349
1273.000000	60.463249
1272.000000	60.390483
1271.000000	60.316816
1270.000000	60.241684
1269.000000	60.161146
1268.000000	60.095363
1267.000000	60.012121
1266.000000	59.920544
1265.000000	59.833247
1264.000000	59.755975
1263.000000	59.663947
1262.000000	59.583070
1261.000000	59.500166
1260.000000	59.413545
1259.000000	59.318026
1258.000000	59.229602
1257.000000	59.141291
1256.000000	59.041942
1255.000000	58.917924
1254.000000	58.793906
1253.000000	58.696471
1252.000000	58.570763
1251.000000	58.436044
1250.000000	58.284992
1249.000000	58.143740
1248.000000	58.013414
1247.000000	57.849634
1246.000000	57.664677
1245.000000	57.484451
1244.000000	57.279669
1243.000000	57.061257
1242.000000	56.849041
1241.000000	56.630405
1240.000000	56.384734
1239.000000	56.141091
1238.000000	55.902742
1237.000000	55.649862
1236.000000	55.388084
1235.000000	55.113802
1234.000000	54.853376
1233.000000	54.578869
1232.000000	54.293549
1231.000000	54.005412
1230.000000	53.711982
1229.000000	53.409089
1228.000000	53.108450
1227.000000	52.821214
1226.000000	52.531951
1225.000000	52.224103
1224.000000	51.921774
1223.000000	51.624964
1222.000000	51.323986
1221.000000	51.037540
1220.000000	50.762019
1219.000000	50.481768
1218.000000	50.216497
1217.000000	49.969475
1216.000000	49.733717
1215.000000	49.505280
1214.000000	49.281687
1213.000000	49.065641
1212.000000	48.851285
1211.000000	48.655402
1210.000000	48.473036
1209.000000	48.283798
1208.000000	48.111119
1207.000000	47.975950
1206.000000	47.865561
1205.000000	47.751793
1204.000000	47.680942
1203.000000	47.633295
1202.000000	47.585197
1201.000000	47.529327
1200.000000	47.458588
1199.000000	47.369939
1198.000000	47.244682
1197.000000	47.066596
1196.000000	46.837034
1195.000000	46.502827
1194.000000	46.087856
1193.000000	45.589081
1192.000000	44.994560
1191.000000	44.323669
1190.000000	43.637007
1189.000000	42.997318
1188.000000	42.437152
1187.000000	42.027251
1186.000000	41.804559
1185.000000	41.771217
1184.000000	41.925986
1183.000000	42.285650
1182.000000	42.816416
1181.000000	43.487194
1180.000000	44.231415
1179.000000	44.968089
1178.000000	45.657567
1177.000000	46.274052
1176.000000	46.816420
1175.000000	47.304382
1174.000000	47.760016
1173.000000	48.203034
1172.000000	48.646278
1171.000000	49.137169
1170.000000	49.628510
1169.000000	50.148687
1168.000000	50.659403
1167.000000	51.143310
1166.000000	51.639495
1165.000000	52.174991
1164.000000	52.706545
1163.000000	53.253644
1162.000000	53.798490
1161.000000	54.324750
1160.000000	54.839633
1159.000000	55.355531
1158.000000	55.854306
1157.000000	56.300478
1156.000000	56.712182
1155.000000	57.058441
1154.000000	57.324162
1153.000000	57.515089
1152.000000	57.641923
1151.000000	57.688669
1150.000000	57.680334
1149.000000	57.683826
1148.000000	57.678757
1147.000000	57.694189
1146.000000	57.787343
1145.000000	57.980523
1144.000000	58.276770
1143.000000	58.648373
1142.000000	59.068300
1141.000000	59.533959
1140.000000	60.015050
1139.000000	60.503575
1138.000000	61.029272
1137.000000	61.557334
1136.000000	62.086185
1135.000000	62.626075
1134.000000	63.186015
1133.000000	63.702250
1132.000000	64.121726
1131.000000	64.556972
1130.000000	64.948738
1129.000000	65.274722
1128.000000	65.548215
1127.000000	65.781157
1126.000000	65.939869
1125.000000	66.072898
1124.000000	66.158956
1123.000000	66.267880
1122.000000	66.332761
1121.000000	66.374326
1120.000000	66.417017
1119.000000	66.423663
1118.000000	66.426592
1117.000000	66.422987
1116.000000	66.408118
1115.000000	66.361260
1114.000000	66.321385
1113.000000	66.276779
1112.000000	66.237692
1111.000000	66.179457
1110.000000	66.134963
1109.000000	66.078530
1108.000000	66.042260
1107.000000	66.007003
1106.000000	65.955188
1105.000000	65.890644
1104.000000	65.823623
1103.000000	65.782509
1102.000000	65.732158
1101.000000	65.655562
1100.000000	65.607577
1099.000000	65.546976
1098.000000	65.455624
1097.000000	65.369115
1096.000000	65.310767
1095.000000	65.241493
1094.000000	65.144396
1093.000000	65.032543
1092.000000	64.963156
1091.000000	64.867749
1090.000000	64.767723
1089.000000	64.650914
1088.000000	64.558211
1087.000000	64.450751
1086.000000	64.334280
1085.000000	64.218710
1084.000000	64.092326
1083.000000	63.993878
1082.000000	63.879322
1081.000000	63.759922
1080.000000	63.623513
1079.000000	63.556604
1078.000000	63.446779
1077.000000	63.326816
1076.000000	63.222060
1075.000000	63.097704
1074.000000	62.994975
1073.000000	62.882108
1072.000000	62.798416
1071.000000	62.665387
1070.000000	62.537877
1069.000000	62.433683
1068.000000	62.319127
1067.000000	62.207725
1066.000000	62.114909
1065.000000	61.983794
1064.000000	61.860452
1063.000000	61.740940
1062.000000	61.605995
1061.000000	61.505181
1060.000000	61.396145
1059.000000	61.266044
1058.000000	61.103502
1057.000000	60.997507
1056.000000	60.859521
1055.000000	60.734264
1054.000000	60.627706
1053.000000	60.465615
1052.000000	60.347229
1051.000000	60.229969
1050.000000	60.092322
1049.000000	60.009981
1048.000000	59.892046
1047.000000	59.774786
1046.000000	59.659892
1045.000000	59.558965
1044.000000	59.439565
1043.000000	59.326586
1042.000000	59.229489
1041.000000	59.112005
1040.000000	59.025046
1039.000000	58.913531
1038.000000	58.802579
1037.000000	58.704243
1036.000000	58.580901
1035.000000	58.458347
1034.000000	58.326219
1033.000000	58.225405
1032.000000	58.088208
1031.000000	57.948758
1030.000000	57.830597
1029.000000	57.702299
1028.000000	57.539194
1027.000000	57.419006
1026.000000	57.286878
1025.000000	57.125463
1024.000000	56.967990
1023.000000	56.821895
1022.000000	56.672420
1021.000000	56.517651
1020.000000	56.367838
1019.000000	56.225346
1018.000000	56.095021
1017.000000	55.976860
1016.000000	55.832566
1015.000000	55.705620
1014.000000	55.592640
1013.000000	55.497459
1012.000000	55.405994
1011.000000	55.298872
1010.000000	55.224303
1009.000000	55.161224
1008.000000	55.087444
1007.000000	55.025154
1006.000000	54.952049
1005.000000	54.877256
1004.000000	54.833100
1003.000000	54.776216
1002.000000	54.698607
1001.000000	54.632261
1000.000000	54.547893
999.000000	54.477942
998.000000	54.415426
997.000000	54.345701
996.000000	54.262122
995.000000	54.191045
994.000000	54.125037
993.000000	54.080882
992.000000	54.016226
991.000000	53.940756
990.000000	53.869341
989.000000	53.804235
988.000000	53.754335
987.000000	53.683145
986.000000	53.602269
985.000000	53.542569
984.000000	53.496274
983.000000	53.444346
982.000000	53.365948
981.000000	53.316723
980.000000	53.255334
979.000000	53.175922
978.000000	53.096622
977.000000	53.032529
976.000000	52.992992
975.000000	52.916959
974.000000	52.859963
973.000000	52.769625
972.000000	52.700463
971.000000	52.654843
970.000000	52.573967
969.000000	52.488021
968.000000	52.421450
967.000000	52.334041
966.000000	52.243477
965.000000	52.190874
964.000000	52.113039
963.000000	52.046242
962.000000	51.982487
961.000000	51.909834
960.000000	51.863763
959.000000	51.820622
958.000000	51.745603
957.000000	51.675089
956.000000	51.602323
955.000000	51.523699
954.000000	51.448455
953.000000	51.359919
952.000000	51.279606
951.000000	51.198166
950.000000	51.090030
949.000000	51.006789
948.000000	50.932671
947.000000	50.828365
946.000000	50.727776
945.000000	50.647688
944.000000	50.551380
943.000000	50.454396
942.000000	50.366535
941.000000	50.282843
940.000000	50.198024
939.000000	50.096084
938.000000	50.007548
937.000000	49.946158
936.000000	49.854130
935.000000	49.750500
934.000000	49.676608
933.000000	49.589761
932.000000	49.505843
931.000000	49.445806
930.000000	49.366844
929.000000	49.273239
928.000000	49.210047
927.000000	49.131874
926.000000	49.023063
925.000000	48.953451
924.000000	48.893751
923.000000	48.810847
922.000000	48.756216
921.000000	48.677817
920.000000	48.583199
919.000000	48.498155
918.000000	48.419306
917.000000	48.348342
916.000000	48.272647
915.000000	48.183547
914.000000	48.103347
913.000000	48.029454
912.000000	47.945649
911.000000	47.877614
910.000000	47.808227
909.000000	47.737713
908.000000	47.699190
907.000000	47.675085
906.000000	47.637463
905.000000	47.622369
904.000000	47.602994
903.000000	47.598489
902.000000	47.601192
901.000000	47.608739
900.000000	47.639603
899.000000	47.671931
898.000000	47.682744
897.000000	47.695585
896.000000	47.697275
895.000000	47.713495
894.000000	47.749991
893.000000	47.740191
892.000000	47.731405
891.000000	47.734447
890.000000	47.739741
889.000000	47.744359
888.000000	47.735122
887.000000	47.712820
886.000000	47.695135
885.000000	47.663595
884.000000	47.655936
883.000000	47.612231
882.000000	47.588351
881.000000	47.520316
880.000000	47.461855
879.000000	47.401141
878.000000	47.317787
877.000000	47.200189
876.000000	47.043618
875.000000	46.904393
874.000000	46.774968
873.000000	46.700400
872.000000	46.718760
871.000000	46.770237
870.000000	46.853367
869.000000	46.922303
868.000000	46.996984
867.000000	47.070989
866.000000	47.147022
865.000000	47.222717
864.000000	47.297624
863.000000	47.371179
862.000000	47.465347
861.000000	47.548025
860.000000	47.644221
859.000000	47.725548
858.000000	47.820167
857.000000	46.994100
856.000000	47.988700
855.000000	48.477700
854.000000	48.999500
853.000000	48.639700
852.000000	48.562600
851.000000	49.204300
850.000000	49.204200
849.000000	49.285600
848.000000	49.482200
847.000000	49.641400
846.000000	50.087600
845.000000	50.018400
844.000000	49.958000
843.000000	50.101300
842.000000	50.411600
841.000000	50.564600
840.000000	50.409700
839.000000	50.712600
838.000000	50.772900
837.000000	51.043000
836.000000	50.952900
835.000000	50.991400
834.000000	51.083600
833.000000	51.094300
832.000000	51.311600
831.000000	51.412500
830.000000	51.427200
829.000000	51.617000
828.000000	51.520000
827.000000	51.684800
826.000000	51.787900
825.000000	51.753000
824.000000	51.626500
823.000000	51.746300
822.000000	51.883400
821.000000	51.921600
820.000000	51.944900
819.000000	52.042200
818.000000	52.012800
817.000000	51.769900
816.000000	51.980700
815.000000	52.047900
814.000000	51.977700
813.000000	52.164600
812.000000	52.230400
811.000000	52.108700
810.000000	52.140300
809.000000	52.128400
808.000000	52.221800
807.000000	52.194400
806.000000	52.191900
805.000000	52.218000
804.000000	52.068100
803.000000	52.032900
802.000000	51.997300
801.000000	52.185600
800.000000	52.247800
799.000000	52.027900
798.000000	52.113400
797.000000	52.095600
796.000000	51.916900
795.000000	51.869900
794.000000	51.842400
793.000000	51.814200
792.000000	51.825800
791.000000	51.846900
790.000000	51.820600
789.000000	51.782500
788.000000	51.760400
787.000000	51.555600
786.000000	51.677600
785.000000	51.597200
784.000000	51.431300
783.000000	51.509100
782.000000	51.374800
781.000000	51.377900
780.000000	51.365000
779.000000	51.214900
778.000000	51.143600
777.000000	51.188700
776.000000	51.036600
775.000000	50.866600
774.000000	50.898700
773.000000	50.752400
772.000000	50.654800
771.000000	50.569100
770.000000	50.616300
769.000000	50.449600
768.000000	50.354600
767.000000	50.328300
766.000000	50.157000
765.000000	50.093400
764.000000	50.078300
763.000000	49.904600
762.000000	49.841900
761.000000	49.720800
760.000000	49.660100
759.000000	49.487600
758.000000	49.449100
757.000000	49.332500
756.000000	49.184100
755.000000	49.095900
754.000000	48.926300
753.000000	48.828600
752.000000	48.695900
751.000000	48.511300
750.000000	48.517700
749.000000	48.361500
748.000000	48.267600
747.000000	48.109200
746.000000	48.004700
745.000000	47.798200
744.000000	47.644600
743.000000	47.517900
742.000000	47.403000
741.000000	47.265200
740.000000	47.040000
739.000000	46.888300
738.000000	46.663200
737.000000	46.516600
736.000000	46.286800
735.000000	46.250600
734.000000	46.010800
733.000000	45.872900
732.000000	45.660100
731.000000	45.368500
730.000000	45.224700
729.000000	45.026300
728.000000	44.805200
727.000000	44.521200
726.000000	44.374900
725.000000	44.057600
724.000000	43.792900
723.000000	43.505200
722.000000	43.241100
721.000000	42.978200
720.000000	42.679300
719.000000	42.396400
718.000000	42.136600
717.000000	41.856000
716.000000	41.585000
715.000000	41.280500
714.000000	40.967000
713.000000	40.624000
712.000000	40.390700
711.000000	40.056400
710.000000	39.690600
709.000000	39.390300
708.000000	39.046200
707.000000	38.771300
706.000000	38.457800
705.000000	38.160900
704.000000	37.832800
703.000000	37.468500
702.000000	37.136200
701.000000	36.840500
700.000000	36.520800
699.000000	36.188600
698.000000	35.914700
697.000000	35.592400
696.000000	35.328400
695.000000	35.022000
694.000000	34.766800
693.000000	34.444200
692.000000	34.156500
691.000000	33.885100
690.000000	33.596900
689.000000	33.304900
688.000000	33.044800
687.000000	32.763100
686.000000	32.521700
685.000000	32.291300
684.000000	32.054300
683.000000	31.829500
682.000000	31.594900
681.000000	31.378200
680.000000	31.164300
679.000000	30.935800
678.000000	30.739900
677.000000	30.590000
676.000000	30.393200
675.000000	30.174100
674.000000	29.999900
673.000000	29.839100
672.000000	29.658700
671.000000	29.490600
670.000000	29.330800
669.000000	29.182000
668.000000	29.037700
667.000000	28.896600
666.000000	28.771800
665.000000	28.665300
664.000000	28.557100
663.000000	28.430300
662.000000	28.307100
661.000000	28.211600
660.000000	28.120600
659.000000	28.026500
658.000000	27.939300
657.000000	27.871600
656.000000	27.785500
655.000000	27.707200
654.000000	27.644100
653.000000	27.574100
652.000000	27.515100
651.000000	27.455000
650.000000	27.416800
649.000000	27.381800
648.000000	27.311600
647.000000	27.264100
646.000000	27.237200
645.000000	27.203200
644.000000	27.166700
643.000000	27.133900
642.000000	27.096800
641.000000	27.063600
640.000000	27.066800
639.000000	27.067200
638.000000	27.038500
637.000000	27.020000
636.000000	27.032700
635.000000	27.036000
634.000000	27.040200
633.000000	27.044400
632.000000	27.056900
631.000000	27.083500
630.000000	27.120600
629.000000	27.155400
628.000000	27.194800
627.000000	27.256200
626.000000	27.316200
625.000000	27.390100
624.000000	27.461800
623.000000	27.542200
622.000000	27.639100
621.000000	27.714400
620.000000	27.797800
619.000000	27.905300
618.000000	28.008000
617.000000	28.117400
616.000000	28.233300
615.000000	28.357000
614.000000	28.487700
613.000000	28.616900
612.000000	28.746600
611.000000	28.890800
610.000000	29.034400
609.000000	29.164800
608.000000	29.300200
607.000000	29.465700
606.000000	29.598700
605.000000	29.722900
604.000000	29.854800
603.000000	29.989400
602.000000	30.134100
601.000000	30.270600
600.000000	30.375000
599.000000	30.486300
598.000000	30.609100
597.000000	30.727400
596.000000	30.848100
595.000000	30.937600
594.000000	31.030200
593.000000	31.133000
592.000000	31.244100
591.000000	31.288100
590.000000	31.370400
589.000000	31.475800
588.000000	31.544400
587.000000	31.584400
586.000000	31.626600
585.000000	31.690100
584.000000	31.744500
583.000000	31.760400
582.000000	31.769100
581.000000	31.771900
580.000000	31.778300
579.000000	31.788700
578.000000	31.749900
577.000000	31.728700
576.000000	31.673800
575.000000	31.637000
574.000000	31.593000
573.000000	31.521800
572.000000	31.449100
571.000000	31.390100
570.000000	31.309000
569.000000	31.219700
568.000000	31.098200
567.000000	30.991700
566.000000	30.888400
565.000000	30.751600
564.000000	30.595100
563.000000	30.457900
562.000000	30.267900
561.000000	30.099800
560.000000	29.943700
559.000000	29.724900
558.000000	29.495500
557.000000	29.287600
556.000000	29.062500
555.000000	28.843900
554.000000	28.618600
553.000000	28.350300
552.000000	28.089800
551.000000	27.827900
550.000000	27.549400
549.000000	27.249500
548.000000	26.960100
547.000000	26.694200
546.000000	26.367400
545.000000	26.057400
544.000000	25.730900
543.000000	25.384700
542.000000	25.055100
541.000000	24.701200
540.000000	24.344400
539.000000	23.996100
538.000000	23.632600
537.000000	23.271400
536.000000	22.925000
535.000000	22.566400
534.000000	22.180300
533.000000	21.806700
532.000000	21.442100
531.000000	21.080500
530.000000	20.714700
529.000000	20.359300
528.000000	20.008000
527.000000	19.644700
526.000000	19.299000
525.000000	18.951600
524.000000	18.613100
523.000000	18.268100
522.000000	17.937900
521.000000	17.599000
520.000000	17.304800
519.000000	16.998800
518.000000	16.706000
517.000000	16.420500
516.000000	16.142900
515.000000	15.860500
514.000000	15.591000
513.000000	15.346400
512.000000	15.107900
511.000000	14.906800
510.000000	14.666400
509.000000	14.453500
508.000000	14.272900
507.000000	14.074800
506.000000	13.884900
505.000000	13.714800
504.000000	13.569100
503.000000	13.388000
502.000000	13.251500
501.000000	13.117300
500.000000	12.980000
499.000000	12.828400
498.000000	12.709800
497.000000	12.583800
496.000000	12.490500
495.000000	12.373100
494.000000	12.269600
493.000000	12.176700
492.000000	12.061100
491.000000	11.961900
490.000000	11.882300
489.000000	11.791700
488.000000	11.688000
487.000000	11.610800
486.000000	11.518700
485.000000	11.462200
484.000000	11.374900
483.000000	11.289800
482.000000	11.206800
481.000000	11.118400
480.000000	10.999800
479.000000	10.911000
478.000000	10.807400
477.000000	10.728800
476.000000	10.636200
475.000000	10.557600
474.000000	10.448300
473.000000	10.372900
472.000000	10.261700
471.000000	10.190600
470.000000	10.097200
469.000000	9.987700
468.000000	9.905600
467.000000	9.835900
466.000000	9.746600
465.000000	9.659900
464.000000	9.586600
463.000000	9.483900
462.000000	9.408300
461.000000	9.327300
460.000000	9.262200
459.000000	9.172600
458.000000	9.088900
457.000000	9.008200
456.000000	8.930600
455.000000	8.853500
454.000000	8.782600
453.000000	8.692400
452.000000	8.597200
451.000000	8.550900
450.000000	8.458500
449.000000	8.372900
448.000000	8.302900
447.000000	8.215700
446.000000	8.158800
445.000000	8.066400
444.000000	7.980100
443.000000	7.913800
442.000000	7.845900
441.000000	7.755400
440.000000	7.674400
439.000000	7.605800
438.000000	7.521700
437.000000	7.446900
436.000000	7.361600
435.000000	7.309600
434.000000	7.243300
433.000000	7.165800
432.000000	7.079900
431.000000	7.025900
430.000000	6.968500
429.000000	6.897900
428.000000	6.822400
427.000000	6.759700
426.000000	6.718900
425.000000	6.667300
424.000000	6.585300
423.000000	6.531300
422.000000	6.481800
421.000000	6.429800
420.000000	6.365000
419.000000	6.306100
418.000000	6.261300
417.000000	6.197000
416.000000	6.154400
415.000000	6.108300
414.000000	6.033800
413.000000	6.001800
412.000000	5.949100
411.000000	5.912700
410.000000	5.881100
409.000000	5.843700
408.000000	5.797900
407.000000	5.741100
406.000000	5.697000
405.000000	5.680700
404.000000	5.639100
403.000000	5.588700
402.000000	5.573800
401.000000	5.552200
400.000000	5.520000
399.000000	5.470500
398.000000	5.452200
397.000000	5.409400
396.000000	5.392200
395.000000	5.372900
394.000000	5.348700
393.000000	5.315100
392.000000	5.293600
391.000000	5.284500
390.000000	5.257200
389.000000	5.229900
388.000000	5.190900
387.000000	5.179800
386.000000	5.177500
385.000000	5.150500
384.000000	5.129200
383.000000	5.102200
382.000000	5.098100
381.000000	5.084300
380.000000	5.048200
379.000000	5.053600
378.000000	5.071200
377.000000	5.062800
376.000000	5.002900
375.000000	4.707400
374.000000	4.578100
373.000000	4.747500
372.000000	4.417200
371.000000	4.542400
370.000000	4.701600
369.000000	4.685200
368.000000	4.816200
367.000000	4.897900
366.000000	4.796700
365.000000	4.781600
364.000000	4.751000
363.000000	4.901400
362.000000	4.886300
361.000000	4.713100
360.000000	4.943400
359.000000	4.914600
358.000000	4.776500
357.000000	4.735800
356.000000	4.787000
355.000000	4.963500
354.000000	4.973200
353.000000	5.004600
352.000000	5.028300
351.000000	5.080900
350.000000	5.016000
349.000000	4.938900
348.000000	4.884600
347.000000	4.999200
346.000000	4.945700
345.000000	4.950900
344.000000	4.980100
343.000000	4.892100
342.000000	5.073300
341.000000	5.068400
340.000000	4.845700
339.000000	4.793900
338.000000	4.965000
337.000000	4.933000
336.000000	4.962500
335.000000	5.201700
334.000000	5.252100
333.000000	5.329700
332.000000	5.212500
331.000000	5.313900
330.000000	5.357200
329.000000	5.075000
328.000000	5.108000
327.000000	5.247600
326.000000	4.818400
325.000000	4.545600
324.000000	5.070300
323.000000	5.462500
322.000000	5.999700
321.000000	6.225000
320.000000	5.964400
319.000000	5.467900
318.000000	5.504100
317.000000	5.816000
316.000000	5.268100
315.000000	4.872400
314.000000	4.876400
313.000000	4.863200
312.000000	4.910000
311.000000	4.917600
310.000000	4.891800
309.000000	4.887900
308.000000	4.898000
307.000000	4.913300
306.000000	4.909100
305.000000	4.870100
304.000000	4.871700
303.000000	4.893300
302.000000	4.984600
301.000000	4.994000
300.000000	4.935800
299.000000	4.938600
298.000000	4.927300
297.000000	4.936300
296.000000	4.940800
295.000000	4.950900
294.000000	4.954100
293.000000	4.960900
292.000000	4.929000
291.000000	4.941400
290.000000	4.964500
289.000000	4.968400
288.000000	4.941000
287.000000	4.934500
286.000000	4.985800
285.000000	4.978100
284.000000	4.964100
283.000000	4.964800
282.000000	4.998000
281.000000	4.997800
280.000000	4.963900
279.000000	4.993100
278.000000	4.979400
277.000000	4.991400
276.000000	5.004900
275.000000	5.017600
274.000000	5.020900
273.000000	5.041100
272.000000	5.019400
271.000000	5.028000
270.000000	5.052000
269.000000	5.091900
268.000000	5.099900
267.000000	5.106800
266.000000	5.120700
265.000000	5.132300
264.000000	5.176600
263.000000	5.203800
262.000000	5.228300
261.000000	5.252800
260.000000	5.284200
259.000000	5.287500
258.000000	5.305000
257.000000	5.285700
256.000000	5.351800
255.000000	5.339300
254.000000	5.353200
253.000000	5.353800
252.000000	5.362200
251.000000	5.372800
250.000000	5.369500
