PE UV       SUBTECH     SPECTRUM    ASCII       PEDS        4.00        
   -1
CICIMAUCR0261-3.ASC
24/07/01
17:03:09.00
24/07/01
17:03:09.00
Vinicio Soto Monge
C. resplendens. Sex M. Ventral
250,000000
1
Lambda 1050
1050L1511233
PerkinElmer UV WinLab 6.3.2.0749 / 2.02.05 Lambda 900 UV/VIS/NIR, Aug  7 2015 09:38:08

0
0
3350/servo 860,8/2
0
0
UV/VIS
1
1
1
DoubleDePol,CommonBeamDepol,RBeamAtt,SBeamAtt,60mm sphere, WB InGaAs Detector
0
0
0
0
Program
Program
3350/servo 860,8/2
3350/0,2 860,8/0,2
3350/0,2 860,8/0,2
0
15.00
 
 
 
0
 
860,8
319,2
860,8
Front
100
on
S:100 R:100
0
0
0
0
 
0
 
 
 
0
 
 
0
0
0
0
0
 
 
 
 
0
0


0
0
#HDR
-1
-1
#GR
nm
%R
1.0
0.0
2500,000000
-1,000000
2251
8
46,448200
4,460900
#DATA
250.000000	5.611367	6.460100
251.000000	5.602641	6.441300
252.000000	5.591872	6.439000
253.000000	5.578646	6.410800
254.000000	5.564922	6.404200
255.000000	5.554248	6.375500
256.000000	5.543066	6.381800
257.000000	5.532456	6.332900
258.000000	5.516719	6.337900
259.000000	5.502475	6.286900
260.000000	5.484216	6.257000
261.000000	5.463169	6.242200
262.000000	5.443334	6.227700
263.000000	5.418147	6.187300
264.000000	5.392859	6.156500
265.000000	5.369603	6.127900
266.000000	5.349076	6.084800
267.000000	5.329059	6.034300
268.000000	5.312483	6.052400
269.000000	5.293671	6.058700
270.000000	5.279656	6.014100
271.000000	5.269354	5.954000
272.000000	5.252468	5.947500
273.000000	5.238788	5.978600
274.000000	5.232394	5.943800
275.000000	5.219717	5.923200
276.000000	5.208681	5.933800
277.000000	5.199947	5.908900
278.000000	5.188506	5.902400
279.000000	5.183616	5.905900
280.000000	5.172714	5.882600
281.000000	5.166034	5.876800
282.000000	5.161531	5.876700
283.000000	5.154345	5.865600
284.000000	5.146779	5.862200
285.000000	5.140518	5.847000
286.000000	5.134853	5.847700
287.000000	5.129177	5.851100
288.000000	5.124321	5.846900
289.000000	5.120260	5.825200
290.000000	5.118521	5.825500
291.000000	5.114035	5.843700
292.000000	5.108667	5.856700
293.000000	5.107018	5.812200
294.000000	5.101529	5.799000
295.000000	5.099697	5.823500
296.000000	5.093620	5.855000
297.000000	5.090111	5.850800
298.000000	5.085752	5.833300
299.000000	5.079388	5.837000
300.000000	5.078419	5.817900
301.000000	5.075227	5.803900
302.000000	5.070934	5.781500
303.000000	5.072299	5.775100
304.000000	5.066213	5.804000
305.000000	5.064765	5.793200
306.000000	5.063511	5.795500
307.000000	5.060790	5.810800
308.000000	5.058030	5.786100
309.000000	5.055622	5.744400
310.000000	5.051928	5.747100
311.000000	5.047436	5.747600
312.000000	5.040763	5.764400
313.000000	5.042071	5.775900
314.000000	5.039260	5.766000
315.000000	5.038284	5.768400
316.000000	5.275909	5.638000
317.000000	5.754442	5.466400
318.000000	5.680877	5.658900
319.000000	5.609468	5.834600
320.000000	5.567288	5.760200
321.000000	5.499446	5.739500
322.000000	5.439656	5.727600
323.000000	5.391511	5.751600
324.000000	5.380813	5.854600
325.000000	5.348293	5.832600
326.000000	5.332541	5.624400
327.000000	5.312659	5.615500
328.000000	5.274054	5.762900
329.000000	5.259694	5.746300
330.000000	5.256150	5.641900
331.000000	5.251527	5.682700
332.000000	5.230434	5.658200
333.000000	5.212969	5.706300
334.000000	5.207602	5.775200
335.000000	5.207692	5.775200
336.000000	5.209078	5.683300
337.000000	5.194003	5.665300
338.000000	5.184895	5.703800
339.000000	5.196059	5.718500
340.000000	5.196028	5.702900
341.000000	5.192957	5.705900
342.000000	5.203285	5.785600
343.000000	5.192300	5.795100
344.000000	5.194543	5.799300
345.000000	5.198321	5.755400
346.000000	5.186760	5.732500
347.000000	5.188748	5.769900
348.000000	5.199247	5.775600
349.000000	5.209901	5.809400
350.000000	5.232799	5.803500
351.000000	5.246386	5.776300
352.000000	5.250994	5.784600
353.000000	5.259373	5.760000
354.000000	5.271302	5.846000
355.000000	5.282635	5.917300
356.000000	5.303811	5.917400
357.000000	5.326780	5.858100
358.000000	5.334468	5.872400
359.000000	5.349845	5.904700
360.000000	5.369164	5.919100
361.000000	5.379190	5.969400
362.000000	5.397877	5.996900
363.000000	5.408831	5.938400
364.000000	5.430697	5.906900
365.000000	5.450361	5.943000
366.000000	5.467157	6.055800
367.000000	5.485657	6.045700
368.000000	5.496068	6.017100
369.000000	5.501200	6.078400
370.000000	5.508199	6.162000
371.000000	5.519911	6.080400
372.000000	5.517385	6.083300
373.000000	5.511850	6.158000
374.000000	5.507460	6.193000
375.000000	5.666055	6.148700
376.000000	5.840724	6.138300
377.000000	5.882106	6.178700
378.000000	5.931527	6.205000
379.000000	5.984087	6.232100
380.000000	6.040146	6.247000
381.000000	6.101380	6.288200
382.000000	6.164726	6.322300
383.000000	6.231867	6.352300
384.000000	6.303848	6.396500
385.000000	6.380995	6.467800
386.000000	6.459359	6.530800
387.000000	6.539920	6.580200
388.000000	6.626446	6.639800
389.000000	6.717372	6.717600
390.000000	6.813076	6.802700
391.000000	6.912510	6.871800
392.000000	7.017322	6.963100
393.000000	7.126589	7.073300
394.000000	7.239814	7.187700
395.000000	7.357501	7.324100
396.000000	7.478317	7.430700
397.000000	7.604414	7.579000
398.000000	7.733969	7.702100
399.000000	7.868782	7.883200
400.000000	8.009040	8.045500
401.000000	8.155209	8.221700
402.000000	8.306284	8.395600
403.000000	8.462040	8.621700
404.000000	8.622366	8.838200
405.000000	8.786801	9.051400
406.000000	8.956002	9.282200
407.000000	9.129672	9.531800
408.000000	9.306715	9.793500
409.000000	9.489437	10.062400
410.000000	9.677760	10.319000
411.000000	9.870551	10.616200
412.000000	10.068677	10.870000
413.000000	10.271777	11.122300
414.000000	10.477865	11.412500
415.000000	10.687983	11.713400
416.000000	10.898302	11.975200
417.000000	11.110359	12.261500
418.000000	11.326726	12.539000
419.000000	11.543916	12.776600
420.000000	11.765638	13.074500
421.000000	11.989193	13.354500
422.000000	12.212895	13.621700
423.000000	12.437510	13.863100
424.000000	12.661833	14.145300
425.000000	12.886911	14.408900
426.000000	13.107941	14.652700
427.000000	13.326493	14.883000
428.000000	13.543820	15.132700
429.000000	13.761226	15.347200
430.000000	13.976934	15.591100
431.000000	14.191385	15.819100
432.000000	14.404833	16.024400
433.000000	14.614338	16.224000
434.000000	14.820917	16.437300
435.000000	15.024036	16.647300
436.000000	15.221566	16.851400
437.000000	15.413802	17.023400
438.000000	15.603292	17.212400
439.000000	15.789162	17.395200
440.000000	15.970377	17.599700
441.000000	16.147511	17.780000
442.000000	16.319188	17.942600
443.000000	16.487873	18.093600
444.000000	16.647924	18.257900
445.000000	16.798633	18.346600
446.000000	16.941238	18.452000
447.000000	17.080000	18.554100
448.000000	17.214912	18.637800
449.000000	17.344930	18.736900
450.000000	17.470751	18.781700
451.000000	17.592497	18.840600
452.000000	17.708976	18.907800
453.000000	17.823779	18.914900
454.000000	17.933315	18.907800
455.000000	18.041762	18.915800
456.000000	18.143814	18.856600
457.000000	18.244808	18.832300
458.000000	18.345102	18.776600
459.000000	18.444600	18.719300
460.000000	18.543809	18.638800
461.000000	18.641713	18.557400
462.000000	18.740912	18.436300
463.000000	18.840542	18.404300
464.000000	18.940129	18.292300
465.000000	19.041312	18.228000
466.000000	19.143001	18.189500
467.000000	19.244694	18.166000
468.000000	19.349145	18.153600
469.000000	19.455011	18.203100
470.000000	19.563891	18.255500
471.000000	19.675939	18.356900
472.000000	19.789619	18.532700
473.000000	19.905356	18.729900
474.000000	20.023084	18.956900
475.000000	20.145705	19.221600
476.000000	20.268781	19.524800
477.000000	20.396344	19.880700
478.000000	20.528540	20.253000
479.000000	20.664270	20.651800
480.000000	20.810084	21.067300
481.000000	20.963405	21.500200
482.000000	21.121426	21.955300
483.000000	21.281801	22.463200
484.000000	21.443100	22.880000
485.000000	21.608800	23.279600
486.000000	21.781339	23.737500
487.000000	21.963034	24.139400
488.000000	22.154995	24.521700
489.000000	22.357726	24.901300
490.000000	22.572159	25.273400
491.000000	22.798363	25.647400
492.000000	23.036997	26.007100
493.000000	23.284966	26.347500
494.000000	23.541449	26.634900
495.000000	23.809632	26.970100
496.000000	24.089240	27.280100
497.000000	24.376440	27.584700
498.000000	24.674435	27.881900
499.000000	24.984797	28.154900
500.000000	25.308841	28.386500
501.000000	25.643616	28.673300
502.000000	25.994458	28.936800
503.000000	26.357385	29.169800
504.000000	26.731623	29.448900
505.000000	27.119828	29.710700
506.000000	27.517191	29.965800
507.000000	27.928031	30.268700
508.000000	28.352378	30.547100
509.000000	28.794873	30.861800
510.000000	29.254466	31.195700
511.000000	29.731762	31.549200
512.000000	30.227265	31.963000
513.000000	30.740044	32.387200
514.000000	31.272389	32.852900
515.000000	31.819939	33.341400
516.000000	32.382107	33.816200
517.000000	32.958306	34.343100
518.000000	33.552501	34.861400
519.000000	34.163765	35.410300
520.000000	34.792516	36.020500
521.000000	35.440895	36.613900
522.000000	36.105586	37.221100
523.000000	36.782684	37.858500
524.000000	37.473695	38.480300
525.000000	38.170652	39.087600
526.000000	38.871791	39.701500
527.000000	39.578335	40.297800
528.000000	40.287290	40.862400
529.000000	41.004038	41.451800
530.000000	41.724324	42.009200
531.000000	42.446648	42.594000
532.000000	43.170907	43.158800
533.000000	43.889565	43.735200
534.000000	44.601352	44.295700
535.000000	45.302342	44.872500
536.000000	45.987556	45.462100
537.000000	46.660274	46.089000
538.000000	47.314890	46.711000
539.000000	47.956587	47.335800
540.000000	48.586511	48.003000
541.000000	49.200985	48.703100
542.000000	49.798258	49.427300
543.000000	50.376486	50.166900
544.000000	50.930203	50.873700
545.000000	51.463947	51.598600
546.000000	51.969375	52.321700
547.000000	52.455606	53.026200
548.000000	52.916299	53.705700
549.000000	53.358067	54.352900
550.000000	53.783704	55.009300
551.000000	54.188974	55.627100
552.000000	54.579218	56.214700
553.000000	54.948316	56.810500
554.000000	55.296793	57.319700
555.000000	55.627994	57.784800
556.000000	55.937377	58.186500
557.000000	56.227762	58.565900
558.000000	56.500195	58.842600
559.000000	56.758592	59.049100
560.000000	56.993409	59.116000
561.000000	57.221604	59.211000
562.000000	57.438591	59.241200
563.000000	57.643878	59.227500
564.000000	57.828048	59.188500
565.000000	58.000492	59.149700
566.000000	58.157558	59.071200
567.000000	58.300239	58.974400
568.000000	58.428083	58.938100
569.000000	58.544613	58.908100
570.000000	58.648474	58.902100
571.000000	58.737807	58.944600
572.000000	58.816663	58.992000
573.000000	58.884892	59.050100
574.000000	58.943531	59.165500
575.000000	58.991897	59.262500
576.000000	59.029046	59.393800
577.000000	59.059302	59.499200
578.000000	59.078019	59.593100
579.000000	59.085779	59.682400
580.000000	59.086482	59.694200
581.000000	59.076745	59.692900
582.000000	59.059079	59.664100
583.000000	59.028289	59.563800
584.000000	58.989029	59.410700
585.000000	58.938353	59.239900
586.000000	58.877596	59.074000
587.000000	58.809032	58.918000
588.000000	58.725303	58.723100
589.000000	58.630722	58.558400
590.000000	58.524110	58.438100
591.000000	58.403629	58.356800
592.000000	58.268662	58.281300
593.000000	58.125546	58.261100
594.000000	57.967433	58.255000
595.000000	57.798024	58.287900
596.000000	57.621930	58.329600
597.000000	57.435406	58.411200
598.000000	57.236929	58.516900
599.000000	57.026308	58.555000
600.000000	56.808183	58.633200
601.000000	56.576977	58.680400
602.000000	56.332649	58.692800
603.000000	56.080239	58.713000
604.000000	55.817459	58.650000
605.000000	55.548455	58.505100
606.000000	55.272892	58.305400
607.000000	54.989796	58.102200
608.000000	54.698490	57.806400
609.000000	54.400382	57.447600
610.000000	54.095886	57.077100
611.000000	53.780497	56.670300
612.000000	53.458861	56.210900
613.000000	53.130325	55.745800
614.000000	52.795181	55.279200
615.000000	52.454784	54.812700
616.000000	52.115097	54.332300
617.000000	51.771378	53.867100
618.000000	51.426518	53.456600
619.000000	51.078074	53.041400
620.000000	50.726324	52.632600
621.000000	50.373539	52.210900
622.000000	50.020201	51.797200
623.000000	49.667279	51.391300
624.000000	49.314701	50.975200
625.000000	48.968758	50.572600
626.000000	48.629994	50.157700
627.000000	48.295405	49.718800
628.000000	47.966314	49.282500
629.000000	47.642107	48.818100
630.000000	47.324784	48.303000
631.000000	47.017854	47.824400
632.000000	46.723875	47.331800
633.000000	46.439870	46.827400
634.000000	46.171637	46.373600
635.000000	45.924476	45.942400
636.000000	45.693656	45.502700
637.000000	45.485770	45.091600
638.000000	45.300187	44.778200
639.000000	45.131804	44.509000
640.000000	44.985149	44.281600
641.000000	44.862269	44.119300
642.000000	44.763871	43.996500
643.000000	44.688049	43.991400
644.000000	44.637495	43.995600
645.000000	44.612110	44.034900
646.000000	44.609490	44.114800
647.000000	44.631170	44.181200
648.000000	44.679487	44.296800
649.000000	44.748440	44.396000
650.000000	44.840460	44.539000
651.000000	44.956596	44.726000
652.000000	45.094826	44.892600
653.000000	45.250866	45.067400
654.000000	45.424574	45.289100
655.000000	45.615903	45.564700
656.000000	45.818446	45.821600
657.000000	46.033322	46.078000
658.000000	46.259774	46.390700
659.000000	46.496335	46.711400
660.000000	46.741861	46.971200
661.000000	46.992840	47.216600
662.000000	47.248298	47.516100
663.000000	47.509064	47.806700
664.000000	47.770947	48.064700
665.000000	48.033287	48.313000
666.000000	48.290666	48.574000
667.000000	48.547437	48.842800
668.000000	48.806728	49.060800
669.000000	49.061049	49.306700
670.000000	49.316456	49.536900
671.000000	49.570756	49.730500
672.000000	49.821029	49.951800
673.000000	50.069769	50.184000
674.000000	50.309405	50.402300
675.000000	50.547146	50.604900
676.000000	50.782419	50.776500
677.000000	51.012857	50.944900
678.000000	51.239635	51.104500
679.000000	51.467270	51.255900
680.000000	51.690845	51.432300
681.000000	51.911008	51.585200
682.000000	52.135719	51.699400
683.000000	52.355178	51.846300
684.000000	52.568186	51.995200
685.000000	52.778018	52.129900
686.000000	52.982593	52.276100
687.000000	53.181304	52.407400
688.000000	53.374577	52.541100
689.000000	53.571098	52.594000
690.000000	53.763361	52.698100
691.000000	53.952043	52.763000
692.000000	54.138812	52.904800
693.000000	54.323524	53.044000
694.000000	54.507664	53.155600
695.000000	54.685871	53.272600
696.000000	54.859932	53.434600
697.000000	55.035302	53.539300
698.000000	55.211453	53.596600
699.000000	55.389311	53.690700
700.000000	55.569535	53.840800
701.000000	55.748524	53.939200
702.000000	55.929783	54.023300
703.000000	56.119287	54.158000
704.000000	56.309036	54.209500
705.000000	56.495526	54.254600
706.000000	56.680865	54.342300
707.000000	56.868560	54.451600
708.000000	57.059930	54.507100
709.000000	57.253127	54.603900
710.000000	57.451204	54.792500
711.000000	57.645865	54.898600
712.000000	57.844824	54.919900
713.000000	58.040599	55.035400
714.000000	58.239574	55.240300
715.000000	58.439386	55.369500
716.000000	58.642187	55.517100
717.000000	58.841936	55.668000
718.000000	59.043646	55.815800
719.000000	59.248585	55.970500
720.000000	59.454292	56.134900
721.000000	59.658482	56.342200
722.000000	59.864865	56.562300
723.000000	60.075443	56.600600
724.000000	60.289167	56.817100
725.000000	60.494277	57.031000
726.000000	60.696569	57.238600
727.000000	60.896531	57.345700
728.000000	61.098905	57.561400
729.000000	61.297499	57.757100
730.000000	61.495342	57.905700
731.000000	61.693171	58.044300
732.000000	61.892751	58.224800
733.000000	62.091864	58.408100
734.000000	62.279664	58.508700
735.000000	62.466799	58.685400
736.000000	62.657367	58.835400
737.000000	62.837978	58.969400
738.000000	63.021353	58.999100
739.000000	63.204124	59.140900
740.000000	63.380742	59.287400
741.000000	63.556093	59.324300
742.000000	63.730795	59.484300
743.000000	63.902526	59.528600
744.000000	64.065914	59.724400
745.000000	64.225604	59.704300
746.000000	64.377559	59.762900
747.000000	64.525577	59.845600
748.000000	64.675455	59.976500
749.000000	64.808928	60.027200
750.000000	64.942326	60.058400
751.000000	65.074538	60.143800
752.000000	65.207085	60.274400
753.000000	65.319386	60.312700
754.000000	65.439702	60.329500
755.000000	65.554631	60.490700
756.000000	65.660940	60.578000
757.000000	65.766597	60.606100
758.000000	65.873305	60.686100
759.000000	65.975702	60.723700
760.000000	66.076366	60.889200
761.000000	66.167916	61.023200
762.000000	66.258552	60.970800
763.000000	66.337750	61.118600
764.000000	66.416970	61.139900
765.000000	66.487543	61.423000
766.000000	66.559675	61.412800
767.000000	66.626981	61.504800
768.000000	66.691502	61.682800
769.000000	66.763193	61.819500
770.000000	66.828955	62.031200
771.000000	66.891294	62.081900
772.000000	66.948525	62.161800
773.000000	67.004473	62.327600
774.000000	67.063115	62.370700
775.000000	67.115852	62.467100
776.000000	67.174230	62.468100
777.000000	67.228207	62.857800
778.000000	67.281694	62.797800
779.000000	67.343027	62.909700
780.000000	67.393045	63.071500
781.000000	67.440180	63.247900
782.000000	67.483897	63.451300
783.000000	67.523185	63.487100
784.000000	67.571282	63.770200
785.000000	67.601562	63.709200
786.000000	67.638750	64.016300
787.000000	67.666451	64.140900
788.000000	67.688426	64.242200
789.000000	67.712260	64.354500
790.000000	67.727144	64.338700
791.000000	67.749403	64.657400
792.000000	67.761194	64.674800
793.000000	67.771845	64.799700
794.000000	67.773779	64.986200
795.000000	67.777990	65.076400
796.000000	67.784688	65.329300
797.000000	67.778627	65.399000
798.000000	67.779199	65.528400
799.000000	67.770016	65.491400
800.000000	67.764744	65.775600
801.000000	67.747238	65.752900
802.000000	67.722898	65.864900
803.000000	67.709479	66.006200
804.000000	67.684015	66.245300
805.000000	67.655223	66.402300
806.000000	67.627201	66.305500
807.000000	67.588638	66.557000
808.000000	67.558837	66.560500
809.000000	67.524637	66.710300
810.000000	67.477208	66.701700
811.000000	67.446616	67.045600
812.000000	67.402286	67.087900
813.000000	67.357414	67.050500
814.000000	67.315165	67.137200
815.000000	67.267259	67.136900
816.000000	67.209453	67.279800
817.000000	67.159766	67.148700
818.000000	67.098693	67.247100
819.000000	67.052536	67.416700
820.000000	67.000828	67.669500
821.000000	66.931424	67.389700
822.000000	66.876813	67.398900
823.000000	66.811753	67.454600
824.000000	66.751409	67.342800
825.000000	66.668618	67.601200
826.000000	66.599691	67.429300
827.000000	66.525145	67.521100
828.000000	66.457345	67.398000
829.000000	66.382285	67.197100
830.000000	66.302398	67.485700
831.000000	66.212603	67.539100
832.000000	66.126064	67.648900
833.000000	66.050827	67.776100
834.000000	65.965227	67.454600
835.000000	65.873359	67.636300
836.000000	65.772309	67.717500
837.000000	65.686137	67.575100
838.000000	65.585245	67.685200
839.000000	65.503792	67.901500
840.000000	65.405944	67.641000
841.000000	65.313875	67.508200
842.000000	65.195541	67.725500
843.000000	65.112205	67.732900
844.000000	64.997775	67.707300
845.000000	64.893427	67.480500
846.000000	64.810865	67.772900
847.000000	64.706091	67.988100
848.000000	64.592860	67.458200
849.000000	64.457428	67.697200
850.000000	64.365985	67.592100
851.000000	64.251928	67.986800
852.000000	64.157553	67.501600
853.000000	64.079660	67.359000
854.000000	63.923668	67.178400
855.000000	63.813768	67.317100
856.000000	63.726368	67.280500
857.000000	63.337791	66.619300
858.000000	59.998451	64.161900
859.000000	59.698396	64.078300
860.000000	59.642671	63.974500
861.000000	59.602836	63.878100
862.000000	59.552393	63.775300
863.000000	59.488714	63.669600
864.000000	59.422820	63.557300
865.000000	59.358282	63.442200
866.000000	59.306088	63.334200
867.000000	59.257007	63.212700
868.000000	59.205896	63.069300
869.000000	59.160250	62.943200
870.000000	59.116114	62.809600
871.000000	59.104930	62.692800
872.000000	59.129402	62.588900
873.000000	59.190953	62.552600
874.000000	59.258617	62.567800
875.000000	59.310560	62.562700
876.000000	59.357730	62.495100
877.000000	59.387854	62.445200
878.000000	59.412177	62.392300
879.000000	59.419534	62.333700
880.000000	59.425827	62.248200
881.000000	59.421043	62.162500
882.000000	59.411735	62.077900
883.000000	59.398967	61.989100
884.000000	59.388998	61.899000
885.000000	59.375045	61.801600
886.000000	59.350386	61.711400
887.000000	59.326907	61.631800
888.000000	59.300130	61.532000
889.000000	59.266336	61.434600
890.000000	59.231783	61.367300
891.000000	59.194482	61.278900
892.000000	59.153493	61.206700
893.000000	59.113706	61.121200
894.000000	59.069870	61.034200
895.000000	59.018408	60.937200
896.000000	58.962721	60.865800
897.000000	58.909192	60.799800
898.000000	58.855818	60.733900
899.000000	58.797145	60.672300
900.000000	58.739171	60.604300
901.000000	58.682357	60.554700
902.000000	58.625809	60.512500
903.000000	58.569035	60.458700
904.000000	58.513048	60.406700
905.000000	58.458642	60.359300
906.000000	58.409864	60.324500
907.000000	58.363924	60.273500
908.000000	58.322477	60.233200
909.000000	58.282507	60.195700
910.000000	58.249441	60.153300
911.000000	58.218961	60.097700
912.000000	58.190577	60.051600
913.000000	58.162297	59.994100
914.000000	58.133109	59.936400
915.000000	58.107030	59.874000
916.000000	58.080717	59.808300
917.000000	58.053643	59.741300
918.000000	58.023763	59.672700
919.000000	57.991253	59.586000
920.000000	57.957973	59.502000
921.000000	57.920841	59.426600
922.000000	57.885016	59.349300
923.000000	57.848968	59.261700
924.000000	57.810999	59.154800
925.000000	57.775998	59.064100
926.000000	57.740051	58.973600
927.000000	57.704555	58.883200
928.000000	57.667836	58.795900
929.000000	57.630481	58.689700
930.000000	57.594919	58.578900
931.000000	57.557375	58.479600
932.000000	57.517685	58.375500
933.000000	57.475817	58.260700
934.000000	57.432944	58.153200
935.000000	57.389691	58.055600
936.000000	57.346010	57.958900
937.000000	57.303590	57.883300
938.000000	57.262773	57.806000
939.000000	57.224416	57.714600
940.000000	57.187826	57.653300
941.000000	57.149681	57.604900
942.000000	57.113211	57.552700
943.000000	57.074519	57.496900
944.000000	57.034785	57.445700
945.000000	56.993205	57.404900
946.000000	56.950191	57.358300
947.000000	56.908460	57.313800
948.000000	56.867136	57.298400
949.000000	56.826648	57.269300
950.000000	56.785531	57.241200
951.000000	56.741259	57.228800
952.000000	56.696251	57.222700
953.000000	56.651671	57.203500
954.000000	56.607669	57.195900
955.000000	56.561822	57.189700
956.000000	56.514263	57.158700
957.000000	56.467252	57.173400
958.000000	56.419941	57.188600
959.000000	56.371114	57.171500
960.000000	56.320830	57.177000
961.000000	56.271653	57.190100
962.000000	56.223700	57.208700
963.000000	56.177246	57.208000
964.000000	56.134551	57.186100
965.000000	56.093003	57.186900
966.000000	56.051943	57.190500
967.000000	56.014722	57.188600
968.000000	55.979524	57.188200
969.000000	55.945059	57.190100
970.000000	55.911681	57.191900
971.000000	55.878649	57.190000
972.000000	55.843770	57.172800
973.000000	55.812448	57.157200
974.000000	55.779777	57.162500
975.000000	55.746248	57.145600
976.000000	55.714492	57.123800
977.000000	55.684656	57.109300
978.000000	55.654259	57.087100
979.000000	55.624286	57.072600
980.000000	55.593558	57.053800
981.000000	55.564109	57.016600
982.000000	55.536825	56.988300
983.000000	55.509611	56.972600
984.000000	55.482390	56.934700
985.000000	55.456899	56.904800
986.000000	55.433116	56.873800
987.000000	55.411298	56.851300
988.000000	55.391093	56.835100
989.000000	55.372039	56.812400
990.000000	55.355781	56.796400
991.000000	55.342315	56.782200
992.000000	55.329291	56.763300
993.000000	55.317671	56.759400
994.000000	55.308046	56.731700
995.000000	55.298644	56.722200
996.000000	55.291145	56.723900
997.000000	55.284820	56.722200
998.000000	55.280371	56.708000
999.000000	55.276626	56.719300
1000.000000	55.273283	56.721500
1001.000000	55.271002	56.735000
1002.000000	55.270872	56.743300
1003.000000	55.269996	56.744800
1004.000000	55.268204	56.768300
1005.000000	55.268556	56.768600
1006.000000	55.266666	56.783600
1007.000000	55.265496	56.818700
1008.000000	55.266127	56.835600
1009.000000	55.269668	56.866000
1010.000000	55.274176	56.893800
1011.000000	55.285119	56.928400
1012.000000	55.297728	56.981000
1013.000000	55.316840	57.025500
1014.000000	55.340605	57.065000
1015.000000	55.369621	57.124000
1016.000000	55.403388	57.194800
1017.000000	55.440254	57.256900
1018.000000	55.480586	57.304900
1019.000000	55.524339	57.372300
1020.000000	55.569735	57.471800
1021.000000	55.619432	57.542600
1022.000000	55.669122	57.613600
1023.000000	55.719206	57.684100
1024.000000	55.771023	57.771800
1025.000000	55.824397	57.856800
1026.000000	55.876766	57.921900
1027.000000	55.930277	58.002400
1028.000000	55.980084	58.062300
1029.000000	56.028992	58.152000
1030.000000	56.078265	58.217200
1031.000000	56.128512	58.302600
1032.000000	56.175439	58.380400
1033.000000	56.223070	58.449200
1034.000000	56.270862	58.485600
1035.000000	56.315583	58.582400
1036.000000	56.361156	58.634900
1037.000000	56.404492	58.706400
1038.000000	56.447238	58.759600
1039.000000	56.488832	58.824500
1040.000000	56.528397	58.906400
1041.000000	56.568723	58.951900
1042.000000	56.608671	59.016700
1043.000000	56.650017	59.066100
1044.000000	56.691078	59.124000
1045.000000	56.732722	59.194700
1046.000000	56.776115	59.216700
1047.000000	56.819260	59.275700
1048.000000	56.861405	59.323300
1049.000000	56.908551	59.368700
1050.000000	56.955250	59.426400
1051.000000	57.004140	59.485300
1052.000000	57.053610	59.523800
1053.000000	57.106195	59.594300
1054.000000	57.162122	59.640600
1055.000000	57.217020	59.696400
1056.000000	57.272481	59.743400
1057.000000	57.330161	59.786900
1058.000000	57.386160	59.809500
1059.000000	57.441824	59.870200
1060.000000	57.495632	59.906100
1061.000000	57.549982	59.938100
1062.000000	57.603703	59.987600
1063.000000	57.656381	60.016700
1064.000000	57.708080	60.063100
1065.000000	57.759640	60.083000
1066.000000	57.810508	60.133800
1067.000000	57.861952	60.150200
1068.000000	57.912084	60.214100
1069.000000	57.963504	60.203600
1070.000000	58.012177	60.252700
1071.000000	58.062405	60.279500
1072.000000	58.111595	60.318000
1073.000000	58.159248	60.345900
1074.000000	58.208582	60.349800
1075.000000	58.257030	60.370600
1076.000000	58.304388	60.411700
1077.000000	58.350458	60.438600
1078.000000	58.398331	60.456700
1079.000000	58.445455	60.487800
1080.000000	58.492376	60.498800
1081.000000	58.540110	60.557700
1082.000000	58.588050	60.565300
1083.000000	58.635040	60.608900
1084.000000	58.682799	60.606000
1085.000000	58.729126	60.647700
1086.000000	58.774261	60.664600
1087.000000	58.821240	60.713500
1088.000000	58.865284	60.716600
1089.000000	58.907874	60.738400
1090.000000	58.947416	60.755000
1091.000000	58.986919	60.789600
1092.000000	59.024310	60.806100
1093.000000	59.062134	60.811100
1094.000000	59.095725	60.854000
1095.000000	59.127799	60.878100
1096.000000	59.157330	60.880100
1097.000000	59.186267	60.881600
1098.000000	59.213681	60.889100
1099.000000	59.237480	60.946100
1100.000000	59.259913	60.941400
1101.000000	59.281526	60.944800
1102.000000	59.301493	60.964700
1103.000000	59.320216	60.964200
1104.000000	59.336804	61.017000
1105.000000	59.354251	61.019500
1106.000000	59.369557	61.036600
1107.000000	59.384241	61.048800
1108.000000	59.399056	61.064800
1109.000000	59.413471	61.077900
1110.000000	59.427091	61.088700
1111.000000	59.439577	61.126900
1112.000000	59.450532	61.136800
1113.000000	59.462305	61.147200
1114.000000	59.474190	61.161500
1115.000000	59.484183	61.190300
1116.000000	59.492815	61.225100
1117.000000	59.493629	61.211900
1118.000000	59.485070	61.219800
1119.000000	59.471406	61.213300
1120.000000	59.449412	61.202900
1121.000000	59.419671	61.215900
1122.000000	59.383473	61.189200
1123.000000	59.330796	61.158300
1124.000000	59.263053	61.127100
1125.000000	59.187603	61.092300
1126.000000	59.095029	61.028600
1127.000000	58.984270	60.964300
1128.000000	58.848052	60.870400
1129.000000	58.682391	60.758600
1130.000000	58.482415	60.623200
1131.000000	58.253914	60.452900
1132.000000	58.005809	60.302900
1133.000000	57.756580	60.115400
1134.000000	57.480353	59.943400
1135.000000	57.161412	59.724700
1136.000000	56.830820	59.502000
1137.000000	56.507518	59.273600
1138.000000	56.196147	59.055300
1139.000000	55.900056	58.842300
1140.000000	55.614171	58.656400
1141.000000	55.338440	58.472300
1142.000000	55.071805	58.281600
1143.000000	54.826714	58.122400
1144.000000	54.611616	57.983800
1145.000000	54.426443	57.853100
1146.000000	54.278894	57.740900
1147.000000	54.170727	57.647000
1148.000000	54.091015	57.557900
1149.000000	54.031386	57.492400
1150.000000	53.974471	57.424900
1151.000000	53.913626	57.351400
1152.000000	53.838483	57.257200
1153.000000	53.737744	57.136700
1154.000000	53.602554	56.997800
1155.000000	53.435867	56.852400
1156.000000	53.237735	56.707000
1157.000000	53.010224	56.517200
1158.000000	52.760977	56.329000
1159.000000	52.496570	56.133200
1160.000000	52.222727	55.912000
1161.000000	51.945035	55.736300
1162.000000	51.659560	55.530900
1163.000000	51.371891	55.315800
1164.000000	51.086652	55.101400
1165.000000	50.806803	54.922300
1166.000000	50.529740	54.725300
1167.000000	50.260993	54.543100
1168.000000	49.997814	54.347100
1169.000000	49.740001	54.144300
1170.000000	49.487866	53.971100
1171.000000	49.238526	53.817100
1172.000000	48.997269	53.641100
1173.000000	48.764478	53.462200
1174.000000	48.534999	53.308100
1175.000000	48.304533	53.134700
1176.000000	48.062361	52.952200
1177.000000	47.797086	52.758000
1178.000000	47.500041	52.543100
1179.000000	47.174713	52.296700
1180.000000	46.832788	52.063000
1181.000000	46.495497	51.836900
1182.000000	46.187802	51.634500
1183.000000	45.935683	51.471900
1184.000000	45.762741	51.379200
1185.000000	45.678016	51.349700
1186.000000	45.681076	51.371900
1187.000000	45.764379	51.439000
1188.000000	45.927427	51.552100
1189.000000	46.161336	51.707900
1190.000000	46.439429	51.886000
1191.000000	46.740579	52.085000
1192.000000	47.038659	52.267400
1193.000000	47.311285	52.419900
1194.000000	47.549077	52.550900
1195.000000	47.746230	52.671900
1196.000000	47.904918	52.772300
1197.000000	48.029948	52.847300
1198.000000	48.128756	52.906800
1199.000000	48.206231	52.968200
1200.000000	48.267770	53.029100
1201.000000	48.317338	53.065700
1202.000000	48.361354	53.106400
1203.000000	48.403947	53.149700
1204.000000	48.450184	53.196800
1205.000000	48.501248	53.253400
1206.000000	48.562810	53.306600
1207.000000	48.634748	53.362100
1208.000000	48.715694	53.447300
1209.000000	48.803092	53.526400
1210.000000	48.898143	53.607100
1211.000000	48.997821	53.701500
1212.000000	49.100956	53.787000
1213.000000	49.205964	53.862100
1214.000000	49.314362	53.939400
1215.000000	49.425920	54.027700
1216.000000	49.539766	54.115100
1217.000000	49.658985	54.204500
1218.000000	49.782683	54.298300
1219.000000	49.910883	54.398400
1220.000000	50.043657	54.490400
1221.000000	50.180711	54.591400
1222.000000	50.320476	54.697800
1223.000000	50.461606	54.778300
1224.000000	50.602525	54.877200
1225.000000	50.743033	54.986300
1226.000000	50.884028	55.071100
1227.000000	51.022941	55.157000
1228.000000	51.161290	55.246300
1229.000000	51.297657	55.332000
1230.000000	51.432666	55.429600
1231.000000	51.566085	55.524900
1232.000000	51.696716	55.602000
1233.000000	51.823530	55.683700
1234.000000	51.948446	55.775700
1235.000000	52.070266	55.855000
1236.000000	52.188399	55.920800
1237.000000	52.303860	55.995100
1238.000000	52.417005	56.067600
1239.000000	52.529435	56.129400
1240.000000	52.639498	56.206800
1241.000000	52.748046	56.285600
1242.000000	52.855232	56.357300
1243.000000	52.959430	56.427200
1244.000000	53.060739	56.475400
1245.000000	53.158700	56.542700
1246.000000	53.251827	56.613200
1247.000000	53.338699	56.652000
1248.000000	53.420142	56.724700
1249.000000	53.496310	56.785200
1250.000000	53.568080	56.820900
1251.000000	53.635048	56.857600
1252.000000	53.698601	56.882900
1253.000000	53.757184	56.906600
1254.000000	53.811140	56.941900
1255.000000	53.862017	56.966700
1256.000000	53.909243	56.980300
1257.000000	53.953812	57.008300
1258.000000	53.995591	57.025400
1259.000000	54.034666	57.037900
1260.000000	54.071947	57.051500
1261.000000	54.107476	57.065700
1262.000000	54.142582	57.075300
1263.000000	54.177008	57.076200
1264.000000	54.211028	57.083000
1265.000000	54.244903	57.087500
1266.000000	54.277685	57.085500
1267.000000	54.308712	57.087800
1268.000000	54.338481	57.094400
1269.000000	54.367172	57.091300
1270.000000	54.395020	57.074600
1271.000000	54.421472	57.065100
1272.000000	54.448216	57.079500
1273.000000	54.477748	57.075900
1274.000000	54.508641	57.069700
1275.000000	54.542126	57.076700
1276.000000	54.577613	57.073200
1277.000000	54.616454	57.074400
1278.000000	54.658744	57.095600
1279.000000	54.703369	57.090100
1280.000000	54.748724	57.082800
1281.000000	54.795486	57.089900
1282.000000	54.841957	57.117600
1283.000000	54.887213	57.121200
1284.000000	54.931287	57.119000
1285.000000	54.973084	57.112100
1286.000000	55.012059	57.123400
1287.000000	55.046370	57.134600
1288.000000	55.076680	57.112600
1289.000000	55.100778	57.099900
1290.000000	55.120964	57.075700
1291.000000	55.135216	57.069000
1292.000000	55.144465	57.058900
1293.000000	55.148965	57.038700
1294.000000	55.149779	57.009900
1295.000000	55.146651	56.984900
1296.000000	55.139531	56.952800
1297.000000	55.129484	56.936600
1298.000000	55.115988	56.891000
1299.000000	55.100234	56.839000
1300.000000	55.081172	56.810700
1301.000000	55.058897	56.762800
1302.000000	55.032286	56.723100
1303.000000	55.001756	56.679400
1304.000000	54.965913	56.621100
1305.000000	54.924157	56.565600
1306.000000	54.877491	56.520200
1307.000000	54.824874	56.452100
1308.000000	54.764666	56.386600
1309.000000	54.700116	56.317000
1310.000000	54.629389	56.254100
1311.000000	54.553378	56.185000
1312.000000	54.472685	56.095900
1313.000000	54.388443	56.003100
1314.000000	54.298303	55.908700
1315.000000	54.201799	55.838600
1316.000000	54.101174	55.728900
1317.000000	53.998018	55.643900
1318.000000	53.890840	55.561400
1319.000000	53.779448	55.448600
1320.000000	53.663959	55.330500
1321.000000	53.543072	55.237900
1322.000000	53.417965	55.141100
1323.000000	53.288528	55.003100
1324.000000	53.153419	54.904100
1325.000000	53.010661	54.785600
1326.000000	52.862476	54.655000
1327.000000	52.709220	54.534600
1328.000000	52.549483	54.397000
1329.000000	52.382881	54.267200
1330.000000	52.208092	54.115800
1331.000000	52.026780	53.978700
1332.000000	51.837501	53.830100
1333.000000	51.639871	53.663400
1334.000000	51.437132	53.516600
1335.000000	51.231671	53.349600
1336.000000	51.017706	53.193800
1337.000000	50.796357	53.023400
1338.000000	50.568615	52.853000
1339.000000	50.335837	52.671700
1340.000000	50.096634	52.496100
1341.000000	49.846449	52.316700
1342.000000	49.593410	52.147500
1343.000000	49.340715	51.965800
1344.000000	49.068322	51.778600
1345.000000	48.780163	51.559500
1346.000000	48.500295	51.385000
1347.000000	48.209146	51.201700
1348.000000	47.892403	50.985000
1349.000000	47.554886	50.764200
1350.000000	47.201490	50.518700
1351.000000	46.819563	50.270300
1352.000000	46.421025	50.040500
1353.000000	46.070857	49.831500
1354.000000	45.740315	49.663700
1355.000000	45.434609	49.473100
1356.000000	45.182054	49.329800
1357.000000	45.006719	49.250700
1358.000000	44.886380	49.171100
1359.000000	44.791189	49.108900
1360.000000	44.736115	49.065000
1361.000000	44.648401	48.999700
1362.000000	44.517013	48.914100
1363.000000	44.351447	48.730300
1364.000000	44.204948	48.675600
1365.000000	44.027229	48.518400
1366.000000	43.842062	48.387600
1367.000000	43.645174	48.270100
1368.000000	43.414777	48.085200
1369.000000	43.155629	47.874000
1370.000000	42.896080	47.692100
1371.000000	42.607314	47.501900
1372.000000	42.303631	47.335900
1373.000000	42.005440	47.068600
1374.000000	41.735585	46.922000
1375.000000	41.501635	46.770600
1376.000000	41.295817	46.624900
1377.000000	41.098563	46.431300
1378.000000	40.921383	46.289500
1379.000000	40.724335	46.073100
1380.000000	40.511627	45.853000
1381.000000	40.249726	45.649900
1382.000000	39.906104	45.314000
1383.000000	39.507974	44.918600
1384.000000	39.096862	44.533200
1385.000000	38.692802	44.102700
1386.000000	38.307633	43.715500
1387.000000	37.955324	43.367600
1388.000000	37.607373	42.978000
1389.000000	37.260704	42.526000
1390.000000	36.980767	42.214700
1391.000000	36.714275	41.878300
1392.000000	36.448534	41.554200
1393.000000	36.200565	41.201300
1394.000000	35.991154	40.949400
1395.000000	35.752153	40.632300
1396.000000	35.450803	40.228800
1397.000000	35.140608	39.828200
1398.000000	34.881396	39.535300
1399.000000	34.642137	39.289000
1400.000000	34.343190	38.937900
1401.000000	33.971423	38.540400
1402.000000	33.595767	38.105200
1403.000000	33.253908	37.780800
1404.000000	32.915274	37.434100
1405.000000	32.567533	37.034900
1406.000000	32.221078	36.663400
1407.000000	31.893272	36.335800
1408.000000	31.560605	35.977000
1409.000000	31.241119	35.659400
1410.000000	30.913666	35.275200
1411.000000	30.612629	34.933300
1412.000000	30.360153	34.655400
1413.000000	30.135144	34.395400
1414.000000	29.900968	34.103100
1415.000000	29.644057	33.800600
1416.000000	29.394693	33.519800
1417.000000	29.179933	33.268800
1418.000000	28.985672	33.062800
1419.000000	28.779709	32.823200
1420.000000	28.558055	32.546500
1421.000000	28.337921	32.310000
1422.000000	28.140407	32.095300
1423.000000	27.960562	31.894100
1424.000000	27.774895	31.684300
1425.000000	27.585007	31.480700
1426.000000	27.407424	31.284500
1427.000000	27.245147	31.121700
1428.000000	27.094688	30.970000
1429.000000	26.942495	30.787100
1430.000000	26.804031	30.625200
1431.000000	26.682349	30.486400
1432.000000	26.565341	30.369900
1433.000000	26.445282	30.209200
1434.000000	26.326387	30.092700
1435.000000	26.210684	29.948400
1436.000000	26.105324	29.824200
1437.000000	26.007656	29.733200
1438.000000	25.911058	29.607400
1439.000000	25.807695	29.487400
1440.000000	25.709551	29.382600
1441.000000	25.613280	29.288900
1442.000000	25.516895	29.168100
1443.000000	25.423086	29.076900
1444.000000	25.341144	28.990700
1445.000000	25.264363	28.916000
1446.000000	25.178184	28.819300
1447.000000	25.076798	28.725500
1448.000000	24.986843	28.635300
1449.000000	24.913287	28.573000
1450.000000	24.849918	28.513800
1451.000000	24.776073	28.435700
1452.000000	24.694885	28.366700
1453.000000	24.613492	28.289400
1454.000000	24.540904	28.232100
1455.000000	24.474353	28.164700
1456.000000	24.408120	28.108600
1457.000000	24.343060	28.046500
1458.000000	24.280689	28.006900
1459.000000	24.224086	27.968300
1460.000000	24.171978	27.949000
1461.000000	24.122261	27.908500
1462.000000	24.075299	27.876100
1463.000000	24.031185	27.861900
1464.000000	23.991155	27.844600
1465.000000	23.957206	27.832500
1466.000000	23.925655	27.823000
1467.000000	23.893800	27.818400
1468.000000	23.861110	27.827700
1469.000000	23.837296	27.839200
1470.000000	23.819910	27.838200
1471.000000	23.800108	27.848500
1472.000000	23.774146	27.853600
1473.000000	23.745634	27.864600
1474.000000	23.718336	27.869400
1475.000000	23.696302	27.872100
1476.000000	23.681144	27.901300
1477.000000	23.669449	27.939400
1478.000000	23.659224	27.966600
1479.000000	23.650839	27.993400
1480.000000	23.646697	28.019000
1481.000000	23.643865	28.064100
1482.000000	23.639682	28.106600
1483.000000	23.636780	28.145600
1484.000000	23.639214	28.196200
1485.000000	23.645292	28.244600
1486.000000	23.653765	28.297500
1487.000000	23.661534	28.355800
1488.000000	23.669402	28.407700
1489.000000	23.677498	28.447000
1490.000000	23.686639	28.502300
1491.000000	23.697327	28.559900
1492.000000	23.709547	28.617000
1493.000000	23.722739	28.683300
1494.000000	23.739754	28.740200
1495.000000	23.759854	28.806000
1496.000000	23.783259	28.877200
1497.000000	23.809962	28.942000
1498.000000	23.838412	29.016100
1499.000000	23.870084	29.088700
1500.000000	23.904201	29.169700
1501.000000	23.941985	29.251300
1502.000000	23.982901	29.337900
1503.000000	24.024960	29.414600
1504.000000	24.069474	29.490900
1505.000000	24.114930	29.585200
1506.000000	24.160176	29.672600
1507.000000	24.207814	29.763300
1508.000000	24.257090	29.854900
1509.000000	24.305197	29.941300
1510.000000	24.352939	30.023800
1511.000000	24.400376	30.100200
1512.000000	24.448421	30.192100
1513.000000	24.496347	30.273000
1514.000000	24.543081	30.358900
1515.000000	24.588992	30.447900
1516.000000	24.633984	30.521900
1517.000000	24.678244	30.600400
1518.000000	24.721614	30.680900
1519.000000	24.765057	30.756300
1520.000000	24.808007	30.823500
1521.000000	24.849786	30.897300
1522.000000	24.890473	30.971000
1523.000000	24.930199	31.040800
1524.000000	24.969970	31.103000
1525.000000	25.008544	31.168200
1526.000000	25.046558	31.233800
1527.000000	25.083763	31.303300
1528.000000	25.119779	31.368800
1529.000000	25.153987	31.425600
1530.000000	25.187417	31.484800
1531.000000	25.219148	31.539800
1532.000000	25.250026	31.592300
1533.000000	25.278285	31.650200
1534.000000	25.305411	31.694300
1535.000000	25.331779	31.743600
1536.000000	25.355624	31.792000
1537.000000	25.377017	31.840200
1538.000000	25.397259	31.878700
1539.000000	25.417928	31.923900
1540.000000	25.437856	31.964500
1541.000000	25.458464	31.999700
1542.000000	25.480701	32.029400
1543.000000	25.502964	32.079100
1544.000000	25.528502	32.135900
1545.000000	25.556954	32.169900
1546.000000	25.587461	32.227300
1547.000000	25.620138	32.285100
1548.000000	25.655137	32.326100
1549.000000	25.690796	32.378800
1550.000000	25.726960	32.438200
1551.000000	25.761573	32.488800
1552.000000	25.794395	32.536400
1553.000000	25.824466	32.570300
1554.000000	25.851060	32.619000
1555.000000	25.874399	32.670200
1556.000000	25.894807	32.712000
1557.000000	25.911857	32.725200
1558.000000	25.924839	32.757100
1559.000000	25.934152	32.785700
1560.000000	25.940585	32.803200
1561.000000	25.943676	32.817400
1562.000000	25.942817	32.843800
1563.000000	25.940413	32.864500
1564.000000	25.934365	32.870000
1565.000000	25.927852	32.892000
1566.000000	25.920670	32.893900
1567.000000	25.911743	32.895800
1568.000000	25.903918	32.896500
1569.000000	25.897740	32.904100
1570.000000	25.892447	32.925700
1571.000000	25.890681	32.946800
1572.000000	25.890978	32.950300
1573.000000	25.895193	32.956900
1574.000000	25.901568	32.980900
1575.000000	25.911116	32.996500
1576.000000	25.923515	33.029500
1577.000000	25.939073	33.065300
1578.000000	25.957520	33.092800
1579.000000	25.978752	33.116300
1580.000000	26.003249	33.159600
1581.000000	26.030291	33.191500
1582.000000	26.062391	33.219600
1583.000000	26.095920	33.273200
1584.000000	26.132309	33.308200
1585.000000	26.168768	33.347200
1586.000000	26.208260	33.393600
1587.000000	26.248299	33.440300
1588.000000	26.289676	33.478500
1589.000000	26.332616	33.523600
1590.000000	26.377216	33.574700
1591.000000	26.421569	33.615300
1592.000000	26.468507	33.671600
1593.000000	26.516648	33.723100
1594.000000	26.566990	33.762000
1595.000000	26.618981	33.804900
1596.000000	26.673782	33.855300
1597.000000	26.729296	33.906700
1598.000000	26.788711	33.963000
1599.000000	26.849023	34.024100
1600.000000	26.910112	34.089500
1601.000000	26.972577	34.138300
1602.000000	27.035157	34.187600
1603.000000	27.098958	34.236600
1604.000000	27.163268	34.298000
1605.000000	27.226512	34.360300
1606.000000	27.290223	34.423700
1607.000000	27.351976	34.480400
1608.000000	27.412962	34.526700
1609.000000	27.472691	34.584500
1610.000000	27.531368	34.622600
1611.000000	27.590242	34.656800
1612.000000	27.647076	34.709800
1613.000000	27.704868	34.763600
1614.000000	27.763168	34.807900
1615.000000	27.820370	34.872200
1616.000000	27.877774	34.900000
1617.000000	27.935447	34.965800
1618.000000	27.994020	35.017100
1619.000000	28.051657	35.059900
1620.000000	28.111441	35.101500
1621.000000	28.171085	35.162400
1622.000000	28.231752	35.187700
1623.000000	28.293552	35.238300
1624.000000	28.357446	35.310200
1625.000000	28.421290	35.348000
1626.000000	28.486183	35.421500
1627.000000	28.551593	35.482600
1628.000000	28.615439	35.529400
1629.000000	28.678380	35.596800
1630.000000	28.741812	35.632700
1631.000000	28.802742	35.689500
1632.000000	28.861986	35.741800
1633.000000	28.919746	35.789800
1634.000000	28.975913	35.816600
1635.000000	29.028385	35.877300
1636.000000	29.079791	35.926500
1637.000000	29.128935	35.989200
1638.000000	29.176482	36.016400
1639.000000	29.220749	36.067100
1640.000000	29.264772	36.087700
1641.000000	29.305775	36.129900
1642.000000	29.345718	36.165300
1643.000000	29.385517	36.176600
1644.000000	29.422507	36.215500
1645.000000	29.460006	36.252900
1646.000000	29.494965	36.285700
1647.000000	29.527735	36.315600
1648.000000	29.557419	36.331300
1649.000000	29.582635	36.357600
1650.000000	29.602803	36.383300
1651.000000	29.618041	36.388900
1652.000000	29.626389	36.415100
1653.000000	29.628734	36.394500
1654.000000	29.625843	36.386400
1655.000000	29.615988	36.405700
1656.000000	29.598746	36.377700
1657.000000	29.573884	36.367100
1658.000000	29.539281	36.320700
1659.000000	29.495038	36.299100
1660.000000	29.443536	36.234000
1661.000000	29.384202	36.192500
1662.000000	29.317574	36.144900
1663.000000	29.240493	36.057100
1664.000000	29.155716	35.988100
1665.000000	29.062666	35.924900
1666.000000	28.958747	35.833900
1667.000000	28.850596	35.739300
1668.000000	28.716997	35.607200
1669.000000	28.570861	35.478300
1670.000000	28.406316	35.359900
1671.000000	28.228414	35.196400
1672.000000	28.027619	35.021400
1673.000000	27.804661	34.836000
1674.000000	27.553593	34.619900
1675.000000	27.275110	34.368800
1676.000000	26.963073	34.084200
1677.000000	26.622654	33.802300
1678.000000	26.257005	33.493500
1679.000000	25.888365	33.187600
1680.000000	25.527640	32.886300
1681.000000	25.201824	32.621100
1682.000000	24.927980	32.421300
1683.000000	24.722278	32.263000
1684.000000	24.576754	32.151400
1685.000000	24.481223	32.063500
1686.000000	24.416203	31.983200
1687.000000	24.360870	31.940500
1688.000000	24.302632	31.877800
1689.000000	24.236409	31.820500
1690.000000	24.157702	31.756000
1691.000000	24.076040	31.685000
1692.000000	24.002157	31.623100
1693.000000	23.947744	31.603700
1694.000000	23.919407	31.602500
1695.000000	23.924391	31.632100
1696.000000	23.958394	31.688400
1697.000000	24.018660	31.777100
1698.000000	24.097859	31.868600
1699.000000	24.186835	31.955800
1700.000000	24.275521	32.052800
1701.000000	24.355297	32.155700
1702.000000	24.422759	32.213300
1703.000000	24.472734	32.272300
1704.000000	24.508056	32.312500
1705.000000	24.529612	32.330000
1706.000000	24.538823	32.350700
1707.000000	24.537052	32.357100
1708.000000	24.522574	32.350500
1709.000000	24.495572	32.320500
1710.000000	24.454961	32.287300
1711.000000	24.400376	32.224500
1712.000000	24.333703	32.158000
1713.000000	24.253945	32.076200
1714.000000	24.164411	31.981500
1715.000000	24.071313	31.897200
1716.000000	23.977646	31.784200
1717.000000	23.887936	31.718000
1718.000000	23.803464	31.625400
1719.000000	23.728449	31.544400
1720.000000	23.661143	31.476500
1721.000000	23.603443	31.415300
1722.000000	23.552913	31.367700
1723.000000	23.508017	31.315300
1724.000000	23.464060	31.262100
1725.000000	23.418499	31.218500
1726.000000	23.368086	31.168300
1727.000000	23.312583	31.104100
1728.000000	23.256288	31.055700
1729.000000	23.201745	31.014900
1730.000000	23.153920	30.994000
1731.000000	23.120368	30.973500
1732.000000	23.107447	30.979900
1733.000000	23.117561	31.006500
1734.000000	23.155559	31.065600
1735.000000	23.220851	31.152600
1736.000000	23.312457	31.227800
1737.000000	23.427705	31.338200
1738.000000	23.562332	31.467300
1739.000000	23.709462	31.591600
1740.000000	23.860264	31.707000
1741.000000	24.009983	31.829800
1742.000000	24.150266	31.949800
1743.000000	24.276173	32.041000
1744.000000	24.388146	32.119200
1745.000000	24.482965	32.180300
1746.000000	24.563256	32.229000
1747.000000	24.628736	32.280900
1748.000000	24.681201	32.312100
1749.000000	24.721995	32.315400
1750.000000	24.750403	32.315000
1751.000000	24.767322	32.315100
1752.000000	24.773806	32.305000
1753.000000	24.768281	32.290100
1754.000000	24.752617	32.249500
1755.000000	24.727300	32.213500
1756.000000	24.694997	32.169300
1757.000000	24.655067	32.105900
1758.000000	24.613090	32.067000
1759.000000	24.571849	32.025500
1760.000000	24.536370	31.986500
1761.000000	24.510192	31.957900
1762.000000	24.497099	31.943300
1763.000000	24.501094	31.950700
1764.000000	24.525073	31.962700
1765.000000	24.565792	31.997000
1766.000000	24.622302	32.040700
1767.000000	24.690831	32.088100
1768.000000	24.768423	32.154200
1769.000000	24.851826	32.220300
1770.000000	24.937736	32.276100
1771.000000	25.024746	32.332000
1772.000000	25.111515	32.390700
1773.000000	25.196681	32.442700
1774.000000	25.279884	32.493300
1775.000000	25.360581	32.551500
1776.000000	25.436282	32.607200
1777.000000	25.506177	32.643100
1778.000000	25.571563	32.682000
1779.000000	25.632908	32.722400
1780.000000	25.688304	32.752600
1781.000000	25.741635	32.799900
1782.000000	25.793547	32.837500
1783.000000	25.845492	32.869900
1784.000000	25.896664	32.901100
1785.000000	25.945716	32.926700
1786.000000	25.989794	32.956700
1787.000000	26.030268	32.980800
1788.000000	26.068088	33.010200
1789.000000	26.105646	33.034300
1790.000000	26.144569	33.052200
1791.000000	26.183722	33.077200
1792.000000	26.222752	33.108200
1793.000000	26.262041	33.139400
1794.000000	26.300316	33.160200
1795.000000	26.337325	33.178800
1796.000000	26.372929	33.195100
1797.000000	26.408103	33.221000
1798.000000	26.443243	33.253400
1799.000000	26.484037	33.280000
1800.000000	26.531394	33.319700
1801.000000	26.575768	33.350200
1802.000000	26.610604	33.379200
1803.000000	26.641574	33.398400
1804.000000	26.673576	33.410600
1805.000000	26.715023	33.451600
1806.000000	26.757297	33.481400
1807.000000	26.790446	33.491900
1808.000000	26.819126	33.519200
1809.000000	26.850308	33.542600
1810.000000	26.885554	33.562000
1811.000000	26.918801	33.582300
1812.000000	26.943500	33.602100
1813.000000	26.957254	33.600800
1814.000000	26.971158	33.598400
1815.000000	26.985696	33.608600
1816.000000	26.993495	33.607900
1817.000000	27.001978	33.620400
1818.000000	27.024563	33.649800
1819.000000	27.059643	33.668400
1820.000000	27.093110	33.682500
1821.000000	27.106515	33.697900
1822.000000	27.105435	33.676000
1823.000000	27.110296	33.662000
1824.000000	27.133984	33.687600
1825.000000	27.179128	33.707800
1826.000000	27.226513	33.742200
1827.000000	27.273743	33.779300
1828.000000	27.330738	33.815200
1829.000000	27.388157	33.849500
1830.000000	27.436400	33.866900
1831.000000	27.478978	33.880200
1832.000000	27.521936	33.899000
1833.000000	27.575037	33.953400
1834.000000	27.637663	34.011600
1835.000000	27.700404	34.050600
1836.000000	27.748683	34.075400
1837.000000	27.782561	34.086200
1838.000000	27.811058	34.097900
1839.000000	27.843842	34.121500
1840.000000	27.873418	34.130400
1841.000000	27.893789	34.105400
1842.000000	27.890177	34.056600
1843.000000	27.881372	34.025500
1844.000000	27.898240	34.042400
1845.000000	27.935489	34.068600
1846.000000	27.986596	34.113800
1847.000000	28.028764	34.103400
1848.000000	28.036780	34.060800
1849.000000	28.027363	34.014700
1850.000000	28.023673	33.974400
1851.000000	28.019091	33.934800
1852.000000	28.016264	33.894300
1853.000000	28.025329	33.876000
1854.000000	28.014494	33.818400
1855.000000	27.984492	33.733900
1856.000000	27.961977	33.675300
1857.000000	27.927188	33.612500
1858.000000	27.869674	33.503100
1859.000000	27.802681	33.387100
1860.000000	27.722469	33.257300
1861.000000	27.616147	33.104000
1862.000000	27.506323	32.937500
1863.000000	27.412196	32.785700
1864.000000	27.319081	32.656000
1865.000000	27.208943	32.525100
1866.000000	27.097948	32.393000
1867.000000	26.978218	32.231400
1868.000000	26.826672	32.024200
1869.000000	26.617349	31.755700
1870.000000	26.392314	31.457000
1871.000000	26.144984	31.147700
1872.000000	25.873883	30.797900
1873.000000	25.578894	30.425100
1874.000000	25.264839	30.026100
1875.000000	24.942066	29.618600
1876.000000	24.613014	29.201700
1877.000000	24.271061	28.795700
1878.000000	23.904862	28.313400
1879.000000	23.539860	27.868900
1880.000000	23.176095	27.439600
1881.000000	22.792585	26.968300
1882.000000	22.394524	26.464700
1883.000000	21.993722	25.959900
1884.000000	21.588951	25.409900
1885.000000	21.188073	24.864300
1886.000000	20.814625	24.370100
1887.000000	20.468289	23.878000
1888.000000	20.131535	23.430600
1889.000000	19.801371	22.949800
1890.000000	19.477945	22.488200
1891.000000	19.137896	21.980100
1892.000000	18.787297	21.453600
1893.000000	18.459345	20.998600
1894.000000	18.157313	20.606400
1895.000000	17.878872	20.228300
1896.000000	17.619171	19.883400
1897.000000	17.352628	19.536700
1898.000000	17.067468	19.174000
1899.000000	16.775979	18.783700
1900.000000	16.477386	18.399900
1901.000000	16.197256	18.024300
1902.000000	15.946976	17.698300
1903.000000	15.707493	17.385700
1904.000000	15.472982	17.116700
1905.000000	15.227105	16.783100
1906.000000	14.973852	16.449100
1907.000000	14.735526	16.137300
1908.000000	14.528843	15.912300
1909.000000	14.351970	15.699400
1910.000000	14.190513	15.517500
1911.000000	14.025261	15.306800
1912.000000	13.853753	15.099300
1913.000000	13.673991	14.860900
1914.000000	13.493882	14.650000
1915.000000	13.331955	14.445200
1916.000000	13.199325	14.263600
1917.000000	13.071756	14.121000
1918.000000	12.946787	13.967100
1919.000000	12.832190	13.824200
1920.000000	12.724938	13.688300
1921.000000	12.601904	13.542000
1922.000000	12.480246	13.403000
1923.000000	12.384032	13.253900
1924.000000	12.304404	13.152900
1925.000000	12.226184	13.061100
1926.000000	12.150755	13.008300
1927.000000	12.084384	12.907100
1928.000000	12.021870	12.822000
1929.000000	11.962135	12.758400
1930.000000	11.910475	12.696600
1931.000000	11.868104	12.609600
1932.000000	11.830946	12.585100
1933.000000	11.799553	12.556900
1934.000000	11.775551	12.557100
1935.000000	11.758507	12.535900
1936.000000	11.748535	12.510700
1937.000000	11.745208	12.520300
1938.000000	11.745454	12.538800
1939.000000	11.749625	12.539000
1940.000000	11.756441	12.557800
1941.000000	11.767392	12.578700
1942.000000	11.781917	12.596100
1943.000000	11.800552	12.636400
1944.000000	11.825805	12.670100
1945.000000	11.856208	12.722800
1946.000000	11.889122	12.772500
1947.000000	11.923946	12.831100
1948.000000	11.962436	12.870200
1949.000000	12.002116	12.929200
1950.000000	12.043632	13.000600
1951.000000	12.088168	13.052800
1952.000000	12.136556	13.137100
1953.000000	12.188130	13.224400
1954.000000	12.239023	13.287400
1955.000000	12.289667	13.363100
1956.000000	12.341905	13.440300
1957.000000	12.393437	13.520000
1958.000000	12.444929	13.595400
1959.000000	12.499786	13.686600
1960.000000	12.553798	13.771700
1961.000000	12.609321	13.846900
1962.000000	12.664049	13.925200
1963.000000	12.719073	14.017200
1964.000000	12.772691	14.104200
1965.000000	12.826923	14.204500
1966.000000	12.881875	14.271400
1967.000000	12.937021	14.362100
1968.000000	12.991961	14.470500
1969.000000	13.048148	14.533900
1970.000000	13.106223	14.651300
1971.000000	13.164972	14.743000
1972.000000	13.223874	14.815100
1973.000000	13.281665	14.926800
1974.000000	13.339914	15.009800
1975.000000	13.400473	15.112800
1976.000000	13.462364	15.213800
1977.000000	13.524888	15.311900
1978.000000	13.587481	15.408600
1979.000000	13.651366	15.505400
1980.000000	13.716781	15.595500
1981.000000	13.779439	15.686600
1982.000000	13.841916	15.795800
1983.000000	13.906343	15.878400
1984.000000	13.968459	15.993600
1985.000000	14.031984	16.091900
1986.000000	14.092561	16.198900
1987.000000	14.153650	16.296000
1988.000000	14.214322	16.383200
1989.000000	14.274402	16.486000
1990.000000	14.331058	16.555600
1991.000000	14.387211	16.656200
1992.000000	14.440829	16.741400
1993.000000	14.494416	16.826600
1994.000000	14.544822	16.917500
1995.000000	14.593276	17.003200
1996.000000	14.641231	17.082800
1997.000000	14.686275	17.167900
1998.000000	14.727684	17.237500
1999.000000	14.767266	17.318600
