PE UV       SUBTECH     SPECTRUM    ASCII       PEDS        4.00        
   -1
CICIMAUCR0098-4.Sample.ASC
24/04/25
11:26:36.00
24/04/25
11:26:36.00
Vinicio Soto Monge
C. cupreomarginata
250,000000
1
Lambda 1050
1050L1511233
PerkinElmer UV WinLab 6.3.2.0749 / 2.02.05 Lambda 900 UV/VIS/NIR, Aug  7 2015 09:38:08

0
0
3350/servo 860,8/2
0
0
UV/VIS
1
1
1
DoubleDePol,CommonBeamDepol,RBeamAtt,SBeamAtt,60mm sphere, WB InGaAs Detector
0
0
0
0
Program
Program
3350/servo 860,8/2
3350/0,2 860,8/0,2
3350/0,2 860,8/0,2
0
15.00
 
 
 
0
 
860,8
319,2
860,8
Front
100
on
S:100 R:100
0
0
0
0
 
0
 
 
 
0
 
 
0
0
0
0
0
 
 
 
 
0
0


0
0
#HDR
-1
-1
#GR
nm
%R
1.0
0.0
2500,000000
-1,000000
2251
8
67,710500
4,817400
#DATA
2482.000000	6.805765
2481.000000	6.738088
2480.000000	6.700820
2479.000000	6.715110
2478.000000	6.744604
2477.000000	6.734316
2476.000000	6.740375
2475.000000	6.744147
2474.000000	6.707794
2473.000000	6.708594
2472.000000	6.768497
2471.000000	6.741403
2470.000000	6.758551
2469.000000	6.760952
2468.000000	6.763696
2467.000000	6.746091
2466.000000	6.775128
2465.000000	6.746548
2464.000000	6.783016
2463.000000	6.779815
2462.000000	6.768383
2461.000000	6.842462
2460.000000	6.821541
2459.000000	6.836631
2458.000000	6.847149
2457.000000	6.890247
2456.000000	6.924429
2455.000000	6.952894
2454.000000	6.956438
2453.000000	6.999308
2452.000000	7.026516
2451.000000	7.067328
2450.000000	7.121058
2449.000000	7.139577
2448.000000	7.153639
2447.000000	7.211027
2446.000000	7.240978
2445.000000	7.260413
2444.000000	7.269101
2443.000000	7.319973
2442.000000	7.348667
2441.000000	7.359985
2440.000000	7.392108
2439.000000	7.425261
2438.000000	7.468359
2437.000000	7.502769
2436.000000	7.543353
2435.000000	7.557757
2434.000000	7.589538
2433.000000	7.601998
2432.000000	7.598226
2431.000000	7.616746
2430.000000	7.667389
2429.000000	7.691968
2428.000000	7.710830
2427.000000	7.729007
2426.000000	7.749699
2425.000000	7.766618
2424.000000	7.791311
2423.000000	7.813146
2422.000000	7.803543
2421.000000	7.810402
2420.000000	7.835553
2419.000000	7.858188
2418.000000	7.854301
2417.000000	7.858759
2416.000000	7.871334
2415.000000	7.908603
2414.000000	7.915004
2413.000000	7.912146
2412.000000	7.921521
2411.000000	7.936611
2410.000000	7.966334
2409.000000	7.982453
2408.000000	8.003145
2407.000000	8.047729
2406.000000	8.055388
2405.000000	8.068878
2404.000000	8.089798
2403.000000	8.087169
2402.000000	8.108090
2401.000000	8.137127
2400.000000	8.161591
2399.000000	8.184226
2398.000000	8.183083
2397.000000	8.193943
2396.000000	8.227667
2395.000000	8.244472
2394.000000	8.267451
2393.000000	8.280140
2392.000000	8.278540
2391.000000	8.300603
2390.000000	8.330669
2389.000000	8.346674
2388.000000	8.350789
2387.000000	8.356734
2386.000000	8.364622
2385.000000	8.384399
2384.000000	8.389086
2383.000000	8.378340
2382.000000	8.382456
2381.000000	8.396060
2380.000000	8.402119
2379.000000	8.411836
2378.000000	8.417323
2377.000000	8.395488
2376.000000	8.381198
2375.000000	8.390915
2374.000000	8.377083
2373.000000	8.354676
2372.000000	8.362564
2371.000000	8.357534
2370.000000	8.353419
2369.000000	8.341415
2368.000000	8.313750
2367.000000	8.304033
2366.000000	8.283684
2365.000000	8.258762
2364.000000	8.243672
2363.000000	8.224695
2362.000000	8.208005
2361.000000	8.195772
2360.000000	8.172337
2359.000000	8.139870
2358.000000	8.123866
2357.000000	8.113348
2356.000000	8.104774
2355.000000	8.078938
2354.000000	8.062933
2353.000000	8.078824
2352.000000	8.083282
2351.000000	8.089570
2350.000000	8.100430
2349.000000	8.117121
2348.000000	8.118836
2347.000000	8.136326
2346.000000	8.170508
2345.000000	8.199431
2344.000000	8.237156
2343.000000	8.269623
2342.000000	8.283570
2341.000000	8.282655
2340.000000	8.310320
2339.000000	8.317408
2338.000000	8.322781
2337.000000	8.338214
2336.000000	8.347360
2335.000000	8.357420
2334.000000	8.347474
2333.000000	8.330898
2332.000000	8.330669
2331.000000	8.314779
2330.000000	8.286770
2329.000000	8.259677
2328.000000	8.238642
2327.000000	8.222980
2326.000000	8.181711
2325.000000	8.143757
2324.000000	8.111062
2323.000000	8.096429
2322.000000	8.063391
2321.000000	8.010575
2320.000000	7.970106
2319.000000	7.903344
2318.000000	7.862989
2317.000000	7.819662
2316.000000	7.780222
2315.000000	7.729350
2314.000000	7.684080
2313.000000	7.656186
2312.000000	7.632979
2311.000000	7.584279
2310.000000	7.551469
2309.000000	7.553413
2308.000000	7.532950
2307.000000	7.526776
2306.000000	7.516259
2305.000000	7.519574
2304.000000	7.548611
2303.000000	7.546668
2302.000000	7.588394
2301.000000	7.638924
2300.000000	7.642467
2299.000000	7.668189
2298.000000	7.691739
2297.000000	7.761245
2296.000000	7.795198
2295.000000	7.836924
2294.000000	7.877165
2293.000000	7.906316
2292.000000	7.911346
2291.000000	7.932495
2290.000000	7.961075
2289.000000	7.955359
2288.000000	7.965419
2287.000000	7.955931
2286.000000	7.944042
2285.000000	7.937640
2284.000000	7.925750
2283.000000	7.924036
2282.000000	7.916605
2281.000000	7.878537
2280.000000	7.834981
2279.000000	7.838182
2278.000000	7.808116
2277.000000	7.772563
2276.000000	7.784909
2275.000000	7.780336
2274.000000	7.789596
2273.000000	7.754615
2272.000000	7.781480
2271.000000	7.763989
2270.000000	7.775535
2269.000000	7.793369
2268.000000	7.834295
2267.000000	7.867676
2266.000000	7.906773
2265.000000	7.980967
2264.000000	8.018463
2263.000000	8.093800
2262.000000	8.161019
2261.000000	8.260248
2260.000000	8.366337
2259.000000	8.433899
2258.000000	8.552105
2257.000000	8.681743
2256.000000	8.774113
2255.000000	8.898607
2254.000000	8.994521
2253.000000	9.088148
2252.000000	9.187834
2251.000000	9.306612
2250.000000	9.409385
2249.000000	9.492838
2248.000000	9.588295
2247.000000	9.665117
2246.000000	9.755201
2245.000000	9.816704
2244.000000	9.908846
2243.000000	9.959146
2242.000000	10.016306
2241.000000	10.071865
2240.000000	10.153489
2239.000000	10.191786
2238.000000	10.225624
2237.000000	10.267808
2236.000000	10.315022
2235.000000	10.347603
2234.000000	10.377897
2233.000000	10.442831
2232.000000	10.450033
2231.000000	10.477584
2230.000000	10.520110
2229.000000	10.494274
2228.000000	10.527541
2227.000000	10.535772
2226.000000	10.565724
2225.000000	10.557150
2224.000000	10.561151
2223.000000	10.567324
2222.000000	10.575555
2221.000000	10.596933
2220.000000	10.583558
2219.000000	10.606307
2218.000000	10.596590
2217.000000	10.577613
2216.000000	10.581271
2215.000000	10.584244
2214.000000	10.566410
2213.000000	10.552234
2212.000000	10.539087
2211.000000	10.507993
2210.000000	10.530399
2209.000000	10.530742
2208.000000	10.510508
2207.000000	10.514509
2206.000000	10.514509
2205.000000	10.516224
2204.000000	10.512908
2203.000000	10.505935
2202.000000	10.489244
2201.000000	10.510050
2200.000000	10.518739
2199.000000	10.508221
2198.000000	10.514166
2197.000000	10.513251
2196.000000	10.498504
2195.000000	10.506964
2194.000000	10.498961
2193.000000	10.512451
2192.000000	10.504106
2191.000000	10.502162
2190.000000	10.492331
2189.000000	10.499304
2188.000000	10.503191
2187.000000	10.502963
2186.000000	10.494960
2185.000000	10.480442
2184.000000	10.480556
2183.000000	10.485700
2182.000000	10.470382
2181.000000	10.480327
2180.000000	10.475412
2179.000000	10.479641
2178.000000	10.477584
2177.000000	10.497247
2176.000000	10.495075
2175.000000	10.489702
2174.000000	10.481471
2173.000000	10.493245
2172.000000	10.493588
2171.000000	10.505135
2170.000000	10.507307
2169.000000	10.520911
2168.000000	10.526512
2167.000000	10.532686
2166.000000	10.540802
2165.000000	10.549148
2164.000000	10.572926
2163.000000	10.570983
2162.000000	10.582414
2161.000000	10.593732
2160.000000	10.607336
2159.000000	10.629285
2158.000000	10.641289
2157.000000	10.656379
2156.000000	10.667468
2155.000000	10.700506
2154.000000	10.716054
2153.000000	10.723827
2152.000000	10.727371
2151.000000	10.735259
2150.000000	10.736288
2149.000000	10.757094
2148.000000	10.774013
2147.000000	10.786246
2146.000000	10.806937
2145.000000	10.831973
2144.000000	10.841347
2143.000000	10.834260
2142.000000	10.838604
2141.000000	10.834831
2140.000000	10.857238
2139.000000	10.859524
2138.000000	10.847749
2137.000000	10.866040
2136.000000	10.865583
2135.000000	10.876558
2134.000000	10.875300
2133.000000	10.872557
2132.000000	10.877587
2131.000000	10.881131
2130.000000	10.871756
2129.000000	10.874614
2128.000000	10.872785
2127.000000	10.868212
2126.000000	10.860782
2125.000000	10.843177
2124.000000	10.815511
2123.000000	10.816654
2122.000000	10.825457
2121.000000	10.794705
2120.000000	10.774471
2119.000000	10.766011
2118.000000	10.756523
2117.000000	10.754465
2116.000000	10.728286
2115.000000	10.698906
2114.000000	10.664610
2113.000000	10.651692
2112.000000	10.659809
2111.000000	10.632258
2110.000000	10.617739
2109.000000	10.615567
2108.000000	10.606307
2107.000000	10.592932
2106.000000	10.568925
2105.000000	10.552006
2104.000000	10.537373
2103.000000	10.520568
2102.000000	10.505249
2101.000000	10.485129
2100.000000	10.476669
2099.000000	10.463408
2098.000000	10.438944
2097.000000	10.428084
2096.000000	10.416880
2095.000000	10.416080
2094.000000	10.406477
2093.000000	10.387843
2092.000000	10.377211
2091.000000	10.383613
2090.000000	10.374125
2089.000000	10.351375
2088.000000	10.349432
2087.000000	10.343602
2086.000000	10.323596
2085.000000	10.316508
2084.000000	10.318223
2083.000000	10.309992
2082.000000	10.300618
2081.000000	10.295816
2080.000000	10.267122
2079.000000	10.244030
2078.000000	10.244258
2077.000000	10.245287
2076.000000	10.221737
2075.000000	10.227796
2074.000000	10.214650
2073.000000	10.200474
2072.000000	10.201389
2071.000000	10.201160
2070.000000	10.181268
2069.000000	10.166293
2068.000000	10.166864
2067.000000	10.171894
2066.000000	10.156575
2065.000000	10.144343
2064.000000	10.132111
2063.000000	10.124566
2062.000000	10.128339
2061.000000	10.124452
2060.000000	10.115763
2059.000000	10.130625
2058.000000	10.140342
2057.000000	10.165607
2056.000000	10.175552
2055.000000	10.203675
2054.000000	10.216593
2053.000000	10.219451
2052.000000	10.242543
2051.000000	10.290443
2050.000000	10.327368
2049.000000	10.372753
2048.000000	10.408649
2047.000000	10.453005
2046.000000	10.519882
2045.000000	10.567896
2044.000000	10.588359
2043.000000	10.643575
2042.000000	10.706565
2041.000000	10.753779
2040.000000	10.795734
2039.000000	10.852551
2038.000000	10.887304
2037.000000	10.940691
2036.000000	10.980017
2035.000000	11.014884
2034.000000	11.057182
2033.000000	11.091135
2032.000000	11.140064
2031.000000	11.154125
2030.000000	11.171387
2029.000000	11.224088
2028.000000	11.254840
2027.000000	11.268787
2026.000000	11.281019
2025.000000	11.298281
2024.000000	11.328233
2023.000000	11.355670
2022.000000	11.360700
2021.000000	11.392023
2020.000000	11.406199
2019.000000	11.444496
2018.000000	11.456613
2017.000000	11.449640
2016.000000	11.458557
2015.000000	11.463358
2014.000000	11.466445
2013.000000	11.472847
2012.000000	11.471018
2011.000000	11.473304
2010.000000	11.455470
2009.000000	11.456499
2008.000000	11.452841
2007.000000	11.440952
2006.000000	11.456270
2005.000000	11.444153
2004.000000	11.420146
2003.000000	11.404484
2002.000000	11.388822
2001.000000	11.380934
2000.000000	11.368245
1999.000000	11.360357
1998.000000	11.324689
1997.000000	11.300225
1996.000000	11.283534
1995.000000	11.252782
1994.000000	11.212885
1993.000000	11.205454
1992.000000	11.145094
1991.000000	11.153325
1990.000000	11.107940
1989.000000	11.089763
1988.000000	11.050323
1987.000000	11.017399
1986.000000	10.987905
1985.000000	10.954638
1984.000000	10.905366
1983.000000	10.891419
1982.000000	10.864897
1981.000000	10.829001
1980.000000	10.771727
1979.000000	10.742690
1978.000000	10.700620
1977.000000	10.673984
1976.000000	10.652263
1975.000000	10.603678
1974.000000	10.598876
1973.000000	10.558979
1972.000000	10.528341
1971.000000	10.504906
1970.000000	10.458378
1969.000000	10.424425
1968.000000	10.418252
1967.000000	10.378812
1966.000000	10.353547
1965.000000	10.331598
1964.000000	10.281984
1963.000000	10.261063
1962.000000	10.229740
1961.000000	10.225967
1960.000000	10.173723
1959.000000	10.157033
1958.000000	10.138056
1957.000000	10.140571
1956.000000	10.098273
1955.000000	10.070493
1954.000000	10.051745
1953.000000	10.014477
1952.000000	9.992756
1951.000000	9.979495
1950.000000	9.958003
1949.000000	9.942913
1948.000000	9.923364
1947.000000	9.917191
1946.000000	9.875579
1945.000000	9.889411
1944.000000	9.883010
1943.000000	9.903701
1942.000000	9.892269
1941.000000	9.867919
1940.000000	9.896385
1939.000000	9.877294
1938.000000	9.862889
1937.000000	9.865290
1936.000000	9.896271
1935.000000	9.895585
1934.000000	9.931024
1933.000000	9.951372
1932.000000	9.988412
1931.000000	10.018821
1930.000000	10.041685
1929.000000	10.094043
1928.000000	10.135998
1927.000000	10.168579
1926.000000	10.226539
1925.000000	10.256033
1924.000000	10.332284
1923.000000	10.399161
1922.000000	10.453348
1921.000000	10.511194
1920.000000	10.563323
1919.000000	10.634658
1918.000000	10.712395
1917.000000	10.799621
1916.000000	10.882274
1915.000000	10.977959
1914.000000	11.057868
1913.000000	11.135033
1912.000000	11.228432
1911.000000	11.333263
1910.000000	11.417859
1909.000000	11.540752
1908.000000	11.642268
1907.000000	11.771906
1906.000000	11.873421
1905.000000	11.993571
1904.000000	12.097258
1903.000000	12.240272
1902.000000	12.337557
1901.000000	12.475998
1900.000000	12.610551
1899.000000	12.747849
1898.000000	12.892005
1897.000000	13.030675
1896.000000	13.174602
1895.000000	13.311328
1894.000000	13.479263
1893.000000	13.637595
1892.000000	13.837311
1891.000000	13.976552
1890.000000	14.175353
1889.000000	14.386043
1888.000000	14.584387
1887.000000	14.802394
1886.000000	15.055839
1885.000000	15.359700
1884.000000	15.683795
1883.000000	16.046301
1882.000000	16.425612
1881.000000	16.794863
1880.000000	17.172002
1879.000000	17.563088
1878.000000	17.928224
1877.000000	18.276097
1876.000000	18.626943
1875.000000	18.967499
1874.000000	19.267130
1873.000000	19.551556
1872.000000	19.817234
1871.000000	20.070680
1870.000000	20.287315
1869.000000	20.493775
1868.000000	20.650049
1867.000000	20.785746
1866.000000	20.913441
1865.000000	21.012784
1864.000000	21.117043
1863.000000	21.204269
1862.000000	21.292295
1861.000000	21.345796
1860.000000	21.389237
1859.000000	21.426163
1858.000000	21.426048
1857.000000	21.442053
1856.000000	21.442282
1855.000000	21.406042
1854.000000	21.377806
1853.000000	21.333450
1852.000000	21.305327
1851.000000	21.298125
1850.000000	21.281434
1849.000000	21.232620
1848.000000	21.135449
1847.000000	21.026274
1846.000000	20.938134
1845.000000	20.919500
1844.000000	20.925673
1843.000000	20.943621
1842.000000	20.925444
1841.000000	20.868742
1840.000000	20.811125
1839.000000	20.776258
1838.000000	20.739104
1837.000000	20.673485
1836.000000	20.608323
1835.000000	20.532987
1834.000000	20.460051
1833.000000	20.402548
1832.000000	20.352477
1831.000000	20.267080
1830.000000	20.182141
1829.000000	20.115493
1828.000000	20.037642
1827.000000	19.960705
1826.000000	19.878738
1825.000000	19.814262
1824.000000	19.793456
1823.000000	19.798714
1822.000000	19.783053
1821.000000	19.733895
1820.000000	19.666676
1819.000000	19.629522
1818.000000	19.615346
1817.000000	19.609287
1816.000000	19.624378
1815.000000	19.613289
1814.000000	19.590653
1813.000000	19.569047
1812.000000	19.544697
1811.000000	19.521833
1810.000000	19.494625
1809.000000	19.458157
1808.000000	19.427406
1807.000000	19.376876
1806.000000	19.313772
1805.000000	19.279134
1804.000000	19.238779
1803.000000	19.186649
1802.000000	19.140350
1801.000000	19.099424
1800.000000	19.046723
1799.000000	18.984876
1798.000000	18.940177
1797.000000	18.907253
1796.000000	18.872500
1795.000000	18.803451
1794.000000	18.749836
1793.000000	18.707652
1792.000000	18.641461
1791.000000	18.577214
1790.000000	18.503935
1789.000000	18.464495
1788.000000	18.398533
1787.000000	18.335429
1786.000000	18.262836
1785.000000	18.174924
1784.000000	18.098559
1783.000000	18.020593
1782.000000	17.952574
1781.000000	17.875294
1780.000000	17.805445
1779.000000	17.710674
1778.000000	17.631680
1777.000000	17.553600
1776.000000	17.460887
1775.000000	17.348968
1774.000000	17.231905
1773.000000	17.131533
1772.000000	17.030703
1771.000000	16.920385
1770.000000	16.814754
1769.000000	16.714154
1768.000000	16.620183
1767.000000	16.513981
1766.000000	16.448247
1765.000000	16.418181
1764.000000	16.372796
1763.000000	16.364451
1762.000000	16.386400
1761.000000	16.429384
1760.000000	16.491231
1759.000000	16.527585
1758.000000	16.592632
1757.000000	16.650821
1756.000000	16.678943
1755.000000	16.721356
1754.000000	16.738046
1753.000000	16.713239
1752.000000	16.707180
1751.000000	16.675971
1750.000000	16.649449
1749.000000	16.607494
1748.000000	16.513638
1747.000000	16.461508
1746.000000	16.372111
1745.000000	16.267623
1744.000000	16.145530
1743.000000	15.999544
1742.000000	15.818691
1741.000000	15.627778
1740.000000	15.438466
1739.000000	15.298082
1738.000000	15.143179
1737.000000	15.032975
1736.000000	14.936261
1735.000000	14.878187
1734.000000	14.851779
1733.000000	14.863554
1732.000000	14.923343
1731.000000	14.996508
1730.000000	15.088877
1729.000000	15.189250
1728.000000	15.276361
1727.000000	15.367016
1726.000000	15.437208
1725.000000	15.505114
1724.000000	15.552099
1723.000000	15.562731
1722.000000	15.580564
1721.000000	15.568104
1720.000000	15.563759
1719.000000	15.573591
1718.000000	15.580450
1717.000000	15.602171
1716.000000	15.628807
1715.000000	15.673620
1714.000000	15.697056
1713.000000	15.723463
1712.000000	15.737410
1711.000000	15.743584
1710.000000	15.732952
1709.000000	15.722320
1708.000000	15.706087
1707.000000	15.690082
1706.000000	15.657044
1705.000000	15.593025
1704.000000	15.540210
1703.000000	15.445553
1702.000000	15.396053
1701.000000	15.263214
1700.000000	15.135291
1699.000000	15.012169
1698.000000	14.914312
1697.000000	14.866527
1696.000000	14.803422
1695.000000	14.803880
1694.000000	14.867327
1693.000000	14.953866
1692.000000	15.087277
1691.000000	15.199767
1690.000000	15.310428
1689.000000	15.404741
1688.000000	15.467388
1687.000000	15.482707
1686.000000	15.466588
1685.000000	15.472533
1684.000000	15.568789
1683.000000	15.750671
1682.000000	16.028696
1681.000000	16.387429
1680.000000	16.795320
1679.000000	17.269631
1678.000000	17.707930
1677.000000	18.139371
1676.000000	18.528971
1675.000000	18.898794
1674.000000	19.181391
1673.000000	19.434150
1672.000000	19.681309
1671.000000	19.877252
1670.000000	20.035241
1669.000000	20.159506
1668.000000	20.253705
1667.000000	20.376484
1666.000000	20.465881
1665.000000	20.564539
1664.000000	20.592547
1663.000000	20.647534
1662.000000	20.705952
1661.000000	20.727101
1660.000000	20.736360
1659.000000	20.771228
1658.000000	20.780716
1657.000000	20.774429
1656.000000	20.774772
1655.000000	20.771685
1654.000000	20.743677
1653.000000	20.719670
1652.000000	20.686975
1651.000000	20.655994
1650.000000	20.611638
1649.000000	20.578371
1648.000000	20.523727
1647.000000	20.469768
1646.000000	20.423583
1645.000000	20.365509
1644.000000	20.325040
1643.000000	20.253933
1642.000000	20.179054
1641.000000	20.120637
1640.000000	20.054561
1639.000000	19.999459
1638.000000	19.922179
1637.000000	19.869592
1636.000000	19.787511
1635.000000	19.726236
1634.000000	19.648499
1633.000000	19.588367
1632.000000	19.534523
1631.000000	19.435065
1630.000000	19.340980
1629.000000	19.275704
1628.000000	19.214086
1627.000000	19.138407
1626.000000	19.068901
1625.000000	18.983161
1624.000000	18.911597
1623.000000	18.853180
1622.000000	18.767212
1621.000000	18.689246
1620.000000	18.631858
1619.000000	18.561438
1618.000000	18.479699
1617.000000	18.393960
1616.000000	18.337372
1615.000000	18.281584
1614.000000	18.238486
1613.000000	18.176068
1612.000000	18.100388
1611.000000	18.045058
1610.000000	18.000130
1609.000000	17.932568
1608.000000	17.857689
1607.000000	17.811046
1606.000000	17.770120
1605.000000	17.719477
1604.000000	17.661403
1603.000000	17.605157
1602.000000	17.550284
1601.000000	17.487637
1600.000000	17.451170
1599.000000	17.418474
1598.000000	17.368517
1597.000000	17.310786
1596.000000	17.275232
1595.000000	17.244480
1594.000000	17.194409
1593.000000	17.172574
1592.000000	17.142965
1591.000000	17.103753
1590.000000	17.074373
1589.000000	17.042936
1588.000000	16.996751
1587.000000	16.968171
1586.000000	16.944050
1585.000000	16.930217
1584.000000	16.905295
1583.000000	16.877401
1582.000000	16.874429
1581.000000	16.868142
1580.000000	16.864941
1579.000000	16.865969
1578.000000	16.838190
1577.000000	16.823557
1576.000000	16.841848
1575.000000	16.843220
1574.000000	16.837390
1573.000000	16.859682
1572.000000	16.880488
1571.000000	16.878202
1570.000000	16.878888
1569.000000	16.902666
1568.000000	16.927359
1567.000000	16.944507
1566.000000	16.964398
1565.000000	16.994464
1564.000000	17.008869
1563.000000	17.011155
1562.000000	17.026588
1561.000000	17.032647
1560.000000	17.039277
1559.000000	17.055739
1558.000000	17.064771
1557.000000	17.059169
1556.000000	17.068314
1555.000000	17.078946
1554.000000	17.084891
1553.000000	17.089006
1552.000000	17.074259
1551.000000	17.066600
1550.000000	17.061684
1549.000000	17.040306
1548.000000	17.048537
1547.000000	17.044422
1546.000000	17.033218
1545.000000	17.043964
1544.000000	17.036419
1543.000000	17.019615
1542.000000	17.028303
1541.000000	17.036419
1540.000000	17.027960
1539.000000	17.013327
1538.000000	17.008983
1537.000000	17.018929
1536.000000	17.019843
1535.000000	17.010012
1534.000000	17.000752
1533.000000	16.977316
1532.000000	16.957539
1531.000000	16.948737
1530.000000	16.943021
1529.000000	16.928502
1528.000000	16.898322
1527.000000	16.880602
1526.000000	16.880031
1525.000000	16.875801
1524.000000	16.835218
1523.000000	16.794177
1522.000000	16.800922
1521.000000	16.782859
1520.000000	16.746163
1519.000000	16.731759
1518.000000	16.707066
1517.000000	16.694719
1516.000000	16.678257
1515.000000	16.639046
1514.000000	16.606008
1513.000000	16.585087
1512.000000	16.559594
1511.000000	16.520040
1510.000000	16.510322
1509.000000	16.490888
1508.000000	16.460822
1507.000000	16.430642
1506.000000	16.403434
1505.000000	16.375654
1504.000000	16.348332
1503.000000	16.334728
1502.000000	16.323068
1501.000000	16.298832
1500.000000	16.261221
1499.000000	16.232412
1498.000000	16.238700
1497.000000	16.232184
1496.000000	16.183141
1495.000000	16.166450
1494.000000	16.170451
1493.000000	16.165993
1492.000000	16.156733
1491.000000	16.151589
1490.000000	16.151817
1489.000000	16.151360
1488.000000	16.134327
1487.000000	16.137985
1486.000000	16.114549
1485.000000	16.094772
1484.000000	16.114321
1483.000000	16.111463
1482.000000	16.134670
1481.000000	16.149302
1480.000000	16.162678
1479.000000	16.144958
1478.000000	16.150103
1477.000000	16.178454
1476.000000	16.183598
1475.000000	16.182226
1474.000000	16.207720
1473.000000	16.217780
1472.000000	16.242587
1471.000000	16.249217
1470.000000	16.266365
1469.000000	16.271853
1468.000000	16.277226
1467.000000	16.299975
1466.000000	16.350390
1465.000000	16.367538
1464.000000	16.383542
1463.000000	16.412580
1462.000000	16.447790
1461.000000	16.511123
1460.000000	16.546104
1459.000000	16.592061
1458.000000	16.642475
1457.000000	16.700207
1456.000000	16.748564
1455.000000	16.821271
1454.000000	16.885518
1453.000000	16.956282
1452.000000	17.058140
1451.000000	17.154625
1450.000000	17.180004
1449.000000	17.258199
1448.000000	17.338794
1447.000000	17.421332
1446.000000	17.556572
1445.000000	17.642768
1444.000000	17.679465
1443.000000	17.805902
1442.000000	17.916563
1441.000000	18.007675
1440.000000	18.124738
1439.000000	18.207162
1438.000000	18.319081
1437.000000	18.393160
1436.000000	18.505193
1435.000000	18.647177
1434.000000	18.744120
1433.000000	18.853752
1432.000000	18.966013
1431.000000	19.111885
1430.000000	19.201397
1429.000000	19.375276
1428.000000	19.527092
1427.000000	19.661760
1426.000000	19.848215
1425.000000	20.050102
1424.000000	20.236557
1423.000000	20.435472
1422.000000	20.637017
1421.000000	20.845421
1420.000000	21.067200
1419.000000	21.282463
1418.000000	21.434394
1417.000000	21.644398
1416.000000	21.880696
1415.000000	22.118823
1414.000000	22.346661
1413.000000	22.543404
1412.000000	22.741862
1411.000000	23.045494
1410.000000	23.338151
1409.000000	23.679737
1408.000000	24.032755
1407.000000	24.382343
1406.000000	24.759482
1405.000000	25.141079
1404.000000	25.522677
1403.000000	25.896272
1402.000000	26.284729
1401.000000	26.710339
1400.000000	27.041751
1399.000000	27.287308
1398.000000	27.539039
1397.000000	27.848615
1396.000000	28.161164
1395.000000	28.348190
1394.000000	28.545162
1393.000000	28.749108
1392.000000	28.993408
1391.000000	29.224790
1390.000000	29.504758
1389.000000	29.849544
1388.000000	30.251376
1387.000000	30.633317
1386.000000	31.083735
1385.000000	31.572906
1384.000000	32.081055
1383.000000	32.588175
1382.000000	32.978690
1381.000000	33.266088
1380.000000	33.462260
1379.000000	33.619106
1378.000000	33.722793
1377.000000	33.885127
1376.000000	34.064379
1375.000000	34.343204
1374.000000	34.688791
1373.000000	35.089251
1372.000000	35.514861
1371.000000	35.952132
1370.000000	36.318640
1369.000000	36.702409
1368.000000	37.043309
1367.000000	37.331393
1366.000000	37.577751
1365.000000	37.816450
1364.000000	38.023482
1363.000000	38.233372
1362.000000	38.415254
1361.000000	38.522943
1360.000000	38.580788
1359.000000	38.698994
1358.000000	38.849667
1357.000000	39.114201
1356.000000	39.500143
1355.000000	40.031041
1354.000000	40.613726
1353.000000	41.195383
1352.000000	41.876954
1351.000000	42.491305
1350.000000	43.036608
1349.000000	43.551387
1348.000000	44.033928
1347.000000	44.457595
1346.000000	44.822388
1345.000000	45.224449
1344.000000	45.609704
1343.000000	45.962722
1342.000000	46.287046
1341.000000	46.613427
1340.000000	46.917973
1339.000000	47.218061
1338.000000	47.505574
1337.000000	47.773424
1336.000000	48.041159
1335.000000	48.296663
1334.000000	48.556625
1333.000000	48.804469
1332.000000	49.018932
1331.000000	49.217961
1330.000000	49.430938
1329.000000	49.615564
1328.000000	49.800989
1327.000000	49.979213
1326.000000	50.146005
1325.000000	50.309138
1324.000000	50.463926
1323.000000	50.619058
1322.000000	50.752925
1321.000000	50.874218
1320.000000	51.011172
1319.000000	51.127892
1318.000000	51.251357
1317.000000	51.377565
1316.000000	51.485940
1315.000000	51.585398
1314.000000	51.673538
1313.000000	51.769795
1312.000000	51.861822
1311.000000	51.925726
1310.000000	51.997061
1309.000000	52.068625
1308.000000	52.131501
1307.000000	52.173799
1306.000000	52.211067
1305.000000	52.258852
1304.000000	52.288804
1303.000000	52.315440
1302.000000	52.337961
1301.000000	52.348250
1300.000000	52.369970
1299.000000	52.383231
1298.000000	52.387233
1297.000000	52.376487
1296.000000	52.372600
1295.000000	52.384375
1294.000000	52.374543
1293.000000	52.347564
1292.000000	52.331788
1291.000000	52.299207
1290.000000	52.265597
1289.000000	52.237932
1288.000000	52.192890
1287.000000	52.147620
1286.000000	52.082572
1285.000000	52.015695
1284.000000	51.952820
1283.000000	51.887772
1282.000000	51.810492
1281.000000	51.746016
1280.000000	51.698574
1279.000000	51.622666
1278.000000	51.547672
1277.000000	51.502974
1276.000000	51.444557
1275.000000	51.393113
1274.000000	51.341098
1273.000000	51.297428
1272.000000	51.256273
1271.000000	51.215918
1270.000000	51.182194
1269.000000	51.136352
1268.000000	51.091653
1267.000000	51.037123
1266.000000	50.995625
1265.000000	50.962358
1264.000000	50.904970
1263.000000	50.853526
1262.000000	50.805055
1261.000000	50.737835
1260.000000	50.685706
1259.000000	50.634491
1258.000000	50.584990
1257.000000	50.507939
1256.000000	50.438662
1255.000000	50.358181
1254.000000	50.269584
1253.000000	50.166696
1252.000000	50.096619
1251.000000	50.009736
1250.000000	49.898161
1249.000000	49.797331
1248.000000	49.687013
1247.000000	49.549830
1246.000000	49.403044
1245.000000	49.254886
1244.000000	49.099412
1243.000000	48.949197
1242.000000	48.779319
1241.000000	48.602467
1240.000000	48.422300
1239.000000	48.250364
1238.000000	48.060365
1237.000000	47.858363
1236.000000	47.673738
1235.000000	47.477794
1234.000000	47.270762
1233.000000	47.057214
1232.000000	46.831434
1231.000000	46.604053
1230.000000	46.379073
1229.000000	46.139688
1228.000000	45.917680
1227.000000	45.690185
1226.000000	45.458460
1225.000000	45.229707
1224.000000	44.995124
1223.000000	44.769115
1222.000000	44.545278
1221.000000	44.311381
1220.000000	44.095775
1219.000000	43.905434
1218.000000	43.701945
1217.000000	43.511261
1216.000000	43.316232
1215.000000	43.142124
1214.000000	42.959442
1213.000000	42.810256
1212.000000	42.661069
1211.000000	42.512340
1210.000000	42.331144
1209.000000	42.220254
1208.000000	42.108679
1207.000000	42.022825
1206.000000	41.938457
1205.000000	41.874667
1204.000000	41.833855
1203.000000	41.801503
1202.000000	41.749488
1201.000000	41.691871
1200.000000	41.604188
1199.000000	41.500615
1198.000000	41.351543
1197.000000	41.155828
1196.000000	40.879633
1195.000000	40.540676
1194.000000	40.123526
1193.000000	39.624751
1192.000000	39.060243
1191.000000	38.522257
1190.000000	37.986785
1189.000000	37.547457
1188.000000	37.225191
1187.000000	37.128363
1186.000000	37.145968
1185.000000	37.325220
1184.000000	37.658689
1183.000000	38.161465
1182.000000	38.741864
1181.000000	39.386053
1180.000000	40.018238
1179.000000	40.604924
1178.000000	41.107585
1177.000000	41.604645
1176.000000	42.022139
1175.000000	42.365097
1174.000000	42.774131
1173.000000	43.171619
1172.000000	43.604203
1171.000000	44.031756
1170.000000	44.462854
1169.000000	44.918645
1168.000000	45.349399
1167.000000	45.825425
1166.000000	46.253779
1165.000000	46.692307
1164.000000	47.189824
1163.000000	47.619436
1162.000000	48.053392
1161.000000	48.499808
1160.000000	48.924847
1159.000000	49.345770
1158.000000	49.684955
1157.000000	50.046661
1156.000000	50.311425
1155.000000	50.523715
1154.000000	50.665357
1153.000000	50.768015
1152.000000	50.835235
1151.000000	50.842323
1150.000000	50.862672
1149.000000	50.858099
1148.000000	50.911600
1147.000000	51.026834
1146.000000	51.196255
1145.000000	51.454388
1144.000000	51.787743
1143.000000	52.193805
1142.000000	52.581690
1141.000000	52.999526
1140.000000	53.393585
1139.000000	53.840573
1138.000000	54.267784
1137.000000	54.720145
1136.000000	55.178336
1135.000000	55.620980
1134.000000	56.000748
1133.000000	56.330216
1132.000000	56.688150
1131.000000	56.978063
1130.000000	57.248771
1129.000000	57.436941
1128.000000	57.609448
1127.000000	57.760464
1126.000000	57.869067
1125.000000	57.951720
1124.000000	58.042718
1123.000000	58.116568
1122.000000	58.143205
1121.000000	58.200479
1120.000000	58.212139
1119.000000	58.231002
1118.000000	58.258553
1117.000000	58.253180
1116.000000	58.243806
1115.000000	58.228372
1114.000000	58.225514
1113.000000	58.184817
1112.000000	58.190533
1111.000000	58.179787
1110.000000	58.168812
1109.000000	58.157837
1108.000000	58.140918
1107.000000	58.120569
1106.000000	58.114739
1105.000000	58.103764
1104.000000	58.091532
1103.000000	58.073584
1102.000000	58.058380
1101.000000	58.031400
1100.000000	58.009108
1099.000000	57.985901
1098.000000	57.968296
1097.000000	57.929999
1096.000000	57.857750
1095.000000	57.826312
1094.000000	57.801847
1093.000000	57.761721
1092.000000	57.739086
1091.000000	57.708563
1090.000000	57.667065
1089.000000	57.641343
1088.000000	57.586813
1087.000000	57.560405
1086.000000	57.517650
1085.000000	57.487241
1084.000000	57.439684
1083.000000	57.384697
1082.000000	57.346743
1081.000000	57.303301
1080.000000	57.273350
1079.000000	57.230137
1078.000000	57.192869
1077.000000	57.156973
1076.000000	57.121191
1075.000000	57.092154
1074.000000	57.057744
1073.000000	57.030650
1072.000000	56.986409
1071.000000	56.940109
1070.000000	56.903184
1069.000000	56.868431
1068.000000	56.824190
1067.000000	56.786807
1066.000000	56.736507
1065.000000	56.694437
1064.000000	56.672831
1063.000000	56.624931
1062.000000	56.575545
1061.000000	56.531304
1060.000000	56.492207
1059.000000	56.449794
1058.000000	56.377202
1057.000000	56.310553
1056.000000	56.257967
1055.000000	56.207323
1054.000000	56.157823
1053.000000	56.112781
1052.000000	56.072769
1051.000000	56.031958
1050.000000	55.986230
1049.000000	55.957879
1048.000000	55.922211
1047.000000	55.875569
1046.000000	55.842073
1045.000000	55.794860
1044.000000	55.766394
1043.000000	55.747303
1042.000000	55.711178
1041.000000	55.685799
1040.000000	55.659506
1039.000000	55.609434
1038.000000	55.567136
1037.000000	55.525523
1036.000000	55.475223
1035.000000	55.424008
1034.000000	55.381138
1033.000000	55.344785
1032.000000	55.290826
1031.000000	55.245899
1030.000000	55.202572
1029.000000	55.133066
1028.000000	55.083222
1027.000000	55.038066
1026.000000	54.965359
1025.000000	54.909343
1024.000000	54.861100
1023.000000	54.797196
1022.000000	54.754669
1021.000000	54.715343
1020.000000	54.670416
1019.000000	54.621944
1018.000000	54.582847
1017.000000	54.538263
1016.000000	54.500423
1015.000000	54.494021
1014.000000	54.493564
1013.000000	54.501909
1012.000000	54.512655
1011.000000	54.526488
1010.000000	54.564328
1009.000000	54.603882
1008.000000	54.639664
1007.000000	54.702425
1006.000000	54.755927
1005.000000	54.783706
1004.000000	54.851612
1003.000000	54.906028
1002.000000	54.948211
1001.000000	55.004799
1000.000000	55.057501
999.000000	55.114546
998.000000	55.171934
997.000000	55.236410
996.000000	55.295971
995.000000	55.363419
994.000000	55.438984
993.000000	55.506661
992.000000	55.573309
991.000000	55.664078
990.000000	55.769366
989.000000	55.857278
988.000000	55.956736
987.000000	56.055850
986.000000	56.154736
985.000000	56.260024
984.000000	56.376516
983.000000	56.489463
982.000000	56.585720
981.000000	56.717301
980.000000	56.838822
979.000000	56.931764
978.000000	57.045512
977.000000	57.155944
976.000000	57.274264
975.000000	57.377952
974.000000	57.478553
973.000000	57.608305
972.000000	57.694273
971.000000	57.802991
970.000000	57.946347
969.000000	58.058151
968.000000	58.158638
967.000000	58.289533
966.000000	58.379045
965.000000	58.510055
964.000000	58.650782
963.000000	58.760300
962.000000	58.902284
961.000000	59.035466
960.000000	59.166933
959.000000	59.318635
958.000000	59.441871
957.000000	59.552189
956.000000	59.701718
955.000000	59.810665
954.000000	59.902006
953.000000	60.023070
952.000000	60.113382
951.000000	60.249650
950.000000	60.333904
949.000000	60.439077
948.000000	60.551682
947.000000	60.678805
946.000000	60.806956
945.000000	60.901727
944.000000	60.999699
943.000000	61.101443
942.000000	61.231195
941.000000	61.368264
940.000000	61.496987
939.000000	61.626739
938.000000	61.711336
937.000000	61.823140
936.000000	61.943861
935.000000	62.071898
934.000000	62.221657
933.000000	62.335290
932.000000	62.468472
931.000000	62.591822
930.000000	62.726947
929.000000	62.853956
928.000000	62.993997
927.000000	63.126493
926.000000	63.250529
925.000000	63.365877
924.000000	63.488771
923.000000	63.631441
922.000000	63.802805
921.000000	63.923755
920.000000	64.053507
919.000000	64.150336
918.000000	64.264198
917.000000	64.359883
916.000000	64.489750
915.000000	64.579376
914.000000	64.688436
913.000000	64.785608
912.000000	64.949427
911.000000	65.026707
910.000000	65.087982
909.000000	65.199215
908.000000	65.302445
907.000000	65.419393
906.000000	65.567665
905.000000	65.700733
904.000000	65.830485
903.000000	65.962524
902.000000	66.137775
901.000000	66.250265
900.000000	66.363098
899.000000	66.503482
898.000000	66.548524
897.000000	66.671532
896.000000	66.793282
895.000000	66.889195
894.000000	66.956415
893.000000	67.067533
892.000000	67.113718
891.000000	67.083424
890.000000	67.141726
889.000000	67.147214
888.000000	67.075193
887.000000	67.075879
886.000000	67.120006
885.000000	67.116005
884.000000	66.982251
883.000000	66.938810
882.000000	66.817174
881.000000	66.792939
880.000000	66.731549
879.000000	66.592423
878.000000	66.493994
877.000000	66.321372
876.000000	66.220771
875.000000	66.005508
874.000000	65.875298
873.000000	65.621281
872.000000	65.299587
871.000000	65.073463
870.000000	64.697468
869.000000	64.324787
868.000000	63.990632
867.000000	63.644588
866.000000	63.455046
865.000000	63.528096
864.000000	63.625954
863.000000	63.749190
862.000000	63.843617
861.000000	63.934844
860.000000	64.038189
859.000000	64.116726
858.000000	65.767267
857.000000	65.534200
856.000000	65.714100
855.000000	66.053500
854.000000	66.509600
853.000000	65.989000
852.000000	66.026300
851.000000	66.315500
850.000000	65.960300
849.000000	66.068600
848.000000	66.264500
847.000000	66.466600
846.000000	65.966400
845.000000	66.255500
844.000000	66.297200
843.000000	66.267700
842.000000	66.093400
841.000000	66.153500
840.000000	66.156000
839.000000	66.168800
838.000000	66.023800
837.000000	65.945200
836.000000	66.106400
835.000000	66.091000
834.000000	65.985600
833.000000	66.074300
832.000000	66.003900
831.000000	65.987600
830.000000	65.965500
829.000000	65.966300
828.000000	65.912100
827.000000	65.877400
826.000000	65.659400
825.000000	65.695000
824.000000	65.578200
823.000000	65.529200
822.000000	65.532000
821.000000	65.348100
820.000000	65.263600
819.000000	65.083300
818.000000	65.093000
817.000000	64.863800
816.000000	64.782700
815.000000	64.764400
814.000000	64.745100
813.000000	64.621300
812.000000	64.578500
811.000000	64.474400
810.000000	64.344200
809.000000	64.324900
808.000000	64.224800
807.000000	64.209100
806.000000	64.108800
805.000000	64.064000
804.000000	63.971300
803.000000	63.839800
802.000000	63.861500
801.000000	63.843800
800.000000	63.827800
799.000000	63.754500
798.000000	63.748200
797.000000	63.713700
796.000000	63.593700
795.000000	63.469500
794.000000	63.538300
793.000000	63.398900
792.000000	63.334300
791.000000	63.351500
790.000000	63.294400
789.000000	63.220800
788.000000	63.213600
787.000000	63.147100
786.000000	63.098500
785.000000	63.049700
784.000000	63.028800
783.000000	63.055700
782.000000	63.045700
781.000000	63.016500
780.000000	62.960400
779.000000	62.910300
778.000000	62.843000
777.000000	62.856900
776.000000	62.838100
775.000000	62.702600
774.000000	62.764700
773.000000	62.736000
772.000000	62.626700
771.000000	62.535200
770.000000	62.385500
769.000000	62.363900
768.000000	62.372400
767.000000	62.284900
766.000000	62.207800
765.000000	62.188500
764.000000	62.139100
763.000000	62.103100
762.000000	62.073900
761.000000	62.040000
760.000000	61.912400
759.000000	61.838000
758.000000	61.816000
757.000000	61.713500
756.000000	61.690800
755.000000	61.626100
754.000000	61.521400
753.000000	61.441600
752.000000	61.364700
751.000000	61.277900
750.000000	61.197900
749.000000	61.163400
748.000000	61.108900
747.000000	61.034100
746.000000	61.016300
745.000000	61.004900
744.000000	60.904200
743.000000	60.841000
742.000000	60.836600
741.000000	60.718700
740.000000	60.674700
739.000000	60.651800
738.000000	60.606400
737.000000	60.561500
736.000000	60.482800
735.000000	60.417700
734.000000	60.370500
733.000000	60.273900
732.000000	60.179100
731.000000	60.099500
730.000000	60.054000
729.000000	60.007900
728.000000	59.985300
727.000000	59.967700
726.000000	59.906100
725.000000	59.834100
724.000000	59.795200
723.000000	59.767600
722.000000	59.757100
721.000000	59.708900
720.000000	59.640400
719.000000	59.573700
718.000000	59.506900
717.000000	59.438100
716.000000	59.389700
715.000000	59.320700
714.000000	59.215300
713.000000	59.083300
712.000000	58.975800
711.000000	58.912600
710.000000	58.804000
709.000000	58.683000
708.000000	58.604400
707.000000	58.520900
706.000000	58.457400
705.000000	58.339000
704.000000	58.155600
703.000000	58.014900
702.000000	57.867600
701.000000	57.743900
700.000000	57.631900
699.000000	57.441700
698.000000	57.271400
697.000000	57.074300
696.000000	56.877000
695.000000	56.738400
694.000000	56.604100
693.000000	56.414500
692.000000	56.228800
691.000000	56.045800
690.000000	55.810400
689.000000	55.610100
688.000000	55.372000
687.000000	55.111000
686.000000	54.901300
685.000000	54.691300
684.000000	54.447500
683.000000	54.243700
682.000000	54.020600
681.000000	53.853000
680.000000	53.649800
679.000000	53.506500
678.000000	53.348900
677.000000	53.195400
676.000000	53.049500
675.000000	52.946500
674.000000	52.840000
673.000000	52.778100
672.000000	52.644200
671.000000	52.510400
670.000000	52.339900
669.000000	52.223100
668.000000	52.144900
667.000000	52.046900
666.000000	51.939800
665.000000	51.817200
664.000000	51.695100
663.000000	51.612100
662.000000	51.600400
661.000000	51.553700
660.000000	51.473500
659.000000	51.467100
658.000000	51.457000
657.000000	51.429900
656.000000	51.371600
655.000000	51.331900
654.000000	51.289200
653.000000	51.216400
652.000000	51.091100
651.000000	50.924200
650.000000	50.783100
649.000000	50.647700
648.000000	50.491100
647.000000	50.275300
646.000000	50.039500
645.000000	49.827400
644.000000	49.557900
643.000000	49.315200
642.000000	49.063800
641.000000	48.877400
640.000000	48.655200
639.000000	48.439900
638.000000	48.260300
637.000000	48.097900
636.000000	47.956600
635.000000	47.824200
634.000000	47.725300
633.000000	47.602400
632.000000	47.459800
631.000000	47.368500
630.000000	47.283500
629.000000	47.171000
628.000000	47.099300
627.000000	47.074100
626.000000	47.098700
625.000000	47.129600
624.000000	47.236300
623.000000	47.400800
622.000000	47.634600
621.000000	47.921700
620.000000	48.308700
619.000000	48.766200
618.000000	49.311900
617.000000	49.855000
616.000000	50.479400
615.000000	51.194700
614.000000	51.880400
613.000000	52.603500
612.000000	53.343600
611.000000	53.995700
610.000000	54.647600
609.000000	55.265600
608.000000	55.814700
607.000000	56.334500
606.000000	56.820500
605.000000	57.305300
604.000000	57.685900
603.000000	58.142200
602.000000	58.587100
601.000000	58.993900
600.000000	59.433500
599.000000	59.927000
598.000000	60.387500
597.000000	60.828100
596.000000	61.327200
595.000000	61.850700
594.000000	62.324000
593.000000	62.830400
592.000000	63.349100
591.000000	63.805200
590.000000	64.331700
589.000000	64.717000
588.000000	65.078900
587.000000	65.430000
586.000000	65.735700
585.000000	65.934600
584.000000	66.110000
583.000000	66.232600
582.000000	66.303500
581.000000	66.398300
580.000000	66.454900
579.000000	66.473900
578.000000	66.564200
577.000000	66.613400
576.000000	66.684200
575.000000	66.801800
574.000000	66.906200
573.000000	67.075900
572.000000	67.178500
571.000000	67.292700
570.000000	67.416700
569.000000	67.506000
568.000000	67.637300
567.000000	67.643600
566.000000	67.710500
565.000000	67.680900
564.000000	67.664600
563.000000	67.607900
562.000000	67.519800
561.000000	67.397900
560.000000	67.289900
559.000000	67.056500
558.000000	66.929100
557.000000	66.799600
556.000000	66.634800
555.000000	66.438800
554.000000	66.230100
553.000000	65.991900
552.000000	65.672500
551.000000	65.355700
550.000000	64.953600
549.000000	64.544400
548.000000	64.062200
547.000000	63.527800
546.000000	62.978600
545.000000	62.344700
544.000000	61.720100
543.000000	61.022400
542.000000	60.294000
541.000000	59.559600
540.000000	58.776500
539.000000	57.978600
538.000000	57.156800
537.000000	56.272700
536.000000	55.370700
535.000000	54.438400
534.000000	53.463400
533.000000	52.480000
532.000000	51.470800
531.000000	50.488700
530.000000	49.495700
529.000000	48.505200
528.000000	47.527200
527.000000	46.578400
526.000000	45.634000
525.000000	44.671900
524.000000	43.744100
523.000000	42.830800
522.000000	41.940700
521.000000	41.075500
520.000000	40.213600
519.000000	39.366200
518.000000	38.513100
517.000000	37.697100
516.000000	36.886000
515.000000	36.094000
514.000000	35.295700
513.000000	34.515100
512.000000	33.734300
511.000000	32.941500
510.000000	32.148100
509.000000	31.382900
508.000000	30.601300
507.000000	29.861300
506.000000	29.143100
505.000000	28.422800
504.000000	27.727800
503.000000	27.055900
502.000000	26.378700
501.000000	25.753600
500.000000	25.159300
499.000000	24.616300
498.000000	24.122800
497.000000	23.655700
496.000000	23.237100
495.000000	22.856200
494.000000	22.511900
493.000000	22.224300
492.000000	21.990900
491.000000	21.774200
490.000000	21.591700
489.000000	21.442400
488.000000	21.317900
487.000000	21.219600
486.000000	21.111600
485.000000	21.008900
484.000000	20.956800
483.000000	20.891200
482.000000	20.818800
481.000000	20.750800
480.000000	20.661200
479.000000	20.584200
478.000000	20.519200
477.000000	20.449200
476.000000	20.381300
475.000000	20.292500
474.000000	20.185600
473.000000	20.093100
472.000000	19.996800
471.000000	19.901800
470.000000	19.797700
469.000000	19.687100
468.000000	19.571700
467.000000	19.443400
466.000000	19.302800
465.000000	19.176900
464.000000	19.061900
463.000000	18.931200
462.000000	18.777800
461.000000	18.633100
460.000000	18.480800
459.000000	18.314300
458.000000	18.173900
457.000000	18.019400
456.000000	17.830500
455.000000	17.653400
454.000000	17.465400
453.000000	17.300300
452.000000	17.097600
451.000000	16.866600
450.000000	16.652100
449.000000	16.453300
448.000000	16.241500
447.000000	15.998400
446.000000	15.763100
445.000000	15.509400
444.000000	15.232700
443.000000	14.978900
442.000000	14.717800
441.000000	14.452100
440.000000	14.173300
439.000000	13.894000
438.000000	13.623100
437.000000	13.335700
436.000000	13.040300
435.000000	12.766700
434.000000	12.472000
433.000000	12.159300
432.000000	11.874200
431.000000	11.595700
430.000000	11.318600
429.000000	11.034300
428.000000	10.756900
427.000000	10.496800
426.000000	10.215900
425.000000	9.937800
424.000000	9.672600
423.000000	9.417200
422.000000	9.180900
421.000000	8.934300
420.000000	8.698400
419.000000	8.462900
418.000000	8.235800
417.000000	8.022100
416.000000	7.814500
415.000000	7.624400
414.000000	7.446200
413.000000	7.273200
412.000000	7.104000
411.000000	6.954700
410.000000	6.824200
409.000000	6.686000
408.000000	6.561800
407.000000	6.448000
406.000000	6.328600
405.000000	6.221300
404.000000	6.134300
403.000000	6.045400
402.000000	5.967900
401.000000	5.885900
400.000000	5.808000
399.000000	5.751000
398.000000	5.704600
397.000000	5.653600
396.000000	5.616500
395.000000	5.559200
394.000000	5.520200
393.000000	5.485500
392.000000	5.448100
391.000000	5.413700
390.000000	5.393600
389.000000	5.374300
388.000000	5.329900
387.000000	5.319600
386.000000	5.310100
385.000000	5.284900
384.000000	5.277400
383.000000	5.244100
382.000000	5.217500
381.000000	5.213400
380.000000	5.202300
379.000000	5.182900
378.000000	5.166900
377.000000	5.164500
376.000000	5.043100
375.000000	4.817400
374.000000	4.828200
373.000000	4.946100
372.000000	4.869200
371.000000	4.965200
370.000000	4.925800
369.000000	4.893400
368.000000	5.034400
367.000000	5.026200
366.000000	5.101400
365.000000	5.128300
364.000000	5.080100
363.000000	5.152300
362.000000	5.013100
361.000000	4.969500
360.000000	5.046200
359.000000	5.098900
358.000000	5.121100
357.000000	5.036700
356.000000	5.172200
355.000000	5.145300
354.000000	5.107600
353.000000	5.083500
352.000000	5.116000
351.000000	5.057800
350.000000	5.039800
349.000000	5.223900
348.000000	5.208200
347.000000	5.242200
346.000000	5.310900
345.000000	5.123300
344.000000	5.113700
343.000000	5.175000
342.000000	5.214900
341.000000	5.154500
340.000000	5.157200
339.000000	5.069500
338.000000	5.074800
337.000000	5.224500
336.000000	5.299200
335.000000	5.375300
334.000000	5.449500
333.000000	5.265300
332.000000	5.190000
331.000000	5.442000
330.000000	5.122600
329.000000	5.343300
328.000000	5.593800
327.000000	5.499500
326.000000	5.803300
325.000000	5.344100
324.000000	5.590700
323.000000	5.604500
322.000000	5.181700
321.000000	5.877900
320.000000	5.646800
319.000000	6.179200
318.000000	5.987900
317.000000	5.936700
316.000000	5.231400
315.000000	5.181700
314.000000	5.232600
313.000000	5.227100
312.000000	5.203700
311.000000	5.244400
310.000000	5.214300
309.000000	5.259700
308.000000	5.249000
307.000000	5.244300
306.000000	5.206100
305.000000	5.256500
304.000000	5.273100
303.000000	5.353400
302.000000	5.296700
301.000000	5.320300
300.000000	5.254300
299.000000	5.225100
298.000000	5.340700
297.000000	5.324700
296.000000	5.344200
295.000000	5.358900
294.000000	5.388000
293.000000	5.347500
292.000000	5.427200
291.000000	5.359600
290.000000	5.452900
289.000000	5.417500
288.000000	5.380400
287.000000	5.434200
286.000000	5.506000
285.000000	5.455900
284.000000	5.484200
283.000000	5.511500
282.000000	5.471400
281.000000	5.466700
280.000000	5.526500
279.000000	5.498100
278.000000	5.563400
277.000000	5.584500
276.000000	5.562000
275.000000	5.601400
274.000000	5.630000
273.000000	5.615300
272.000000	5.632000
271.000000	5.657100
270.000000	5.665600
269.000000	5.737100
268.000000	5.720000
267.000000	5.699300
266.000000	5.772300
265.000000	5.752900
264.000000	5.835600
263.000000	5.849800
262.000000	5.857900
261.000000	5.856500
260.000000	5.928100
259.000000	5.941100
258.000000	5.972600
257.000000	5.982000
256.000000	5.958800
255.000000	6.029600
254.000000	5.979600
253.000000	5.977700
252.000000	6.056800
251.000000	6.039100
250.000000	6.071500
