PE UV       SUBTECH     SPECTRUM    ASCII       PEDS        4.00        
   -1
CICIMAUCR0116-1.Sample.ASC
24/04/19
09:46:45.00
24/04/19
09:46:45.00
Vinicio Soto Monge
C. kalinini
250,000000
1
Lambda 1050
1050L1511233
PerkinElmer UV WinLab 6.3.2.0749 / 2.02.05 Lambda 900 UV/VIS/NIR, Aug  7 2015 09:38:08

0
0
3350/servo 860,8/2
0
0
UV/VIS
1
1
1
DoubleDePol,CommonBeamDepol,RBeamAtt,SBeamAtt,60mm sphere, WB InGaAs Detector
0
0
0
0
Program
Program
3350/servo 860,8/2
3350/0,2 860,8/0,2
3350/0,2 860,8/0,2
0
15.00
 
 
 
0
 
860,8
319,2
860,8
Front
100
on
S:100 R:100
0
0
0
0
 
0
 
 
 
0
 
 
0
0
0
0
0
 
 
 
 
0
0


0
0
#HDR
-1
-1
#GR
nm
%R
1.0
0.0
2500,000000
-1,000000
2251
8
96,409700
5,351700
#DATA
2482.000000	10.467546
2481.000000	10.474253
2480.000000	10.429293
2479.000000	10.430550
2478.000000	10.432227
2477.000000	10.496576
2476.000000	10.499196
2475.000000	10.482114
2474.000000	10.505799
2473.000000	10.496157
2472.000000	10.511039
2471.000000	10.509886
2470.000000	10.514288
2469.000000	10.605677
2468.000000	10.611231
2467.000000	10.664157
2466.000000	10.647598
2465.000000	10.679249
2464.000000	10.738777
2463.000000	10.772733
2462.000000	10.802183
2461.000000	10.862759
2460.000000	10.959388
2459.000000	11.003091
2458.000000	11.058741
2457.000000	11.125082
2456.000000	11.210182
2455.000000	11.284802
2454.000000	11.391492
2453.000000	11.462863
2452.000000	11.552679
2451.000000	11.648994
2450.000000	11.759247
2449.000000	11.857028
2448.000000	11.943491
2447.000000	12.045465
2446.000000	12.142093
2445.000000	12.245115
2444.000000	12.347403
2443.000000	12.451158
2442.000000	12.555857
2441.000000	12.647350
2440.000000	12.755612
2439.000000	12.848363
2438.000000	12.940380
2437.000000	13.024118
2436.000000	13.132589
2435.000000	13.222406
2434.000000	13.313690
2433.000000	13.375314
2432.000000	13.464502
2431.000000	13.528851
2430.000000	13.580414
2429.000000	13.668134
2428.000000	13.755436
2427.000000	13.804169
2426.000000	13.894405
2425.000000	13.963575
2424.000000	14.029496
2423.000000	14.089758
2422.000000	14.162177
2421.000000	14.227679
2420.000000	14.260902
2419.000000	14.307854
2418.000000	14.351452
2417.000000	14.426386
2416.000000	14.478159
2415.000000	14.512535
2414.000000	14.541565
2413.000000	14.586735
2412.000000	14.630229
2411.000000	14.667958
2410.000000	14.701181
2409.000000	14.746561
2408.000000	14.784185
2407.000000	14.815731
2406.000000	14.840779
2405.000000	14.894962
2404.000000	14.923573
2403.000000	14.954176
2402.000000	14.989390
2401.000000	15.018840
2400.000000	15.044936
2399.000000	15.068516
2398.000000	15.114211
2397.000000	15.138315
2396.000000	15.161582
2395.000000	15.207066
2394.000000	15.240184
2393.000000	15.258106
2392.000000	15.274140
2391.000000	15.299188
2390.000000	15.317110
2389.000000	15.317005
2388.000000	15.314909
2387.000000	15.324656
2386.000000	15.347398
2385.000000	15.337127
2384.000000	15.334088
2383.000000	15.333250
2382.000000	15.313546
2381.000000	15.298036
2380.000000	15.275084
2379.000000	15.263136
2378.000000	15.235573
2377.000000	15.197948
2376.000000	15.182962
2375.000000	15.166717
2374.000000	15.134228
2373.000000	15.098280
2372.000000	15.069355
2371.000000	15.023032
2370.000000	14.973669
2369.000000	14.927241
2368.000000	14.880080
2367.000000	14.829774
2366.000000	14.780202
2365.000000	14.728115
2364.000000	14.660622
2363.000000	14.582439
2362.000000	14.504989
2361.000000	14.437915
2360.000000	14.370107
2359.000000	14.304081
2358.000000	14.256605
2357.000000	14.199382
2356.000000	14.137758
2355.000000	14.095732
2354.000000	14.077706
2353.000000	14.066387
2352.000000	14.058736
2351.000000	14.059784
2350.000000	14.071942
2349.000000	14.086509
2348.000000	14.111138
2347.000000	14.145304
2346.000000	14.199592
2345.000000	14.243400
2344.000000	14.272640
2343.000000	14.310893
2342.000000	14.360570
2341.000000	14.388448
2340.000000	14.406055
2339.000000	14.431522
2338.000000	14.437915
2337.000000	14.434771
2336.000000	14.425338
2335.000000	14.403015
2334.000000	14.377129
2333.000000	14.353234
2332.000000	14.330282
2331.000000	14.294649
2330.000000	14.226526
2329.000000	14.182719
2328.000000	14.122038
2327.000000	14.052867
2326.000000	13.980239
2325.000000	13.893566
2324.000000	13.793794
2323.000000	13.701567
2322.000000	13.590894
2321.000000	13.477602
2320.000000	13.359803
2319.000000	13.228694
2318.000000	13.100729
2317.000000	12.965952
2316.000000	12.827297
2315.000000	12.675542
2314.000000	12.551036
2313.000000	12.447281
2312.000000	12.336503
2311.000000	12.230547
2310.000000	12.155718
2309.000000	12.105412
2308.000000	12.064958
2307.000000	12.029535
2306.000000	12.008469
2305.000000	12.040434
2304.000000	12.081727
2303.000000	12.135805
2302.000000	12.199421
2301.000000	12.286827
2300.000000	12.370145
2299.000000	12.474215
2298.000000	12.568643
2297.000000	12.674075
2296.000000	12.770704
2295.000000	12.863245
2294.000000	12.939961
2293.000000	13.005987
2292.000000	13.069183
2291.000000	13.121690
2290.000000	13.164240
2289.000000	13.175559
2288.000000	13.179646
2287.000000	13.194423
2286.000000	13.175664
2285.000000	13.159419
2284.000000	13.138249
2283.000000	13.121480
2282.000000	13.066459
2281.000000	13.058389
2280.000000	13.020764
2279.000000	13.000537
2278.000000	12.948450
2277.000000	12.928118
2276.000000	12.922564
2275.000000	12.900031
2274.000000	12.884310
2273.000000	12.862826
2272.000000	12.886302
2271.000000	12.945201
2270.000000	12.989009
2269.000000	13.062581
2268.000000	13.132799
2267.000000	13.241690
2266.000000	13.404764
2265.000000	13.546143
2264.000000	13.728816
2263.000000	13.945758
2262.000000	14.181671
2261.000000	14.420622
2260.000000	14.680849
2259.000000	14.956482
2258.000000	15.267643
2257.000000	15.534996
2256.000000	15.839869
2255.000000	16.121685
2254.000000	16.421737
2253.000000	16.709631
2252.000000	16.965771
2251.000000	17.217823
2250.000000	17.477001
2249.000000	17.715429
2248.000000	17.923149
2247.000000	18.143970
2246.000000	18.323917
2245.000000	18.479445
2244.000000	18.646082
2243.000000	18.793750
2242.000000	18.936702
2241.000000	19.057959
2240.000000	19.155531
2239.000000	19.285278
2238.000000	19.369330
2237.000000	19.424981
2236.000000	19.526640
2235.000000	19.559548
2234.000000	19.623059
2233.000000	19.634168
2232.000000	19.675251
2231.000000	19.688980
2230.000000	19.696840
2229.000000	19.697364
2228.000000	19.684159
2227.000000	19.673993
2226.000000	19.629242
2225.000000	19.616771
2224.000000	19.562587
2223.000000	19.529470
2222.000000	19.473819
2221.000000	19.406221
2220.000000	19.372265
2219.000000	19.303723
2218.000000	19.227531
2217.000000	19.181837
2216.000000	19.112772
2215.000000	19.053348
2214.000000	18.999479
2213.000000	18.949907
2212.000000	18.891427
2211.000000	18.820056
2210.000000	18.787148
2209.000000	18.748161
2208.000000	18.698379
2207.000000	18.650799
2206.000000	18.637698
2205.000000	18.606467
2204.000000	18.563288
2203.000000	18.536563
2202.000000	18.509838
2201.000000	18.474310
2200.000000	18.451672
2199.000000	18.423690
2198.000000	18.397908
2197.000000	18.384703
2196.000000	18.383550
2195.000000	18.362799
2194.000000	18.347079
2193.000000	18.310502
2192.000000	18.298345
2191.000000	18.270153
2190.000000	18.264598
2189.000000	18.265856
2188.000000	18.244057
2187.000000	18.222363
2186.000000	18.203812
2185.000000	18.172791
2184.000000	18.149000
2183.000000	18.123952
2182.000000	18.107393
2181.000000	18.115568
2180.000000	18.092092
2179.000000	18.067463
2178.000000	18.062957
2177.000000	18.055935
2176.000000	18.052476
2175.000000	18.051428
2174.000000	18.065891
2173.000000	18.085909
2172.000000	18.096389
2171.000000	18.099323
2170.000000	18.135481
2169.000000	18.145332
2168.000000	18.167865
2167.000000	18.211149
2166.000000	18.252756
2165.000000	18.283882
2164.000000	18.331044
2163.000000	18.373699
2162.000000	18.411847
2161.000000	18.472843
2160.000000	18.518956
2159.000000	18.581838
2158.000000	18.644301
2157.000000	18.722484
2156.000000	18.803811
2155.000000	18.865960
2154.000000	18.953680
2153.000000	19.027776
2152.000000	19.098099
2151.000000	19.187601
2150.000000	19.278675
2149.000000	19.356230
2148.000000	19.439024
2147.000000	19.527374
2146.000000	19.599269
2145.000000	19.657120
2144.000000	19.744002
2143.000000	19.823757
2142.000000	19.887059
2141.000000	19.957277
2140.000000	20.045940
2139.000000	20.114587
2138.000000	20.162901
2137.000000	20.225364
2136.000000	20.278394
2135.000000	20.338446
2134.000000	20.396193
2133.000000	20.438010
2132.000000	20.483075
2131.000000	20.512839
2130.000000	20.541031
2129.000000	20.585049
2128.000000	20.619005
2127.000000	20.637136
2126.000000	20.664699
2125.000000	20.671302
2124.000000	20.681153
2123.000000	20.691110
2122.000000	20.705153
2121.000000	20.701485
2120.000000	20.688175
2119.000000	20.695092
2118.000000	20.695406
2117.000000	20.688699
2116.000000	20.665328
2115.000000	20.648769
2114.000000	20.628961
2113.000000	20.607896
2112.000000	20.574254
2111.000000	20.556228
2110.000000	20.534848
2109.000000	20.506027
2108.000000	20.486009
2107.000000	20.465363
2106.000000	20.445765
2105.000000	20.419459
2104.000000	20.389486
2103.000000	20.361189
2102.000000	20.326499
2101.000000	20.298307
2100.000000	20.281119
2099.000000	20.264979
2098.000000	20.251669
2097.000000	20.237940
2096.000000	20.218447
2095.000000	20.200001
2094.000000	20.187949
2093.000000	20.172543
2092.000000	20.171180
2091.000000	20.166779
2090.000000	20.155669
2089.000000	20.145084
2088.000000	20.131565
2087.000000	20.125172
2086.000000	20.110499
2085.000000	20.095408
2084.000000	20.065329
2083.000000	20.026237
2082.000000	19.996159
2081.000000	19.965766
2080.000000	19.918395
2079.000000	19.861801
2078.000000	19.807198
2077.000000	19.745679
2076.000000	19.679338
2075.000000	19.618028
2074.000000	19.552736
2073.000000	19.487024
2072.000000	19.401819
2071.000000	19.304352
2070.000000	19.220719
2069.000000	19.142221
2068.000000	19.054291
2067.000000	18.965418
2066.000000	18.879899
2065.000000	18.794169
2064.000000	18.715357
2063.000000	18.625436
2062.000000	18.534362
2061.000000	18.468546
2060.000000	18.402939
2059.000000	18.352109
2058.000000	18.309349
2057.000000	18.274555
2056.000000	18.265332
2055.000000	18.272563
2054.000000	18.305891
2053.000000	18.335550
2052.000000	18.403148
2051.000000	18.487305
2050.000000	18.588860
2049.000000	18.712423
2048.000000	18.850239
2047.000000	19.004195
2046.000000	19.179951
2045.000000	19.331496
2044.000000	19.529679
2043.000000	19.712037
2042.000000	19.896910
2041.000000	20.078115
2040.000000	20.277870
2039.000000	20.460647
2038.000000	20.633887
2037.000000	20.796542
2036.000000	20.950812
2035.000000	21.117135
2034.000000	21.250235
2033.000000	21.393397
2032.000000	21.535091
2031.000000	21.667248
2030.000000	21.760418
2029.000000	21.862811
2028.000000	21.984278
2027.000000	22.083526
2026.000000	22.190216
2025.000000	22.280242
2024.000000	22.375823
2023.000000	22.450652
2022.000000	22.532713
2021.000000	22.605971
2020.000000	22.680172
2019.000000	22.739490
2018.000000	22.800067
2017.000000	22.828573
2016.000000	22.861586
2015.000000	22.928451
2014.000000	22.968905
2013.000000	23.020259
2012.000000	23.052538
2011.000000	23.078529
2010.000000	23.085970
2009.000000	23.098232
2008.000000	23.109761
2007.000000	23.120660
2006.000000	23.104520
2005.000000	23.102634
2004.000000	23.084084
2003.000000	23.053376
2002.000000	23.034931
2001.000000	22.993638
2000.000000	22.946896
1999.000000	22.899106
1998.000000	22.837586
1997.000000	22.806145
1996.000000	22.732364
1995.000000	22.669063
1994.000000	22.616347
1993.000000	22.554093
1992.000000	22.458618
1991.000000	22.380015
1990.000000	22.292190
1989.000000	22.195876
1988.000000	22.125867
1987.000000	22.016662
1986.000000	21.907038
1985.000000	21.821099
1984.000000	21.730654
1983.000000	21.626374
1982.000000	21.522095
1981.000000	21.421589
1980.000000	21.328943
1979.000000	21.227807
1978.000000	21.121956
1977.000000	21.021554
1976.000000	20.918218
1975.000000	20.832384
1974.000000	20.719092
1973.000000	20.620367
1972.000000	20.548053
1971.000000	20.438638
1970.000000	20.345992
1969.000000	20.252193
1968.000000	20.180089
1967.000000	20.078849
1966.000000	19.976141
1965.000000	19.892403
1964.000000	19.806360
1963.000000	19.730482
1962.000000	19.613312
1961.000000	19.536701
1960.000000	19.447304
1959.000000	19.358116
1958.000000	19.241784
1957.000000	19.164859
1956.000000	19.074204
1955.000000	19.010064
1954.000000	18.907147
1953.000000	18.823200
1952.000000	18.717558
1951.000000	18.666519
1950.000000	18.553541
1949.000000	18.507218
1948.000000	18.450415
1947.000000	18.370869
1946.000000	18.336074
1945.000000	18.272563
1944.000000	18.245210
1943.000000	18.195638
1942.000000	18.192074
1941.000000	18.151201
1940.000000	18.144284
1939.000000	18.150782
1938.000000	18.135585
1937.000000	18.165454
1936.000000	18.162101
1935.000000	18.207166
1934.000000	18.254956
1933.000000	18.295201
1932.000000	18.369611
1931.000000	18.453768
1930.000000	18.544423
1929.000000	18.665785
1928.000000	18.766292
1927.000000	18.878327
1926.000000	19.009016
1925.000000	19.154483
1924.000000	19.306763
1923.000000	19.471828
1922.000000	19.665819
1921.000000	19.879617
1920.000000	20.115635
1919.000000	20.296839
1918.000000	20.510953
1917.000000	20.707773
1916.000000	20.946620
1915.000000	21.229275
1914.000000	21.560453
1913.000000	21.870881
1912.000000	22.163911
1911.000000	22.442478
1910.000000	22.689604
1909.000000	22.978232
1908.000000	23.317166
1907.000000	23.701899
1906.000000	24.131383
1905.000000	24.562859
1904.000000	24.927679
1903.000000	25.311783
1902.000000	25.700813
1901.000000	26.146646
1900.000000	26.603589
1899.000000	27.053300
1898.000000	27.512129
1897.000000	27.912163
1896.000000	28.292075
1895.000000	28.705000
1894.000000	29.145174
1893.000000	29.633243
1892.000000	30.159041
1891.000000	30.639250
1890.000000	31.094516
1889.000000	31.581956
1888.000000	32.021292
1887.000000	32.502339
1886.000000	33.021430
1885.000000	33.586319
1884.000000	34.151419
1883.000000	34.698912
1882.000000	35.218736
1881.000000	35.739399
1880.000000	36.197809
1879.000000	36.673930
1878.000000	37.142191
1877.000000	37.540549
1876.000000	37.939954
1875.000000	38.335691
1874.000000	38.685944
1873.000000	39.019952
1872.000000	39.326292
1871.000000	39.590502
1870.000000	39.824318
1869.000000	40.030780
1868.000000	40.193645
1867.000000	40.304841
1866.000000	40.404090
1865.000000	40.506797
1864.000000	40.622081
1863.000000	40.728456
1862.000000	40.826238
1861.000000	40.910919
1860.000000	40.995076
1859.000000	41.049469
1858.000000	41.070010
1857.000000	41.091914
1856.000000	41.100717
1855.000000	41.122621
1854.000000	41.118220
1853.000000	41.068962
1852.000000	41.062045
1851.000000	41.049364
1850.000000	41.032805
1849.000000	41.030394
1848.000000	41.001049
1847.000000	40.899285
1846.000000	40.802342
1845.000000	40.781277
1844.000000	40.755600
1843.000000	40.783268
1842.000000	40.797417
1841.000000	40.728875
1840.000000	40.657609
1839.000000	40.599653
1838.000000	40.564439
1837.000000	40.507531
1836.000000	40.442553
1835.000000	40.355461
1834.000000	40.257575
1833.000000	40.199618
1832.000000	40.155601
1831.000000	40.101418
1830.000000	40.030571
1829.000000	39.960248
1828.000000	39.890134
1827.000000	39.825680
1826.000000	39.763322
1825.000000	39.712073
1824.000000	39.682204
1823.000000	39.722449
1822.000000	39.744562
1821.000000	39.717209
1820.000000	39.677908
1819.000000	39.633471
1818.000000	39.622257
1817.000000	39.622886
1816.000000	39.628755
1815.000000	39.604545
1814.000000	39.596790
1813.000000	39.589244
1812.000000	39.568074
1811.000000	39.515672
1810.000000	39.470921
1809.000000	39.438222
1808.000000	39.394310
1807.000000	39.348930
1806.000000	39.299463
1805.000000	39.244127
1804.000000	39.196022
1803.000000	39.166363
1802.000000	39.141105
1801.000000	39.087760
1800.000000	39.009682
1799.000000	38.943341
1798.000000	38.907498
1797.000000	38.874485
1796.000000	38.841367
1795.000000	38.782154
1794.000000	38.723883
1793.000000	38.675045
1792.000000	38.633123
1791.000000	38.578521
1790.000000	38.525071
1789.000000	38.471621
1788.000000	38.423097
1787.000000	38.386311
1786.000000	38.332128
1785.000000	38.254678
1784.000000	38.182364
1783.000000	38.092757
1782.000000	38.015622
1781.000000	37.935343
1780.000000	37.852443
1779.000000	37.766924
1778.000000	37.659815
1777.000000	37.525562
1776.000000	37.421283
1775.000000	37.301807
1774.000000	37.158017
1773.000000	37.007309
1772.000000	36.874733
1771.000000	36.730419
1770.000000	36.558122
1769.000000	36.425756
1768.000000	36.310577
1767.000000	36.181878
1766.000000	36.090176
1765.000000	36.036935
1764.000000	35.992604
1763.000000	35.979713
1762.000000	36.009477
1761.000000	36.051713
1760.000000	36.111346
1759.000000	36.170245
1758.000000	36.234804
1757.000000	36.282070
1756.000000	36.332690
1755.000000	36.393372
1754.000000	36.399660
1753.000000	36.406053
1752.000000	36.382577
1751.000000	36.348830
1750.000000	36.304289
1749.000000	36.226001
1748.000000	36.137547
1747.000000	36.022473
1746.000000	35.881303
1745.000000	35.713408
1744.000000	35.524866
1743.000000	35.306666
1742.000000	35.062369
1741.000000	34.812623
1740.000000	34.558056
1739.000000	34.306004
1738.000000	34.061498
1737.000000	33.876834
1736.000000	33.713656
1735.000000	33.617760
1734.000000	33.545865
1733.000000	33.530355
1732.000000	33.552154
1731.000000	33.585481
1730.000000	33.661044
1729.000000	33.750651
1728.000000	33.802319
1727.000000	33.866983
1726.000000	33.950825
1725.000000	33.994424
1724.000000	34.040642
1723.000000	34.107297
1722.000000	34.223628
1721.000000	34.311034
1720.000000	34.438161
1719.000000	34.597986
1718.000000	34.754876
1717.000000	34.946143
1716.000000	35.111103
1715.000000	35.289164
1714.000000	35.457478
1713.000000	35.589635
1712.000000	35.713932
1711.000000	35.842421
1710.000000	35.905093
1709.000000	35.949530
1708.000000	35.992080
1707.000000	36.033058
1706.000000	36.043643
1705.000000	36.019748
1704.000000	35.993861
1703.000000	35.930770
1702.000000	35.821145
1701.000000	35.697687
1700.000000	35.583766
1699.000000	35.478229
1698.000000	35.348797
1697.000000	35.293461
1696.000000	35.254788
1695.000000	35.267260
1694.000000	35.321967
1693.000000	35.423102
1692.000000	35.536080
1691.000000	35.645600
1690.000000	35.727346
1689.000000	35.815800
1688.000000	35.869250
1687.000000	35.940621
1686.000000	36.039136
1685.000000	36.176953
1684.000000	36.418420
1683.000000	36.779991
1682.000000	37.218278
1681.000000	37.755815
1680.000000	38.309176
1679.000000	38.879097
1678.000000	39.392528
1677.000000	39.843602
1676.000000	40.278116
1675.000000	40.652264
1674.000000	41.004927
1673.000000	41.308333
1672.000000	41.593817
1671.000000	41.841782
1670.000000	42.097607
1669.000000	42.310462
1668.000000	42.509693
1667.000000	42.709448
1666.000000	42.857116
1665.000000	43.002478
1664.000000	43.134216
1663.000000	43.258199
1662.000000	43.364469
1661.000000	43.469796
1660.000000	43.563071
1659.000000	43.623019
1658.000000	43.705289
1657.000000	43.743752
1656.000000	43.784835
1655.000000	43.801709
1654.000000	43.809359
1653.000000	43.827490
1652.000000	43.827490
1651.000000	43.809778
1650.000000	43.800136
1649.000000	43.774040
1648.000000	43.746058
1647.000000	43.730337
1646.000000	43.692713
1645.000000	43.627421
1644.000000	43.591997
1643.000000	43.554478
1642.000000	43.506687
1641.000000	43.453447
1640.000000	43.412993
1639.000000	43.357133
1638.000000	43.312801
1637.000000	43.267316
1636.000000	43.206845
1635.000000	43.138932
1634.000000	43.066199
1633.000000	42.990007
1632.000000	42.927439
1631.000000	42.836156
1630.000000	42.773483
1629.000000	42.681675
1628.000000	42.604750
1627.000000	42.519650
1626.000000	42.447859
1625.000000	42.364960
1624.000000	42.272523
1623.000000	42.202095
1622.000000	42.108611
1621.000000	42.056524
1620.000000	41.982218
1619.000000	41.889991
1618.000000	41.827633
1617.000000	41.759092
1616.000000	41.693380
1615.000000	41.615616
1614.000000	41.538062
1613.000000	41.448455
1612.000000	41.379809
1611.000000	41.315250
1610.000000	41.230464
1609.000000	41.151337
1608.000000	41.059425
1607.000000	40.983023
1606.000000	40.897923
1605.000000	40.817224
1604.000000	40.719862
1603.000000	40.623967
1602.000000	40.542430
1601.000000	40.458902
1600.000000	40.376631
1599.000000	40.293313
1598.000000	40.225086
1597.000000	40.136212
1596.000000	40.047130
1595.000000	39.985610
1594.000000	39.918012
1593.000000	39.866030
1592.000000	39.808388
1591.000000	39.738903
1590.000000	39.683567
1589.000000	39.632947
1588.000000	39.567864
1587.000000	39.504458
1586.000000	39.451952
1585.000000	39.396091
1584.000000	39.347253
1583.000000	39.308685
1582.000000	39.265716
1581.000000	39.221908
1580.000000	39.196651
1579.000000	39.175480
1578.000000	39.150747
1577.000000	39.132406
1576.000000	39.133769
1575.000000	39.133245
1574.000000	39.125070
1573.000000	39.128843
1572.000000	39.146136
1571.000000	39.138170
1570.000000	39.161751
1569.000000	39.203463
1568.000000	39.219812
1567.000000	39.247376
1566.000000	39.281227
1565.000000	39.301244
1564.000000	39.323148
1563.000000	39.347568
1562.000000	39.353122
1561.000000	39.363917
1560.000000	39.368004
1559.000000	39.360563
1558.000000	39.349035
1557.000000	39.327026
1556.000000	39.296004
1555.000000	39.263830
1554.000000	39.228197
1553.000000	39.185751
1552.000000	39.127900
1551.000000	39.078642
1550.000000	39.029070
1549.000000	38.963149
1548.000000	38.903935
1547.000000	38.847551
1546.000000	38.797245
1545.000000	38.765490
1544.000000	38.722940
1543.000000	38.693804
1542.000000	38.663307
1541.000000	38.638573
1540.000000	38.617088
1539.000000	38.593508
1538.000000	38.574853
1537.000000	38.547185
1536.000000	38.524757
1535.000000	38.511342
1534.000000	38.474346
1533.000000	38.447621
1532.000000	38.417648
1531.000000	38.385473
1530.000000	38.333700
1529.000000	38.288006
1528.000000	38.248390
1527.000000	38.211604
1526.000000	38.175552
1525.000000	38.125875
1524.000000	38.082487
1523.000000	38.025369
1522.000000	37.967622
1521.000000	37.929579
1520.000000	37.891954
1519.000000	37.832531
1518.000000	37.778871
1517.000000	37.711064
1516.000000	37.648915
1515.000000	37.598715
1514.000000	37.546103
1513.000000	37.494016
1512.000000	37.424846
1511.000000	37.358191
1510.000000	37.298663
1509.000000	37.218698
1508.000000	37.146907
1507.000000	37.110017
1506.000000	37.042209
1505.000000	36.974925
1504.000000	36.918017
1503.000000	36.858803
1502.000000	36.814262
1501.000000	36.763746
1500.000000	36.710192
1499.000000	36.674559
1498.000000	36.651397
1497.000000	36.630961
1496.000000	36.600673
1495.000000	36.585057
1494.000000	36.574262
1493.000000	36.549319
1492.000000	36.556655
1491.000000	36.547328
1490.000000	36.544708
1489.000000	36.537476
1488.000000	36.556026
1487.000000	36.552358
1486.000000	36.548480
1485.000000	36.550472
1484.000000	36.551101
1483.000000	36.569127
1482.000000	36.601406
1481.000000	36.602454
1480.000000	36.626873
1479.000000	36.660515
1478.000000	36.707048
1477.000000	36.733878
1476.000000	36.778419
1475.000000	36.845598
1474.000000	36.911414
1473.000000	36.982681
1472.000000	37.050593
1471.000000	37.105405
1470.000000	37.134855
1469.000000	37.175100
1468.000000	37.262191
1467.000000	37.316584
1466.000000	37.372654
1465.000000	37.452933
1464.000000	37.525667
1463.000000	37.579326
1462.000000	37.685492
1461.000000	37.770382
1460.000000	37.858836
1459.000000	37.925701
1458.000000	38.056705
1457.000000	38.146626
1456.000000	38.267569
1455.000000	38.358748
1454.000000	38.461875
1453.000000	38.599377
1452.000000	38.735097
1451.000000	38.869245
1450.000000	38.956442
1449.000000	39.032214
1448.000000	39.186799
1447.000000	39.337611
1446.000000	39.471655
1445.000000	39.574991
1444.000000	39.682309
1443.000000	39.842030
1442.000000	39.994518
1441.000000	40.114623
1440.000000	40.288072
1439.000000	40.417924
1438.000000	40.568317
1437.000000	40.699111
1436.000000	40.846569
1435.000000	41.038674
1434.000000	41.172717
1433.000000	41.386516
1432.000000	41.561538
1431.000000	41.688664
1430.000000	41.917869
1429.000000	42.111650
1428.000000	42.343161
1427.000000	42.539038
1426.000000	42.817291
1425.000000	43.091876
1424.000000	43.362163
1423.000000	43.645132
1422.000000	43.882093
1421.000000	44.202686
1420.000000	44.554930
1419.000000	44.807506
1418.000000	45.074126
1417.000000	45.338754
1416.000000	45.683347
1415.000000	46.074788
1414.000000	46.378717
1413.000000	46.663468
1412.000000	46.980498
1411.000000	47.400864
1410.000000	47.877090
1409.000000	48.247570
1408.000000	48.671080
1407.000000	49.081805
1406.000000	49.564005
1405.000000	50.020213
1404.000000	50.396143
1403.000000	50.764736
1402.000000	51.279006
1401.000000	51.767809
1400.000000	52.038201
1399.000000	52.221293
1398.000000	52.490428
1397.000000	52.894654
1396.000000	53.236418
1395.000000	53.390793
1394.000000	53.559422
1393.000000	53.825936
1392.000000	54.103665
1391.000000	54.330669
1390.000000	54.622022
1389.000000	55.053393
1388.000000	55.387611
1387.000000	55.719732
1386.000000	56.142719
1385.000000	56.633827
1384.000000	57.060062
1383.000000	57.446367
1382.000000	57.751764
1381.000000	57.911484
1380.000000	58.072357
1379.000000	58.227885
1378.000000	58.344427
1377.000000	58.513265
1376.000000	58.696985
1375.000000	58.876723
1374.000000	59.163779
1373.000000	59.488669
1372.000000	59.816494
1371.000000	60.109524
1370.000000	60.368074
1369.000000	60.656073
1368.000000	60.894082
1367.000000	61.082623
1366.000000	61.292963
1365.000000	61.462011
1364.000000	61.607164
1363.000000	61.852613
1362.000000	61.951652
1361.000000	61.973766
1360.000000	61.968316
1359.000000	62.105713
1358.000000	62.238604
1357.000000	62.447162
1356.000000	62.756018
1355.000000	63.139598
1354.000000	63.505361
1353.000000	63.892400
1352.000000	64.404364
1351.000000	64.845900
1350.000000	65.265533
1349.000000	65.672170
1348.000000	66.051977
1347.000000	66.359051
1346.000000	66.666334
1345.000000	67.008936
1344.000000	67.304272
1343.000000	67.580219
1342.000000	67.860673
1341.000000	68.112096
1340.000000	68.364043
1339.000000	68.607082
1338.000000	68.834924
1337.000000	69.062662
1336.000000	69.279500
1335.000000	69.469613
1334.000000	69.689071
1333.000000	69.859586
1332.000000	70.030730
1331.000000	70.216547
1330.000000	70.360337
1329.000000	70.491026
1328.000000	70.639847
1327.000000	70.774205
1326.000000	70.903427
1325.000000	71.031916
1324.000000	71.140178
1323.000000	71.248859
1322.000000	71.358693
1321.000000	71.448405
1320.000000	71.524387
1319.000000	71.617243
1318.000000	71.695426
1317.000000	71.776439
1316.000000	71.876526
1315.000000	71.938675
1314.000000	71.989504
1313.000000	72.057312
1312.000000	72.114639
1311.000000	72.175216
1310.000000	72.231810
1309.000000	72.269015
1308.000000	72.311984
1307.000000	72.346150
1306.000000	72.371303
1305.000000	72.396246
1304.000000	72.396560
1303.000000	72.397818
1302.000000	72.409451
1301.000000	72.402429
1300.000000	72.405469
1299.000000	72.412281
1298.000000	72.396665
1297.000000	72.382831
1296.000000	72.377905
1295.000000	72.356316
1294.000000	72.317224
1293.000000	72.291338
1292.000000	72.268491
1291.000000	72.246692
1290.000000	72.213783
1289.000000	72.156875
1288.000000	72.094832
1287.000000	72.032893
1286.000000	71.980072
1285.000000	71.914255
1284.000000	71.837120
1283.000000	71.787548
1282.000000	71.733051
1281.000000	71.662832
1280.000000	71.601837
1279.000000	71.541575
1278.000000	71.484562
1277.000000	71.427339
1276.000000	71.376510
1275.000000	71.332073
1274.000000	71.292667
1273.000000	71.251270
1272.000000	71.222973
1271.000000	71.198868
1270.000000	71.181995
1269.000000	71.145942
1268.000000	71.102868
1267.000000	71.067549
1266.000000	71.042187
1265.000000	70.995864
1264.000000	70.944615
1263.000000	70.890013
1262.000000	70.849454
1261.000000	70.818222
1260.000000	70.766869
1259.000000	70.732179
1258.000000	70.685751
1257.000000	70.629262
1256.000000	70.552232
1255.000000	70.503184
1254.000000	70.431393
1253.000000	70.367149
1252.000000	70.276075
1251.000000	70.195481
1250.000000	70.103254
1249.000000	69.993315
1248.000000	69.902346
1247.000000	69.792093
1246.000000	69.662451
1245.000000	69.531447
1244.000000	69.391744
1243.000000	69.267867
1242.000000	69.123762
1241.000000	68.969073
1240.000000	68.839221
1239.000000	68.707693
1238.000000	68.570191
1237.000000	68.422628
1236.000000	68.248026
1235.000000	68.097004
1234.000000	67.945039
1233.000000	67.786891
1232.000000	67.629791
1231.000000	67.469337
1230.000000	67.315591
1229.000000	67.155451
1228.000000	66.983259
1227.000000	66.823225
1226.000000	66.665705
1225.000000	66.496553
1224.000000	66.331802
1223.000000	66.179628
1222.000000	66.032484
1221.000000	65.881252
1220.000000	65.738406
1219.000000	65.599332
1218.000000	65.465288
1217.000000	65.328834
1216.000000	65.198144
1215.000000	65.088625
1214.000000	64.980049
1213.000000	64.858791
1212.000000	64.733447
1211.000000	64.633988
1210.000000	64.529918
1209.000000	64.429202
1208.000000	64.327753
1207.000000	64.249150
1206.000000	64.171596
1205.000000	64.107561
1204.000000	64.058723
1203.000000	64.017116
1202.000000	63.945640
1201.000000	63.864417
1200.000000	63.798496
1199.000000	63.657221
1198.000000	63.553885
1197.000000	63.391126
1196.000000	63.188960
1195.000000	62.935860
1194.000000	62.652891
1193.000000	62.338167
1192.000000	61.979320
1191.000000	61.626343
1190.000000	61.311304
1189.000000	61.032841
1188.000000	60.875532
1187.000000	60.779113
1186.000000	60.800073
1185.000000	60.927724
1184.000000	61.107671
1183.000000	61.397557
1182.000000	61.741941
1181.000000	62.103826
1180.000000	62.434691
1179.000000	62.745118
1178.000000	63.009956
1177.000000	63.283283
1176.000000	63.493414
1175.000000	63.710985
1174.000000	63.927614
1173.000000	64.168033
1172.000000	64.393674
1171.000000	64.625289
1170.000000	64.899350
1169.000000	65.154651
1168.000000	65.406284
1167.000000	65.672379
1166.000000	65.947907
1165.000000	66.236955
1164.000000	66.516046
1163.000000	66.777111
1162.000000	67.083766
1161.000000	67.355416
1160.000000	67.611450
1159.000000	67.857633
1158.000000	68.072271
1157.000000	68.255572
1156.000000	68.447781
1155.000000	68.593877
1154.000000	68.662523
1153.000000	68.714715
1152.000000	68.739344
1151.000000	68.741230
1150.000000	68.767536
1149.000000	68.764497
1148.000000	68.789440
1147.000000	68.863850
1146.000000	68.940566
1145.000000	69.068426
1144.000000	69.235587
1143.000000	69.434399
1142.000000	69.648303
1141.000000	69.870067
1140.000000	70.101892
1139.000000	70.325123
1138.000000	70.585664
1137.000000	70.872196
1136.000000	71.139969
1135.000000	71.397680
1134.000000	71.594815
1133.000000	71.784823
1132.000000	71.979443
1131.000000	72.154674
1130.000000	72.313556
1129.000000	72.406307
1128.000000	72.496228
1127.000000	72.567599
1126.000000	72.616333
1125.000000	72.660979
1124.000000	72.665171
1123.000000	72.686027
1122.000000	72.689905
1121.000000	72.684036
1120.000000	72.649660
1119.000000	72.645573
1118.000000	72.606901
1117.000000	72.568962
1116.000000	72.519809
1115.000000	72.478936
1114.000000	72.439320
1113.000000	72.400124
1112.000000	72.363862
1111.000000	72.313347
1110.000000	72.261783
1109.000000	72.201417
1108.000000	72.159600
1107.000000	72.104788
1106.000000	72.051862
1105.000000	72.013190
1104.000000	71.949365
1103.000000	71.885120
1102.000000	71.837539
1101.000000	71.759880
1100.000000	71.706221
1099.000000	71.645645
1098.000000	71.579933
1097.000000	71.519461
1096.000000	71.435724
1095.000000	71.359217
1094.000000	71.284283
1093.000000	71.211549
1092.000000	71.118798
1091.000000	71.042187
1090.000000	70.956458
1089.000000	70.867375
1088.000000	70.782065
1087.000000	70.679358
1086.000000	70.604214
1085.000000	70.498048
1084.000000	70.402363
1083.000000	70.313490
1082.000000	70.221892
1081.000000	70.129665
1080.000000	70.036704
1079.000000	69.951813
1078.000000	69.857910
1077.000000	69.772495
1076.000000	69.668635
1075.000000	69.573578
1074.000000	69.490679
1073.000000	69.391849
1072.000000	69.294173
1071.000000	69.206871
1070.000000	69.113701
1069.000000	69.003658
1068.000000	68.919501
1067.000000	68.824968
1066.000000	68.732427
1065.000000	68.648898
1064.000000	68.547973
1063.000000	68.452497
1062.000000	68.360585
1061.000000	68.248864
1060.000000	68.155484
1059.000000	68.060218
1058.000000	67.970297
1057.000000	67.865703
1056.000000	67.754507
1055.000000	67.677372
1054.000000	67.587975
1053.000000	67.492708
1052.000000	67.406874
1051.000000	67.334036
1050.000000	67.245163
1049.000000	67.156814
1048.000000	67.077687
1047.000000	67.000552
1046.000000	66.923521
1045.000000	66.836325
1044.000000	66.766002
1043.000000	66.707941
1042.000000	66.642020
1041.000000	66.573898
1040.000000	66.491837
1039.000000	66.417531
1038.000000	66.344693
1037.000000	66.270492
1036.000000	66.212326
1035.000000	66.154580
1034.000000	66.079016
1033.000000	66.014143
1032.000000	65.956082
1031.000000	65.879785
1030.000000	65.813235
1029.000000	65.746056
1028.000000	65.675943
1027.000000	65.612746
1026.000000	65.548607
1025.000000	65.500292
1024.000000	65.426720
1023.000000	65.351996
1022.000000	65.305882
1021.000000	65.253166
1020.000000	65.191961
1019.000000	65.134005
1018.000000	65.075839
1017.000000	65.030145
1016.000000	65.000276
1015.000000	64.960975
1014.000000	64.923036
1013.000000	64.892957
1012.000000	64.883839
1011.000000	64.881534
1010.000000	64.865918
1009.000000	64.855123
1008.000000	64.859735
1007.000000	64.863717
1006.000000	64.872940
1005.000000	64.887822
1004.000000	64.879228
1003.000000	64.873149
1002.000000	64.882162
1001.000000	64.867804
1000.000000	64.878390
999.000000	64.885202
998.000000	64.900608
997.000000	64.921778
996.000000	64.925341
995.000000	64.932258
994.000000	64.971664
993.000000	65.012852
992.000000	65.049638
991.000000	65.076992
990.000000	65.113463
989.000000	65.163350
988.000000	65.209673
987.000000	65.249498
986.000000	65.298651
985.000000	65.373376
984.000000	65.432799
983.000000	65.495052
982.000000	65.570615
981.000000	65.633602
980.000000	65.685689
979.000000	65.741026
978.000000	65.810825
977.000000	65.895296
976.000000	65.980920
975.000000	66.062038
974.000000	66.147767
973.000000	66.232448
972.000000	66.330649
971.000000	66.409671
970.000000	66.506299
969.000000	66.625775
968.000000	66.727225
967.000000	66.813164
966.000000	66.929810
965.000000	67.028954
964.000000	67.123486
963.000000	67.219381
962.000000	67.339381
961.000000	67.441564
960.000000	67.531800
959.000000	67.602018
958.000000	67.704621
957.000000	67.822944
956.000000	67.924288
955.000000	68.016725
954.000000	68.124777
953.000000	68.225493
952.000000	68.318244
951.000000	68.403764
950.000000	68.529737
949.000000	68.613475
948.000000	68.728549
947.000000	68.825387
946.000000	68.926837
945.000000	69.016025
944.000000	69.135291
943.000000	69.240094
942.000000	69.334941
941.000000	69.465736
940.000000	69.537631
939.000000	69.643587
938.000000	69.761805
937.000000	69.894067
936.000000	70.028634
935.000000	70.147586
934.000000	70.267900
933.000000	70.397961
932.000000	70.551288
931.000000	70.659026
930.000000	70.787410
929.000000	70.939270
928.000000	71.081279
927.000000	71.220982
926.000000	71.365925
925.000000	71.546710
924.000000	71.668701
923.000000	71.794989
922.000000	71.943810
921.000000	72.095775
920.000000	72.218604
919.000000	72.377801
918.000000	72.518866
917.000000	72.680053
916.000000	72.822481
915.000000	72.944891
914.000000	73.076210
913.000000	73.217904
912.000000	73.412105
911.000000	73.529170
910.000000	73.665205
909.000000	73.821571
908.000000	73.981501
907.000000	74.119737
906.000000	74.262898
905.000000	74.430059
904.000000	74.577832
903.000000	74.731578
902.000000	74.887840
901.000000	75.026600
900.000000	75.180661
899.000000	75.342686
898.000000	75.451892
897.000000	75.583315
896.000000	75.742302
895.000000	75.874983
894.000000	76.028729
893.000000	76.172414
892.000000	76.319349
891.000000	76.468798
890.000000	76.598335
889.000000	76.709531
888.000000	76.877845
887.000000	77.029286
886.000000	77.188063
885.000000	77.352395
884.000000	77.510858
883.000000	77.652342
882.000000	77.825896
881.000000	77.980272
880.000000	78.181284
879.000000	78.368987
878.000000	78.553965
877.000000	78.727519
876.000000	78.917947
875.000000	79.102401
874.000000	79.311274
873.000000	79.488182
872.000000	79.738347
871.000000	79.939360
870.000000	80.139849
869.000000	80.341595
868.000000	80.520390
867.000000	80.695411
866.000000	80.810904
865.000000	80.929961
864.000000	81.070921
863.000000	81.081821
862.000000	81.066100
861.000000	81.005419
860.000000	81.097437
859.000000	81.302851
858.000000	82.137400
857.000000	81.528100
856.000000	82.069000
855.000000	82.815100
854.000000	82.637300
853.000000	82.729200
852.000000	82.953700
851.000000	83.435000
850.000000	84.035200
849.000000	84.273000
848.000000	84.338000
847.000000	84.682000
846.000000	85.020500
845.000000	85.202200
844.000000	85.810300
843.000000	85.988400
842.000000	86.375600
841.000000	86.495300
840.000000	86.881200
839.000000	87.279600
838.000000	87.349100
837.000000	87.831300
836.000000	88.231600
835.000000	88.760800
834.000000	88.790100
833.000000	89.187600
832.000000	89.627100
831.000000	89.924600
830.000000	90.259600
829.000000	90.703400
828.000000	90.915300
827.000000	91.233500
826.000000	91.403800
825.000000	91.722100
824.000000	92.129400
823.000000	92.339400
822.000000	92.780400
821.000000	93.108200
820.000000	93.320000
819.000000	93.519000
818.000000	93.754200
817.000000	93.936400
816.000000	94.307700
815.000000	94.539000
814.000000	94.561600
813.000000	94.754200
812.000000	94.929200
811.000000	95.146700
810.000000	95.211700
809.000000	95.404200
808.000000	95.566300
807.000000	95.723400
806.000000	95.756000
805.000000	95.729700
804.000000	95.825400
803.000000	96.030900
802.000000	95.982500
801.000000	96.005900
800.000000	96.187700
799.000000	96.161100
798.000000	96.132300
797.000000	96.146200
796.000000	96.251000
795.000000	96.244700
794.000000	96.269100
793.000000	96.409700
792.000000	96.341200
791.000000	96.278300
790.000000	96.270400
789.000000	96.329600
788.000000	96.363100
787.000000	96.387400
786.000000	96.396700
785.000000	96.369300
784.000000	96.283600
783.000000	96.181900
782.000000	96.188100
781.000000	96.125300
780.000000	96.160100
779.000000	96.098000
778.000000	96.032600
777.000000	95.955900
776.000000	95.883200
775.000000	95.769800
774.000000	95.689500
773.000000	95.653300
772.000000	95.643200
771.000000	95.394200
770.000000	95.305600
769.000000	95.328500
768.000000	95.129500
767.000000	95.025800
766.000000	94.880800
765.000000	94.739700
764.000000	94.601700
763.000000	94.529600
762.000000	94.413100
761.000000	94.198500
760.000000	94.096900
759.000000	93.896900
758.000000	93.683800
757.000000	93.515000
756.000000	93.327900
755.000000	93.158500
754.000000	92.909700
753.000000	92.732500
752.000000	92.551200
751.000000	92.306300
750.000000	92.064900
749.000000	91.866400
748.000000	91.594400
747.000000	91.307400
746.000000	91.065600
745.000000	90.825800
744.000000	90.553100
743.000000	90.268300
742.000000	89.979200
741.000000	89.697200
740.000000	89.405200
739.000000	89.121700
738.000000	88.906300
737.000000	88.592300
736.000000	88.288800
735.000000	87.990300
734.000000	87.811100
733.000000	87.565000
732.000000	87.176700
731.000000	86.867200
730.000000	86.558300
729.000000	86.260200
728.000000	85.923000
727.000000	85.557400
726.000000	85.246200
725.000000	84.808100
724.000000	84.431400
723.000000	84.067500
722.000000	83.748800
721.000000	83.360000
720.000000	82.912500
719.000000	82.529700
718.000000	82.170100
717.000000	81.832500
716.000000	81.393500
715.000000	80.963200
714.000000	80.543800
713.000000	80.036500
712.000000	79.615500
711.000000	79.172700
710.000000	78.658800
709.000000	78.192100
708.000000	77.700900
707.000000	77.153500
706.000000	76.647500
705.000000	76.103600
704.000000	75.580800
703.000000	75.050100
702.000000	74.504100
701.000000	73.995500
700.000000	73.467100
699.000000	72.930700
698.000000	72.539600
697.000000	72.108300
696.000000	71.640600
695.000000	71.187500
694.000000	70.793900
693.000000	70.444900
692.000000	70.077200
691.000000	69.685900
690.000000	69.365600
689.000000	69.018700
688.000000	68.696500
687.000000	68.436400
686.000000	68.139900
685.000000	67.771300
684.000000	67.476100
683.000000	67.216500
682.000000	66.972700
681.000000	66.762900
680.000000	66.561000
679.000000	66.361300
678.000000	66.197400
677.000000	66.043100
676.000000	65.914700
675.000000	65.844700
674.000000	65.695600
673.000000	65.592800
672.000000	65.500600
671.000000	65.410100
670.000000	65.300400
669.000000	65.118300
668.000000	64.986900
667.000000	64.815300
666.000000	64.617700
665.000000	64.391500
664.000000	64.123200
663.000000	63.856800
662.000000	63.602900
661.000000	63.345200
660.000000	63.075900
659.000000	62.770700
658.000000	62.495800
657.000000	62.205700
656.000000	61.976800
655.000000	61.701800
654.000000	61.467200
653.000000	61.257800
652.000000	61.058600
651.000000	60.918100
650.000000	60.723200
649.000000	60.462300
648.000000	60.303500
647.000000	60.130600
646.000000	59.925900
645.000000	59.754100
644.000000	59.574700
643.000000	59.394200
642.000000	59.249900
641.000000	59.087900
640.000000	58.982300
639.000000	58.918400
638.000000	58.872700
637.000000	58.828600
636.000000	58.889100
635.000000	58.983200
634.000000	59.093500
633.000000	59.201400
632.000000	59.397200
631.000000	59.556700
630.000000	59.798600
629.000000	59.987300
628.000000	60.218500
627.000000	60.433800
626.000000	60.654100
625.000000	60.822600
624.000000	61.056300
623.000000	61.331900
622.000000	61.511100
621.000000	61.738500
620.000000	62.021400
619.000000	62.243600
618.000000	62.510000
617.000000	62.789400
616.000000	63.073700
615.000000	63.380400
614.000000	63.645400
613.000000	63.919000
612.000000	64.196600
611.000000	64.530100
610.000000	64.784700
609.000000	65.073800
608.000000	65.350000
607.000000	65.666200
606.000000	65.928900
605.000000	66.221600
604.000000	66.474200
603.000000	66.759700
602.000000	66.983400
601.000000	67.241500
600.000000	67.423100
599.000000	67.574300
598.000000	67.736900
597.000000	67.864400
596.000000	67.964100
595.000000	68.147600
594.000000	68.265200
593.000000	68.396700
592.000000	68.518400
591.000000	68.655200
590.000000	68.720900
589.000000	68.807100
588.000000	68.776800
587.000000	68.838100
586.000000	68.893400
585.000000	68.925900
584.000000	68.929400
583.000000	68.971400
582.000000	68.976200
581.000000	68.989700
580.000000	68.946500
579.000000	68.936600
578.000000	68.833800
577.000000	68.747100
576.000000	68.630900
575.000000	68.564500
574.000000	68.426000
573.000000	68.258000
572.000000	68.154900
571.000000	68.030100
570.000000	67.817800
569.000000	67.605800
568.000000	67.405900
567.000000	67.124600
566.000000	66.885500
565.000000	66.600400
564.000000	66.327300
563.000000	66.029400
562.000000	65.737900
561.000000	65.407700
560.000000	65.051200
559.000000	64.630900
558.000000	64.263400
557.000000	63.879400
556.000000	63.460600
555.000000	63.045000
554.000000	62.660000
553.000000	62.187700
552.000000	61.771800
551.000000	61.295900
550.000000	60.806000
549.000000	60.337700
548.000000	59.853700
547.000000	59.368100
546.000000	58.872800
545.000000	58.374500
544.000000	57.885200
543.000000	57.368000
542.000000	56.821200
541.000000	56.279000
540.000000	55.724200
539.000000	55.199600
538.000000	54.648200
537.000000	54.098600
536.000000	53.515500
535.000000	52.940500
534.000000	52.359400
533.000000	51.751700
532.000000	51.136200
531.000000	50.507300
530.000000	49.860300
529.000000	49.215800
528.000000	48.557700
527.000000	47.905300
526.000000	47.229800
525.000000	46.523500
524.000000	45.801600
523.000000	45.069300
522.000000	44.350900
521.000000	43.609400
520.000000	42.889900
519.000000	42.177800
518.000000	41.467000
517.000000	40.796100
516.000000	40.150700
515.000000	39.529300
514.000000	38.946400
513.000000	38.396900
512.000000	37.891300
511.000000	37.422500
510.000000	36.989500
509.000000	36.589600
508.000000	36.235000
507.000000	35.918800
506.000000	35.616100
505.000000	35.345000
504.000000	35.100800
503.000000	34.864800
502.000000	34.640700
501.000000	34.465800
500.000000	34.293400
499.000000	34.140300
498.000000	33.999700
497.000000	33.872600
496.000000	33.764100
495.000000	33.648400
494.000000	33.549700
493.000000	33.452700
492.000000	33.347500
491.000000	33.251100
490.000000	33.151100
489.000000	33.064200
488.000000	32.971200
487.000000	32.846400
486.000000	32.735500
485.000000	32.622000
484.000000	32.513700
483.000000	32.394600
482.000000	32.237300
481.000000	32.085500
480.000000	31.948100
479.000000	31.800000
478.000000	31.644800
477.000000	31.493400
476.000000	31.353000
475.000000	31.220900
474.000000	31.056100
473.000000	30.885700
472.000000	30.719700
471.000000	30.556500
470.000000	30.377600
469.000000	30.216100
468.000000	30.043700
467.000000	29.853300
466.000000	29.657600
465.000000	29.449100
464.000000	29.257700
463.000000	29.037900
462.000000	28.805200
461.000000	28.586400
460.000000	28.338300
459.000000	28.064100
458.000000	27.800600
457.000000	27.519800
456.000000	27.237200
455.000000	26.951600
454.000000	26.606600
453.000000	26.265500
452.000000	25.915800
451.000000	25.543900
450.000000	25.155500
449.000000	24.743800
448.000000	24.325500
447.000000	23.913000
446.000000	23.489100
445.000000	23.017300
444.000000	22.538800
443.000000	22.058400
442.000000	21.580200
441.000000	21.090600
440.000000	20.587900
439.000000	20.074200
438.000000	19.580000
437.000000	19.084600
436.000000	18.580800
435.000000	18.088800
434.000000	17.589600
433.000000	17.071800
432.000000	16.582600
431.000000	16.125700
430.000000	15.656300
429.000000	15.210100
428.000000	14.788700
427.000000	14.357800
426.000000	13.938400
425.000000	13.542800
424.000000	13.163000
423.000000	12.799900
422.000000	12.441500
421.000000	12.099200
420.000000	11.780000
419.000000	11.470500
418.000000	11.182000
417.000000	10.909100
416.000000	10.632100
415.000000	10.362200
414.000000	10.109100
413.000000	9.868500
412.000000	9.653000
411.000000	9.434000
410.000000	9.235000
409.000000	9.052100
408.000000	8.869100
407.000000	8.693800
406.000000	8.520700
405.000000	8.376000
404.000000	8.237800
403.000000	8.093500
402.000000	7.955800
401.000000	7.828100
400.000000	7.725300
399.000000	7.621200
398.000000	7.508100
397.000000	7.411200
396.000000	7.321000
395.000000	7.235200
394.000000	7.146800
393.000000	7.076800
392.000000	7.008200
391.000000	6.944300
390.000000	6.876300
389.000000	6.797400
388.000000	6.735200
387.000000	6.692000
386.000000	6.649000
385.000000	6.595900
384.000000	6.539300
383.000000	6.503000
382.000000	6.476000
381.000000	6.430000
380.000000	6.393500
379.000000	6.358800
378.000000	6.337700
377.000000	6.278300
376.000000	6.286400
375.000000	6.210400
374.000000	6.000100
373.000000	6.042700
372.000000	6.091400
371.000000	6.104200
370.000000	6.032300
369.000000	6.040800
368.000000	6.077200
367.000000	5.974000
366.000000	5.991700
365.000000	6.050400
364.000000	5.956300
363.000000	5.970000
362.000000	5.992500
361.000000	6.014600
360.000000	5.985600
359.000000	5.947000
358.000000	5.892100
357.000000	5.918800
356.000000	5.795300
355.000000	5.774200
354.000000	5.815300
353.000000	5.774000
352.000000	5.755500
351.000000	5.786100
350.000000	5.702900
349.000000	5.710500
348.000000	5.694500
347.000000	5.631800
346.000000	5.706400
345.000000	5.727300
344.000000	5.688800
343.000000	5.621400
342.000000	5.604800
341.000000	5.637600
340.000000	5.569200
339.000000	5.573400
338.000000	5.661700
337.000000	5.555500
336.000000	5.598800
335.000000	5.606300
334.000000	5.506300
333.000000	5.492100
332.000000	5.587500
331.000000	5.780500
330.000000	5.577100
329.000000	5.538500
328.000000	5.749600
327.000000	5.712700
326.000000	5.646900
325.000000	5.756700
324.000000	5.645700
323.000000	5.469600
322.000000	5.565200
321.000000	5.892000
320.000000	5.825000
319.000000	5.959100
318.000000	5.751800
317.000000	5.934000
316.000000	5.451600
315.000000	5.412900
314.000000	5.379200
313.000000	5.403600
312.000000	5.363600
311.000000	5.382800
310.000000	5.388200
309.000000	5.391700
308.000000	5.411300
307.000000	5.441500
306.000000	5.351700
305.000000	5.388600
304.000000	5.371800
303.000000	5.420300
302.000000	5.417400
301.000000	5.402500
300.000000	5.443700
299.000000	5.411200
298.000000	5.391500
297.000000	5.415900
296.000000	5.422100
295.000000	5.407400
294.000000	5.442800
293.000000	5.437300
292.000000	5.435600
291.000000	5.452900
290.000000	5.388100
289.000000	5.454600
288.000000	5.422000
287.000000	5.426900
286.000000	5.440300
285.000000	5.485000
284.000000	5.456800
283.000000	5.438300
282.000000	5.487000
281.000000	5.472700
280.000000	5.557100
279.000000	5.537500
278.000000	5.564400
277.000000	5.483300
276.000000	5.602100
275.000000	5.533100
274.000000	5.577200
273.000000	5.597900
272.000000	5.504100
271.000000	5.591100
270.000000	5.646700
269.000000	5.679700
268.000000	5.635500
267.000000	5.704900
266.000000	5.694600
265.000000	5.741700
264.000000	5.711600
263.000000	5.742700
262.000000	5.792600
261.000000	5.803100
260.000000	5.850900
259.000000	5.853400
258.000000	5.850200
257.000000	5.897500
256.000000	5.914900
255.000000	5.856900
254.000000	5.850100
253.000000	5.872200
252.000000	5.835100
251.000000	5.859800
250.000000	5.904600
