PE UV       SUBTECH     SPECTRUM    ASCII       PEDS        4.00        
   -1
CICIMAUCR0239-1.ASC
24/06/20
13:13:20.00
24/06/20
13:13:20.00
Vinicio Soto Monge
C. cupreomarginata. Sex M. Ventral 
250,000000
1
Lambda 1050
1050L1511233
PerkinElmer UV WinLab 6.3.2.0749 / 2.02.05 Lambda 900 UV/VIS/NIR, Aug  7 2015 09:38:08

0
0
3350/servo 860,8/2
0
0
UV/VIS
1
1
1
DoubleDePol,CommonBeamDepol,RBeamAtt,SBeamAtt,60mm sphere, WB InGaAs Detector
0
0
0
0
Program
Program
3350/servo 860,8/2
3350/0,2 860,8/0,2
3350/0,2 860,8/0,2
0
15.00
 
 
 
0
 
860,8
319,2
860,8
Front
100
on
S:100 R:100
0
0
0
0
 
0
 
 
 
0
 
 
0
0
0
0
0
 
 
 
 
0
0


0
0
#HDR
-1
-1
#GR
nm
%R
1.0
0.0
2500,000000
-1,000000
2251
8
61,358400
4,106400
#DATA
2482.000000	5.605189
2481.000000	5.580909
2480.000000	5.637563
2479.000000	5.622347
2478.000000	5.555118
2477.000000	5.590837
2476.000000	5.578858
2475.000000	5.606376
2474.000000	5.604865
2473.000000	5.609937
2472.000000	5.587383
2471.000000	5.588786
2470.000000	5.597204
2469.000000	5.577456
2468.000000	5.561916
2467.000000	5.637239
2466.000000	5.600657
2465.000000	5.537960
2464.000000	5.597311
2463.000000	5.578535
2462.000000	5.574974
2461.000000	5.582959
2460.000000	5.628174
2459.000000	5.622995
2458.000000	5.664325
2457.000000	5.623966
2456.000000	5.647275
2455.000000	5.677382
2454.000000	5.695080
2453.000000	5.710943
2452.000000	5.764792
2451.000000	5.763281
2450.000000	5.792849
2449.000000	5.790583
2448.000000	5.798029
2447.000000	5.842381
2446.000000	5.836661
2445.000000	5.869035
2444.000000	5.889970
2443.000000	5.920509
2442.000000	5.928603
2441.000000	5.953638
2440.000000	5.967020
2439.000000	6.025724
2438.000000	6.040616
2437.000000	6.044932
2436.000000	6.092090
2435.000000	6.083457
2434.000000	6.124464
2433.000000	6.139032
2432.000000	6.160722
2431.000000	6.157269
2430.000000	6.168168
2429.000000	6.219858
2428.000000	6.228276
2427.000000	6.246081
2426.000000	6.262052
2425.000000	6.284606
2424.000000	6.290865
2423.000000	6.296692
2422.000000	6.319030
2421.000000	6.338778
2420.000000	6.345792
2419.000000	6.347735
2418.000000	6.358418
2417.000000	6.385396
2416.000000	6.397914
2415.000000	6.417662
2414.000000	6.428561
2413.000000	6.441834
2412.000000	6.453921
2411.000000	6.461474
2410.000000	6.467733
2409.000000	6.485215
2408.000000	6.504208
2407.000000	6.507769
2406.000000	6.517913
2405.000000	6.510898
2404.000000	6.520826
2403.000000	6.545754
2402.000000	6.573056
2401.000000	6.572085
2400.000000	6.573919
2399.000000	6.604890
2398.000000	6.637803
2397.000000	6.661220
2396.000000	6.666832
2395.000000	6.680105
2394.000000	6.680860
2393.000000	6.695860
2392.000000	6.711939
2391.000000	6.720248
2390.000000	6.734385
2389.000000	6.739025
2388.000000	6.744097
2387.000000	6.756507
2386.000000	6.767514
2385.000000	6.773018
2384.000000	6.767946
2383.000000	6.762442
2382.000000	6.774852
2381.000000	6.788665
2380.000000	6.782622
2379.000000	6.779277
2378.000000	6.781003
2377.000000	6.784133
2376.000000	6.774421
2375.000000	6.764169
2374.000000	6.756507
2373.000000	6.743450
2372.000000	6.753486
2371.000000	6.733953
2370.000000	6.711831
2369.000000	6.716903
2368.000000	6.699313
2367.000000	6.675789
2366.000000	6.658091
2365.000000	6.636940
2364.000000	6.618595
2363.000000	6.598631
2362.000000	6.586437
2361.000000	6.569279
2360.000000	6.528704
2359.000000	6.501294
2358.000000	6.488021
2357.000000	6.465143
2356.000000	6.449712
2355.000000	6.435360
2354.000000	6.419173
2353.000000	6.418741
2352.000000	6.421115
2351.000000	6.421007
2350.000000	6.424892
2349.000000	6.417986
2348.000000	6.437086
2347.000000	6.460395
2346.000000	6.467518
2345.000000	6.467949
2344.000000	6.484028
2343.000000	6.511977
2342.000000	6.516726
2341.000000	6.532697
2340.000000	6.556329
2339.000000	6.562480
2338.000000	6.565178
2337.000000	6.568631
2336.000000	6.571977
2335.000000	6.582121
2334.000000	6.568416
2333.000000	6.549639
2332.000000	6.557193
2331.000000	6.544999
2330.000000	6.517049
2329.000000	6.507229
2328.000000	6.496438
2327.000000	6.469244
2326.000000	6.438381
2325.000000	6.413885
2324.000000	6.387446
2323.000000	6.368778
2322.000000	6.331656
2321.000000	6.310937
2320.000000	6.271764
2319.000000	6.223204
2318.000000	6.178096
2317.000000	6.126406
2316.000000	6.090363
2315.000000	6.068673
2314.000000	6.026911
2313.000000	5.997990
2312.000000	5.965185
2311.000000	5.932811
2310.000000	5.913171
2309.000000	5.869467
2308.000000	5.856733
2307.000000	5.836338
2306.000000	5.826086
2305.000000	5.826949
2304.000000	5.840762
2303.000000	5.845294
2302.000000	5.858352
2301.000000	5.877236
2300.000000	5.890725
2299.000000	5.929790
2298.000000	5.936588
2297.000000	5.969609
2296.000000	5.985257
2295.000000	6.014609
2294.000000	6.055400
2293.000000	6.100831
2292.000000	6.092953
2291.000000	6.131910
2290.000000	6.157701
2289.000000	6.153600
2288.000000	6.165255
2287.000000	6.172053
2286.000000	6.160507
2285.000000	6.162449
2284.000000	6.173348
2283.000000	6.153492
2282.000000	6.123708
2281.000000	6.108169
2280.000000	6.105363
2279.000000	6.079248
2278.000000	6.056371
2277.000000	6.053242
2276.000000	6.028422
2275.000000	6.014717
2274.000000	6.003602
2273.000000	5.990221
2272.000000	5.984825
2271.000000	5.981048
2270.000000	5.992595
2269.000000	6.015904
2268.000000	6.032199
2267.000000	6.047414
2266.000000	6.050544
2265.000000	6.097917
2264.000000	6.143888
2263.000000	6.186082
2262.000000	6.252124
2261.000000	6.325828
2260.000000	6.403202
2259.000000	6.472589
2258.000000	6.565178
2257.000000	6.671364
2256.000000	6.763953
2255.000000	6.877369
2254.000000	6.977296
2253.000000	7.117043
2252.000000	7.205099
2251.000000	7.330278
2250.000000	7.430960
2249.000000	7.538657
2248.000000	7.637936
2247.000000	7.735165
2246.000000	7.833366
2245.000000	7.909983
2244.000000	8.014658
2243.000000	8.067104
2242.000000	8.168650
2241.000000	8.218505
2240.000000	8.285519
2239.000000	8.346813
2238.000000	8.427100
2237.000000	8.479222
2236.000000	8.539653
2235.000000	8.554329
2234.000000	8.615515
2233.000000	8.668932
2232.000000	8.708643
2231.000000	8.752996
2230.000000	8.759686
2229.000000	8.783751
2228.000000	8.818283
2227.000000	8.827887
2226.000000	8.846987
2225.000000	8.840405
2224.000000	8.846448
2223.000000	8.875368
2222.000000	8.860584
2221.000000	8.867706
2220.000000	8.848174
2219.000000	8.872778
2218.000000	8.846016
2217.000000	8.850225
2216.000000	8.836088
2215.000000	8.844289
2214.000000	8.800909
2213.000000	8.800585
2212.000000	8.774902
2211.000000	8.781808
2210.000000	8.780082
2209.000000	8.772096
2208.000000	8.734758
2207.000000	8.745765
2206.000000	8.731953
2205.000000	8.731845
2204.000000	8.720730
2203.000000	8.723643
2202.000000	8.694399
2201.000000	8.710910
2200.000000	8.690406
2199.000000	8.691054
2198.000000	8.668608
2197.000000	8.672709
2196.000000	8.655766
2195.000000	8.682205
2194.000000	8.662565
2193.000000	8.651774
2192.000000	8.632889
2191.000000	8.639903
2190.000000	8.644543
2189.000000	8.635371
2188.000000	8.634400
2187.000000	8.624903
2186.000000	8.618860
2185.000000	8.610119
2184.000000	8.591343
2183.000000	8.605479
2182.000000	8.599760
2181.000000	8.579904
2180.000000	8.582925
2179.000000	8.548825
2178.000000	8.549041
2177.000000	8.549365
2176.000000	8.543969
2175.000000	8.542998
2174.000000	8.526379
2173.000000	8.543861
2172.000000	8.520013
2171.000000	8.518394
2170.000000	8.539113
2169.000000	8.546019
2168.000000	8.547854
2167.000000	8.547422
2166.000000	8.557890
2165.000000	8.534689
2164.000000	8.567602
2163.000000	8.576990
2162.000000	8.592638
2161.000000	8.598789
2160.000000	8.602242
2159.000000	8.623932
2158.000000	8.646918
2157.000000	8.652097
2156.000000	8.670550
2155.000000	8.676701
2154.000000	8.705406
2153.000000	8.726665
2152.000000	8.730010
2151.000000	8.751485
2150.000000	8.769398
2149.000000	8.788607
2148.000000	8.800369
2147.000000	8.808355
2146.000000	8.821412
2145.000000	8.861771
2144.000000	8.857023
2143.000000	8.867275
2142.000000	8.881411
2141.000000	8.905692
2140.000000	8.928569
2139.000000	8.917562
2138.000000	8.916699
2137.000000	8.945943
2136.000000	8.945835
2135.000000	8.954144
2134.000000	8.970655
2133.000000	8.983389
2132.000000	8.978101
2131.000000	8.977993
2130.000000	8.980151
2129.000000	8.983604
2128.000000	8.976266
2127.000000	8.965799
2126.000000	8.979828
2125.000000	8.963964
2124.000000	8.948425
2123.000000	8.961590
2122.000000	8.946914
2121.000000	8.944324
2120.000000	8.919720
2119.000000	8.918425
2118.000000	8.893929
2117.000000	8.873857
2116.000000	8.853894
2115.000000	8.847419
2114.000000	8.840836
2113.000000	8.824326
2112.000000	8.801988
2111.000000	8.792815
2110.000000	8.764434
2109.000000	8.742528
2108.000000	8.732061
2107.000000	8.713607
2106.000000	8.690190
2105.000000	8.666558
2104.000000	8.641630
2103.000000	8.627925
2102.000000	8.614760
2101.000000	8.594256
2100.000000	8.583465
2099.000000	8.566523
2098.000000	8.547530
2097.000000	8.521523
2096.000000	8.503718
2095.000000	8.497890
2094.000000	8.479761
2093.000000	8.450193
2092.000000	8.429582
2091.000000	8.425265
2090.000000	8.418575
2089.000000	8.397640
2088.000000	8.376165
2087.000000	8.362676
2086.000000	8.342281
2085.000000	8.321562
2084.000000	8.305914
2083.000000	8.288001
2082.000000	8.268576
2081.000000	8.245699
2080.000000	8.232642
2079.000000	8.218613
2078.000000	8.202426
2077.000000	8.196275
2076.000000	8.172750
2075.000000	8.138542
2074.000000	8.112535
2073.000000	8.088255
2072.000000	8.081888
2071.000000	8.065701
2070.000000	8.049083
2069.000000	8.026097
2068.000000	7.996961
2067.000000	7.977105
2066.000000	7.956170
2065.000000	7.926386
2064.000000	7.910739
2063.000000	7.895415
2062.000000	7.873509
2061.000000	7.867250
2060.000000	7.842430
2059.000000	7.826351
2058.000000	7.831855
2057.000000	7.839085
2056.000000	7.838437
2055.000000	7.834445
2054.000000	7.846747
2053.000000	7.861531
2052.000000	7.871567
2051.000000	7.875451
2050.000000	7.899300
2049.000000	7.940846
2048.000000	7.968040
2047.000000	7.998580
2046.000000	8.028687
2045.000000	8.072068
2044.000000	8.111888
2043.000000	8.136492
2042.000000	8.175448
2041.000000	8.218721
2040.000000	8.263289
2039.000000	8.307317
2038.000000	8.349727
2037.000000	8.376705
2036.000000	8.409942
2035.000000	8.446740
2034.000000	8.465948
2033.000000	8.483322
2032.000000	8.524005
2031.000000	8.556055
2030.000000	8.579041
2029.000000	8.602242
2028.000000	8.601271
2027.000000	8.620371
2026.000000	8.648644
2025.000000	8.659651
2024.000000	8.668716
2023.000000	8.673356
2022.000000	8.672061
2021.000000	8.690730
2020.000000	8.687277
2019.000000	8.700550
2018.000000	8.692133
2017.000000	8.692457
2016.000000	8.698716
2015.000000	8.707241
2014.000000	8.707349
2013.000000	8.675299
2012.000000	8.672277
2011.000000	8.649939
2010.000000	8.654364
2009.000000	8.639148
2008.000000	8.631918
2007.000000	8.622529
2006.000000	8.601918
2005.000000	8.578609
2004.000000	8.545696
2003.000000	8.525300
2002.000000	8.511595
2001.000000	8.485696
2000.000000	8.413827
1999.000000	8.402820
1998.000000	8.389546
1997.000000	8.358791
1996.000000	8.327281
1995.000000	8.297605
1994.000000	8.239872
1993.000000	8.233613
1992.000000	8.196815
1991.000000	8.160664
1990.000000	8.114585
1989.000000	8.064298
1988.000000	8.029227
1987.000000	7.993616
1986.000000	7.959084
1985.000000	7.921314
1984.000000	7.860559
1983.000000	7.834121
1982.000000	7.783402
1981.000000	7.743906
1980.000000	7.712935
1979.000000	7.670202
1978.000000	7.610418
1977.000000	7.567038
1976.000000	7.540815
1975.000000	7.514484
1974.000000	7.487614
1973.000000	7.448658
1972.000000	7.381968
1971.000000	7.369666
1970.000000	7.331357
1969.000000	7.306645
1968.000000	7.249559
1967.000000	7.224955
1966.000000	7.180063
1965.000000	7.178121
1964.000000	7.142078
1963.000000	7.097942
1962.000000	7.095676
1961.000000	7.041828
1960.000000	7.016252
1959.000000	6.975461
1958.000000	6.966613
1957.000000	6.940929
1956.000000	6.904023
1955.000000	6.881793
1954.000000	6.840247
1953.000000	6.846614
1952.000000	6.814780
1951.000000	6.778845
1950.000000	6.757478
1949.000000	6.750572
1948.000000	6.732766
1947.000000	6.687011
1946.000000	6.689278
1945.000000	6.663163
1944.000000	6.655393
1943.000000	6.626365
1942.000000	6.632084
1941.000000	6.623235
1940.000000	6.602084
1939.000000	6.617084
1938.000000	6.583523
1937.000000	6.590646
1936.000000	6.596797
1935.000000	6.573811
1934.000000	6.595070
1933.000000	6.609854
1932.000000	6.608451
1931.000000	6.640393
1930.000000	6.649350
1929.000000	6.685393
1928.000000	6.698666
1927.000000	6.715177
1926.000000	6.732119
1925.000000	6.742910
1924.000000	6.799025
1923.000000	6.859240
1922.000000	6.871434
1921.000000	6.906505
1920.000000	6.959922
1919.000000	7.002116
1918.000000	7.056396
1917.000000	7.109381
1916.000000	7.180711
1915.000000	7.241034
1914.000000	7.293264
1913.000000	7.378622
1912.000000	7.450168
1911.000000	7.546750
1910.000000	7.614087
1909.000000	7.688547
1908.000000	7.767539
1907.000000	7.874372
1906.000000	7.999551
1905.000000	8.100988
1904.000000	8.234692
1903.000000	8.352424
1902.000000	8.471236
1901.000000	8.604184
1900.000000	8.738212
1899.000000	8.905584
1898.000000	9.055906
1897.000000	9.210760
1896.000000	9.405974
1895.000000	9.573346
1894.000000	9.784747
1893.000000	9.974780
1892.000000	10.178519
1891.000000	10.437185
1890.000000	10.686571
1889.000000	10.935633
1888.000000	11.216745
1887.000000	11.536166
1886.000000	11.870802
1885.000000	12.250115
1884.000000	12.646477
1883.000000	13.101976
1882.000000	13.569884
1881.000000	14.073511
1880.000000	14.602930
1879.000000	15.075695
1878.000000	15.593458
1877.000000	16.103345
1876.000000	16.599850
1875.000000	17.096463
1874.000000	17.564156
1873.000000	18.018575
1872.000000	18.476556
1871.000000	18.885544
1870.000000	19.296583
1869.000000	19.677406
1868.000000	20.045171
1867.000000	20.314521
1866.000000	20.583331
1865.000000	20.815666
1864.000000	21.046923
1863.000000	21.239762
1862.000000	21.414472
1861.000000	21.602240
1860.000000	21.791734
1859.000000	21.924143
1858.000000	22.044789
1857.000000	22.157342
1856.000000	22.267952
1855.000000	22.336261
1854.000000	22.385469
1853.000000	22.440720
1852.000000	22.442662
1851.000000	22.450000
1850.000000	22.479568
1849.000000	22.484101
1848.000000	22.486367
1847.000000	22.472770
1846.000000	22.425504
1845.000000	22.371332
1844.000000	22.356872
1843.000000	22.341980
1842.000000	22.351368
1841.000000	22.351908
1840.000000	22.330433
1839.000000	22.309283
1838.000000	22.278635
1837.000000	22.242377
1836.000000	22.199536
1835.000000	22.152054
1834.000000	22.091515
1833.000000	22.028926
1832.000000	21.992236
1831.000000	21.937848
1830.000000	21.864144
1829.000000	21.797130
1828.000000	21.727958
1827.000000	21.655549
1826.000000	21.571269
1825.000000	21.497349
1824.000000	21.443825
1823.000000	21.385768
1822.000000	21.351344
1821.000000	21.338934
1820.000000	21.298574
1819.000000	21.243431
1818.000000	21.197460
1817.000000	21.167353
1816.000000	21.155267
1815.000000	21.155375
1814.000000	21.135303
1813.000000	21.099800
1812.000000	21.084908
1811.000000	21.069692
1810.000000	21.044764
1809.000000	20.995125
1808.000000	20.959082
1807.000000	20.926816
1806.000000	20.867464
1805.000000	20.804120
1804.000000	20.751890
1803.000000	20.703653
1802.000000	20.651316
1801.000000	20.605129
1800.000000	20.544266
1799.000000	20.479411
1798.000000	20.408189
1797.000000	20.361571
1796.000000	20.309017
1795.000000	20.255601
1794.000000	20.203695
1793.000000	20.136357
1792.000000	20.076574
1791.000000	20.014956
1790.000000	19.950424
1789.000000	19.877475
1788.000000	19.819742
1787.000000	19.767405
1786.000000	19.694132
1785.000000	19.609097
1784.000000	19.537875
1783.000000	19.470106
1782.000000	19.389711
1781.000000	19.297014
1780.000000	19.204533
1779.000000	19.124354
1778.000000	19.046657
1777.000000	18.958385
1776.000000	18.862990
1775.000000	18.760905
1774.000000	18.649647
1773.000000	18.528138
1772.000000	18.424758
1771.000000	18.307673
1770.000000	18.176235
1769.000000	18.047927
1768.000000	17.926094
1767.000000	17.812355
1766.000000	17.706492
1765.000000	17.618004
1764.000000	17.546458
1763.000000	17.508797
1762.000000	17.488509
1761.000000	17.500272
1760.000000	17.532322
1759.000000	17.590271
1758.000000	17.663651
1757.000000	17.742104
1756.000000	17.809333
1755.000000	17.876239
1754.000000	17.947677
1753.000000	17.979943
1752.000000	17.994727
1751.000000	18.010806
1750.000000	18.006921
1749.000000	17.986309
1748.000000	17.947029
1747.000000	17.900411
1746.000000	17.843757
1745.000000	17.745233
1744.000000	17.625774
1743.000000	17.512682
1742.000000	17.354266
1741.000000	17.171570
1740.000000	16.972364
1739.000000	16.751359
1738.000000	16.517621
1737.000000	16.326184
1736.000000	16.140251
1735.000000	15.993274
1734.000000	15.881045
1733.000000	15.810363
1732.000000	15.797629
1731.000000	15.840038
1730.000000	15.908131
1729.000000	15.997699
1728.000000	16.096654
1727.000000	16.208344
1726.000000	16.319062
1725.000000	16.440463
1724.000000	16.523988
1723.000000	16.617764
1722.000000	16.676576
1721.000000	16.710784
1720.000000	16.720065
1719.000000	16.731503
1718.000000	16.754812
1717.000000	16.793337
1716.000000	16.845459
1715.000000	16.880207
1714.000000	16.955098
1713.000000	17.042615
1712.000000	17.087938
1711.000000	17.124736
1710.000000	17.178369
1709.000000	17.211066
1708.000000	17.196066
1707.000000	17.179448
1706.000000	17.144916
1705.000000	17.107254
1704.000000	17.042831
1703.000000	16.956393
1702.000000	16.868768
1701.000000	16.772402
1700.000000	16.637727
1699.000000	16.487621
1698.000000	16.325968
1697.000000	16.183200
1696.000000	16.052410
1695.000000	15.957987
1694.000000	15.954965
1693.000000	15.996727
1692.000000	16.056187
1691.000000	16.213739
1690.000000	16.406255
1689.000000	16.579023
1688.000000	16.733446
1687.000000	16.840063
1686.000000	16.908372
1685.000000	16.950997
1684.000000	16.995889
1683.000000	17.094197
1682.000000	17.255742
1681.000000	17.525199
1680.000000	17.952533
1679.000000	18.474074
1678.000000	19.004895
1677.000000	19.549313
1676.000000	20.103768
1675.000000	20.650452
1674.000000	21.104872
1673.000000	21.496810
1672.000000	21.850763
1671.000000	22.147738
1670.000000	22.399713
1669.000000	22.620286
1668.000000	22.834600
1667.000000	23.004455
1666.000000	23.149057
1665.000000	23.284164
1664.000000	23.385925
1663.000000	23.490384
1662.000000	23.545312
1661.000000	23.612002
1660.000000	23.674591
1659.000000	23.725526
1658.000000	23.750453
1657.000000	23.785849
1656.000000	23.807755
1655.000000	23.798259
1654.000000	23.806028
1653.000000	23.803115
1652.000000	23.776892
1651.000000	23.768691
1650.000000	23.711821
1649.000000	23.661102
1648.000000	23.643836
1647.000000	23.589124
1646.000000	23.544017
1645.000000	23.484233
1644.000000	23.398119
1643.000000	23.329703
1642.000000	23.272401
1641.000000	23.228481
1640.000000	23.153050
1639.000000	23.062296
1638.000000	22.996145
1637.000000	22.917477
1636.000000	22.832766
1635.000000	22.767911
1634.000000	22.692696
1633.000000	22.616617
1632.000000	22.513777
1631.000000	22.409965
1630.000000	22.339930
1629.000000	22.240866
1628.000000	22.144716
1627.000000	22.060113
1626.000000	21.950797
1625.000000	21.856482
1624.000000	21.784181
1623.000000	21.698066
1622.000000	21.581845
1621.000000	21.500479
1620.000000	21.401199
1619.000000	21.324473
1618.000000	21.242676
1617.000000	21.154080
1616.000000	21.055987
1615.000000	20.987679
1614.000000	20.895737
1613.000000	20.807249
1612.000000	20.734624
1611.000000	20.659625
1610.000000	20.583870
1609.000000	20.496785
1608.000000	20.422757
1607.000000	20.355851
1606.000000	20.265313
1605.000000	20.208659
1604.000000	20.120062
1603.000000	20.027150
1602.000000	19.940065
1601.000000	19.865065
1600.000000	19.784886
1599.000000	19.724671
1598.000000	19.655068
1597.000000	19.592802
1596.000000	19.496760
1595.000000	19.413020
1594.000000	19.341582
1593.000000	19.279101
1592.000000	19.220288
1591.000000	19.142052
1590.000000	19.087988
1589.000000	19.021622
1588.000000	18.966370
1587.000000	18.925364
1586.000000	18.860508
1585.000000	18.810329
1584.000000	18.746229
1583.000000	18.705438
1582.000000	18.683208
1581.000000	18.614684
1580.000000	18.580475
1579.000000	18.534936
1578.000000	18.509901
1577.000000	18.482167
1576.000000	18.449901
1575.000000	18.424002
1574.000000	18.403607
1573.000000	18.385586
1572.000000	18.371017
1571.000000	18.356773
1570.000000	18.362061
1569.000000	18.350298
1568.000000	18.336270
1567.000000	18.325478
1566.000000	18.319759
1565.000000	18.341773
1564.000000	18.344579
1563.000000	18.321809
1562.000000	18.333248
1561.000000	18.337025
1560.000000	18.331629
1559.000000	18.329147
1558.000000	18.320622
1557.000000	18.312097
1556.000000	18.299579
1555.000000	18.284040
1554.000000	18.255659
1553.000000	18.227494
1552.000000	18.207746
1551.000000	18.205264
1550.000000	18.174077
1549.000000	18.135013
1548.000000	18.121632
1547.000000	18.089582
1546.000000	18.047496
1545.000000	18.041776
1544.000000	18.010050
1543.000000	17.970446
1542.000000	17.951022
1541.000000	17.922533
1540.000000	17.903109
1539.000000	17.886706
1538.000000	17.857462
1537.000000	17.831239
1536.000000	17.813002
1535.000000	17.793901
1534.000000	17.767031
1533.000000	17.724838
1532.000000	17.690521
1531.000000	17.677896
1530.000000	17.649623
1529.000000	17.606889
1528.000000	17.562753
1527.000000	17.518293
1526.000000	17.480416
1525.000000	17.442539
1524.000000	17.393978
1523.000000	17.350273
1522.000000	17.296857
1521.000000	17.237721
1520.000000	17.179556
1519.000000	17.140599
1518.000000	17.097327
1517.000000	17.036572
1516.000000	16.991788
1515.000000	16.948515
1514.000000	16.890998
1513.000000	16.840711
1512.000000	16.780172
1511.000000	16.716611
1510.000000	16.669346
1509.000000	16.613231
1508.000000	16.551182
1507.000000	16.502405
1506.000000	16.456219
1505.000000	16.396867
1504.000000	16.327695
1503.000000	16.266832
1502.000000	16.217300
1501.000000	16.160323
1500.000000	16.101618
1499.000000	16.050252
1498.000000	16.013022
1497.000000	15.960361
1496.000000	15.912664
1495.000000	15.874894
1494.000000	15.822017
1493.000000	15.776910
1492.000000	15.743133
1491.000000	15.716047
1490.000000	15.687019
1489.000000	15.644501
1488.000000	15.607811
1487.000000	15.573495
1486.000000	15.536049
1485.000000	15.505618
1484.000000	15.480258
1483.000000	15.439036
1482.000000	15.404504
1481.000000	15.381087
1480.000000	15.383245
1479.000000	15.377202
1478.000000	15.348821
1477.000000	15.319037
1476.000000	15.296268
1475.000000	15.282131
1474.000000	15.288930
1473.000000	15.288606
1472.000000	15.289793
1471.000000	15.276951
1470.000000	15.262599
1469.000000	15.251160
1468.000000	15.238319
1467.000000	15.226340
1466.000000	15.220945
1465.000000	15.240153
1464.000000	15.250944
1463.000000	15.253426
1462.000000	15.265189
1461.000000	15.287203
1460.000000	15.332526
1459.000000	15.361447
1458.000000	15.378281
1457.000000	15.417561
1456.000000	15.465474
1455.000000	15.521913
1454.000000	15.560653
1453.000000	15.625293
1452.000000	15.701803
1451.000000	15.785543
1450.000000	15.865830
1449.000000	15.922160
1448.000000	15.983886
1447.000000	16.062446
1446.000000	16.149423
1445.000000	16.236509
1444.000000	16.317983
1443.000000	16.397622
1442.000000	16.491722
1441.000000	16.601900
1440.000000	16.696216
1439.000000	16.780603
1438.000000	16.878804
1437.000000	17.008730
1436.000000	17.115024
1435.000000	17.220994
1434.000000	17.329338
1433.000000	17.450416
1432.000000	17.584120
1431.000000	17.699694
1430.000000	17.833829
1429.000000	17.971310
1428.000000	18.108790
1427.000000	18.282097
1426.000000	18.447851
1425.000000	18.652777
1424.000000	18.833638
1423.000000	19.038780
1422.000000	19.231403
1421.000000	19.446905
1420.000000	19.694240
1419.000000	19.953877
1418.000000	20.203263
1417.000000	20.431174
1416.000000	20.688761
1415.000000	20.965341
1414.000000	21.243323
1413.000000	21.536414
1412.000000	21.825619
1411.000000	22.111911
1410.000000	22.456044
1409.000000	22.853053
1408.000000	23.262905
1407.000000	23.685490
1406.000000	24.111529
1405.000000	24.540696
1404.000000	25.016159
1403.000000	25.500578
1402.000000	25.950249
1401.000000	26.421395
1400.000000	26.953187
1399.000000	27.419909
1398.000000	27.827278
1397.000000	28.202166
1396.000000	28.609212
1395.000000	29.056941
1394.000000	29.502835
1393.000000	29.812544
1392.000000	30.160346
1391.000000	30.573758
1390.000000	30.996883
1389.000000	31.404469
1388.000000	31.906909
1387.000000	32.444421
1386.000000	33.031141
1385.000000	33.609552
1384.000000	34.229509
1383.000000	34.959105
1382.000000	35.644349
1381.000000	36.277579
1380.000000	36.837537
1379.000000	37.231526
1378.000000	37.581702
1377.000000	37.831411
1376.000000	38.093207
1375.000000	38.355542
1374.000000	38.666114
1373.000000	38.965463
1372.000000	39.389667
1371.000000	39.787432
1370.000000	40.237751
1369.000000	40.631092
1368.000000	40.994217
1367.000000	41.394357
1366.000000	41.731259
1365.000000	41.969530
1364.000000	42.286037
1363.000000	42.509092
1362.000000	42.753406
1361.000000	42.953044
1360.000000	43.151387
1359.000000	43.259192
1358.000000	43.335702
1357.000000	43.472535
1356.000000	43.672820
1355.000000	43.937745
1354.000000	44.309828
1353.000000	44.814103
1352.000000	45.253090
1351.000000	45.848120
1350.000000	46.420056
1349.000000	46.964150
1348.000000	47.477922
1347.000000	47.917989
1346.000000	48.331509
1345.000000	48.737584
1344.000000	49.149917
1343.000000	49.570128
1342.000000	49.938757
1341.000000	50.325731
1340.000000	50.676015
1339.000000	51.027162
1338.000000	51.391475
1337.000000	51.737658
1336.000000	52.081143
1335.000000	52.425384
1334.000000	52.736604
1333.000000	53.067787
1332.000000	53.373287
1331.000000	53.677169
1330.000000	53.977489
1329.000000	54.248565
1328.000000	54.526548
1327.000000	54.793307
1326.000000	55.035895
1325.000000	55.288841
1324.000000	55.519774
1323.000000	55.726966
1322.000000	55.945812
1321.000000	56.156134
1320.000000	56.366671
1319.000000	56.543216
1318.000000	56.732063
1317.000000	56.918859
1316.000000	57.080512
1315.000000	57.253172
1314.000000	57.417523
1313.000000	57.570435
1312.000000	57.721512
1311.000000	57.841619
1310.000000	57.982768
1309.000000	58.101040
1308.000000	58.220607
1307.000000	58.325822
1306.000000	58.407619
1305.000000	58.512402
1304.000000	58.586322
1303.000000	58.659379
1302.000000	58.722832
1301.000000	58.769666
1300.000000	58.831068
1299.000000	58.875636
1298.000000	58.895815
1297.000000	58.930887
1296.000000	58.949016
1295.000000	58.972109
1294.000000	59.000167
1293.000000	59.005670
1292.000000	59.021641
1291.000000	59.036641
1290.000000	59.025526
1289.000000	59.007721
1288.000000	58.999735
1287.000000	58.957973
1286.000000	58.919124
1285.000000	58.904340
1284.000000	58.855564
1283.000000	58.798586
1282.000000	58.736968
1281.000000	58.682904
1280.000000	58.626898
1279.000000	58.570783
1278.000000	58.514237
1277.000000	58.447763
1276.000000	58.411073
1275.000000	58.365318
1274.000000	58.312009
1273.000000	58.264959
1272.000000	58.216075
1271.000000	58.174097
1270.000000	58.156507
1269.000000	58.115932
1268.000000	58.057012
1267.000000	58.009962
1266.000000	57.963668
1265.000000	57.917697
1264.000000	57.872697
1263.000000	57.806655
1262.000000	57.761224
1261.000000	57.715037
1260.000000	57.655577
1259.000000	57.596657
1258.000000	57.544428
1257.000000	57.484860
1256.000000	57.426048
1255.000000	57.352883
1254.000000	57.280690
1253.000000	57.191338
1252.000000	57.121087
1251.000000	57.035189
1250.000000	56.933319
1249.000000	56.838896
1248.000000	56.748249
1247.000000	56.651884
1246.000000	56.533827
1245.000000	56.409512
1244.000000	56.271276
1243.000000	56.141566
1242.000000	56.004409
1241.000000	55.858295
1240.000000	55.703009
1239.000000	55.542759
1238.000000	55.366862
1237.000000	55.202727
1236.000000	55.053484
1235.000000	54.887839
1234.000000	54.712157
1233.000000	54.521260
1232.000000	54.331550
1231.000000	54.141732
1230.000000	53.951698
1229.000000	53.760477
1228.000000	53.557602
1227.000000	53.346093
1226.000000	53.133182
1225.000000	52.906026
1224.000000	52.685777
1223.000000	52.480743
1222.000000	52.265134
1221.000000	52.046072
1220.000000	51.825391
1219.000000	51.611724
1218.000000	51.393633
1217.000000	51.189463
1216.000000	51.001695
1215.000000	50.821697
1214.000000	50.634037
1213.000000	50.450694
1212.000000	50.290984
1211.000000	50.135374
1210.000000	49.977066
1209.000000	49.809262
1208.000000	49.651926
1207.000000	49.531712
1206.000000	49.433619
1205.000000	49.334340
1204.000000	49.248333
1203.000000	49.173334
1202.000000	49.110313
1201.000000	49.058947
1200.000000	49.003372
1199.000000	48.936898
1198.000000	48.858230
1197.000000	48.750210
1196.000000	48.592334
1195.000000	48.397660
1194.000000	48.147626
1193.000000	47.824213
1192.000000	47.445656
1191.000000	46.986812
1190.000000	46.491818
1189.000000	45.993909
1188.000000	45.542620
1187.000000	45.195681
1186.000000	44.978453
1185.000000	44.875828
1184.000000	44.924497
1183.000000	45.124351
1182.000000	45.448088
1181.000000	45.931644
1180.000000	46.460955
1179.000000	47.030948
1178.000000	47.604719
1177.000000	48.125181
1176.000000	48.595355
1175.000000	48.999487
1174.000000	49.367469
1173.000000	49.719371
1172.000000	50.082821
1171.000000	50.439579
1170.000000	50.819215
1169.000000	51.206081
1168.000000	51.569854
1167.000000	51.953699
1166.000000	52.355565
1165.000000	52.758402
1164.000000	53.175376
1163.000000	53.587386
1162.000000	53.991410
1161.000000	54.424786
1160.000000	54.852767
1159.000000	55.239417
1158.000000	55.637399
1157.000000	56.020920
1156.000000	56.389441
1155.000000	56.721595
1154.000000	57.012095
1153.000000	57.248855
1152.000000	57.435004
1151.000000	57.576154
1150.000000	57.674030
1149.000000	57.777842
1148.000000	57.870107
1147.000000	57.967337
1146.000000	58.105788
1145.000000	58.285355
1144.000000	58.525999
1143.000000	58.814989
1142.000000	59.185668
1141.000000	59.580844
1140.000000	60.006990
1139.000000	60.426122
1138.000000	60.872232
1137.000000	61.331615
1136.000000	61.800603
1135.000000	62.293008
1134.000000	62.792319
1133.000000	63.258500
1132.000000	63.660043
1131.000000	64.060614
1130.000000	64.431940
1129.000000	64.763340
1128.000000	65.061825
1127.000000	65.292542
1126.000000	65.472756
1125.000000	65.623510
1124.000000	65.741674
1123.000000	65.853040
1122.000000	65.962031
1121.000000	66.013290
1120.000000	66.083433
1119.000000	66.123684
1118.000000	66.161346
1117.000000	66.194583
1116.000000	66.203539
1115.000000	66.213359
1114.000000	66.205805
1113.000000	66.198575
1112.000000	66.184547
1111.000000	66.162640
1110.000000	66.181309
1109.000000	66.156705
1108.000000	66.164259
1107.000000	66.151310
1106.000000	66.141166
1105.000000	66.128324
1104.000000	66.112677
1103.000000	66.083864
1102.000000	66.088720
1101.000000	66.075987
1100.000000	66.062282
1099.000000	66.039189
1098.000000	66.018038
1097.000000	66.000232
1096.000000	65.944657
1095.000000	65.926960
1094.000000	65.881313
1093.000000	65.859406
1092.000000	65.799623
1091.000000	65.783220
1090.000000	65.734983
1089.000000	65.703473
1088.000000	65.619193
1087.000000	65.602575
1086.000000	65.528871
1085.000000	65.490993
1084.000000	65.453871
1083.000000	65.367649
1082.000000	65.315959
1081.000000	65.253154
1080.000000	65.209234
1079.000000	65.144163
1078.000000	65.078444
1077.000000	65.040998
1076.000000	64.984668
1075.000000	64.921863
1074.000000	64.849993
1073.000000	64.790857
1072.000000	64.729455
1071.000000	64.678844
1070.000000	64.605787
1069.000000	64.551292
1068.000000	64.487192
1067.000000	64.442084
1066.000000	64.365790
1065.000000	64.292625
1064.000000	64.234892
1063.000000	64.169174
1062.000000	64.111117
1061.000000	64.043456
1060.000000	63.966190
1059.000000	63.897018
1058.000000	63.831192
1057.000000	63.743243
1056.000000	63.675474
1055.000000	63.600043
1054.000000	63.528605
1053.000000	63.456843
1052.000000	63.378067
1051.000000	63.323787
1050.000000	63.234975
1049.000000	63.160300
1048.000000	63.117459
1047.000000	63.074510
1046.000000	63.009330
1045.000000	62.945878
1044.000000	62.901202
1043.000000	62.826095
1042.000000	62.783470
1041.000000	62.710089
1040.000000	62.664119
1039.000000	62.601745
1038.000000	62.548221
1037.000000	62.506458
1036.000000	62.426495
1035.000000	62.374589
1034.000000	62.307468
1033.000000	62.229987
1032.000000	62.171174
1031.000000	62.108369
1030.000000	62.033802
1029.000000	61.951788
1028.000000	61.879271
1027.000000	61.817329
1026.000000	61.729705
1025.000000	61.655245
1024.000000	61.560822
1023.000000	61.471146
1022.000000	61.409744
1021.000000	61.341328
1020.000000	61.251436
1019.000000	61.187013
1018.000000	61.117301
1017.000000	61.026223
1016.000000	60.972267
1015.000000	60.914426
1014.000000	60.866621
1013.000000	60.820866
1012.000000	60.770902
1011.000000	60.729896
1010.000000	60.715867
1009.000000	60.710040
1008.000000	60.705615
1007.000000	60.694069
1006.000000	60.665364
1005.000000	60.671299
1004.000000	60.681443
1003.000000	60.666983
1002.000000	60.657594
1001.000000	60.637846
1000.000000	60.634177
999.000000	60.625113
998.000000	60.623710
997.000000	60.626515
996.000000	60.612271
995.000000	60.612595
994.000000	60.613890
993.000000	60.617667
992.000000	60.617343
991.000000	60.602235
990.000000	60.606120
989.000000	60.621444
988.000000	60.605796
987.000000	60.636335
986.000000	60.653386
985.000000	60.653709
984.000000	60.656623
983.000000	60.681335
982.000000	60.688889
981.000000	60.691802
980.000000	60.697198
979.000000	60.723745
978.000000	60.738313
977.000000	60.734536
976.000000	60.747162
975.000000	60.776730
974.000000	60.792377
973.000000	60.792053
972.000000	60.792701
971.000000	60.804895
970.000000	60.820434
969.000000	60.827772
968.000000	60.819571
967.000000	60.841693
966.000000	60.858311
965.000000	60.847412
964.000000	60.842448
963.000000	60.845362
962.000000	60.869426
961.000000	60.907412
960.000000	60.911296
959.000000	60.903095
958.000000	60.908707
957.000000	60.937735
956.000000	60.951979
955.000000	60.940217
954.000000	60.922411
953.000000	60.905469
952.000000	60.885397
951.000000	60.886045
950.000000	60.899750
949.000000	60.884750
948.000000	60.851405
947.000000	60.823779
946.000000	60.789787
945.000000	60.768312
944.000000	60.740795
943.000000	60.682630
942.000000	60.650472
941.000000	60.619609
940.000000	60.554538
939.000000	60.490977
938.000000	60.450186
937.000000	60.407237
936.000000	60.337957
935.000000	60.257886
934.000000	60.190657
933.000000	60.127852
932.000000	60.085658
931.000000	60.016378
930.000000	59.926703
929.000000	59.847064
928.000000	59.800230
927.000000	59.725446
926.000000	59.619908
925.000000	59.524837
924.000000	59.461492
923.000000	59.372249
922.000000	59.260559
921.000000	59.168726
920.000000	59.068367
919.000000	58.955167
918.000000	58.843478
917.000000	58.731141
916.000000	58.602509
915.000000	58.478626
914.000000	58.334347
913.000000	58.244672
912.000000	58.120033
911.000000	57.959135
910.000000	57.813669
909.000000	57.687627
908.000000	57.566873
907.000000	57.456263
906.000000	57.350833
905.000000	57.241086
904.000000	57.148713
903.000000	57.052778
902.000000	56.962995
901.000000	56.886917
900.000000	56.799832
899.000000	56.703790
898.000000	56.620589
897.000000	56.546022
896.000000	56.471670
895.000000	56.385340
894.000000	56.272463
893.000000	56.172429
892.000000	56.088904
891.000000	55.968798
890.000000	55.831857
889.000000	55.707002
888.000000	55.557435
887.000000	55.449091
886.000000	55.323913
885.000000	55.174670
884.000000	55.014312
883.000000	54.852120
882.000000	54.674172
881.000000	54.512735
880.000000	54.329176
879.000000	54.138926
878.000000	53.912526
877.000000	53.652349
876.000000	53.394330
875.000000	53.168362
874.000000	52.861351
873.000000	52.524016
872.000000	52.145028
871.000000	51.819779
870.000000	51.633523
869.000000	51.541042
868.000000	51.465395
867.000000	51.435935
866.000000	51.359101
865.000000	51.247088
864.000000	51.141118
863.000000	51.051659
862.000000	50.979681
861.000000	50.900797
860.000000	50.797633
859.000000	50.700188
858.000000	50.609433
857.000000	50.344400
856.000000	50.945800
855.000000	50.538100
854.000000	50.562100
853.000000	50.251900
852.000000	50.436200
851.000000	50.160900
850.000000	50.065900
849.000000	49.873300
848.000000	49.772400
847.000000	49.375300
846.000000	49.357200
845.000000	49.431300
844.000000	49.351700
843.000000	49.223600
842.000000	48.763500
841.000000	48.593100
840.000000	48.582000
839.000000	48.582500
838.000000	48.528400
837.000000	48.293300
836.000000	48.147300
835.000000	47.950700
834.000000	47.977900
833.000000	47.919800
832.000000	47.856300
831.000000	47.681200
830.000000	47.603200
829.000000	47.271600
828.000000	47.434400
827.000000	47.361100
826.000000	47.144800
825.000000	47.036700
824.000000	47.137600
823.000000	47.001600
822.000000	46.903800
821.000000	46.857000
820.000000	46.826600
819.000000	46.519900
818.000000	46.588300
817.000000	46.528500
816.000000	46.597800
815.000000	46.553100
814.000000	46.224500
813.000000	46.312000
812.000000	46.198100
811.000000	46.182900
810.000000	46.069700
809.000000	46.143200
808.000000	45.974200
807.000000	46.012000
806.000000	45.946800
805.000000	45.815800
804.000000	45.966200
803.000000	45.923100
802.000000	45.787000
801.000000	45.950700
800.000000	45.854800
799.000000	45.696600
798.000000	45.831500
797.000000	45.774100
796.000000	45.701700
795.000000	45.719100
794.000000	45.549200
793.000000	45.645100
792.000000	45.469200
791.000000	45.442900
790.000000	45.460700
789.000000	45.453300
788.000000	45.370700
787.000000	45.437600
786.000000	45.359600
785.000000	45.182400
784.000000	45.176900
783.000000	45.179700
782.000000	44.999800
781.000000	45.019800
780.000000	44.926100
779.000000	44.917800
778.000000	44.814700
777.000000	44.692300
776.000000	44.791400
775.000000	44.618500
774.000000	44.541100
773.000000	44.518300
772.000000	44.400500
771.000000	44.303800
770.000000	44.211500
769.000000	44.071700
768.000000	43.986700
767.000000	43.877300
766.000000	43.878200
765.000000	43.793500
764.000000	43.630600
763.000000	43.530800
762.000000	43.365500
761.000000	43.283100
760.000000	43.236100
759.000000	43.094600
758.000000	42.948500
757.000000	42.869200
756.000000	42.732100
755.000000	42.601200
754.000000	42.506600
753.000000	42.391100
752.000000	42.236000
751.000000	42.046400
750.000000	41.973300
749.000000	41.866100
748.000000	41.791300
747.000000	41.585300
746.000000	41.423600
745.000000	41.275400
744.000000	41.109100
743.000000	40.984800
742.000000	40.856500
741.000000	40.796000
740.000000	40.604900
739.000000	40.474300
738.000000	40.349700
737.000000	40.225000
736.000000	40.111900
735.000000	39.872000
734.000000	39.774600
733.000000	39.606700
732.000000	39.477400
731.000000	39.238300
730.000000	39.087500
729.000000	38.944300
728.000000	38.760000
727.000000	38.569800
726.000000	38.399100
725.000000	38.204200
724.000000	38.037600
723.000000	37.849000
722.000000	37.608800
721.000000	37.395500
720.000000	37.199100
719.000000	37.006600
718.000000	36.793100
717.000000	36.554200
716.000000	36.294900
715.000000	36.058400
714.000000	35.797100
713.000000	35.589400
712.000000	35.380200
711.000000	35.108100
710.000000	34.873700
709.000000	34.641500
708.000000	34.382600
707.000000	34.105000
706.000000	33.791600
705.000000	33.529800
704.000000	33.257300
703.000000	32.977600
702.000000	32.685800
701.000000	32.401100
700.000000	32.141500
699.000000	31.831600
698.000000	31.554300
697.000000	31.285100
696.000000	30.994100
695.000000	30.722100
694.000000	30.496700
693.000000	30.246700
692.000000	29.947700
691.000000	29.689200
690.000000	29.439400
689.000000	29.188200
688.000000	28.954800
687.000000	28.739200
686.000000	28.495100
685.000000	28.283000
684.000000	28.068800
683.000000	27.867800
682.000000	27.659800
681.000000	27.443700
680.000000	27.233400
679.000000	27.054900
678.000000	26.901000
677.000000	26.724700
676.000000	26.565900
675.000000	26.397200
674.000000	26.240300
673.000000	26.062300
672.000000	25.896200
671.000000	25.711200
670.000000	25.556000
669.000000	25.404900
668.000000	25.248000
667.000000	25.103400
666.000000	24.965400
665.000000	24.795100
664.000000	24.650000
663.000000	24.522100
662.000000	24.387000
661.000000	24.283300
660.000000	24.171700
659.000000	24.058000
658.000000	23.964200
657.000000	23.852000
656.000000	23.745600
655.000000	23.645200
654.000000	23.563400
653.000000	23.499600
652.000000	23.436400
651.000000	23.370200
650.000000	23.292200
649.000000	23.244700
648.000000	23.237800
647.000000	23.202000
646.000000	23.162100
645.000000	23.148100
644.000000	23.150000
643.000000	23.152100
642.000000	23.131600
641.000000	23.141500
640.000000	23.180900
639.000000	23.202300
638.000000	23.220000
637.000000	23.253100
636.000000	23.296800
635.000000	23.351200
634.000000	23.400600
633.000000	23.437900
632.000000	23.490600
631.000000	23.567400
630.000000	23.630400
629.000000	23.687800
628.000000	23.740000
627.000000	23.788800
626.000000	23.852800
625.000000	23.919100
624.000000	23.990500
623.000000	24.055300
622.000000	24.136900
621.000000	24.225100
620.000000	24.305500
619.000000	24.370800
618.000000	24.427200
617.000000	24.503500
616.000000	24.556800
615.000000	24.599300
614.000000	24.655300
613.000000	24.720900
612.000000	24.796100
611.000000	24.864000
610.000000	24.925700
609.000000	24.976400
608.000000	25.030700
607.000000	25.082500
606.000000	25.117600
605.000000	25.152200
604.000000	25.175400
603.000000	25.193800
602.000000	25.216300
601.000000	25.249200
600.000000	25.249200
599.000000	25.236700
598.000000	25.254300
597.000000	25.280400
596.000000	25.269700
595.000000	25.257200
594.000000	25.256700
593.000000	25.255700
592.000000	25.242800
591.000000	25.178700
590.000000	25.146300
589.000000	25.139900
588.000000	25.105400
587.000000	25.081400
586.000000	25.024300
585.000000	24.980300
584.000000	24.939800
583.000000	24.878300
582.000000	24.812200
581.000000	24.750100
580.000000	24.685400
579.000000	24.616000
578.000000	24.537200
577.000000	24.458400
576.000000	24.396800
575.000000	24.329500
574.000000	24.249800
573.000000	24.141900
572.000000	24.047000
571.000000	23.953600
570.000000	23.851200
569.000000	23.743000
568.000000	23.629000
567.000000	23.498600
566.000000	23.377100
565.000000	23.257100
564.000000	23.122100
563.000000	22.977800
562.000000	22.831600
561.000000	22.663100
560.000000	22.501700
559.000000	22.254800
558.000000	21.977500
557.000000	21.801100
556.000000	21.661800
555.000000	21.503100
554.000000	21.321600
553.000000	21.141100
552.000000	20.935700
551.000000	20.752200
550.000000	20.563600
549.000000	20.382200
548.000000	20.214300
547.000000	20.061000
546.000000	19.913300
545.000000	19.731800
544.000000	19.531200
543.000000	19.137500
542.000000	18.824600
541.000000	18.570600
540.000000	18.374600
539.000000	18.172500
538.000000	17.958700
537.000000	17.735500
536.000000	17.537000
535.000000	17.328300
534.000000	17.104300
533.000000	16.887900
532.000000	16.687200
531.000000	16.461700
530.000000	16.239500
529.000000	16.041200
528.000000	15.849300
527.000000	15.642900
526.000000	15.424600
525.000000	15.240300
524.000000	15.043500
523.000000	14.848200
522.000000	14.646900
521.000000	14.461000
520.000000	14.273100
519.000000	14.101300
518.000000	13.938100
517.000000	13.751800
516.000000	13.570200
515.000000	13.416400
514.000000	13.273000
513.000000	13.108300
512.000000	12.956500
511.000000	12.828800
510.000000	12.711000
509.000000	12.588100
508.000000	12.454400
507.000000	12.343700
506.000000	12.222300
505.000000	12.106100
504.000000	12.027000
503.000000	11.943800
502.000000	11.826200
501.000000	11.747100
500.000000	11.653100
499.000000	11.559300
498.000000	11.481800
497.000000	11.400000
496.000000	11.346200
495.000000	11.264300
494.000000	11.193800
493.000000	11.150800
492.000000	11.082500
491.000000	11.030500
490.000000	10.974300
489.000000	10.910700
488.000000	10.850300
487.000000	10.786200
486.000000	10.729400
485.000000	10.688600
484.000000	10.619000
483.000000	10.554100
482.000000	10.481600
481.000000	10.400500
480.000000	10.314200
479.000000	10.233200
478.000000	10.156900
477.000000	10.085500
476.000000	10.025000
475.000000	9.926500
474.000000	9.846600
473.000000	9.786500
472.000000	9.702900
471.000000	9.646000
470.000000	9.557300
469.000000	9.485200
468.000000	9.418200
467.000000	9.346300
466.000000	9.270300
465.000000	9.216500
464.000000	9.127400
463.000000	9.064800
462.000000	9.003900
461.000000	8.917800
460.000000	8.865100
459.000000	8.793900
458.000000	8.725200
457.000000	8.652300
456.000000	8.598300
455.000000	8.537600
454.000000	8.440700
453.000000	8.363000
452.000000	8.296500
451.000000	8.203000
450.000000	8.157200
449.000000	8.051200
448.000000	7.971300
447.000000	7.875000
446.000000	7.788200
445.000000	7.710100
444.000000	7.628200
443.000000	7.531400
442.000000	7.447800
441.000000	7.354300
440.000000	7.266300
439.000000	7.171200
438.000000	7.086600
437.000000	6.994400
436.000000	6.907400
435.000000	6.828200
434.000000	6.757100
433.000000	6.662500
432.000000	6.571600
431.000000	6.494000
430.000000	6.419900
429.000000	6.340700
428.000000	6.259200
427.000000	6.199600
426.000000	6.145000
425.000000	6.064000
424.000000	5.995400
423.000000	5.916300
422.000000	5.862600
421.000000	5.793700
420.000000	5.735000
419.000000	5.678900
418.000000	5.622600
417.000000	5.571400
416.000000	5.502900
415.000000	5.444400
414.000000	5.397300
413.000000	5.353100
412.000000	5.312500
411.000000	5.255400
410.000000	5.212300
409.000000	5.186400
408.000000	5.139100
407.000000	5.105500
406.000000	5.055500
405.000000	5.020300
404.000000	4.972500
403.000000	4.946400
402.000000	4.904600
401.000000	4.882900
400.000000	4.849600
399.000000	4.822900
398.000000	4.803700
397.000000	4.768500
396.000000	4.735900
395.000000	4.709900
394.000000	4.699300
393.000000	4.673400
392.000000	4.644100
391.000000	4.630000
390.000000	4.616900
389.000000	4.610200
388.000000	4.591800
387.000000	4.569800
386.000000	4.566300
385.000000	4.533800
384.000000	4.509900
383.000000	4.489700
382.000000	4.482800
381.000000	4.475200
380.000000	4.468100
379.000000	4.467900
378.000000	4.451000
377.000000	4.454600
376.000000	4.419300
375.000000	4.363600
374.000000	4.355400
373.000000	4.324800
372.000000	4.318500
371.000000	4.328100
370.000000	4.281200
369.000000	4.337600
368.000000	4.326500
367.000000	4.227000
366.000000	4.216500
365.000000	4.265700
364.000000	4.295500
363.000000	4.236200
362.000000	4.238400
361.000000	4.277800
360.000000	4.231200
359.000000	4.220800
358.000000	4.238800
357.000000	4.226100
356.000000	4.233000
355.000000	4.229700
354.000000	4.251500
353.000000	4.286000
352.000000	4.245500
351.000000	4.222500
350.000000	4.149800
349.000000	4.141800
348.000000	4.207300
347.000000	4.202700
346.000000	4.219800
345.000000	4.199000
344.000000	4.154000
343.000000	4.215500
342.000000	4.197200
341.000000	4.159600
340.000000	4.209200
339.000000	4.173400
338.000000	4.162600
337.000000	4.156700
336.000000	4.175500
335.000000	4.269000
334.000000	4.219000
333.000000	4.177000
332.000000	4.184600
331.000000	4.229700
330.000000	4.246700
329.000000	4.155200
328.000000	4.176000
327.000000	4.214700
326.000000	4.220800
325.000000	4.194000
324.000000	4.173500
323.000000	4.210800
322.000000	4.247500
321.000000	4.270000
320.000000	4.135000
319.000000	4.106400
318.000000	4.252300
317.000000	4.306000
316.000000	4.310100
315.000000	4.336600
314.000000	4.337300
313.000000	4.292200
312.000000	4.285000
311.000000	4.323800
310.000000	4.329000
309.000000	4.323800
308.000000	4.330000
307.000000	4.336200
306.000000	4.350800
305.000000	4.363700
304.000000	4.344300
303.000000	4.349700
302.000000	4.356600
301.000000	4.342400
300.000000	4.331200
299.000000	4.330300
298.000000	4.352400
297.000000	4.340800
296.000000	4.361500
295.000000	4.385300
294.000000	4.385400
293.000000	4.350300
292.000000	4.385400
291.000000	4.376100
290.000000	4.386500
289.000000	4.390100
288.000000	4.403700
287.000000	4.402700
286.000000	4.405200
285.000000	4.406600
284.000000	4.400000
283.000000	4.423700
282.000000	4.434200
281.000000	4.443100
280.000000	4.472600
279.000000	4.453600
278.000000	4.461100
277.000000	4.462900
276.000000	4.472600
275.000000	4.474500
274.000000	4.510400
273.000000	4.516700
272.000000	4.526500
271.000000	4.559700
270.000000	4.564000
269.000000	4.595000
268.000000	4.600400
267.000000	4.597400
266.000000	4.611400
265.000000	4.638200
264.000000	4.641700
263.000000	4.683500
262.000000	4.716100
261.000000	4.716600
260.000000	4.746900
259.000000	4.749700
258.000000	4.774300
257.000000	4.778100
256.000000	4.802700
255.000000	4.811900
254.000000	4.808800
253.000000	4.829400
252.000000	4.853600
251.000000	4.914300
250.000000	4.917000
