PE UV       SUBTECH     SPECTRUM    ASCII       PEDS        4.00        
   -1
CICIMAUCR0250-3.ASC
24/05/30
12:17:02.00
24/05/30
12:17:02.00
Vinicio Soto Monge
C. resplendens, M Ventral
250,000000
1
Lambda 1050
1050L1511233
PerkinElmer UV WinLab 6.3.2.0749 / 2.02.05 Lambda 900 UV/VIS/NIR, Aug  7 2015 09:38:08

0
0
3350/servo 860,8/2
0
0
UV/VIS
1
1
1
DoubleDePol,CommonBeamDepol,RBeamAtt,SBeamAtt,60mm sphere, WB InGaAs Detector
0
0
0
0
Program
Program
3350/servo 860,8/2
3350/0,2 860,8/0,2
3350/0,2 860,8/0,2
0
15.00
 
 
 
0
 
860,8
319,2
860,8
Front
100
on
S:100 R:100
0
0
0
0
 
0
 
 
 
0
 
 
0
0
0
0
0
 
 
 
 
0
0


0
0
#HDR
-1
-1
#GR
nm
%R
1.0
0.0
2500,000000
-1,000000
2251
8
57,892700
4,104500
#DATA
2500.000000	5.558102
2499.000000	5.631061
2498.000000	5.582458
2497.000000	5.663389
2496.000000	5.479606
2495.000000	5.489349
2494.000000	5.461782
2493.000000	5.480492
2492.000000	5.499645
2491.000000	5.486803
2490.000000	5.408861
2489.000000	5.438532
2488.000000	5.407975
2487.000000	5.368008
2486.000000	5.428900
2485.000000	5.413843
2484.000000	5.305013
2483.000000	5.331030
2482.000000	5.327266
2481.000000	5.333687
2480.000000	5.341327
2479.000000	5.374430
2478.000000	5.329259
2477.000000	5.335680
2476.000000	5.314313
2475.000000	5.360369
2474.000000	5.310548
2473.000000	5.281652
2472.000000	5.326159
2471.000000	5.270138
2470.000000	5.288406
2469.000000	5.298259
2468.000000	5.321177
2467.000000	5.299034
2466.000000	5.314202
2465.000000	5.315420
2464.000000	5.307891
2463.000000	5.354723
2462.000000	5.315531
2461.000000	5.337009
2460.000000	5.314977
2459.000000	5.338337
2458.000000	5.349630
2457.000000	5.378083
2456.000000	5.403990
2455.000000	5.421040
2454.000000	5.411408
2453.000000	5.405872
2452.000000	5.409193
2451.000000	5.447721
2450.000000	5.507506
2449.000000	5.507395
2448.000000	5.497210
2447.000000	5.523670
2446.000000	5.543155
2445.000000	5.577809
2444.000000	5.597405
2443.000000	5.606926
2442.000000	5.631172
2441.000000	5.651543
2440.000000	5.664164
2439.000000	5.687746
2438.000000	5.726495
2437.000000	5.737124
2436.000000	5.758824
2435.000000	5.787498
2434.000000	5.798901
2433.000000	5.792812
2432.000000	5.819826
2431.000000	5.844958
2430.000000	5.851379
2429.000000	5.893671
2428.000000	5.918914
2427.000000	5.903968
2426.000000	5.912050
2425.000000	5.927882
2424.000000	5.949803
2423.000000	5.965524
2422.000000	5.961538
2421.000000	5.956556
2420.000000	5.990434
2419.000000	6.014237
2418.000000	6.003166
2417.000000	6.019330
2416.000000	6.033280
2415.000000	6.040587
2414.000000	6.060847
2413.000000	6.063062
2412.000000	6.070701
2411.000000	6.090075
2410.000000	6.093175
2409.000000	6.102032
2408.000000	6.108454
2407.000000	6.129932
2406.000000	6.137571
2405.000000	6.136685
2404.000000	6.152739
2403.000000	6.161485
2402.000000	6.168571
2401.000000	6.165803
2400.000000	6.182742
2399.000000	6.201009
2398.000000	6.226916
2397.000000	6.248727
2396.000000	6.259023
2395.000000	6.253266
2394.000000	6.256034
2393.000000	6.269430
2392.000000	6.274523
2391.000000	6.293122
2390.000000	6.311722
2389.000000	6.326779
2388.000000	6.333422
2387.000000	6.327000
2386.000000	6.339843
2385.000000	6.339400
2384.000000	6.341061
2383.000000	6.339511
2382.000000	6.350914
2381.000000	6.349807
2380.000000	6.337961
2379.000000	6.344493
2378.000000	6.353350
2377.000000	6.345821
2376.000000	6.349696
2375.000000	6.361321
2374.000000	6.331207
2373.000000	6.308068
2372.000000	6.306186
2371.000000	6.311611
2370.000000	6.307183
2369.000000	6.297219
2368.000000	6.289247
2367.000000	6.278065
2366.000000	6.257362
2365.000000	6.230459
2364.000000	6.218945
2363.000000	6.202559
2362.000000	6.176210
2361.000000	6.172335
2360.000000	6.162260
2359.000000	6.148089
2358.000000	6.122071
2357.000000	6.086090
2356.000000	6.075683
2355.000000	6.073690
2354.000000	6.062287
2353.000000	6.055533
2352.000000	6.055090
2351.000000	6.060626
2350.000000	6.068265
2349.000000	6.060847
2348.000000	6.074908
2347.000000	6.088083
2346.000000	6.085426
2345.000000	6.094172
2344.000000	6.106793
2343.000000	6.130375
2342.000000	6.144325
2341.000000	6.140782
2340.000000	6.154953
2339.000000	6.162592
2338.000000	6.176653
2337.000000	6.188720
2336.000000	6.176985
2335.000000	6.186949
2334.000000	6.185620
2333.000000	6.188056
2332.000000	6.188499
2331.000000	6.178092
2330.000000	6.162924
2329.000000	6.157167
2328.000000	6.140118
2327.000000	6.103250
2326.000000	6.092290
2325.000000	6.094615
2324.000000	6.062287
2323.000000	6.032394
2322.000000	6.010805
2321.000000	5.977259
2320.000000	5.956888
2319.000000	5.917253
2318.000000	5.879832
2317.000000	5.857468
2316.000000	5.836433
2315.000000	5.814955
2314.000000	5.784952
2313.000000	5.739560
2312.000000	5.715313
2311.000000	5.685200
2310.000000	5.672468
2309.000000	5.657632
2308.000000	5.631615
2307.000000	5.617776
2306.000000	5.622758
2305.000000	5.628626
2304.000000	5.631393
2303.000000	5.635379
2302.000000	5.654754
2301.000000	5.660732
2300.000000	5.688632
2299.000000	5.686750
2298.000000	5.721513
2297.000000	5.732253
2296.000000	5.760595
2295.000000	5.799123
2294.000000	5.813848
2293.000000	5.848944
2292.000000	5.873632
2291.000000	5.881272
2290.000000	5.869757
2289.000000	5.898321
2288.000000	5.935299
2287.000000	5.909282
2286.000000	5.910610
2285.000000	5.929874
2284.000000	5.916478
2283.000000	5.894557
2282.000000	5.894446
2281.000000	5.887914
2280.000000	5.867543
2279.000000	5.858908
2278.000000	5.856361
2277.000000	5.834551
2276.000000	5.814733
2275.000000	5.798901
2274.000000	5.778862
2273.000000	5.791816
2272.000000	5.791927
2271.000000	5.786612
2270.000000	5.797794
2269.000000	5.803219
2268.000000	5.821598
2267.000000	5.835326
2266.000000	5.859461
2265.000000	5.880275
2264.000000	5.937181
2263.000000	5.991209
2262.000000	6.026748
2261.000000	6.081218
2260.000000	6.158828
2259.000000	6.223705
2258.000000	6.312829
2257.000000	6.385789
2256.000000	6.466720
2255.000000	6.573004
2254.000000	6.671095
2253.000000	6.742172
2252.000000	6.841149
2251.000000	6.924516
2250.000000	7.029914
2249.000000	7.133098
2248.000000	7.208604
2247.000000	7.274478
2246.000000	7.359838
2245.000000	7.435786
2244.000000	7.492914
2243.000000	7.576723
2242.000000	7.625437
2241.000000	7.659979
2240.000000	7.735485
2239.000000	7.780545
2238.000000	7.849741
2237.000000	7.874983
2236.000000	7.916722
2235.000000	7.976064
2234.000000	8.003852
2233.000000	8.026659
2232.000000	8.062087
2231.000000	8.093862
2230.000000	8.123201
2229.000000	8.146118
2228.000000	8.157079
2227.000000	8.160400
2226.000000	8.155086
2225.000000	8.189296
2224.000000	8.164386
2223.000000	8.164496
2222.000000	8.196824
2221.000000	8.184757
2220.000000	8.163500
2219.000000	8.181325
2218.000000	8.156746
2217.000000	8.143240
2216.000000	8.132168
2215.000000	8.127408
2214.000000	8.116226
2213.000000	8.105154
2212.000000	8.077255
2211.000000	8.077919
2210.000000	8.051016
2209.000000	8.067844
2208.000000	8.056884
2207.000000	8.059541
2206.000000	8.025109
2205.000000	8.013706
2204.000000	8.008170
2203.000000	8.032416
2202.000000	8.010163
2201.000000	7.977835
2200.000000	7.980160
2199.000000	7.989571
2198.000000	7.965214
2197.000000	7.971192
2196.000000	7.947610
2195.000000	7.974071
2194.000000	7.965103
2193.000000	7.951043
2192.000000	7.947610
2191.000000	7.933439
2190.000000	7.940636
2189.000000	7.920486
2188.000000	7.903547
2187.000000	7.925025
2186.000000	7.896461
2185.000000	7.918272
2184.000000	7.889265
2183.000000	7.905318
2182.000000	7.891811
2181.000000	7.858265
2180.000000	7.866126
2179.000000	7.869558
2178.000000	7.856273
2177.000000	7.833909
2176.000000	7.825827
2175.000000	7.847969
2174.000000	7.849076
2173.000000	7.849187
2172.000000	7.843873
2171.000000	7.851733
2170.000000	7.854501
2169.000000	7.853062
2168.000000	7.857601
2167.000000	7.845201
2166.000000	7.849076
2165.000000	7.825605
2164.000000	7.865683
2163.000000	7.889486
2162.000000	7.892697
2161.000000	7.896904
2160.000000	7.904100
2159.000000	7.913843
2158.000000	7.910522
2157.000000	7.942186
2156.000000	7.968424
2155.000000	7.977281
2154.000000	7.994774
2153.000000	8.021788
2152.000000	8.023670
2151.000000	8.032306
2150.000000	8.071166
2149.000000	8.075926
2148.000000	8.090319
2147.000000	8.098290
2146.000000	8.126854
2145.000000	8.159846
2144.000000	8.169811
2143.000000	8.184535
2142.000000	8.198042
2141.000000	8.197821
2140.000000	8.214096
2139.000000	8.237788
2138.000000	8.260927
2137.000000	8.263473
2136.000000	8.269341
2135.000000	8.276427
2134.000000	8.284287
2133.000000	8.290487
2132.000000	8.312851
2131.000000	8.293255
2130.000000	8.318276
2129.000000	8.310969
2128.000000	8.314069
2127.000000	8.324144
2126.000000	8.321930
2125.000000	8.334883
2124.000000	8.328351
2123.000000	8.298348
2122.000000	8.314623
2121.000000	8.310526
2120.000000	8.301226
2119.000000	8.289712
2118.000000	8.301337
2117.000000	8.297462
2116.000000	8.272995
2115.000000	8.252070
2114.000000	8.244099
2113.000000	8.230370
2112.000000	8.214538
2111.000000	8.203467
2110.000000	8.184203
2109.000000	8.169257
2108.000000	8.173021
2107.000000	8.177339
2106.000000	8.155750
2105.000000	8.127518
2104.000000	8.129733
2103.000000	8.113790
2102.000000	8.089876
2101.000000	8.082348
2100.000000	8.069173
2099.000000	8.059762
2098.000000	8.049577
2097.000000	8.041605
2096.000000	8.028652
2095.000000	8.012377
2094.000000	7.993113
2093.000000	7.986138
2092.000000	7.974181
2091.000000	7.968203
2090.000000	7.957132
2089.000000	7.952593
2088.000000	7.942296
2087.000000	7.917939
2086.000000	7.922479
2085.000000	7.931336
2084.000000	7.905650
2083.000000	7.888933
2082.000000	7.872990
2081.000000	7.861476
2080.000000	7.855165
2079.000000	7.850737
2078.000000	7.828152
2077.000000	7.801248
2076.000000	7.787852
2075.000000	7.781763
2074.000000	7.772463
2073.000000	7.745339
2072.000000	7.726518
2071.000000	7.718878
2070.000000	7.706368
2069.000000	7.681568
2068.000000	7.653337
2067.000000	7.644812
2066.000000	7.625769
2065.000000	7.597095
2064.000000	7.582591
2063.000000	7.570081
2062.000000	7.560781
2061.000000	7.559009
2060.000000	7.538417
2059.000000	7.526017
2058.000000	7.523803
2057.000000	7.514503
2056.000000	7.511957
2055.000000	7.513285
2054.000000	7.526128
2053.000000	7.531221
2052.000000	7.543842
2051.000000	7.565652
2050.000000	7.571520
2049.000000	7.608830
2048.000000	7.645919
2047.000000	7.671493
2046.000000	7.711350
2045.000000	7.752535
2044.000000	7.817966
2043.000000	7.860812
2042.000000	7.870444
2041.000000	7.904654
2040.000000	7.940414
2039.000000	8.005513
2038.000000	8.051459
2037.000000	8.086776
2036.000000	8.113236
2035.000000	8.155861
2034.000000	8.204242
2033.000000	8.231477
2032.000000	8.239338
2031.000000	8.260152
2030.000000	8.306983
2029.000000	8.323812
2028.000000	8.363115
2027.000000	8.399318
2026.000000	8.394003
2025.000000	8.399539
2024.000000	8.425889
2023.000000	8.461427
2022.000000	8.469067
2021.000000	8.485120
2020.000000	8.482573
2019.000000	8.494863
2018.000000	8.501284
2017.000000	8.511691
2016.000000	8.514680
2015.000000	8.525862
2014.000000	8.526083
2013.000000	8.529405
2012.000000	8.540255
2011.000000	8.527523
2010.000000	8.526858
2009.000000	8.498627
2008.000000	8.502391
2007.000000	8.495416
2006.000000	8.484566
2005.000000	8.465413
2004.000000	8.451020
2003.000000	8.417364
2002.000000	8.405960
2001.000000	8.378614
2000.000000	8.353261
1999.000000	8.326247
1998.000000	8.308312
1997.000000	8.271666
1996.000000	8.230592
1995.000000	8.216974
1994.000000	8.189185
1993.000000	8.168150
1992.000000	8.129290
1991.000000	8.095633
1990.000000	8.067955
1989.000000	8.037841
1988.000000	7.996878
1987.000000	7.971414
1986.000000	7.915947
1985.000000	7.903768
1984.000000	7.845644
1983.000000	7.804127
1982.000000	7.753421
1981.000000	7.735596
1980.000000	7.706368
1979.000000	7.659869
1978.000000	7.609052
1977.000000	7.580709
1976.000000	7.557570
1975.000000	7.524910
1974.000000	7.463575
1973.000000	7.447079
1972.000000	7.413755
1971.000000	7.367255
1970.000000	7.342677
1969.000000	7.333820
1968.000000	7.285992
1967.000000	7.253775
1966.000000	7.228975
1965.000000	7.157676
1964.000000	7.160223
1963.000000	7.138191
1962.000000	7.097892
1961.000000	7.071321
1960.000000	7.014636
1959.000000	7.010872
1958.000000	6.994265
1957.000000	6.966254
1956.000000	6.945108
1955.000000	6.904477
1954.000000	6.864842
1953.000000	6.850006
1952.000000	6.836057
1951.000000	6.803286
1950.000000	6.779925
1949.000000	6.769518
1948.000000	6.743390
1947.000000	6.722023
1946.000000	6.695341
1945.000000	6.687923
1944.000000	6.651942
1943.000000	6.649506
1942.000000	6.629135
1941.000000	6.632235
1940.000000	6.644081
1939.000000	6.637770
1938.000000	6.603782
1937.000000	6.591382
1936.000000	6.613856
1935.000000	6.612749
1934.000000	6.626146
1933.000000	6.617067
1932.000000	6.639099
1931.000000	6.665781
1930.000000	6.651277
1929.000000	6.723794
1928.000000	6.715269
1927.000000	6.726894
1926.000000	6.790886
1925.000000	6.816018
1924.000000	6.827200
1923.000000	6.896616
1922.000000	6.920752
1921.000000	6.971901
1920.000000	7.027036
1919.000000	7.071985
1918.000000	7.129666
1917.000000	7.196204
1916.000000	7.256875
1915.000000	7.332381
1914.000000	7.368252
1913.000000	7.462136
1912.000000	7.552920
1911.000000	7.656215
1910.000000	7.733492
1909.000000	7.799920
1908.000000	7.886497
1907.000000	7.996435
1906.000000	8.128625
1905.000000	8.228931
1904.000000	8.360568
1903.000000	8.488663
1902.000000	8.606129
1901.000000	8.751273
1900.000000	8.901399
1899.000000	9.065143
1898.000000	9.248926
1897.000000	9.395620
1896.000000	9.534564
1895.000000	9.720783
1894.000000	9.868916
1893.000000	10.049599
1892.000000	10.253310
1891.000000	10.490788
1890.000000	10.727270
1889.000000	10.934303
1888.000000	11.174327
1887.000000	11.432066
1886.000000	11.726672
1885.000000	11.999025
1884.000000	12.336477
1883.000000	12.743456
1882.000000	13.128515
1881.000000	13.511358
1880.000000	13.932288
1879.000000	14.306053
1878.000000	14.687790
1877.000000	15.108387
1876.000000	15.490899
1875.000000	15.885035
1874.000000	16.265444
1873.000000	16.642088
1872.000000	17.016850
1871.000000	17.337030
1870.000000	17.672821
1869.000000	17.968092
1868.000000	18.237345
1867.000000	18.462202
1866.000000	18.658274
1865.000000	18.810614
1864.000000	18.959633
1863.000000	19.080642
1862.000000	19.203976
1861.000000	19.329635
1860.000000	19.451861
1859.000000	19.581174
1858.000000	19.673176
1857.000000	19.738164
1856.000000	19.788538
1855.000000	19.839909
1854.000000	19.855408
1853.000000	19.873787
1852.000000	19.861276
1851.000000	19.850205
1850.000000	19.853305
1849.000000	19.846994
1848.000000	19.819538
1847.000000	19.808356
1846.000000	19.791638
1845.000000	19.722111
1844.000000	19.677272
1843.000000	19.658229
1842.000000	19.649151
1841.000000	19.648597
1840.000000	19.621694
1839.000000	19.596563
1838.000000	19.554713
1837.000000	19.525817
1836.000000	19.500464
1835.000000	19.459722
1834.000000	19.395066
1833.000000	19.332956
1832.000000	19.253243
1831.000000	19.183494
1830.000000	19.126809
1829.000000	19.070235
1828.000000	19.012111
1827.000000	18.922877
1826.000000	18.856228
1825.000000	18.804525
1824.000000	18.732894
1823.000000	18.686063
1822.000000	18.663367
1821.000000	18.645763
1820.000000	18.619414
1819.000000	18.589189
1818.000000	18.553097
1817.000000	18.538483
1816.000000	18.509255
1815.000000	18.488994
1814.000000	18.482241
1813.000000	18.466077
1812.000000	18.455006
1811.000000	18.425445
1810.000000	18.385257
1809.000000	18.352707
1808.000000	18.326025
1807.000000	18.295690
1806.000000	18.238784
1805.000000	18.199370
1804.000000	18.155860
1803.000000	18.101722
1802.000000	18.048580
1801.000000	18.004848
1800.000000	17.961338
1799.000000	17.907643
1798.000000	17.852619
1797.000000	17.797041
1796.000000	17.752977
1795.000000	17.716221
1794.000000	17.673264
1793.000000	17.618129
1792.000000	17.559009
1791.000000	17.515278
1790.000000	17.462135
1789.000000	17.400469
1788.000000	17.343452
1787.000000	17.293299
1786.000000	17.249567
1785.000000	17.172069
1784.000000	17.104866
1783.000000	17.047960
1782.000000	16.986847
1781.000000	16.919976
1780.000000	16.848456
1779.000000	16.772064
1778.000000	16.695673
1777.000000	16.614077
1776.000000	16.526504
1775.000000	16.444687
1774.000000	16.355896
1773.000000	16.258912
1772.000000	16.166688
1771.000000	16.052543
1770.000000	15.929653
1769.000000	15.843407
1768.000000	15.752291
1767.000000	15.635489
1766.000000	15.554226
1765.000000	15.483702
1764.000000	15.421150
1763.000000	15.394136
1762.000000	15.381404
1761.000000	15.398343
1760.000000	15.428235
1759.000000	15.467760
1758.000000	15.528652
1757.000000	15.592311
1756.000000	15.651543
1755.000000	15.691178
1754.000000	15.736348
1753.000000	15.770669
1752.000000	15.777423
1751.000000	15.798347
1750.000000	15.773991
1749.000000	15.748970
1748.000000	15.701917
1747.000000	15.656414
1746.000000	15.595411
1745.000000	15.525220
1744.000000	15.412957
1743.000000	15.284531
1742.000000	15.144368
1741.000000	14.985496
1740.000000	14.813670
1739.000000	14.633209
1738.000000	14.453522
1737.000000	14.293432
1736.000000	14.136884
1735.000000	14.024843
1734.000000	13.935277
1733.000000	13.879256
1732.000000	13.880585
1731.000000	13.913024
1730.000000	13.968712
1729.000000	14.033590
1728.000000	14.112749
1727.000000	14.201208
1726.000000	14.281253
1725.000000	14.341038
1724.000000	14.411894
1723.000000	14.475997
1722.000000	14.513639
1721.000000	14.546853
1720.000000	14.537664
1719.000000	14.558035
1718.000000	14.608741
1717.000000	14.645830
1716.000000	14.691886
1715.000000	14.738607
1714.000000	14.811013
1713.000000	14.872680
1712.000000	14.945639
1711.000000	14.999999
1710.000000	15.006088
1709.000000	15.020813
1708.000000	15.037088
1707.000000	15.043288
1706.000000	15.014835
1705.000000	14.972100
1704.000000	14.925711
1703.000000	14.868473
1702.000000	14.791528
1701.000000	14.725764
1700.000000	14.623466
1699.000000	14.492493
1698.000000	14.359859
1697.000000	14.242726
1696.000000	14.138545
1695.000000	14.098356
1694.000000	14.098356
1693.000000	14.110978
1692.000000	14.206190
1691.000000	14.315353
1690.000000	14.414662
1689.000000	14.556817
1688.000000	14.656901
1687.000000	14.721225
1686.000000	14.764846
1685.000000	14.788870
1684.000000	14.826181
1683.000000	14.922611
1682.000000	15.096651
1681.000000	15.367897
1680.000000	15.721070
1679.000000	16.124949
1678.000000	16.603781
1677.000000	17.068885
1676.000000	17.519595
1675.000000	17.924028
1674.000000	18.307426
1673.000000	18.628935
1672.000000	18.928966
1671.000000	19.173862
1670.000000	19.384437
1669.000000	19.599773
1668.000000	19.770935
1667.000000	19.920175
1666.000000	20.037420
1665.000000	20.149018
1664.000000	20.247109
1663.000000	20.323169
1662.000000	20.402993
1661.000000	20.463885
1660.000000	20.538837
1659.000000	20.574486
1658.000000	20.623864
1657.000000	20.635489
1656.000000	20.670917
1655.000000	20.695938
1654.000000	20.677117
1653.000000	20.686306
1652.000000	20.662281
1651.000000	20.653757
1650.000000	20.636818
1649.000000	20.606372
1648.000000	20.546476
1647.000000	20.522009
1646.000000	20.483481
1645.000000	20.415282
1644.000000	20.385057
1643.000000	20.330587
1642.000000	20.273127
1641.000000	20.199946
1640.000000	20.165404
1639.000000	20.090783
1638.000000	20.017049
1637.000000	19.955825
1636.000000	19.901354
1635.000000	19.814556
1634.000000	19.751228
1633.000000	19.680261
1632.000000	19.591027
1631.000000	19.537774
1630.000000	19.463597
1629.000000	19.393073
1628.000000	19.287564
1627.000000	19.221468
1626.000000	19.137216
1625.000000	19.064146
1624.000000	18.996722
1623.000000	18.904388
1622.000000	18.826335
1621.000000	18.743633
1620.000000	18.682298
1619.000000	18.583100
1618.000000	18.521765
1617.000000	18.469952
1616.000000	18.395442
1615.000000	18.313626
1614.000000	18.253509
1613.000000	18.195495
1612.000000	18.103493
1611.000000	18.047805
1610.000000	17.981820
1609.000000	17.918714
1608.000000	17.855497
1607.000000	17.778884
1606.000000	17.698175
1605.000000	17.647579
1604.000000	17.570412
1603.000000	17.519817
1602.000000	17.448407
1601.000000	17.391501
1600.000000	17.324520
1599.000000	17.265621
1598.000000	17.208272
1597.000000	17.122691
1596.000000	17.064235
1595.000000	17.016850
1594.000000	16.956733
1593.000000	16.887205
1592.000000	16.840263
1591.000000	16.788007
1590.000000	16.751804
1589.000000	16.690469
1588.000000	16.638213
1587.000000	16.613635
1586.000000	16.568353
1585.000000	16.523847
1584.000000	16.485208
1583.000000	16.446569
1582.000000	16.414241
1581.000000	16.382910
1580.000000	16.336964
1579.000000	16.327553
1578.000000	16.313825
1577.000000	16.290022
1576.000000	16.262787
1575.000000	16.260572
1574.000000	16.248615
1573.000000	16.237544
1572.000000	16.226030
1571.000000	16.215180
1570.000000	16.215180
1569.000000	16.223373
1568.000000	16.221380
1567.000000	16.222930
1566.000000	16.247840
1565.000000	16.250276
1564.000000	16.247508
1563.000000	16.248726
1562.000000	16.252380
1561.000000	16.283822
1560.000000	16.285040
1559.000000	16.254372
1558.000000	16.250055
1557.000000	16.255701
1556.000000	16.264337
1555.000000	16.241087
1554.000000	16.222266
1553.000000	16.224369
1552.000000	16.211084
1551.000000	16.169456
1550.000000	16.151299
1549.000000	16.140781
1548.000000	16.122957
1547.000000	16.091957
1546.000000	16.074575
1545.000000	16.055643
1544.000000	16.035051
1543.000000	16.029847
1542.000000	16.012908
1541.000000	15.984455
1540.000000	15.968734
1539.000000	15.954341
1538.000000	15.939949
1537.000000	15.929763
1536.000000	15.922124
1535.000000	15.901974
1534.000000	15.889796
1533.000000	15.864111
1532.000000	15.832225
1531.000000	15.813404
1530.000000	15.789158
1529.000000	15.754837
1528.000000	15.729927
1527.000000	15.688853
1526.000000	15.646450
1525.000000	15.620875
1524.000000	15.596629
1523.000000	15.564523
1522.000000	15.524223
1521.000000	15.474845
1520.000000	15.438864
1519.000000	15.415393
1518.000000	15.363911
1517.000000	15.314644
1516.000000	15.291395
1515.000000	15.264049
1514.000000	15.222199
1513.000000	15.168172
1512.000000	15.110601
1511.000000	15.070191
1510.000000	15.041184
1509.000000	15.002767
1508.000000	14.948518
1507.000000	14.892387
1506.000000	14.850537
1505.000000	14.809352
1504.000000	14.770492
1503.000000	14.726096
1502.000000	14.682254
1501.000000	14.635423
1500.000000	14.603759
1499.000000	14.560360
1498.000000	14.509653
1497.000000	14.475665
1496.000000	14.448762
1495.000000	14.439683
1494.000000	14.409126
1493.000000	14.377463
1492.000000	14.346020
1491.000000	14.322992
1490.000000	14.309042
1489.000000	14.281032
1488.000000	14.264647
1487.000000	14.246933
1486.000000	14.230436
1485.000000	14.207851
1484.000000	14.186705
1483.000000	14.171316
1482.000000	14.160577
1481.000000	14.155373
1480.000000	14.159138
1479.000000	14.145409
1478.000000	14.127252
1477.000000	14.109317
1476.000000	14.112306
1475.000000	14.127695
1474.000000	14.131902
1473.000000	14.136995
1472.000000	14.148509
1471.000000	14.163123
1470.000000	14.162459
1469.000000	14.155816
1468.000000	14.161020
1467.000000	14.184601
1466.000000	14.195562
1465.000000	14.196448
1464.000000	14.209512
1463.000000	14.241065
1462.000000	14.265754
1461.000000	14.302732
1460.000000	14.331849
1459.000000	14.354767
1458.000000	14.396062
1457.000000	14.438465
1456.000000	14.491939
1455.000000	14.555046
1454.000000	14.594902
1453.000000	14.671958
1452.000000	14.738164
1451.000000	14.789092
1450.000000	14.875005
1449.000000	14.934900
1448.000000	14.999446
1447.000000	15.079712
1446.000000	15.144590
1445.000000	15.235042
1444.000000	15.332358
1443.000000	15.408529
1442.000000	15.483592
1441.000000	15.572605
1440.000000	15.662835
1439.000000	15.750962
1438.000000	15.838868
1437.000000	15.958770
1436.000000	16.052101
1435.000000	16.151299
1434.000000	16.248947
1433.000000	16.377374
1432.000000	16.483215
1431.000000	16.615517
1430.000000	16.726561
1429.000000	16.841924
1428.000000	16.997254
1427.000000	17.129001
1426.000000	17.269828
1425.000000	17.469332
1424.000000	17.640051
1423.000000	17.810548
1422.000000	18.038505
1421.000000	18.212434
1420.000000	18.415924
1419.000000	18.636242
1418.000000	18.891767
1417.000000	19.086953
1416.000000	19.299742
1415.000000	19.554824
1414.000000	19.811345
1413.000000	20.094105
1412.000000	20.357490
1411.000000	20.593086
1410.000000	20.921238
1409.000000	21.268875
1408.000000	21.620056
1407.000000	21.999246
1406.000000	22.407665
1405.000000	22.807891
1404.000000	23.222066
1403.000000	23.653956
1402.000000	24.058389
1401.000000	24.462822
1400.000000	24.964792
1399.000000	25.394689
1398.000000	25.716309
1397.000000	26.032725
1396.000000	26.375270
1395.000000	26.785792
1394.000000	27.122801
1393.000000	27.407000
1392.000000	27.694742
1391.000000	28.061422
1390.000000	28.403745
1389.000000	28.738983
1388.000000	29.163344
1387.000000	29.654797
1386.000000	30.129754
1385.000000	30.677227
1384.000000	31.261568
1383.000000	31.904586
1382.000000	32.547494
1381.000000	33.139585
1380.000000	33.606570
1379.000000	33.955315
1378.000000	34.224125
1377.000000	34.440014
1376.000000	34.671293
1375.000000	34.884968
1374.000000	35.164849
1373.000000	35.490123
1372.000000	35.892009
1371.000000	36.323013
1370.000000	36.787563
1369.000000	37.202071
1368.000000	37.569415
1367.000000	37.959455
1366.000000	38.269450
1365.000000	38.533832
1364.000000	38.801313
1363.000000	39.032592
1362.000000	39.261767
1361.000000	39.493820
1360.000000	39.648486
1359.000000	39.733181
1358.000000	39.852750
1357.000000	40.015830
1356.000000	40.222198
1355.000000	40.540054
1354.000000	40.997740
1353.000000	41.542999
1352.000000	42.058919
1351.000000	42.729948
1350.000000	43.343074
1349.000000	43.922211
1348.000000	44.457064
1347.000000	44.975420
1346.000000	45.439527
1345.000000	45.886030
1344.000000	46.314266
1343.000000	46.779038
1342.000000	47.172289
1341.000000	47.580375
1340.000000	47.969973
1339.000000	48.368206
1338.000000	48.758689
1337.000000	49.150168
1336.000000	49.513195
1335.000000	49.875889
1334.000000	50.210351
1333.000000	50.542821
1332.000000	50.876509
1331.000000	51.208979
1330.000000	51.532370
1329.000000	51.838490
1328.000000	52.108850
1327.000000	52.384635
1326.000000	52.655327
1325.000000	52.914173
1324.000000	53.161616
1323.000000	53.389462
1322.000000	53.614984
1321.000000	53.831537
1320.000000	54.031152
1319.000000	54.233977
1318.000000	54.416874
1317.000000	54.615714
1316.000000	54.773147
1315.000000	54.960141
1314.000000	55.115249
1313.000000	55.270247
1312.000000	55.418602
1311.000000	55.552342
1310.000000	55.683537
1309.000000	55.805763
1308.000000	55.928101
1307.000000	56.035049
1306.000000	56.123065
1305.000000	56.216728
1304.000000	56.292234
1303.000000	56.358330
1302.000000	56.414461
1301.000000	56.469264
1300.000000	56.504581
1299.000000	56.531816
1298.000000	56.565694
1297.000000	56.592044
1296.000000	56.605551
1295.000000	56.630904
1294.000000	56.635000
1293.000000	56.643414
1292.000000	56.641089
1291.000000	56.632565
1290.000000	56.617951
1289.000000	56.589276
1288.000000	56.544659
1287.000000	56.499045
1286.000000	56.452657
1285.000000	56.405936
1284.000000	56.331648
1283.000000	56.263560
1282.000000	56.191707
1281.000000	56.103137
1280.000000	56.019771
1279.000000	55.954672
1278.000000	55.878723
1277.000000	55.806870
1276.000000	55.722507
1275.000000	55.658183
1274.000000	55.602717
1273.000000	55.549242
1272.000000	55.497650
1271.000000	55.453697
1270.000000	55.413841
1269.000000	55.354167
1268.000000	55.297482
1267.000000	55.232383
1266.000000	55.171048
1265.000000	55.126763
1264.000000	55.059671
1263.000000	54.986933
1262.000000	54.931466
1261.000000	54.855739
1260.000000	54.784219
1259.000000	54.725320
1258.000000	54.654353
1257.000000	54.575083
1256.000000	54.499355
1255.000000	54.413996
1254.000000	54.326201
1253.000000	54.247484
1252.000000	54.153711
1251.000000	54.027831
1250.000000	53.916343
1249.000000	53.811941
1248.000000	53.691818
1247.000000	53.568595
1246.000000	53.430426
1245.000000	53.275317
1244.000000	53.114895
1243.000000	52.944176
1242.000000	52.776557
1241.000000	52.601300
1240.000000	52.422277
1239.000000	52.219673
1238.000000	52.029801
1237.000000	51.840151
1236.000000	51.639318
1235.000000	51.449225
1234.000000	51.238428
1233.000000	51.014567
1232.000000	50.807756
1231.000000	50.578914
1230.000000	50.339221
1229.000000	50.107610
1228.000000	49.869468
1227.000000	49.629443
1226.000000	49.385764
1225.000000	49.140979
1224.000000	48.891212
1223.000000	48.632808
1222.000000	48.380716
1221.000000	48.145009
1220.000000	47.898231
1219.000000	47.667617
1218.000000	47.449956
1217.000000	47.222884
1216.000000	47.016073
1215.000000	46.824541
1214.000000	46.622601
1213.000000	46.427968
1212.000000	46.246843
1211.000000	46.064942
1210.000000	45.888355
1209.000000	45.731808
1208.000000	45.580907
1207.000000	45.445727
1206.000000	45.340882
1205.000000	45.232826
1204.000000	45.140714
1203.000000	45.076500
1202.000000	45.041183
1201.000000	45.000994
1200.000000	44.915524
1199.000000	44.828172
1198.000000	44.742370
1197.000000	44.611840
1196.000000	44.449535
1195.000000	44.224789
1194.000000	43.927636
1193.000000	43.554646
1192.000000	43.103381
1191.000000	42.579600
1190.000000	42.043419
1189.000000	41.523403
1188.000000	41.069924
1187.000000	40.714426
1186.000000	40.506397
1185.000000	40.442848
1184.000000	40.527433
1183.000000	40.775982
1182.000000	41.172555
1181.000000	41.665336
1180.000000	42.265841
1179.000000	42.884724
1178.000000	43.504604
1177.000000	44.041449
1176.000000	44.524155
1175.000000	44.954827
1174.000000	45.337560
1173.000000	45.723172
1172.000000	46.118305
1171.000000	46.527610
1170.000000	46.944553
1169.000000	47.358175
1168.000000	47.770579
1167.000000	48.218190
1166.000000	48.662812
1165.000000	49.111862
1164.000000	49.566779
1163.000000	50.037640
1162.000000	50.507504
1161.000000	51.001171
1160.000000	51.458635
1159.000000	51.928389
1158.000000	52.377771
1157.000000	52.806893
1156.000000	53.214315
1155.000000	53.564831
1154.000000	53.850801
1153.000000	54.098244
1152.000000	54.290441
1151.000000	54.406357
1150.000000	54.492159
1149.000000	54.578072
1148.000000	54.642396
1147.000000	54.753330
1146.000000	54.891499
1145.000000	55.101078
1144.000000	55.388931
1143.000000	55.733579
1142.000000	56.148308
1141.000000	56.586619
1140.000000	57.057036
1139.000000	57.553582
1138.000000	58.037175
1137.000000	58.567155
1136.000000	59.120386
1135.000000	59.684909
1134.000000	60.266150
1133.000000	60.757935
1132.000000	61.251713
1131.000000	61.694674
1130.000000	62.130992
1129.000000	62.511400
1128.000000	62.803239
1127.000000	63.088545
1126.000000	63.283178
1125.000000	63.461535
1124.000000	63.596383
1123.000000	63.704550
1122.000000	63.822237
1121.000000	63.890879
1120.000000	63.963174
1119.000000	64.020191
1118.000000	64.067908
1117.000000	64.081636
1116.000000	64.091047
1115.000000	64.094479
1114.000000	64.076765
1113.000000	64.067133
1112.000000	64.056726
1111.000000	64.041558
1110.000000	64.027830
1109.000000	64.010116
1108.000000	64.004248
1107.000000	63.980334
1106.000000	63.987309
1105.000000	63.948892
1104.000000	63.936160
1103.000000	63.895086
1102.000000	63.895861
1101.000000	63.861761
1100.000000	63.829101
1099.000000	63.808066
1098.000000	63.789245
1097.000000	63.755367
1096.000000	63.693035
1095.000000	63.642993
1094.000000	63.615647
1093.000000	63.571805
1092.000000	63.506817
1091.000000	63.465853
1090.000000	63.373408
1089.000000	63.335323
1088.000000	63.266017
1087.000000	63.202357
1086.000000	63.122755
1085.000000	63.081459
1084.000000	62.988793
1083.000000	62.914062
1082.000000	62.848299
1081.000000	62.750982
1080.000000	62.672487
1079.000000	62.590892
1078.000000	62.540961
1077.000000	62.464237
1076.000000	62.401795
1075.000000	62.322746
1074.000000	62.237276
1073.000000	62.150478
1072.000000	62.077629
1071.000000	62.024487
1070.000000	61.939681
1069.000000	61.848011
1068.000000	61.775273
1067.000000	61.690024
1066.000000	61.599683
1065.000000	61.534916
1064.000000	61.443246
1063.000000	61.361651
1062.000000	61.262231
1061.000000	61.198239
1060.000000	61.093837
1059.000000	60.995303
1058.000000	60.931533
1057.000000	60.846948
1056.000000	60.752510
1055.000000	60.640248
1054.000000	60.551346
1053.000000	60.462776
1052.000000	60.387048
1051.000000	60.278661
1050.000000	60.210130
1049.000000	60.120563
1048.000000	60.021365
1047.000000	59.956376
1046.000000	59.891610
1045.000000	59.822414
1044.000000	59.735173
1043.000000	59.661549
1042.000000	59.568108
1041.000000	59.526812
1040.000000	59.448981
1039.000000	59.366389
1038.000000	59.280255
1037.000000	59.214713
1036.000000	59.135997
1035.000000	59.036909
1034.000000	58.964060
1033.000000	58.878590
1032.000000	58.774520
1031.000000	58.704660
1030.000000	58.582877
1029.000000	58.488660
1028.000000	58.395219
1027.000000	58.294249
1026.000000	58.185640
1025.000000	58.076588
1024.000000	57.991782
1023.000000	57.891034
1022.000000	57.772350
1021.000000	57.661416
1020.000000	57.556571
1019.000000	57.453830
1018.000000	57.368914
1017.000000	57.266505
1016.000000	57.167417
1015.000000	57.097004
1014.000000	57.025816
1013.000000	56.978984
1012.000000	56.888311
1011.000000	56.834615
1010.000000	56.803505
1009.000000	56.781473
1008.000000	56.745381
1007.000000	56.723017
1006.000000	56.699103
1005.000000	56.678178
1004.000000	56.651718
1003.000000	56.623708
1002.000000	56.606547
1001.000000	56.582855
1000.000000	56.556726
999.000000	56.537130
998.000000	56.506463
997.000000	56.498381
996.000000	56.479006
995.000000	56.462178
994.000000	56.441807
993.000000	56.430846
992.000000	56.428078
991.000000	56.415236
990.000000	56.403390
989.000000	56.382686
988.000000	56.378258
987.000000	56.384347
986.000000	56.382797
985.000000	56.386340
984.000000	56.393204
983.000000	56.390104
982.000000	56.397079
981.000000	56.401397
980.000000	56.403611
979.000000	56.404607
978.000000	56.411361
977.000000	56.411139
976.000000	56.423096
975.000000	56.443689
974.000000	56.443800
973.000000	56.436493
972.000000	56.454317
971.000000	56.464281
970.000000	56.456864
969.000000	56.452878
968.000000	56.460849
967.000000	56.476903
966.000000	56.496831
965.000000	56.496056
964.000000	56.514213
963.000000	56.545545
962.000000	56.559716
961.000000	56.579533
960.000000	56.615626
959.000000	56.646957
958.000000	56.669321
957.000000	56.681832
956.000000	56.695006
955.000000	56.716374
954.000000	56.746266
953.000000	56.769959
952.000000	56.766305
951.000000	56.756009
950.000000	56.759995
949.000000	56.776823
948.000000	56.785126
947.000000	56.780587
946.000000	56.786123
945.000000	56.791991
944.000000	56.777266
943.000000	56.766084
942.000000	56.783466
941.000000	56.779148
940.000000	56.760548
939.000000	56.758002
938.000000	56.768298
937.000000	56.748148
936.000000	56.734531
935.000000	56.742834
934.000000	56.732649
933.000000	56.718256
932.000000	56.715488
931.000000	56.702867
930.000000	56.680171
929.000000	56.668989
928.000000	56.677514
927.000000	56.663896
926.000000	56.635443
925.000000	56.613522
924.000000	56.610422
923.000000	56.608208
922.000000	56.589055
921.000000	56.558055
920.000000	56.536355
919.000000	56.506020
918.000000	56.486203
917.000000	56.450553
916.000000	56.408040
915.000000	56.354455
914.000000	56.296995
913.000000	56.261345
912.000000	56.224035
911.000000	56.183625
910.000000	56.136794
909.000000	56.091845
908.000000	56.072691
907.000000	56.038481
906.000000	56.024863
905.000000	56.023756
904.000000	56.029735
903.000000	56.044017
902.000000	56.064388
901.000000	56.034274
900.000000	56.037153
899.000000	56.055974
898.000000	56.079998
897.000000	56.099041
896.000000	56.090405
895.000000	56.088634
894.000000	56.094834
893.000000	56.098377
892.000000	56.099484
891.000000	56.052320
890.000000	56.019217
889.000000	55.966407
888.000000	55.937290
887.000000	55.927658
886.000000	55.882930
885.000000	55.821484
884.000000	55.753507
883.000000	55.672908
882.000000	55.614784
881.000000	55.506175
880.000000	55.408970
879.000000	55.314532
878.000000	55.201605
877.000000	55.053804
876.000000	54.947741
875.000000	54.795179
874.000000	54.600657
873.000000	54.385321
872.000000	54.237299
871.000000	54.177957
870.000000	54.201206
869.000000	54.255234
868.000000	54.313248
867.000000	54.352329
866.000000	54.375357
865.000000	54.432374
864.000000	54.458170
863.000000	54.475995
862.000000	54.488173
861.000000	54.535337
860.000000	54.570101
859.000000	54.590140
858.000000	54.610400
857.000000	53.914800
856.000000	55.004400
855.000000	54.912000
854.000000	55.225100
853.000000	54.644200
852.000000	55.110700
851.000000	54.841400
850.000000	54.971800
849.000000	55.139700
848.000000	54.691600
847.000000	54.856700
846.000000	54.816500
845.000000	54.690200
844.000000	55.308100
843.000000	54.959100
842.000000	54.922100
841.000000	54.966400
840.000000	54.998800
839.000000	54.902600
838.000000	54.772200
837.000000	55.005300
836.000000	54.798600
835.000000	54.679800
834.000000	54.580300
833.000000	54.737900
832.000000	54.666000
831.000000	54.587300
830.000000	54.563700
829.000000	54.553200
828.000000	54.382200
827.000000	54.621800
826.000000	54.524900
825.000000	54.236900
824.000000	54.046700
823.000000	53.989600
822.000000	54.202000
821.000000	54.120900
820.000000	53.905300
819.000000	53.805000
818.000000	53.764600
817.000000	53.865100
816.000000	53.768600
815.000000	53.677600
814.000000	53.424800
813.000000	53.504900
812.000000	53.490100
811.000000	53.258000
810.000000	53.232700
809.000000	53.218000
808.000000	53.093600
807.000000	52.852000
806.000000	52.847100
805.000000	52.659000
804.000000	52.667000
803.000000	52.436900
802.000000	52.266300
801.000000	52.404500
800.000000	52.209400
799.000000	52.021800
798.000000	51.888900
797.000000	51.653000
796.000000	51.705300
795.000000	51.576200
794.000000	51.505400
793.000000	51.414700
792.000000	51.215700
791.000000	51.149800
790.000000	51.065100
789.000000	50.807100
788.000000	50.715900
787.000000	50.590600
786.000000	50.539600
785.000000	50.364500
784.000000	50.250400
783.000000	50.101000
782.000000	49.829300
781.000000	49.723300
780.000000	49.766300
779.000000	49.446600
778.000000	49.425000
777.000000	49.244200
776.000000	49.095800
775.000000	49.079900
774.000000	48.740100
773.000000	48.521100
772.000000	48.487100
771.000000	48.366100
770.000000	48.187000
769.000000	48.101500
768.000000	47.866300
767.000000	47.751500
766.000000	47.603100
765.000000	47.374500
764.000000	47.253900
763.000000	47.053700
762.000000	46.901800
761.000000	46.691500
760.000000	46.446700
759.000000	46.296500
758.000000	46.017200
757.000000	45.919400
756.000000	45.699000
755.000000	45.489600
754.000000	45.317000
753.000000	45.170900
752.000000	45.032700
751.000000	44.812800
750.000000	44.615300
749.000000	44.432600
748.000000	44.298500
747.000000	44.045700
746.000000	43.793700
745.000000	43.570300
744.000000	43.358300
743.000000	43.206100
742.000000	42.955000
741.000000	42.739200
740.000000	42.463200
739.000000	42.211200
738.000000	42.026400
737.000000	41.828600
736.000000	41.647300
735.000000	41.474700
734.000000	41.233000
733.000000	41.071400
732.000000	40.841100
731.000000	40.603800
730.000000	40.370500
729.000000	40.199700
728.000000	39.924600
727.000000	39.773500
726.000000	39.502300
725.000000	39.308700
724.000000	39.080200
723.000000	38.858900
722.000000	38.673100
721.000000	38.431200
720.000000	38.184000
719.000000	37.956800
718.000000	37.787800
717.000000	37.570300
716.000000	37.357600
715.000000	37.134500
714.000000	36.906700
713.000000	36.722900
712.000000	36.512200
711.000000	36.313900
710.000000	36.070300
709.000000	35.881000
708.000000	35.711900
707.000000	35.533400
706.000000	35.304200
705.000000	35.072100
704.000000	34.893500
703.000000	34.681300
702.000000	34.533400
701.000000	34.359900
700.000000	34.181400
699.000000	34.015500
698.000000	33.856200
697.000000	33.695100
696.000000	33.493700
695.000000	33.304700
694.000000	33.152400
693.000000	33.006800
692.000000	32.824200
691.000000	32.638800
690.000000	32.513500
689.000000	32.309300
688.000000	32.167000
687.000000	32.021600
686.000000	31.872800
685.000000	31.735500
684.000000	31.618000
683.000000	31.468500
682.000000	31.306000
681.000000	31.166800
680.000000	31.041300
679.000000	30.911700
678.000000	30.792400
677.000000	30.677800
676.000000	30.561400
675.000000	30.460300
674.000000	30.313400
673.000000	30.176500
672.000000	30.092200
671.000000	29.980400
670.000000	29.858600
669.000000	29.789400
668.000000	29.701500
667.000000	29.594400
666.000000	29.498500
665.000000	29.398700
664.000000	29.320500
663.000000	29.241900
662.000000	29.179800
661.000000	29.112100
660.000000	29.035200
659.000000	28.947200
658.000000	28.870700
657.000000	28.806100
656.000000	28.763900
655.000000	28.706600
654.000000	28.665600
653.000000	28.650000
652.000000	28.603100
651.000000	28.568600
650.000000	28.526300
649.000000	28.491000
648.000000	28.471900
647.000000	28.455100
646.000000	28.448300
645.000000	28.443100
644.000000	28.430600
643.000000	28.416100
642.000000	28.408700
641.000000	28.407300
640.000000	28.421100
639.000000	28.415300
638.000000	28.410900
637.000000	28.423700
636.000000	28.441300
635.000000	28.454700
634.000000	28.470900
633.000000	28.497100
632.000000	28.505700
631.000000	28.516600
630.000000	28.546900
629.000000	28.590400
628.000000	28.632400
627.000000	28.674000
626.000000	28.712300
625.000000	28.748300
624.000000	28.787400
623.000000	28.814500
622.000000	28.855300
621.000000	28.918800
620.000000	28.968000
619.000000	29.013700
618.000000	29.057200
617.000000	29.104300
616.000000	29.172000
615.000000	29.231200
614.000000	29.304100
613.000000	29.350000
612.000000	29.404300
611.000000	29.454900
610.000000	29.501100
609.000000	29.563300
608.000000	29.622900
607.000000	29.658100
606.000000	29.716500
605.000000	29.771300
604.000000	29.799500
603.000000	29.842900
602.000000	29.887300
601.000000	29.907300
600.000000	29.920200
599.000000	29.962900
598.000000	29.979100
597.000000	29.995600
596.000000	30.031000
595.000000	30.029600
594.000000	30.034600
593.000000	30.028200
592.000000	30.015400
591.000000	30.020400
590.000000	30.016600
589.000000	29.965300
588.000000	29.924500
587.000000	29.904800
586.000000	29.866900
585.000000	29.839500
584.000000	29.773900
583.000000	29.720100
582.000000	29.665200
581.000000	29.594000
580.000000	29.501500
579.000000	29.413500
578.000000	29.337300
577.000000	29.236400
576.000000	29.114400
575.000000	29.010900
574.000000	28.895300
573.000000	28.779200
572.000000	28.635200
571.000000	28.502500
570.000000	28.368900
569.000000	28.241400
568.000000	28.093400
567.000000	27.918800
566.000000	27.755700
565.000000	27.597900
564.000000	27.415400
563.000000	27.231400
562.000000	27.045100
561.000000	26.853600
560.000000	26.644100
559.000000	26.415700
558.000000	26.189300
557.000000	25.975200
556.000000	25.756700
555.000000	25.532800
554.000000	25.305500
553.000000	25.049300
552.000000	24.828500
551.000000	24.555700
550.000000	24.312300
549.000000	24.058500
548.000000	23.800300
547.000000	23.534900
546.000000	23.260000
545.000000	22.979600
544.000000	22.719000
543.000000	22.434000
542.000000	22.147000
541.000000	21.860400
540.000000	21.564700
539.000000	21.272200
538.000000	20.997600
537.000000	20.720500
536.000000	20.426600
535.000000	20.134200
534.000000	19.863800
533.000000	19.574700
532.000000	19.284700
531.000000	18.996400
530.000000	18.724800
529.000000	18.458300
528.000000	18.191700
527.000000	17.918900
526.000000	17.667100
525.000000	17.389700
524.000000	17.153900
523.000000	16.903900
522.000000	16.660500
521.000000	16.428200
520.000000	16.210600
519.000000	15.998700
518.000000	15.797200
517.000000	15.583000
516.000000	15.381200
515.000000	15.204000
514.000000	15.006900
513.000000	14.841200
512.000000	14.704800
511.000000	14.523300
510.000000	14.400300
509.000000	14.242900
508.000000	14.115100
507.000000	13.987500
506.000000	13.887900
505.000000	13.794300
504.000000	13.675200
503.000000	13.593400
502.000000	13.491900
501.000000	13.396800
500.000000	13.316700
499.000000	13.219200
498.000000	13.142700
497.000000	13.072200
496.000000	13.008400
495.000000	12.947600
494.000000	12.895100
493.000000	12.828500
492.000000	12.762200
491.000000	12.709000
490.000000	12.675400
489.000000	12.631000
488.000000	12.602700
487.000000	12.522100
486.000000	12.502300
485.000000	12.442300
484.000000	12.395700
483.000000	12.334500
482.000000	12.310800
481.000000	12.233400
480.000000	12.175800
479.000000	12.087200
478.000000	12.023900
477.000000	11.940300
476.000000	11.859500
475.000000	11.796100
474.000000	11.715000
473.000000	11.640900
472.000000	11.553000
471.000000	11.473400
470.000000	11.413100
469.000000	11.328500
468.000000	11.253500
467.000000	11.160900
466.000000	11.099500
465.000000	11.029100
464.000000	10.944600
463.000000	10.858700
462.000000	10.796000
461.000000	10.713300
460.000000	10.631600
459.000000	10.558900
458.000000	10.489200
457.000000	10.400200
456.000000	10.322200
455.000000	10.223400
454.000000	10.120900
453.000000	10.044000
452.000000	9.938800
451.000000	9.845300
450.000000	9.768800
449.000000	9.665400
448.000000	9.586300
447.000000	9.503400
446.000000	9.388700
445.000000	9.298500
444.000000	9.217900
443.000000	9.128800
442.000000	9.012400
441.000000	8.889300
440.000000	8.791400
439.000000	8.706800
438.000000	8.604000
437.000000	8.488300
436.000000	8.398900
435.000000	8.305800
434.000000	8.189500
433.000000	8.084400
432.000000	7.986600
431.000000	7.891200
430.000000	7.790400
429.000000	7.683100
428.000000	7.592400
427.000000	7.498300
426.000000	7.402900
425.000000	7.323800
424.000000	7.234800
423.000000	7.129800
422.000000	7.037400
421.000000	6.941700
420.000000	6.861600
419.000000	6.780000
418.000000	6.703400
417.000000	6.609500
416.000000	6.512600
415.000000	6.428500
414.000000	6.359100
413.000000	6.281800
412.000000	6.191800
411.000000	6.131300
410.000000	6.037300
409.000000	5.978500
408.000000	5.915400
407.000000	5.858700
406.000000	5.790900
405.000000	5.736900
404.000000	5.677000
403.000000	5.581200
402.000000	5.537700
401.000000	5.487600
400.000000	5.426600
399.000000	5.371500
398.000000	5.316300
397.000000	5.282400
396.000000	5.245200
395.000000	5.195900
394.000000	5.122100
393.000000	5.092900
392.000000	5.069100
391.000000	5.028700
390.000000	4.957400
389.000000	4.920200
388.000000	4.903500
387.000000	4.888100
386.000000	4.866000
385.000000	4.811300
384.000000	4.768600
383.000000	4.756400
382.000000	4.736200
381.000000	4.700700
380.000000	4.672500
379.000000	4.632700
378.000000	4.619100
377.000000	4.615700
376.000000	4.576000
375.000000	4.521200
374.000000	4.529100
373.000000	4.480100
372.000000	4.432200
371.000000	4.422300
370.000000	4.387400
369.000000	4.377400
368.000000	4.351300
367.000000	4.388600
366.000000	4.368900
365.000000	4.358700
364.000000	4.338900
363.000000	4.345400
362.000000	4.354700
361.000000	4.379100
360.000000	4.410700
359.000000	4.383100
358.000000	4.299900
357.000000	4.284200
356.000000	4.281700
355.000000	4.289800
354.000000	4.316800
353.000000	4.274800
352.000000	4.281400
351.000000	4.316000
350.000000	4.319200
349.000000	4.332800
348.000000	4.268100
347.000000	4.257100
346.000000	4.269000
345.000000	4.215600
344.000000	4.292900
343.000000	4.301200
342.000000	4.198400
341.000000	4.194000
340.000000	4.207300
339.000000	4.223000
338.000000	4.206800
337.000000	4.212700
336.000000	4.215400
335.000000	4.202600
334.000000	4.249100
333.000000	4.169900
332.000000	4.104500
331.000000	4.152100
330.000000	4.248900
329.000000	4.274500
328.000000	4.266200
327.000000	4.244800
326.000000	4.271900
325.000000	4.267600
324.000000	4.304700
323.000000	4.262700
322.000000	4.164100
321.000000	4.209800
320.000000	4.351300
319.000000	4.352600
318.000000	4.195400
317.000000	4.258800
316.000000	4.285300
315.000000	4.206100
314.000000	4.201500
313.000000	4.212300
312.000000	4.223300
311.000000	4.217600
310.000000	4.211400
309.000000	4.204300
308.000000	4.181800
307.000000	4.223400
306.000000	4.245900
305.000000	4.214300
304.000000	4.232700
303.000000	4.259600
302.000000	4.265400
301.000000	4.257000
300.000000	4.246800
299.000000	4.271100
298.000000	4.253900
297.000000	4.235000
296.000000	4.248000
295.000000	4.287400
294.000000	4.279700
293.000000	4.277800
292.000000	4.298400
291.000000	4.273400
290.000000	4.294700
289.000000	4.307500
288.000000	4.298800
287.000000	4.319300
286.000000	4.323500
285.000000	4.326900
284.000000	4.341100
283.000000	4.337000
282.000000	4.334000
281.000000	4.327700
280.000000	4.341100
279.000000	4.368800
278.000000	4.360200
277.000000	4.375300
276.000000	4.372300
275.000000	4.397000
274.000000	4.376900
273.000000	4.389300
272.000000	4.395800
271.000000	4.429600
270.000000	4.428400
269.000000	4.419800
268.000000	4.428200
267.000000	4.424800
266.000000	4.478700
265.000000	4.503000
264.000000	4.518100
263.000000	4.541100
262.000000	4.552300
261.000000	4.564500
260.000000	4.582000
259.000000	4.600900
258.000000	4.607800
257.000000	4.623400
256.000000	4.633500
255.000000	4.643000
254.000000	4.623200
253.000000	4.660700
252.000000	4.681900
251.000000	4.657100
250.000000	4.664900
