PE UV       SUBTECH     SPECTRUM    ASCII       PEDS        4.00        
   -1
CICIMAUCR0251-1.ASC
24/05/30
11:00:22.00
24/05/30
11:00:22.00
Vinicio Soto Monge
C. resplendens, F Ventral
250,000000
1
Lambda 1050
1050L1511233
PerkinElmer UV WinLab 6.3.2.0749 / 2.02.05 Lambda 900 UV/VIS/NIR, Aug  7 2015 09:38:08

0
0
3350/servo 860,8/2
0
0
UV/VIS
1
1
1
DoubleDePol,CommonBeamDepol,RBeamAtt,SBeamAtt,60mm sphere, WB InGaAs Detector
0
0
0
0
Program
Program
3350/servo 860,8/2
3350/0,2 860,8/0,2
3350/0,2 860,8/0,2
0
15.00
 
 
 
0
 
860,8
319,2
860,8
Front
100
on
S:100 R:100
0
0
0
0
 
0
 
 
 
0
 
 
0
0
0
0
0
 
 
 
 
0
0


0
0
#HDR
-1
-1
#GR
nm
%R
1.0
0.0
2500,000000
-1,000000
2251
8
57,323100
3,678600
#DATA
2500.000000	4.745820
2499.000000	4.714212
2498.000000	4.629814
2497.000000	4.807914
2496.000000	4.592714
2495.000000	4.624322
2494.000000	4.636314
2493.000000	4.613337
2492.000000	4.645729
2491.000000	4.550347
2490.000000	4.585877
2489.000000	4.568728
2488.000000	4.567832
2487.000000	4.600672
2486.000000	4.482761
2485.000000	4.433668
2484.000000	4.438152
2483.000000	4.549226
2482.000000	4.415959
2481.000000	4.576910
2480.000000	4.556511
2479.000000	4.419434
2478.000000	4.501927
2477.000000	4.434453
2476.000000	4.510109
2475.000000	4.482200
2474.000000	4.445773
2473.000000	4.404751
2472.000000	4.406208
2471.000000	4.370341
2470.000000	4.403182
2469.000000	4.419322
2468.000000	4.397353
2467.000000	4.394439
2466.000000	4.397353
2465.000000	4.428400
2464.000000	4.388499
2463.000000	4.408674
2462.000000	4.403182
2461.000000	4.441178
2460.000000	4.438824
2459.000000	4.480519
2458.000000	4.429970
2457.000000	4.440617
2456.000000	4.480631
2455.000000	4.453619
2454.000000	4.448799
2453.000000	4.476036
2452.000000	4.495314
2451.000000	4.495202
2450.000000	4.525464
2449.000000	4.543398
2448.000000	4.559425
2447.000000	4.601905
2446.000000	4.588455
2445.000000	4.566599
2444.000000	4.596189
2443.000000	4.643600
2442.000000	4.635418
2441.000000	4.653687
2440.000000	4.646066
2439.000000	4.693365
2438.000000	4.703452
2437.000000	4.718471
2436.000000	4.727886
2435.000000	4.737525
2434.000000	4.743130
2433.000000	4.761623
2432.000000	4.799844
2431.000000	4.805336
2430.000000	4.819346
2429.000000	4.802982
2428.000000	4.819458
2427.000000	4.851514
2426.000000	4.846470
2425.000000	4.856894
2424.000000	4.866869
2423.000000	4.882225
2422.000000	4.889286
2421.000000	4.902624
2420.000000	4.905986
2419.000000	4.901055
2418.000000	4.920557
2417.000000	4.934119
2416.000000	4.931541
2415.000000	4.944991
2414.000000	4.959674
2413.000000	4.971667
2412.000000	4.987134
2411.000000	4.990385
2410.000000	5.001593
2409.000000	4.992290
2408.000000	4.997670
2407.000000	5.012577
2406.000000	5.034209
2405.000000	5.026475
2404.000000	5.037235
2403.000000	5.054048
2402.000000	5.051918
2401.000000	5.059876
2400.000000	5.061333
2399.000000	5.071645
2398.000000	5.100674
2397.000000	5.119841
2396.000000	5.142818
2395.000000	5.146292
2394.000000	5.154250
2393.000000	5.171399
2392.000000	5.187427
2391.000000	5.185409
2390.000000	5.186642
2389.000000	5.194040
2388.000000	5.210852
2387.000000	5.217241
2386.000000	5.212645
2385.000000	5.215896
2384.000000	5.222509
2383.000000	5.227440
2382.000000	5.224750
2381.000000	5.236967
2380.000000	5.257815
2379.000000	5.257703
2378.000000	5.237976
2377.000000	5.240330
2376.000000	5.240442
2375.000000	5.231363
2374.000000	5.229234
2373.000000	5.235062
2372.000000	5.242571
2371.000000	5.236183
2370.000000	5.226095
2369.000000	5.216680
2368.000000	5.219034
2367.000000	5.207490
2366.000000	5.190901
2365.000000	5.186754
2364.000000	5.183952
2363.000000	5.176218
2362.000000	5.165346
2361.000000	5.158621
2360.000000	5.153353
2359.000000	5.146180
2358.000000	5.142706
2357.000000	5.135308
2356.000000	5.133178
2355.000000	5.110986
2354.000000	5.087897
2353.000000	5.093053
2352.000000	5.105718
2351.000000	5.116478
2350.000000	5.117823
2349.000000	5.128359
2348.000000	5.127014
2347.000000	5.143490
2346.000000	5.148534
2345.000000	5.152233
2344.000000	5.166243
2343.000000	5.177900
2342.000000	5.193031
2341.000000	5.199195
2340.000000	5.193815
2339.000000	5.212085
2338.000000	5.237079
2337.000000	5.245598
2336.000000	5.235734
2335.000000	5.247167
2334.000000	5.241675
2333.000000	5.224862
2332.000000	5.232372
2331.000000	5.244253
2330.000000	5.253219
2329.000000	5.238424
2328.000000	5.219370
2327.000000	5.219931
2326.000000	5.223181
2325.000000	5.206593
2324.000000	5.194936
2323.000000	5.167812
2322.000000	5.150775
2321.000000	5.122979
2320.000000	5.115581
2319.000000	5.105382
2318.000000	5.082293
2317.000000	5.067498
2316.000000	5.037460
2315.000000	5.004395
2314.000000	4.968865
2313.000000	4.944543
2312.000000	4.920109
2311.000000	4.904417
2310.000000	4.898477
2309.000000	4.887605
2308.000000	4.891303
2307.000000	4.860817
2306.000000	4.856670
2305.000000	4.849945
2304.000000	4.863283
2303.000000	4.883009
2302.000000	4.890631
2301.000000	4.915177
2300.000000	4.914729
2299.000000	4.948354
2298.000000	4.972227
2297.000000	4.983211
2296.000000	4.999239
2295.000000	5.033985
2294.000000	5.057522
2293.000000	5.061109
2292.000000	5.053039
2291.000000	5.082181
2290.000000	5.096415
2289.000000	5.097424
2288.000000	5.106503
2287.000000	5.106839
2286.000000	5.115806
2285.000000	5.103364
2284.000000	5.116926
2283.000000	5.113788
2282.000000	5.107287
2281.000000	5.093053
2280.000000	5.072093
2279.000000	5.081508
2278.000000	5.084759
2277.000000	5.062566
2276.000000	5.071533
2275.000000	5.064920
2274.000000	5.048892
2273.000000	5.025355
2272.000000	5.061221
2271.000000	5.067498
2270.000000	5.063575
2269.000000	5.085992
2268.000000	5.101683
2267.000000	5.108969
2266.000000	5.158733
2265.000000	5.208274
2264.000000	5.263195
2263.000000	5.295138
2262.000000	5.313072
2261.000000	5.379313
2260.000000	5.426276
2259.000000	5.514597
2258.000000	5.593616
2257.000000	5.612333
2256.000000	5.704578
2255.000000	5.798279
2254.000000	5.857347
2253.000000	5.933563
2252.000000	6.008323
2251.000000	6.082073
2250.000000	6.171179
2249.000000	6.249189
2248.000000	6.299514
2247.000000	6.354323
2246.000000	6.434350
2245.000000	6.522111
2244.000000	6.551477
2243.000000	6.594069
2242.000000	6.643833
2241.000000	6.678243
2240.000000	6.738319
2239.000000	6.751209
2238.000000	6.809268
2237.000000	6.835271
2236.000000	6.909694
2235.000000	6.915747
2234.000000	6.928636
2233.000000	6.978962
2232.000000	6.980419
2231.000000	6.998464
2230.000000	7.006422
2229.000000	7.016285
2228.000000	7.032537
2227.000000	7.064481
2226.000000	7.023795
2225.000000	7.047444
2224.000000	7.019200
2223.000000	7.033770
2222.000000	7.039935
2221.000000	7.005189
2220.000000	7.015389
2219.000000	7.011578
2218.000000	6.964391
2217.000000	6.998352
2216.000000	6.979298
2215.000000	6.944776
2214.000000	6.934577
2213.000000	6.934016
2212.000000	6.937603
2211.000000	6.934577
2210.000000	6.908013
2209.000000	6.890977
2208.000000	6.879992
2207.000000	6.891761
2206.000000	6.889407
2205.000000	6.881113
2204.000000	6.857464
2203.000000	6.858136
2202.000000	6.854325
2201.000000	6.850066
2200.000000	6.834823
2199.000000	6.845919
2198.000000	6.845135
2197.000000	6.820476
2196.000000	6.830564
2195.000000	6.821821
2194.000000	6.817338
2193.000000	6.810277
2192.000000	6.804224
2191.000000	6.830115
2190.000000	6.804448
2189.000000	6.795146
2188.000000	6.781359
2187.000000	6.777436
2186.000000	6.756477
2185.000000	6.792343
2184.000000	6.761521
2183.000000	6.738880
2182.000000	6.728120
2181.000000	6.732939
2180.000000	6.720947
2179.000000	6.704807
2178.000000	6.715118
2177.000000	6.706488
2176.000000	6.692141
2175.000000	6.697073
2174.000000	6.722404
2173.000000	6.698306
2172.000000	6.683959
2171.000000	6.694383
2170.000000	6.688891
2169.000000	6.693374
2168.000000	6.707945
2167.000000	6.690796
2166.000000	6.686537
2165.000000	6.716463
2164.000000	6.733388
2163.000000	6.733836
2162.000000	6.736750
2161.000000	6.750649
2160.000000	6.758046
2159.000000	6.754572
2158.000000	6.755580
2157.000000	6.785282
2156.000000	6.801422
2155.000000	6.818571
2154.000000	6.834487
2153.000000	6.858921
2152.000000	6.875285
2151.000000	6.896805
2150.000000	6.903082
2149.000000	6.915523
2148.000000	6.918997
2147.000000	6.950268
2146.000000	6.989385
2145.000000	7.003956
2144.000000	7.010009
2143.000000	7.020993
2142.000000	7.035452
2141.000000	7.064929
2140.000000	7.081742
2139.000000	7.089700
2138.000000	7.100572
2137.000000	7.131283
2136.000000	7.152466
2135.000000	7.173650
2134.000000	7.171632
2133.000000	7.184858
2132.000000	7.204473
2131.000000	7.213215
2130.000000	7.213439
2129.000000	7.219604
2128.000000	7.221846
2127.000000	7.236753
2126.000000	7.253117
2125.000000	7.244262
2124.000000	7.249642
2123.000000	7.279456
2122.000000	7.279568
2121.000000	7.264661
2120.000000	7.265558
2119.000000	7.256367
2118.000000	7.250315
2117.000000	7.263316
2116.000000	7.247401
2115.000000	7.239331
2114.000000	7.242021
2113.000000	7.246280
2112.000000	7.243141
2111.000000	7.232830
2110.000000	7.229355
2109.000000	7.231036
2108.000000	7.218595
2107.000000	7.215121
2106.000000	7.227562
2105.000000	7.216802
2104.000000	7.195954
2103.000000	7.197187
2102.000000	7.205257
2101.000000	7.181496
2100.000000	7.168382
2099.000000	7.171184
2098.000000	7.169279
2097.000000	7.167485
2096.000000	7.162890
2095.000000	7.157510
2094.000000	7.146974
2093.000000	7.138568
2092.000000	7.136550
2091.000000	7.131283
2090.000000	7.131619
2089.000000	7.133076
2088.000000	7.139240
2087.000000	7.146414
2086.000000	7.126127
2085.000000	7.100572
2084.000000	7.103934
2083.000000	7.109987
2082.000000	7.102365
2081.000000	7.087906
2080.000000	7.069189
2079.000000	7.053161
2078.000000	7.052040
2077.000000	7.047220
2076.000000	7.035452
2075.000000	7.022338
2074.000000	6.997792
2073.000000	6.970780
2072.000000	6.945225
2071.000000	6.935586
2070.000000	6.925610
2069.000000	6.910143
2068.000000	6.884700
2067.000000	6.849506
2066.000000	6.836728
2065.000000	6.831012
2064.000000	6.810613
2063.000000	6.793128
2062.000000	6.784161
2061.000000	6.770039
2060.000000	6.744708
2059.000000	6.731819
2058.000000	6.740449
2057.000000	6.741794
2056.000000	6.722516
2055.000000	6.738992
2054.000000	6.756925
2053.000000	6.761969
2052.000000	6.763538
2051.000000	6.783041
2050.000000	6.809941
2049.000000	6.838298
2048.000000	6.873155
2047.000000	6.901400
2046.000000	6.934353
2045.000000	6.973358
2044.000000	7.024131
2043.000000	7.053833
2042.000000	7.081406
2041.000000	7.139801
2040.000000	7.194834
2039.000000	7.220725
2038.000000	7.254126
2037.000000	7.290216
2036.000000	7.331015
2035.000000	7.362062
2034.000000	7.409248
2033.000000	7.445563
2032.000000	7.458117
2031.000000	7.470334
2030.000000	7.507994
2029.000000	7.536351
2028.000000	7.545541
2027.000000	7.558767
2026.000000	7.578718
2025.000000	7.606403
2024.000000	7.609765
2023.000000	7.628259
2022.000000	7.644175
2021.000000	7.646640
2020.000000	7.669281
2019.000000	7.690353
2018.000000	7.705596
2017.000000	7.679929
2016.000000	7.702121
2015.000000	7.703915
2014.000000	7.698311
2013.000000	7.715011
2012.000000	7.710303
2011.000000	7.697302
2010.000000	7.701113
2009.000000	7.696181
2008.000000	7.676454
2007.000000	7.671635
2006.000000	7.670178
2005.000000	7.651908
2004.000000	7.621758
2003.000000	7.616154
2002.000000	7.612231
2001.000000	7.583650
2000.000000	7.563811
1999.000000	7.541058
1998.000000	7.505752
1997.000000	7.505528
1996.000000	7.449935
1995.000000	7.441865
1994.000000	7.408800
1993.000000	7.383806
1992.000000	7.364079
1991.000000	7.331351
1990.000000	7.288647
1989.000000	7.270714
1988.000000	7.237089
1987.000000	7.200214
1986.000000	7.175443
1985.000000	7.141706
1984.000000	7.134981
1983.000000	7.068740
1982.000000	7.036572
1981.000000	7.015277
1980.000000	6.982100
1979.000000	6.943992
1978.000000	6.916419
1977.000000	6.901064
1976.000000	6.865758
1975.000000	6.822718
1974.000000	6.819580
1973.000000	6.769030
1972.000000	6.720386
1971.000000	6.717584
1970.000000	6.689900
1969.000000	6.669052
1968.000000	6.651343
1967.000000	6.613347
1966.000000	6.588464
1965.000000	6.561452
1964.000000	6.556185
1963.000000	6.511463
1962.000000	6.478063
1961.000000	6.477726
1960.000000	6.444998
1959.000000	6.426168
1958.000000	6.403079
1957.000000	6.365195
1956.000000	6.323276
1955.000000	6.338519
1954.000000	6.319577
1953.000000	6.292565
1952.000000	6.270821
1951.000000	6.233273
1950.000000	6.234955
1949.000000	6.194268
1948.000000	6.176896
1947.000000	6.164566
1946.000000	6.167256
1945.000000	6.146297
1944.000000	6.142038
1943.000000	6.138787
1942.000000	6.108973
1941.000000	6.104490
1940.000000	6.082970
1939.000000	6.095187
1938.000000	6.103593
1937.000000	6.087565
1936.000000	6.111215
1935.000000	6.117604
1934.000000	6.116035
1933.000000	6.097092
1932.000000	6.122535
1931.000000	6.137442
1930.000000	6.119285
1929.000000	6.163894
1928.000000	6.197183
1927.000000	6.243809
1926.000000	6.245715
1925.000000	6.297049
1924.000000	6.308817
1923.000000	6.350961
1922.000000	6.360263
1921.000000	6.417874
1920.000000	6.491064
1919.000000	6.554840
1918.000000	6.588464
1917.000000	6.618054
1916.000000	6.697409
1915.000000	6.741346
1914.000000	6.808371
1913.000000	6.888735
1912.000000	6.986808
1911.000000	7.061791
1910.000000	7.116376
1909.000000	7.192368
1908.000000	7.242917
1907.000000	7.332920
1906.000000	7.427742
1905.000000	7.593289
1904.000000	7.703466
1903.000000	7.817343
1902.000000	7.931331
1901.000000	8.016402
1900.000000	8.190243
1899.000000	8.359713
1898.000000	8.538821
1897.000000	8.716249
1896.000000	8.816563
1895.000000	8.956555
1894.000000	9.068638
1893.000000	9.228020
1892.000000	9.430218
1891.000000	9.653711
1890.000000	9.871264
1889.000000	10.061357
1888.000000	10.278350
1887.000000	10.494110
1886.000000	10.719509
1885.000000	10.986490
1884.000000	11.290011
1883.000000	11.638365
1882.000000	11.917116
1881.000000	12.252132
1880.000000	12.551506
1879.000000	12.827678
1878.000000	13.135458
1877.000000	13.446825
1876.000000	13.730843
1875.000000	14.058798
1874.000000	14.363888
1873.000000	14.696214
1872.000000	15.038628
1871.000000	15.328138
1870.000000	15.641747
1869.000000	15.949975
1868.000000	16.208999
1867.000000	16.390013
1866.000000	16.534040
1865.000000	16.641639
1864.000000	16.747894
1863.000000	16.807410
1862.000000	16.885980
1861.000000	16.998063
1860.000000	17.134581
1859.000000	17.262243
1858.000000	17.380939
1857.000000	17.450767
1856.000000	17.486409
1855.000000	17.510059
1854.000000	17.562514
1853.000000	17.622142
1852.000000	17.618555
1851.000000	17.582801
1850.000000	17.526087
1849.000000	17.522388
1848.000000	17.551193
1847.000000	17.633462
1846.000000	17.657560
1845.000000	17.598492
1844.000000	17.508938
1843.000000	17.422970
1842.000000	17.388673
1841.000000	17.425324
1840.000000	17.443145
1839.000000	17.442249
1838.000000	17.419720
1837.000000	17.412659
1836.000000	17.407391
1835.000000	17.378922
1834.000000	17.331398
1833.000000	17.248457
1832.000000	17.155540
1831.000000	17.100507
1830.000000	17.068788
1829.000000	17.024403
1828.000000	16.976544
1827.000000	16.930702
1826.000000	16.901896
1825.000000	16.873427
1824.000000	16.795754
1823.000000	16.722003
1822.000000	16.666522
1821.000000	16.669996
1820.000000	16.698466
1819.000000	16.714269
1818.000000	16.672014
1817.000000	16.630431
1816.000000	16.601065
1815.000000	16.590530
1814.000000	16.587279
1813.000000	16.564975
1812.000000	16.553206
1811.000000	16.539868
1810.000000	16.521823
1809.000000	16.475308
1808.000000	16.428682
1807.000000	16.408619
1806.000000	16.376563
1805.000000	16.329824
1804.000000	16.276361
1803.000000	16.216733
1802.000000	16.177167
1801.000000	16.154078
1800.000000	16.125497
1799.000000	16.069231
1798.000000	16.018010
1797.000000	15.998507
1796.000000	15.970710
1795.000000	15.923860
1794.000000	15.880484
1793.000000	15.837892
1792.000000	15.788463
1791.000000	15.739259
1790.000000	15.699021
1789.000000	15.673466
1788.000000	15.635694
1787.000000	15.586714
1786.000000	15.541993
1785.000000	15.493349
1784.000000	15.435402
1783.000000	15.375438
1782.000000	15.330716
1781.000000	15.280503
1780.000000	15.201597
1779.000000	15.140736
1778.000000	15.106999
1777.000000	15.055665
1776.000000	14.977207
1775.000000	14.896507
1774.000000	14.814910
1773.000000	14.730848
1772.000000	14.652614
1771.000000	14.584804
1770.000000	14.499621
1769.000000	14.412084
1768.000000	14.338445
1767.000000	14.256288
1766.000000	14.195652
1765.000000	14.135015
1764.000000	14.090294
1763.000000	14.077516
1762.000000	14.067204
1761.000000	14.055996
1760.000000	14.089397
1759.000000	14.125712
1758.000000	14.173683
1757.000000	14.238131
1756.000000	14.269178
1755.000000	14.284645
1754.000000	14.336540
1753.000000	14.362879
1752.000000	14.360862
1751.000000	14.375769
1750.000000	14.366242
1749.000000	14.338670
1748.000000	14.294397
1747.000000	14.257633
1746.000000	14.220982
1745.000000	14.143309
1744.000000	14.057341
1743.000000	13.972718
1742.000000	13.870387
1741.000000	13.712574
1740.000000	13.581661
1739.000000	13.445256
1738.000000	13.291478
1737.000000	13.154961
1736.000000	13.048706
1735.000000	12.964532
1734.000000	12.906809
1733.000000	12.875762
1732.000000	12.864890
1731.000000	12.876322
1730.000000	12.905576
1729.000000	12.956574
1728.000000	13.014633
1727.000000	13.079193
1726.000000	13.135570
1725.000000	13.176256
1724.000000	13.224452
1723.000000	13.273545
1722.000000	13.319947
1721.000000	13.348192
1720.000000	13.365004
1719.000000	13.400983
1718.000000	13.452429
1717.000000	13.507798
1716.000000	13.568099
1715.000000	13.616631
1714.000000	13.686010
1713.000000	13.737792
1712.000000	13.786997
1711.000000	13.835641
1710.000000	13.883164
1709.000000	13.899304
1708.000000	13.905805
1707.000000	13.918022
1706.000000	13.898968
1705.000000	13.878457
1704.000000	13.861532
1703.000000	13.798093
1702.000000	13.758304
1701.000000	13.700357
1700.000000	13.596007
1699.000000	13.515308
1698.000000	13.430685
1697.000000	13.356486
1696.000000	13.260319
1695.000000	13.226582
1694.000000	13.216606
1693.000000	13.252025
1692.000000	13.320731
1691.000000	13.417907
1690.000000	13.495581
1689.000000	13.608561
1688.000000	13.663481
1687.000000	13.712350
1686.000000	13.742612
1685.000000	13.808517
1684.000000	13.850996
1683.000000	13.964424
1682.000000	14.119435
1681.000000	14.355034
1680.000000	14.664271
1679.000000	15.022488
1678.000000	15.369721
1677.000000	15.757192
1676.000000	16.104650
1675.000000	16.478559
1674.000000	16.763137
1673.000000	17.019135
1672.000000	17.243637
1671.000000	17.459958
1670.000000	17.620124
1669.000000	17.785671
1668.000000	17.927904
1667.000000	18.072043
1666.000000	18.174823
1665.000000	18.285673
1664.000000	18.370744
1663.000000	18.443710
1662.000000	18.494932
1661.000000	18.587177
1660.000000	18.612283
1659.000000	18.685810
1658.000000	18.723582
1657.000000	18.768191
1656.000000	18.773459
1655.000000	18.783434
1654.000000	18.776597
1653.000000	18.784891
1652.000000	18.801255
1651.000000	18.779511
1650.000000	18.745550
1649.000000	18.720780
1648.000000	18.694552
1647.000000	18.644675
1646.000000	18.643442
1645.000000	18.614749
1644.000000	18.558820
1643.000000	18.501881
1642.000000	18.435865
1641.000000	18.424320
1640.000000	18.358415
1639.000000	18.314367
1638.000000	18.267516
1637.000000	18.214725
1636.000000	18.153303
1635.000000	18.108134
1634.000000	18.054782
1633.000000	17.999189
1632.000000	17.931603
1631.000000	17.856059
1630.000000	17.803044
1629.000000	17.734785
1628.000000	17.659129
1627.000000	17.615977
1626.000000	17.510731
1625.000000	17.471951
1624.000000	17.386992
1623.000000	17.313241
1622.000000	17.246327
1621.000000	17.195554
1620.000000	17.131106
1619.000000	17.089299
1618.000000	17.009720
1617.000000	16.954351
1616.000000	16.903017
1615.000000	16.875669
1614.000000	16.791046
1613.000000	16.724245
1612.000000	16.672911
1611.000000	16.621913
1610.000000	16.550516
1609.000000	16.477214
1608.000000	16.432717
1607.000000	16.369950
1606.000000	16.321867
1605.000000	16.266049
1604.000000	16.208663
1603.000000	16.140180
1602.000000	16.093553
1601.000000	16.024510
1600.000000	15.961520
1599.000000	15.914781
1598.000000	15.864568
1597.000000	15.800793
1596.000000	15.759546
1595.000000	15.697004
1594.000000	15.657550
1593.000000	15.612381
1592.000000	15.570014
1591.000000	15.525517
1590.000000	15.478778
1589.000000	15.434393
1588.000000	15.389896
1587.000000	15.362884
1586.000000	15.302471
1585.000000	15.275347
1584.000000	15.243404
1583.000000	15.201821
1582.000000	15.151384
1581.000000	15.121121
1580.000000	15.124035
1579.000000	15.100946
1578.000000	15.070123
1577.000000	15.061605
1576.000000	15.054768
1575.000000	15.021703
1574.000000	15.016548
1573.000000	15.011392
1572.000000	14.995588
1571.000000	14.991441
1570.000000	14.981466
1569.000000	14.982138
1568.000000	14.977431
1567.000000	14.982811
1566.000000	15.003546
1565.000000	15.004779
1564.000000	15.010495
1563.000000	15.010159
1562.000000	15.025851
1561.000000	15.029437
1560.000000	15.021591
1559.000000	15.011056
1558.000000	14.995252
1557.000000	14.989311
1556.000000	14.982587
1555.000000	14.975077
1554.000000	14.951427
1553.000000	14.930692
1552.000000	14.901326
1551.000000	14.887204
1550.000000	14.875099
1549.000000	14.841474
1548.000000	14.800452
1547.000000	14.772207
1546.000000	14.752480
1545.000000	14.739366
1544.000000	14.720873
1543.000000	14.709776
1542.000000	14.691619
1541.000000	14.670659
1540.000000	14.654632
1539.000000	14.634120
1538.000000	14.608678
1537.000000	14.588278
1536.000000	14.577182
1535.000000	14.559249
1534.000000	14.521141
1533.000000	14.503432
1532.000000	14.501414
1531.000000	14.480455
1530.000000	14.439768
1529.000000	14.400091
1528.000000	14.378907
1527.000000	14.366242
1526.000000	14.331608
1525.000000	14.292267
1524.000000	14.255168
1523.000000	14.213809
1522.000000	14.188702
1521.000000	14.171442
1520.000000	14.122237
1519.000000	14.077068
1518.000000	14.052073
1517.000000	14.008025
1516.000000	13.977090
1515.000000	13.948845
1514.000000	13.905020
1513.000000	13.868817
1512.000000	13.827571
1511.000000	13.789911
1510.000000	13.750794
1509.000000	13.700917
1508.000000	13.657765
1507.000000	13.618872
1506.000000	13.575160
1505.000000	13.531448
1504.000000	13.492779
1503.000000	13.459714
1502.000000	13.431133
1501.000000	13.397284
1500.000000	13.359176
1499.000000	13.327569
1498.000000	13.301453
1497.000000	13.260431
1496.000000	13.215598
1495.000000	13.198673
1494.000000	13.190603
1493.000000	13.151710
1492.000000	13.122793
1491.000000	13.113826
1490.000000	13.097686
1489.000000	13.082219
1488.000000	13.074485
1487.000000	13.066079
1486.000000	13.029652
1485.000000	13.014745
1484.000000	13.010486
1483.000000	13.006226
1482.000000	12.988069
1481.000000	12.985491
1480.000000	12.992216
1479.000000	12.979102
1478.000000	12.983137
1477.000000	12.986052
1476.000000	12.990423
1475.000000	12.979327
1474.000000	12.976188
1473.000000	12.987957
1472.000000	12.998493
1471.000000	13.003424
1470.000000	13.009365
1469.000000	13.011494
1468.000000	13.015866
1467.000000	13.037273
1466.000000	13.053526
1465.000000	13.079305
1464.000000	13.084236
1463.000000	13.101161
1462.000000	13.127164
1461.000000	13.160453
1460.000000	13.204501
1459.000000	13.224676
1458.000000	13.259870
1457.000000	13.291142
1456.000000	13.323758
1455.000000	13.385964
1454.000000	13.425529
1453.000000	13.462629
1452.000000	13.503763
1451.000000	13.561934
1450.000000	13.637142
1449.000000	13.700581
1448.000000	13.733309
1447.000000	13.781169
1446.000000	13.857385
1445.000000	13.946939
1444.000000	14.018785
1443.000000	14.067653
1442.000000	14.151715
1441.000000	14.222664
1440.000000	14.304372
1439.000000	14.362319
1438.000000	14.474066
1437.000000	14.530107
1436.000000	14.613833
1435.000000	14.716389
1434.000000	14.821075
1433.000000	14.894265
1432.000000	14.994916
1431.000000	15.088841
1430.000000	15.203054
1429.000000	15.287901
1428.000000	15.421167
1427.000000	15.562504
1426.000000	15.699357
1425.000000	15.828701
1424.000000	15.986402
1423.000000	16.166744
1422.000000	16.344507
1421.000000	16.493914
1420.000000	16.662487
1419.000000	16.893042
1418.000000	17.108353
1417.000000	17.297661
1416.000000	17.443257
1415.000000	17.672579
1414.000000	17.921403
1413.000000	18.190627
1412.000000	18.420173
1411.000000	18.625397
1410.000000	18.919054
1409.000000	19.255191
1408.000000	19.596372
1407.000000	19.920853
1406.000000	20.240850
1405.000000	20.621596
1404.000000	21.046951
1403.000000	21.419851
1402.000000	21.727743
1401.000000	22.083382
1400.000000	22.587980
1399.000000	23.044494
1398.000000	23.246692
1397.000000	23.492154
1396.000000	23.856536
1395.000000	24.301618
1394.000000	24.646385
1393.000000	24.932085
1392.000000	25.226191
1391.000000	25.585305
1390.000000	25.943746
1389.000000	26.218574
1388.000000	26.702212
1387.000000	27.233149
1386.000000	27.708381
1385.000000	28.210065
1384.000000	28.751762
1383.000000	29.379539
1382.000000	30.016395
1381.000000	30.608305
1380.000000	31.029401
1379.000000	31.349847
1378.000000	31.633529
1377.000000	31.789212
1376.000000	32.071437
1375.000000	32.273299
1374.000000	32.545548
1373.000000	32.860838
1372.000000	33.228134
1371.000000	33.658869
1370.000000	34.102270
1369.000000	34.444235
1368.000000	34.820946
1367.000000	35.191380
1366.000000	35.470467
1365.000000	35.723887
1364.000000	36.008241
1363.000000	36.180849
1362.000000	36.358837
1361.000000	36.662694
1360.000000	36.866237
1359.000000	36.943686
1358.000000	37.071685
1357.000000	37.199796
1356.000000	37.408158
1355.000000	37.741381
1354.000000	38.237349
1353.000000	38.731971
1352.000000	39.242173
1351.000000	39.879253
1350.000000	40.460516
1349.000000	41.014542
1348.000000	41.540996
1347.000000	42.040774
1346.000000	42.551088
1345.000000	42.939792
1344.000000	43.409420
1343.000000	43.821213
1342.000000	44.243094
1341.000000	44.671139
1340.000000	45.082707
1339.000000	45.475558
1338.000000	45.858770
1337.000000	46.266640
1336.000000	46.647387
1335.000000	47.011881
1334.000000	47.391506
1333.000000	47.774157
1332.000000	48.126995
1331.000000	48.459209
1330.000000	48.802295
1329.000000	49.131931
1328.000000	49.435564
1327.000000	49.748163
1326.000000	50.044399
1325.000000	50.328754
1324.000000	50.590131
1323.000000	50.847025
1322.000000	51.084193
1321.000000	51.334811
1320.000000	51.562564
1319.000000	51.797490
1318.000000	52.002826
1317.000000	52.223069
1316.000000	52.437596
1315.000000	52.596642
1314.000000	52.799400
1313.000000	52.995097
1312.000000	53.148875
1311.000000	53.315430
1310.000000	53.463828
1309.000000	53.596310
1308.000000	53.724981
1307.000000	53.862731
1306.000000	53.969546
1305.000000	54.049574
1304.000000	54.153699
1303.000000	54.219716
1302.000000	54.298959
1301.000000	54.357354
1300.000000	54.403980
1299.000000	54.448029
1298.000000	54.496897
1297.000000	54.539489
1296.000000	54.580959
1295.000000	54.599229
1294.000000	54.606851
1293.000000	54.616826
1292.000000	54.614472
1291.000000	54.621758
1290.000000	54.609204
1289.000000	54.585779
1288.000000	54.577709
1287.000000	54.541170
1286.000000	54.480197
1285.000000	54.402411
1284.000000	54.333368
1283.000000	54.272955
1282.000000	54.209292
1281.000000	54.131843
1280.000000	54.049125
1279.000000	53.974814
1278.000000	53.914962
1277.000000	53.839082
1276.000000	53.773177
1275.000000	53.691244
1274.000000	53.628366
1273.000000	53.577256
1272.000000	53.527603
1271.000000	53.485460
1270.000000	53.430539
1269.000000	53.392655
1268.000000	53.336838
1267.000000	53.271381
1266.000000	53.208391
1265.000000	53.155151
1264.000000	53.088910
1263.000000	53.024462
1262.000000	52.959903
1261.000000	52.881444
1260.000000	52.798727
1259.000000	52.732598
1258.000000	52.653356
1257.000000	52.573216
1256.000000	52.505630
1255.000000	52.411480
1254.000000	52.326409
1253.000000	52.245037
1252.000000	52.132169
1251.000000	52.014706
1250.000000	51.902175
1249.000000	51.774176
1248.000000	51.646738
1247.000000	51.526585
1246.000000	51.385248
1245.000000	51.237859
1244.000000	51.087331
1243.000000	50.920664
1242.000000	50.725191
1241.000000	50.538909
1240.000000	50.371233
1239.000000	50.174976
1238.000000	49.980287
1237.000000	49.783582
1236.000000	49.592144
1235.000000	49.388713
1234.000000	49.178333
1233.000000	48.961341
1232.000000	48.733812
1231.000000	48.496532
1230.000000	48.257571
1229.000000	48.031612
1228.000000	47.787047
1227.000000	47.539567
1226.000000	47.295787
1225.000000	47.027572
1224.000000	46.770005
1223.000000	46.504593
1222.000000	46.237387
1221.000000	45.995960
1220.000000	45.751731
1219.000000	45.507278
1218.000000	45.277059
1217.000000	45.049867
1216.000000	44.832874
1215.000000	44.627875
1214.000000	44.426910
1213.000000	44.239507
1212.000000	44.068468
1211.000000	43.904939
1210.000000	43.733004
1209.000000	43.557033
1208.000000	43.408860
1207.000000	43.303614
1206.000000	43.180995
1205.000000	43.093122
1204.000000	43.025087
1203.000000	42.969830
1202.000000	42.940465
1201.000000	42.891596
1200.000000	42.842616
1199.000000	42.765391
1198.000000	42.664516
1197.000000	42.517799
1196.000000	42.332638
1195.000000	42.095919
1194.000000	41.793743
1193.000000	41.429585
1192.000000	41.016447
1191.000000	40.539646
1190.000000	40.039980
1189.000000	39.559592
1188.000000	39.164163
1187.000000	38.846408
1186.000000	38.672567
1185.000000	38.640063
1184.000000	38.767501
1183.000000	39.042553
1182.000000	39.440896
1181.000000	39.950762
1180.000000	40.550742
1179.000000	41.150050
1178.000000	41.716518
1177.000000	42.235687
1176.000000	42.704530
1175.000000	43.131790
1174.000000	43.515002
1173.000000	43.898214
1172.000000	44.293307
1171.000000	44.677415
1170.000000	45.105909
1169.000000	45.521625
1168.000000	45.959421
1167.000000	46.395424
1166.000000	46.843308
1165.000000	47.317195
1164.000000	47.806213
1163.000000	48.290524
1162.000000	48.799381
1161.000000	49.292434
1160.000000	49.774839
1159.000000	50.273160
1158.000000	50.762067
1157.000000	51.208269
1156.000000	51.656153
1155.000000	52.038244
1154.000000	52.354542
1153.000000	52.632956
1152.000000	52.842776
1151.000000	53.007426
1150.000000	53.131614
1149.000000	53.220384
1148.000000	53.345244
1147.000000	53.491849
1146.000000	53.702004
1145.000000	53.969995
1144.000000	54.344800
1143.000000	54.733056
1142.000000	55.204029
1141.000000	55.705600
1140.000000	56.245504
1139.000000	56.791461
1138.000000	57.348065
1137.000000	57.917335
1136.000000	58.546009
1135.000000	59.190710
1134.000000	59.886858
1133.000000	60.507349
1132.000000	61.017215
1131.000000	61.511725
1130.000000	61.997605
1129.000000	62.390344
1128.000000	62.761675
1127.000000	63.065420
1126.000000	63.278378
1125.000000	63.484947
1124.000000	63.643320
1123.000000	63.768069
1122.000000	63.902008
1121.000000	63.995597
1120.000000	64.080893
1119.000000	64.127743
1118.000000	64.175266
1117.000000	64.216737
1116.000000	64.239154
1115.000000	64.247000
1114.000000	64.240387
1113.000000	64.240611
1112.000000	64.249017
1111.000000	64.249465
1110.000000	64.219091
1109.000000	64.226264
1108.000000	64.217186
1107.000000	64.192303
1106.000000	64.176163
1105.000000	64.166860
1104.000000	64.146125
1103.000000	64.117656
1102.000000	64.121579
1101.000000	64.096136
1100.000000	64.059485
1099.000000	64.055113
1098.000000	64.025972
1097.000000	63.994028
1096.000000	63.968697
1095.000000	63.901336
1094.000000	63.872979
1093.000000	63.822317
1092.000000	63.764706
1091.000000	63.693870
1090.000000	63.647804
1089.000000	63.594901
1088.000000	63.503889
1087.000000	63.451658
1086.000000	63.364794
1085.000000	63.307632
1084.000000	63.222000
1083.000000	63.162933
1082.000000	63.064972
1081.000000	62.991333
1080.000000	62.913996
1079.000000	62.825675
1078.000000	62.757977
1077.000000	62.695658
1076.000000	62.610587
1075.000000	62.536501
1074.000000	62.460845
1073.000000	62.367816
1072.000000	62.287116
1071.000000	62.216840
1070.000000	62.140847
1069.000000	62.064855
1068.000000	61.960170
1067.000000	61.898524
1066.000000	61.781509
1065.000000	61.716501
1064.000000	61.611479
1063.000000	61.523830
1062.000000	61.445484
1061.000000	61.359405
1060.000000	61.243511
1059.000000	61.146223
1058.000000	61.066532
1057.000000	60.960053
1056.000000	60.842141
1055.000000	60.742388
1054.000000	60.656532
1053.000000	60.554424
1052.000000	60.452541
1051.000000	60.348079
1050.000000	60.263905
1049.000000	60.181300
1048.000000	60.108782
1047.000000	60.010485
1046.000000	59.912749
1045.000000	59.827566
1044.000000	59.740141
1043.000000	59.666951
1042.000000	59.617746
1041.000000	59.519450
1040.000000	59.423731
1039.000000	59.360292
1038.000000	59.282506
1037.000000	59.200349
1036.000000	59.100035
1035.000000	59.017766
1034.000000	58.928884
1033.000000	58.816577
1032.000000	58.698105
1031.000000	58.604852
1030.000000	58.494787
1029.000000	58.418010
1028.000000	58.317920
1027.000000	58.185550
1026.000000	58.054861
1025.000000	57.945019
1024.000000	57.837532
1023.000000	57.722198
1022.000000	57.610003
1021.000000	57.501395
1020.000000	57.376198
1019.000000	57.277677
1018.000000	57.172095
1017.000000	57.063935
1016.000000	56.985028
1015.000000	56.898164
1014.000000	56.798634
1013.000000	56.740127
1012.000000	56.675455
1011.000000	56.629613
1010.000000	56.581754
1009.000000	56.547344
1008.000000	56.505873
1007.000000	56.467205
1006.000000	56.451737
1005.000000	56.446918
1004.000000	56.414189
1003.000000	56.389419
1002.000000	56.372046
1001.000000	56.344138
1000.000000	56.321721
999.000000	56.293364
998.000000	56.278121
997.000000	56.240012
996.000000	56.213000
995.000000	56.202801
994.000000	56.174220
993.000000	56.163796
992.000000	56.149898
991.000000	56.131964
990.000000	56.112126
989.000000	56.111117
988.000000	56.098676
987.000000	56.104280
986.000000	56.100357
985.000000	56.099124
984.000000	56.100917
983.000000	56.102711
982.000000	56.099012
981.000000	56.105961
980.000000	56.111565
979.000000	56.111341
978.000000	56.103495
977.000000	56.112014
976.000000	56.112350
975.000000	56.121877
974.000000	56.112910
973.000000	56.122213
972.000000	56.142612
971.000000	56.131740
970.000000	56.121541
969.000000	56.130619
968.000000	56.128714
967.000000	56.128826
966.000000	56.135999
965.000000	56.122549
964.000000	56.131628
963.000000	56.145414
962.000000	56.163572
961.000000	56.191144
960.000000	56.201680
959.000000	56.234969
958.000000	56.238107
957.000000	56.234744
956.000000	56.261644
955.000000	56.264222
954.000000	56.255704
953.000000	56.268706
952.000000	56.266016
951.000000	56.252117
950.000000	56.267361
949.000000	56.273637
948.000000	56.240573
947.000000	56.225778
946.000000	56.221519
945.000000	56.196972
944.000000	56.168952
943.000000	56.140707
942.000000	56.105289
941.000000	56.063145
940.000000	56.013941
939.000000	55.985136
938.000000	55.938733
937.000000	55.872380
936.000000	55.834944
935.000000	55.801544
934.000000	55.771281
933.000000	55.721628
932.000000	55.664802
931.000000	55.607640
930.000000	55.552047
929.000000	55.533217
928.000000	55.491970
927.000000	55.400174
926.000000	55.323958
925.000000	55.286970
924.000000	55.217255
923.000000	55.138124
922.000000	55.089032
921.000000	55.013824
920.000000	54.917208
919.000000	54.836509
918.000000	54.766008
917.000000	54.670514
916.000000	54.616490
915.000000	54.531979
914.000000	54.402747
913.000000	54.281810
912.000000	54.171520
911.000000	54.074792
910.000000	53.986583
909.000000	53.899383
908.000000	53.815993
907.000000	53.723636
906.000000	53.654481
905.000000	53.606958
904.000000	53.552710
903.000000	53.492857
902.000000	53.411821
901.000000	53.338071
900.000000	53.298169
899.000000	53.269812
898.000000	53.227557
897.000000	53.181042
896.000000	53.107740
895.000000	53.052595
894.000000	52.999468
893.000000	52.959678
892.000000	52.869564
891.000000	52.790433
890.000000	52.713208
889.000000	52.613230
888.000000	52.517623
887.000000	52.402065
886.000000	52.329996
885.000000	52.218585
884.000000	52.120064
883.000000	52.000584
882.000000	51.879422
881.000000	51.767788
880.000000	51.652790
879.000000	51.517282
878.000000	51.403966
877.000000	51.279218
876.000000	51.101342
875.000000	50.921673
874.000000	50.751979
873.000000	50.602236
872.000000	50.531512
871.000000	50.504051
870.000000	50.533865
869.000000	50.530951
868.000000	50.528261
867.000000	50.497887
866.000000	50.493964
865.000000	50.477264
864.000000	50.482083
863.000000	50.474574
862.000000	50.456752
861.000000	50.467176
860.000000	50.428732
859.000000	50.424921
858.000000	50.405867
857.000000	49.310300
856.000000	50.970900
855.000000	50.936400
854.000000	50.892700
853.000000	50.927500
852.000000	51.274000
851.000000	51.097000
850.000000	51.064300
849.000000	50.933000
848.000000	50.966800
847.000000	50.620200
846.000000	50.634900
845.000000	50.986300
844.000000	50.651000
843.000000	50.795800
842.000000	50.820800
841.000000	50.552400
840.000000	50.409300
839.000000	50.297400
838.000000	50.440900
837.000000	50.289500
836.000000	50.405200
835.000000	50.269400
834.000000	50.200600
833.000000	50.394000
832.000000	50.222800
831.000000	50.224800
830.000000	50.049900
829.000000	49.988600
828.000000	49.823000
827.000000	49.999200
826.000000	49.933900
825.000000	49.802300
824.000000	49.672800
823.000000	49.711400
822.000000	49.758200
821.000000	49.651300
820.000000	49.426100
819.000000	49.227300
818.000000	49.317800
817.000000	49.198600
816.000000	49.158000
815.000000	49.040400
814.000000	48.918200
813.000000	48.775900
812.000000	48.744600
811.000000	48.638400
810.000000	48.621100
809.000000	48.388700
808.000000	48.427800
807.000000	48.248300
806.000000	48.072800
805.000000	48.243400
804.000000	48.043100
803.000000	47.988300
802.000000	47.820200
801.000000	47.709400
800.000000	47.672600
799.000000	47.481900
798.000000	47.440200
797.000000	47.295400
796.000000	47.382900
795.000000	47.301900
794.000000	47.177300
793.000000	46.888100
792.000000	46.847700
791.000000	46.878500
790.000000	46.786600
789.000000	46.557500
788.000000	46.255900
787.000000	46.291500
786.000000	46.250800
785.000000	46.072800
784.000000	45.894000
783.000000	45.900300
782.000000	45.695900
781.000000	45.546500
780.000000	45.463400
779.000000	45.337600
778.000000	45.094400
777.000000	45.026400
776.000000	45.012600
775.000000	44.824600
774.000000	44.631400
773.000000	44.571100
772.000000	44.456000
771.000000	44.232600
770.000000	44.226900
769.000000	44.034200
768.000000	43.867800
767.000000	43.721500
766.000000	43.600400
765.000000	43.473700
764.000000	43.353800
763.000000	43.180100
762.000000	43.064400
761.000000	42.874900
760.000000	42.785400
759.000000	42.700800
758.000000	42.502300
757.000000	42.292200
756.000000	42.126400
755.000000	42.000700
754.000000	41.922100
753.000000	41.684200
752.000000	41.560900
751.000000	41.325900
750.000000	41.231000
749.000000	40.990400
748.000000	40.868300
747.000000	40.716000
746.000000	40.478100
745.000000	40.313200
744.000000	40.103400
743.000000	39.965300
742.000000	39.717300
741.000000	39.602300
740.000000	39.405900
739.000000	39.197900
738.000000	39.016700
737.000000	38.819100
736.000000	38.568900
735.000000	38.337000
734.000000	38.208700
733.000000	38.024400
732.000000	37.811700
731.000000	37.624300
730.000000	37.352600
729.000000	37.133500
728.000000	36.951400
727.000000	36.765500
726.000000	36.516400
725.000000	36.251700
724.000000	36.063400
723.000000	35.841200
722.000000	35.558100
721.000000	35.330700
720.000000	35.124400
719.000000	34.851200
718.000000	34.645700
717.000000	34.421500
716.000000	34.238300
715.000000	34.008000
714.000000	33.792900
713.000000	33.556900
712.000000	33.339400
711.000000	33.087100
710.000000	32.870300
709.000000	32.663600
708.000000	32.421000
707.000000	32.214500
706.000000	31.999600
705.000000	31.760900
704.000000	31.551600
703.000000	31.363500
702.000000	31.126000
701.000000	30.913300
700.000000	30.678400
699.000000	30.488700
698.000000	30.314300
697.000000	30.131600
696.000000	29.934700
695.000000	29.762200
694.000000	29.550700
693.000000	29.358500
692.000000	29.181500
691.000000	28.956500
690.000000	28.774900
689.000000	28.563800
688.000000	28.391200
687.000000	28.221500
686.000000	28.021900
685.000000	27.856300
684.000000	27.690800
683.000000	27.536100
682.000000	27.376300
681.000000	27.209000
680.000000	27.053900
679.000000	26.895200
678.000000	26.763500
677.000000	26.594100
676.000000	26.435400
675.000000	26.300600
674.000000	26.138900
673.000000	25.988700
672.000000	25.836300
671.000000	25.671600
670.000000	25.555700
669.000000	25.423800
668.000000	25.274100
667.000000	25.157600
666.000000	25.057400
665.000000	24.935300
664.000000	24.799700
663.000000	24.697500
662.000000	24.575800
661.000000	24.457700
660.000000	24.366100
659.000000	24.276500
658.000000	24.160800
657.000000	24.042400
656.000000	23.935900
655.000000	23.845300
654.000000	23.749500
653.000000	23.650400
652.000000	23.572000
651.000000	23.485000
650.000000	23.396400
649.000000	23.322600
648.000000	23.256100
647.000000	23.182700
646.000000	23.125700
645.000000	23.055400
644.000000	22.958500
643.000000	22.901500
642.000000	22.837500
641.000000	22.779600
640.000000	22.753200
639.000000	22.704000
638.000000	22.657800
637.000000	22.633700
636.000000	22.591400
635.000000	22.545500
634.000000	22.516900
633.000000	22.479600
632.000000	22.468900
631.000000	22.434000
630.000000	22.396800
629.000000	22.393800
628.000000	22.381100
627.000000	22.386200
626.000000	22.388100
625.000000	22.377500
624.000000	22.368800
623.000000	22.387100
622.000000	22.388300
621.000000	22.394300
620.000000	22.418600
619.000000	22.450600
618.000000	22.485600
617.000000	22.510000
616.000000	22.522700
615.000000	22.572200
614.000000	22.617300
613.000000	22.644500
612.000000	22.698600
611.000000	22.770300
610.000000	22.816600
609.000000	22.881600
608.000000	22.965200
607.000000	23.023600
606.000000	23.113400
605.000000	23.191700
604.000000	23.254700
603.000000	23.347800
602.000000	23.427800
601.000000	23.510900
600.000000	23.597200
599.000000	23.692900
598.000000	23.785600
597.000000	23.882900
596.000000	23.992100
595.000000	24.083700
594.000000	24.186400
593.000000	24.263200
592.000000	24.332700
591.000000	24.436700
590.000000	24.519800
589.000000	24.605200
588.000000	24.687800
587.000000	24.759400
586.000000	24.833100
585.000000	24.919200
584.000000	24.994400
583.000000	25.035200
582.000000	25.073100
581.000000	25.119600
580.000000	25.179000
579.000000	25.227200
578.000000	25.239700
577.000000	25.282600
576.000000	25.321200
575.000000	25.329400
574.000000	25.332900
573.000000	25.339900
572.000000	25.353200
571.000000	25.343200
570.000000	25.327400
569.000000	25.325800
568.000000	25.322100
567.000000	25.290700
566.000000	25.277300
565.000000	25.226300
564.000000	25.204000
563.000000	25.160100
562.000000	25.079400
561.000000	25.029500
560.000000	24.972600
559.000000	24.949700
558.000000	24.886200
557.000000	24.794200
556.000000	24.724700
555.000000	24.621200
554.000000	24.529500
553.000000	24.424100
552.000000	24.282000
551.000000	24.164600
550.000000	24.037900
549.000000	23.882600
548.000000	23.730200
547.000000	23.565900
546.000000	23.409700
545.000000	23.228700
544.000000	23.067200
543.000000	22.855200
542.000000	22.661200
541.000000	22.437500
540.000000	22.244000
539.000000	22.024900
538.000000	21.809200
537.000000	21.591800
536.000000	21.352600
535.000000	21.120300
534.000000	20.889500
533.000000	20.619900
532.000000	20.369500
531.000000	20.089200
530.000000	19.839000
529.000000	19.594800
528.000000	19.325300
527.000000	19.061600
526.000000	18.793100
525.000000	18.545500
524.000000	18.268900
523.000000	17.994700
522.000000	17.701200
521.000000	17.431400
520.000000	17.174800
519.000000	16.917500
518.000000	16.667000
517.000000	16.393600
516.000000	16.136900
515.000000	15.880900
514.000000	15.629900
513.000000	15.381500
512.000000	15.142800
511.000000	14.912900
510.000000	14.699300
509.000000	14.489600
508.000000	14.267800
507.000000	14.052500
506.000000	13.858500
505.000000	13.678300
504.000000	13.473300
503.000000	13.300600
502.000000	13.121300
501.000000	12.962900
500.000000	12.788600
499.000000	12.654700
498.000000	12.491500
497.000000	12.355700
496.000000	12.223100
495.000000	12.083500
494.000000	11.937200
493.000000	11.843500
492.000000	11.733100
491.000000	11.602400
490.000000	11.504000
489.000000	11.395700
488.000000	11.300100
487.000000	11.195800
486.000000	11.110900
485.000000	11.014300
484.000000	10.916200
483.000000	10.832400
482.000000	10.727300
481.000000	10.644000
480.000000	10.534100
479.000000	10.438400
478.000000	10.329700
477.000000	10.237300
476.000000	10.141100
475.000000	10.045400
474.000000	9.969500
473.000000	9.865800
472.000000	9.774100
471.000000	9.698500
470.000000	9.625300
469.000000	9.527400
468.000000	9.430300
467.000000	9.359400
466.000000	9.273300
465.000000	9.209000
464.000000	9.116900
463.000000	9.063400
462.000000	8.974800
461.000000	8.905700
460.000000	8.811100
459.000000	8.739700
458.000000	8.676200
457.000000	8.617900
456.000000	8.530500
455.000000	8.461700
454.000000	8.379400
453.000000	8.305500
452.000000	8.239300
451.000000	8.158200
450.000000	8.086100
449.000000	8.015800
448.000000	7.924900
447.000000	7.860800
446.000000	7.802100
445.000000	7.709300
444.000000	7.617700
443.000000	7.559800
442.000000	7.473200
441.000000	7.393800
440.000000	7.301000
439.000000	7.244400
438.000000	7.160800
437.000000	7.067100
436.000000	6.992400
435.000000	6.903100
434.000000	6.837500
433.000000	6.741200
432.000000	6.682000
431.000000	6.600900
430.000000	6.522500
429.000000	6.454800
428.000000	6.371300
427.000000	6.306200
426.000000	6.233700
425.000000	6.145700
424.000000	6.083500
423.000000	6.010700
422.000000	5.954100
421.000000	5.879200
420.000000	5.798400
419.000000	5.740500
418.000000	5.691200
417.000000	5.605800
416.000000	5.530900
415.000000	5.482400
414.000000	5.430500
413.000000	5.358200
412.000000	5.291900
411.000000	5.226800
410.000000	5.173300
409.000000	5.120000
408.000000	5.094000
407.000000	5.030600
406.000000	4.966700
405.000000	4.925200
404.000000	4.882500
403.000000	4.825800
402.000000	4.768500
401.000000	4.716700
400.000000	4.672000
399.000000	4.630600
398.000000	4.585000
397.000000	4.543700
396.000000	4.512100
395.000000	4.474500
394.000000	4.422600
393.000000	4.387600
392.000000	4.368000
391.000000	4.347800
390.000000	4.304300
389.000000	4.282600
388.000000	4.243900
387.000000	4.210900
386.000000	4.167600
385.000000	4.150800
384.000000	4.122700
383.000000	4.095900
382.000000	4.077600
381.000000	4.063400
380.000000	4.029400
379.000000	4.016700
378.000000	4.008800
377.000000	4.001300
376.000000	3.967400
375.000000	3.924900
374.000000	3.901700
373.000000	3.897900
372.000000	3.915300
371.000000	3.924100
370.000000	3.852300
369.000000	3.823400
368.000000	3.822600
367.000000	3.842500
366.000000	3.826900
365.000000	3.823200
364.000000	3.890100
363.000000	3.848400
362.000000	3.804900
361.000000	3.821200
360.000000	3.807100
359.000000	3.814500
358.000000	3.814100
357.000000	3.777400
356.000000	3.795000
355.000000	3.831500
354.000000	3.800000
353.000000	3.769600
352.000000	3.841900
351.000000	3.856000
350.000000	3.822900
349.000000	3.861700
348.000000	3.849400
347.000000	3.861000
346.000000	3.792900
345.000000	3.743500
344.000000	3.758500
343.000000	3.752200
342.000000	3.794100
341.000000	3.849100
340.000000	3.885600
339.000000	3.863600
338.000000	3.760800
337.000000	3.712100
336.000000	3.773500
335.000000	3.854400
334.000000	3.884200
333.000000	3.811500
332.000000	3.714500
331.000000	3.754300
330.000000	3.740200
329.000000	3.678600
328.000000	3.738200
327.000000	3.788800
326.000000	3.812300
325.000000	3.842300
324.000000	3.963000
323.000000	4.070700
322.000000	4.016100
321.000000	3.849400
320.000000	3.874900
319.000000	3.961500
318.000000	3.965200
317.000000	3.965800
316.000000	3.915200
315.000000	3.879800
314.000000	3.875300
313.000000	3.872800
312.000000	3.860300
311.000000	3.897800
310.000000	3.923500
309.000000	3.907300
308.000000	3.909700
307.000000	3.901100
306.000000	3.906400
305.000000	3.930200
304.000000	3.935100
303.000000	3.943900
302.000000	3.928400
301.000000	3.925700
300.000000	3.947200
299.000000	3.953000
298.000000	3.952200
297.000000	3.948700
296.000000	3.945200
295.000000	3.968200
294.000000	3.995300
293.000000	4.002700
292.000000	4.009700
291.000000	4.000200
290.000000	4.008400
289.000000	4.005100
288.000000	4.003500
287.000000	4.007300
286.000000	4.013600
285.000000	4.019700
284.000000	4.054200
283.000000	4.049400
282.000000	4.044300
281.000000	4.041200
280.000000	4.065100
279.000000	4.080200
278.000000	4.101800
277.000000	4.092600
276.000000	4.095300
275.000000	4.102000
274.000000	4.100700
273.000000	4.111900
272.000000	4.136500
271.000000	4.120700
270.000000	4.109400
269.000000	4.105600
268.000000	4.121600
267.000000	4.131700
266.000000	4.174700
265.000000	4.152200
264.000000	4.159200
263.000000	4.187800
262.000000	4.208400
261.000000	4.226100
260.000000	4.229400
259.000000	4.280300
258.000000	4.276300
257.000000	4.266100
256.000000	4.311500
255.000000	4.314600
254.000000	4.321500
253.000000	4.316000
252.000000	4.317300
251.000000	4.345400
250.000000	4.346000
