PE UV       SUBTECH     SPECTRUM    ASCII       PEDS        4.00        
   -1
CICIMAUCR0251-2.ASC
24/05/30
15:38:52.00
24/05/30
15:38:52.00
Vinicio Soto Monge
C. resplendens, F Ventral
250,000000
1
Lambda 1050
1050L1511233
PerkinElmer UV WinLab 6.3.2.0749 / 2.02.05 Lambda 900 UV/VIS/NIR, Aug  7 2015 09:38:08

0
0
3350/servo 860,8/2
0
0
UV/VIS
1
1
1
DoubleDePol,CommonBeamDepol,RBeamAtt,SBeamAtt,60mm sphere, WB InGaAs Detector
0
0
0
0
Program
Program
3350/servo 860,8/2
3350/0,2 860,8/0,2
3350/0,2 860,8/0,2
0
15.00
 
 
 
0
 
860,8
319,2
860,8
Front
100
on
S:100 R:100
0
0
0
0
 
0
 
 
 
0
 
 
0
0
0
0
0
 
 
 
 
0
0


0
0
#HDR
-1
-1
#GR
nm
%R
1.0
0.0
2500,000000
-1,000000
2251
8
49,097900
3,206000
#DATA
2500.000000	4.522781
2499.000000	4.538930
2498.000000	4.477189
2497.000000	4.408747
2496.000000	4.389961
2495.000000	4.373153
2494.000000	4.405671
2493.000000	4.329209
2492.000000	4.338547
2491.000000	4.293505
2490.000000	4.262415
2489.000000	4.339097
2488.000000	4.302184
2487.000000	4.316576
2486.000000	4.291418
2485.000000	4.290100
2484.000000	4.248463
2483.000000	4.311522
2482.000000	4.270764
2481.000000	4.280872
2480.000000	4.297240
2479.000000	4.239674
2478.000000	4.238466
2477.000000	4.164970
2476.000000	4.223305
2475.000000	4.197598
2474.000000	4.189359
2473.000000	4.168706
2472.000000	4.177275
2471.000000	4.181889
2470.000000	4.202213
2469.000000	4.133111
2468.000000	4.166948
2467.000000	4.235170
2466.000000	4.183097
2465.000000	4.158818
2464.000000	4.183317
2463.000000	4.148492
2462.000000	4.158599
2461.000000	4.189798
2460.000000	4.195841
2459.000000	4.237587
2458.000000	4.199576
2457.000000	4.199246
2456.000000	4.219021
2455.000000	4.222976
2454.000000	4.232094
2453.000000	4.226272
2452.000000	4.268348
2451.000000	4.277905
2450.000000	4.302514
2449.000000	4.317784
2448.000000	4.331297
2447.000000	4.322508
2446.000000	4.351291
2445.000000	4.360739
2444.000000	4.360080
2443.000000	4.377108
2442.000000	4.388314
2441.000000	4.419074
2440.000000	4.409187
2439.000000	4.433575
2438.000000	4.469609
2437.000000	4.496964
2436.000000	4.478618
2435.000000	4.501248
2434.000000	4.518826
2433.000000	4.513003
2432.000000	4.520144
2431.000000	4.552223
2430.000000	4.566944
2429.000000	4.557936
2428.000000	4.567274
2427.000000	4.587158
2426.000000	4.577381
2425.000000	4.608800
2424.000000	4.626597
2423.000000	4.633519
2422.000000	4.631212
2421.000000	4.648240
2420.000000	4.658676
2419.000000	4.668014
2418.000000	4.673178
2417.000000	4.680758
2416.000000	4.692073
2415.000000	4.703169
2414.000000	4.710310
2413.000000	4.725690
2412.000000	4.737994
2411.000000	4.714814
2410.000000	4.714155
2409.000000	4.735907
2408.000000	4.741180
2407.000000	4.746014
2406.000000	4.749749
2405.000000	4.763482
2404.000000	4.781498
2403.000000	4.782817
2402.000000	4.781389
2401.000000	4.796769
2400.000000	4.811710
2399.000000	4.835439
2398.000000	4.820608
2397.000000	4.839504
2396.000000	4.835219
2395.000000	4.850819
2394.000000	4.872462
2393.000000	4.867408
2392.000000	4.872242
2391.000000	4.884107
2390.000000	4.897400
2389.000000	4.905969
2388.000000	4.908825
2387.000000	4.920909
2386.000000	4.897400
2385.000000	4.886633
2384.000000	4.904650
2383.000000	4.916955
2382.000000	4.906628
2381.000000	4.906298
2380.000000	4.909924
2379.000000	4.905639
2378.000000	4.889600
2377.000000	4.887293
2376.000000	4.900256
2375.000000	4.900805
2374.000000	4.895532
2373.000000	4.884217
2372.000000	4.887842
2371.000000	4.886633
2370.000000	4.873341
2369.000000	4.879493
2368.000000	4.863563
2367.000000	4.847414
2366.000000	4.836428
2365.000000	4.845876
2364.000000	4.849941
2363.000000	4.828189
2362.000000	4.815884
2361.000000	4.796769
2360.000000	4.784355
2359.000000	4.776555
2358.000000	4.785563
2357.000000	4.785453
2356.000000	4.756561
2355.000000	4.733380
2354.000000	4.735468
2353.000000	4.734918
2352.000000	4.718989
2351.000000	4.725251
2350.000000	4.715803
2349.000000	4.710749
2348.000000	4.715803
2347.000000	4.722614
2346.000000	4.730963
2345.000000	4.729645
2344.000000	4.740851
2343.000000	4.762713
2342.000000	4.770732
2341.000000	4.777544
2340.000000	4.769084
2339.000000	4.778093
2338.000000	4.792375
2337.000000	4.798087
2336.000000	4.798307
2335.000000	4.815445
2334.000000	4.812808
2333.000000	4.805667
2332.000000	4.810941
2331.000000	4.819620
2330.000000	4.812149
2329.000000	4.796659
2328.000000	4.789848
2327.000000	4.795670
2326.000000	4.793363
2325.000000	4.775676
2324.000000	4.763701
2323.000000	4.736237
2322.000000	4.703718
2321.000000	4.689327
2320.000000	4.661203
2319.000000	4.645054
2318.000000	4.627806
2317.000000	4.617150
2316.000000	4.575953
2315.000000	4.557496
2314.000000	4.520144
2313.000000	4.484660
2312.000000	4.470158
2311.000000	4.430170
2310.000000	4.411933
2309.000000	4.398421
2308.000000	4.382491
2307.000000	4.381612
2306.000000	4.377437
2305.000000	4.362607
2304.000000	4.349533
2303.000000	4.351840
2302.000000	4.368868
2301.000000	4.383150
2300.000000	4.395235
2299.000000	4.380074
2298.000000	4.427973
2297.000000	4.450933
2296.000000	4.463787
2295.000000	4.467082
2294.000000	4.487406
2293.000000	4.507291
2292.000000	4.520693
2291.000000	4.514871
2290.000000	4.540798
2289.000000	4.539369
2288.000000	4.569800
2287.000000	4.575623
2286.000000	4.574195
2285.000000	4.574085
2284.000000	4.572437
2283.000000	4.592431
2282.000000	4.562000
2281.000000	4.545961
2280.000000	4.571668
2279.000000	4.549586
2278.000000	4.546950
2277.000000	4.564417
2276.000000	4.569691
2275.000000	4.552113
2274.000000	4.550246
2273.000000	4.557386
2272.000000	4.562110
2271.000000	4.572986
2270.000000	4.569910
2269.000000	4.580347
2268.000000	4.600890
2267.000000	4.604516
2266.000000	4.635826
2265.000000	4.672738
2264.000000	4.712507
2263.000000	4.742499
2262.000000	4.780290
2261.000000	4.824563
2260.000000	4.871803
2259.000000	4.916735
2258.000000	4.946836
2257.000000	5.034723
2256.000000	5.084489
2255.000000	5.140737
2254.000000	5.206872
2253.000000	5.270920
2252.000000	5.321675
2251.000000	5.404728
2250.000000	5.439224
2249.000000	5.521618
2248.000000	5.575449
2247.000000	5.612581
2246.000000	5.669818
2245.000000	5.702885
2244.000000	5.758803
2243.000000	5.766713
2242.000000	5.825268
2241.000000	5.868882
2240.000000	5.907552
2239.000000	5.914803
2238.000000	5.965228
2237.000000	5.993682
2236.000000	6.006974
2235.000000	6.039273
2234.000000	6.049819
2233.000000	6.072670
2232.000000	6.096839
2231.000000	6.112878
2230.000000	6.126611
2229.000000	6.130895
2228.000000	6.132873
2227.000000	6.139245
2226.000000	6.144078
2225.000000	6.133092
2224.000000	6.122985
2223.000000	6.121557
2222.000000	6.122985
2221.000000	6.116833
2220.000000	6.118701
2219.000000	6.124743
2218.000000	6.081239
2217.000000	6.072121
2216.000000	6.086512
2215.000000	6.043997
2214.000000	6.059707
2213.000000	6.054104
2212.000000	6.059926
2211.000000	6.019938
2210.000000	6.022574
2209.000000	6.002360
2208.000000	6.039053
2207.000000	6.024881
2206.000000	5.997746
2205.000000	6.009501
2204.000000	5.991594
2203.000000	5.969732
2202.000000	5.961383
2201.000000	5.968853
2200.000000	5.954791
2199.000000	5.958197
2198.000000	5.952045
2197.000000	5.942377
2196.000000	5.932930
2195.000000	5.923262
2194.000000	5.946113
2193.000000	5.935786
2192.000000	5.918318
2191.000000	5.910299
2190.000000	5.918758
2189.000000	5.918318
2188.000000	5.906454
2187.000000	5.936006
2186.000000	5.903158
2185.000000	5.883163
2184.000000	5.872178
2183.000000	5.891403
2182.000000	5.892721
2181.000000	5.868552
2180.000000	5.885580
2179.000000	5.865586
2178.000000	5.871079
2177.000000	5.851744
2176.000000	5.840648
2175.000000	5.840978
2174.000000	5.851414
2173.000000	5.851634
2172.000000	5.868333
2171.000000	5.885910
2170.000000	5.858006
2169.000000	5.875254
2168.000000	5.877890
2167.000000	5.869761
2166.000000	5.891403
2165.000000	5.906234
2164.000000	5.905245
2163.000000	5.919307
2162.000000	5.930183
2161.000000	5.938862
2160.000000	5.956549
2159.000000	5.964349
2158.000000	5.966986
2157.000000	5.982036
2156.000000	6.013236
2155.000000	6.026859
2154.000000	6.021805
2153.000000	6.045425
2152.000000	6.086952
2151.000000	6.082008
2150.000000	6.089369
2149.000000	6.120239
2148.000000	6.139464
2147.000000	6.161875
2146.000000	6.171983
2145.000000	6.178904
2144.000000	6.200546
2143.000000	6.205270
2142.000000	6.226473
2141.000000	6.240205
2140.000000	6.263165
2139.000000	6.267230
2138.000000	6.272174
2137.000000	6.295793
2136.000000	6.306999
2135.000000	6.312602
2134.000000	6.311284
2133.000000	6.315458
2132.000000	6.329081
2131.000000	6.338968
2130.000000	6.343253
2129.000000	6.333146
2128.000000	6.358413
2127.000000	6.357314
2126.000000	6.368960
2125.000000	6.366982
2124.000000	6.366982
2123.000000	6.356436
2122.000000	6.358852
2121.000000	6.347427
2120.000000	6.351822
2119.000000	6.335562
2118.000000	6.332047
2117.000000	6.330289
2116.000000	6.318974
2115.000000	6.313041
2114.000000	6.319193
2113.000000	6.307219
2112.000000	6.284368
2111.000000	6.278985
2110.000000	6.266791
2109.000000	6.264813
2108.000000	6.269317
2107.000000	6.255695
2106.000000	6.248774
2105.000000	6.234932
2104.000000	6.225154
2103.000000	6.205709
2102.000000	6.200875
2101.000000	6.210104
2100.000000	6.209335
2099.000000	6.180661
2098.000000	6.173850
2097.000000	6.174180
2096.000000	6.169126
2095.000000	6.159459
2094.000000	6.153856
2093.000000	6.154405
2092.000000	6.149022
2091.000000	6.137707
2090.000000	6.129907
2089.000000	6.119690
2088.000000	6.116614
2087.000000	6.116723
2086.000000	6.116064
2085.000000	6.107935
2084.000000	6.103980
2083.000000	6.117383
2082.000000	6.105518
2081.000000	6.067617
2080.000000	6.054324
2079.000000	6.057839
2078.000000	6.071571
2077.000000	6.038065
2076.000000	6.014005
2075.000000	6.021476
2074.000000	6.008073
2073.000000	5.991484
2072.000000	5.968304
2071.000000	5.945783
2070.000000	5.939411
2069.000000	5.917330
2068.000000	5.889755
2067.000000	5.883493
2066.000000	5.878440
2065.000000	5.852733
2064.000000	5.825158
2063.000000	5.805054
2062.000000	5.781105
2061.000000	5.783192
2060.000000	5.771986
2059.000000	5.751223
2058.000000	5.740676
2057.000000	5.733426
2056.000000	5.713761
2055.000000	5.694206
2054.000000	5.704972
2053.000000	5.708488
2052.000000	5.712333
2051.000000	5.725406
2050.000000	5.736062
2049.000000	5.742434
2048.000000	5.757485
2047.000000	5.796595
2046.000000	5.808789
2045.000000	5.840099
2044.000000	5.862510
2043.000000	5.877780
2042.000000	5.902059
2041.000000	5.945673
2040.000000	5.983904
2039.000000	5.997417
2038.000000	6.036636
2037.000000	6.057729
2036.000000	6.090247
2035.000000	6.112988
2034.000000	6.132323
2033.000000	6.161326
2032.000000	6.191428
2031.000000	6.209884
2030.000000	6.228340
2029.000000	6.240754
2028.000000	6.256354
2027.000000	6.270965
2026.000000	6.277886
2025.000000	6.295354
2024.000000	6.301286
2023.000000	6.308647
2022.000000	6.328971
2021.000000	6.339957
2020.000000	6.339737
2019.000000	6.336771
2018.000000	6.337650
2017.000000	6.356216
2016.000000	6.344461
2015.000000	6.345779
2014.000000	6.351162
2013.000000	6.340726
2012.000000	6.334134
2011.000000	6.332157
2010.000000	6.338748
2009.000000	6.327653
2008.000000	6.313151
2007.000000	6.315239
2006.000000	6.302055
2005.000000	6.306779
2004.000000	6.287884
2003.000000	6.261188
2002.000000	6.252509
2001.000000	6.251850
2000.000000	6.229549
1999.000000	6.202194
1998.000000	6.204061
1997.000000	6.179892
1996.000000	6.157481
1995.000000	6.125512
1994.000000	6.114526
1993.000000	6.088929
1992.000000	6.087501
1991.000000	6.046304
1990.000000	6.014115
1989.000000	5.987420
1988.000000	5.990935
1987.000000	5.969403
1986.000000	5.955890
1985.000000	5.904476
1984.000000	5.887228
1983.000000	5.861302
1982.000000	5.850426
1981.000000	5.818127
1980.000000	5.794617
1979.000000	5.766164
1978.000000	5.755837
1977.000000	5.716837
1976.000000	5.709257
1975.000000	5.674651
1974.000000	5.642572
1973.000000	5.632685
1972.000000	5.615877
1971.000000	5.589511
1970.000000	5.582260
1969.000000	5.539305
1968.000000	5.514257
1967.000000	5.506677
1966.000000	5.474049
1965.000000	5.476686
1964.000000	5.465480
1963.000000	5.444057
1962.000000	5.433291
1961.000000	5.399894
1960.000000	5.363531
1959.000000	5.366058
1958.000000	5.347162
1957.000000	5.329035
1956.000000	5.321235
1955.000000	5.309920
1954.000000	5.280038
1953.000000	5.262461
1952.000000	5.257957
1951.000000	5.244554
1950.000000	5.242576
1949.000000	5.205554
1948.000000	5.201269
1947.000000	5.190613
1946.000000	5.176112
1945.000000	5.198413
1944.000000	5.174354
1943.000000	5.166993
1942.000000	5.146230
1941.000000	5.155568
1940.000000	5.137441
1939.000000	5.140407
1938.000000	5.102286
1937.000000	5.152053
1936.000000	5.145571
1935.000000	5.132937
1934.000000	5.113822
1933.000000	5.133157
1932.000000	5.169191
1931.000000	5.168641
1930.000000	5.178529
1929.000000	5.184461
1928.000000	5.211926
1927.000000	5.238951
1926.000000	5.256638
1925.000000	5.265317
1924.000000	5.316182
1923.000000	5.320796
1922.000000	5.373089
1921.000000	5.378032
1920.000000	5.436587
1919.000000	5.482948
1918.000000	5.513159
1917.000000	5.534032
1916.000000	5.562376
1915.000000	5.602035
1914.000000	5.638398
1913.000000	5.702006
1912.000000	5.770558
1911.000000	5.849107
1910.000000	5.889755
1909.000000	5.932930
1908.000000	5.987639
1907.000000	6.036307
1906.000000	6.117492
1905.000000	6.187033
1904.000000	6.315239
1903.000000	6.390272
1902.000000	6.464756
1901.000000	6.548139
1900.000000	6.646573
1899.000000	6.780051
1898.000000	6.855415
1897.000000	6.962417
1896.000000	7.075572
1895.000000	7.157856
1894.000000	7.260135
1893.000000	7.359557
1892.000000	7.504791
1891.000000	7.674742
1890.000000	7.848979
1889.000000	7.994651
1888.000000	8.138127
1887.000000	8.325546
1886.000000	8.489016
1885.000000	8.683577
1884.000000	8.895824
1883.000000	9.143885
1882.000000	9.406778
1881.000000	9.643304
1880.000000	9.907844
1879.000000	10.141953
1878.000000	10.402758
1877.000000	10.664442
1876.000000	10.913163
1875.000000	11.185393
1874.000000	11.432576
1873.000000	11.692502
1872.000000	11.963743
1871.000000	12.221362
1870.000000	12.462393
1869.000000	12.691888
1868.000000	12.872826
1867.000000	13.033879
1866.000000	13.163842
1865.000000	13.273591
1864.000000	13.364664
1863.000000	13.457934
1862.000000	13.525278
1861.000000	13.638872
1860.000000	13.733131
1859.000000	13.828159
1858.000000	13.925494
1857.000000	13.975370
1856.000000	14.012941
1855.000000	14.059631
1854.000000	14.083800
1853.000000	14.123569
1852.000000	14.134775
1851.000000	14.115440
1850.000000	14.107310
1849.000000	14.115659
1848.000000	14.122471
1847.000000	14.142355
1846.000000	14.138949
1845.000000	14.103904
1844.000000	14.073913
1843.000000	14.031947
1842.000000	13.998110
1841.000000	14.001406
1840.000000	14.004153
1839.000000	14.000308
1838.000000	13.995254
1837.000000	13.964603
1836.000000	13.944609
1835.000000	13.916485
1834.000000	13.877156
1833.000000	13.835409
1832.000000	13.799376
1831.000000	13.748621
1830.000000	13.713686
1829.000000	13.677103
1828.000000	13.639311
1827.000000	13.579768
1826.000000	13.539010
1825.000000	13.507590
1824.000000	13.462109
1823.000000	13.436292
1822.000000	13.393227
1821.000000	13.380813
1820.000000	13.391799
1819.000000	13.375210
1818.000000	13.333025
1817.000000	13.310833
1816.000000	13.298749
1815.000000	13.287982
1814.000000	13.280952
1813.000000	13.272383
1812.000000	13.256233
1811.000000	13.235470
1810.000000	13.222177
1809.000000	13.200205
1808.000000	13.177684
1807.000000	13.143957
1806.000000	13.104518
1805.000000	13.074527
1804.000000	13.049699
1803.000000	13.025090
1802.000000	12.995428
1801.000000	12.957966
1800.000000	12.922043
1799.000000	12.887437
1798.000000	12.849426
1797.000000	12.812293
1796.000000	12.782961
1795.000000	12.758353
1794.000000	12.714849
1793.000000	12.678266
1792.000000	12.656404
1791.000000	12.628170
1790.000000	12.597300
1789.000000	12.553686
1788.000000	12.529077
1787.000000	12.486013
1786.000000	12.428007
1785.000000	12.395709
1784.000000	12.361982
1783.000000	12.322762
1782.000000	12.282774
1781.000000	12.242455
1780.000000	12.197413
1779.000000	12.141605
1778.000000	12.099749
1777.000000	12.062067
1776.000000	11.993186
1775.000000	11.927051
1774.000000	11.862563
1773.000000	11.801592
1772.000000	11.740400
1771.000000	11.668003
1770.000000	11.590333
1769.000000	11.514640
1768.000000	11.446747
1767.000000	11.397421
1766.000000	11.340184
1765.000000	11.282948
1764.000000	11.241861
1763.000000	11.210002
1762.000000	11.187920
1761.000000	11.193413
1760.000000	11.224393
1759.000000	11.247463
1758.000000	11.279982
1757.000000	11.323046
1756.000000	11.366001
1755.000000	11.405111
1754.000000	11.435432
1753.000000	11.464654
1752.000000	11.490032
1751.000000	11.497832
1750.000000	11.484759
1749.000000	11.480035
1748.000000	11.452680
1747.000000	11.417855
1746.000000	11.388083
1745.000000	11.335460
1744.000000	11.277784
1743.000000	11.204179
1742.000000	11.117171
1741.000000	11.005664
1740.000000	10.883391
1739.000000	10.778695
1738.000000	10.657411
1737.000000	10.560296
1736.000000	10.437144
1735.000000	10.346181
1734.000000	10.299711
1733.000000	10.258514
1732.000000	10.240497
1731.000000	10.235993
1730.000000	10.246209
1729.000000	10.307621
1728.000000	10.335854
1727.000000	10.379139
1726.000000	10.431761
1725.000000	10.458347
1724.000000	10.524702
1723.000000	10.558978
1722.000000	10.585234
1721.000000	10.604020
1720.000000	10.648403
1719.000000	10.669825
1718.000000	10.685755
1717.000000	10.735741
1716.000000	10.770896
1715.000000	10.813301
1714.000000	10.860101
1713.000000	10.912723
1712.000000	10.969301
1711.000000	11.040819
1710.000000	11.073117
1709.000000	11.089376
1708.000000	11.102010
1707.000000	11.112776
1706.000000	11.104098
1705.000000	11.081796
1704.000000	11.056748
1703.000000	11.046751
1702.000000	11.004675
1701.000000	10.947219
1700.000000	10.912723
1699.000000	10.834943
1698.000000	10.750901
1697.000000	10.702453
1696.000000	10.642800
1695.000000	10.629727
1694.000000	10.596769
1693.000000	10.631594
1692.000000	10.677186
1691.000000	10.740794
1690.000000	10.825386
1689.000000	10.880315
1688.000000	10.944802
1687.000000	10.999182
1686.000000	11.061143
1685.000000	11.088498
1684.000000	11.105086
1683.000000	11.187700
1682.000000	11.309094
1681.000000	11.467291
1680.000000	11.695248
1679.000000	11.977366
1678.000000	12.280576
1677.000000	12.562145
1676.000000	12.889634
1675.000000	13.159118
1674.000000	13.445410
1673.000000	13.693691
1672.000000	13.878584
1671.000000	14.041395
1670.000000	14.194318
1669.000000	14.332081
1668.000000	14.457101
1667.000000	14.596182
1666.000000	14.680554
1665.000000	14.754818
1664.000000	14.817987
1663.000000	14.888297
1662.000000	14.956629
1661.000000	15.022654
1660.000000	15.051987
1659.000000	15.080989
1658.000000	15.134271
1657.000000	15.164372
1656.000000	15.190958
1655.000000	15.194584
1654.000000	15.204141
1653.000000	15.216885
1652.000000	15.182170
1651.000000	15.197110
1650.000000	15.181620
1649.000000	15.147674
1648.000000	15.142840
1647.000000	15.115705
1646.000000	15.070992
1645.000000	15.021446
1644.000000	15.024632
1643.000000	14.985852
1642.000000	14.932131
1641.000000	14.891922
1640.000000	14.845562
1639.000000	14.818976
1638.000000	14.779976
1637.000000	14.740757
1636.000000	14.676819
1635.000000	14.628041
1634.000000	14.608047
1633.000000	14.548723
1632.000000	14.518622
1631.000000	14.455014
1630.000000	14.402171
1629.000000	14.332301
1628.000000	14.291983
1627.000000	14.238591
1626.000000	14.169600
1625.000000	14.127195
1624.000000	14.074682
1623.000000	14.004592
1622.000000	13.936699
1621.000000	13.906158
1620.000000	13.853756
1619.000000	13.798716
1618.000000	13.757519
1617.000000	13.717091
1616.000000	13.646122
1615.000000	13.589875
1614.000000	13.533957
1613.000000	13.508250
1612.000000	13.454089
1611.000000	13.397292
1610.000000	13.371585
1609.000000	13.325664
1608.000000	13.273261
1607.000000	13.221628
1606.000000	13.178233
1605.000000	13.126270
1604.000000	13.088149
1603.000000	13.032670
1602.000000	12.999054
1601.000000	12.943795
1600.000000	12.884910
1599.000000	12.847778
1598.000000	12.803724
1597.000000	12.739677
1596.000000	12.704742
1595.000000	12.659150
1594.000000	12.630147
1593.000000	12.599936
1592.000000	12.555224
1591.000000	12.517542
1590.000000	12.491506
1589.000000	12.450968
1588.000000	12.405706
1587.000000	12.380109
1586.000000	12.342976
1585.000000	12.291562
1584.000000	12.272667
1583.000000	12.256298
1582.000000	12.216968
1581.000000	12.192799
1580.000000	12.179287
1579.000000	12.146109
1578.000000	12.151273
1577.000000	12.126225
1576.000000	12.108977
1575.000000	12.100188
1574.000000	12.097991
1573.000000	12.090960
1572.000000	12.067780
1571.000000	12.068219
1570.000000	12.061518
1569.000000	12.048005
1568.000000	12.036470
1567.000000	12.046577
1566.000000	12.074701
1565.000000	12.074701
1564.000000	12.068109
1563.000000	12.077997
1562.000000	12.073492
1561.000000	12.077557
1560.000000	12.077667
1559.000000	12.076019
1558.000000	12.072614
1557.000000	12.057563
1556.000000	12.054267
1555.000000	12.039216
1554.000000	12.042292
1553.000000	12.029878
1552.000000	12.003732
1551.000000	11.986704
1550.000000	11.976487
1549.000000	11.951988
1548.000000	11.932214
1547.000000	11.909363
1546.000000	11.883656
1545.000000	11.864101
1544.000000	11.852237
1543.000000	11.842789
1542.000000	11.820817
1541.000000	11.819828
1540.000000	11.804228
1539.000000	11.782586
1538.000000	11.767316
1537.000000	11.753144
1536.000000	11.747431
1535.000000	11.738643
1534.000000	11.709310
1533.000000	11.687778
1532.000000	11.676243
1531.000000	11.667784
1530.000000	11.641198
1529.000000	11.615491
1528.000000	11.598133
1527.000000	11.583192
1526.000000	11.562978
1525.000000	11.529801
1524.000000	11.496184
1523.000000	11.460700
1522.000000	11.444660
1521.000000	11.414559
1520.000000	11.392917
1519.000000	11.363914
1518.000000	11.325903
1517.000000	11.316235
1516.000000	11.278993
1515.000000	11.233401
1514.000000	11.211320
1513.000000	11.181768
1512.000000	11.140351
1511.000000	11.108821
1510.000000	11.079489
1509.000000	11.048289
1508.000000	11.007751
1507.000000	10.968422
1506.000000	10.924368
1505.000000	10.888225
1504.000000	10.863067
1503.000000	10.832416
1502.000000	10.807588
1501.000000	10.770676
1500.000000	10.748814
1499.000000	10.733104
1498.000000	10.703442
1497.000000	10.684876
1496.000000	10.660927
1495.000000	10.628738
1494.000000	10.587871
1493.000000	10.558868
1492.000000	10.546783
1491.000000	10.527668
1490.000000	10.509321
1489.000000	10.500093
1488.000000	10.497457
1487.000000	10.482736
1486.000000	10.467795
1485.000000	10.446482
1484.000000	10.426817
1483.000000	10.413525
1482.000000	10.410888
1481.000000	10.413085
1480.000000	10.385730
1479.000000	10.378809
1478.000000	10.371339
1477.000000	10.372218
1476.000000	10.365956
1475.000000	10.359144
1474.000000	10.386609
1473.000000	10.393201
1472.000000	10.386499
1471.000000	10.388367
1470.000000	10.403857
1469.000000	10.395178
1468.000000	10.397046
1467.000000	10.400781
1466.000000	10.412316
1465.000000	10.415392
1464.000000	10.441319
1463.000000	10.453733
1462.000000	10.472738
1461.000000	10.488888
1460.000000	10.510420
1459.000000	10.538654
1458.000000	10.580290
1457.000000	10.600944
1456.000000	10.627749
1455.000000	10.657741
1454.000000	10.696411
1453.000000	10.739256
1452.000000	10.783639
1451.000000	10.816597
1450.000000	10.857245
1449.000000	10.906901
1448.000000	10.951284
1447.000000	11.005664
1446.000000	11.056419
1445.000000	11.109810
1444.000000	11.161004
1443.000000	11.215494
1442.000000	11.248782
1441.000000	11.318762
1440.000000	11.375229
1439.000000	11.424666
1438.000000	11.503654
1437.000000	11.555727
1436.000000	11.626696
1435.000000	11.711507
1434.000000	11.783245
1433.000000	11.846414
1432.000000	11.924963
1431.000000	11.998129
1430.000000	12.103923
1429.000000	12.179287
1428.000000	12.277500
1427.000000	12.368464
1426.000000	12.497548
1425.000000	12.589500
1424.000000	12.727702
1423.000000	12.851184
1422.000000	13.009600
1421.000000	13.122315
1420.000000	13.258211
1419.000000	13.445410
1418.000000	13.602838
1417.000000	13.753235
1416.000000	13.917035
1415.000000	14.104454
1414.000000	14.271549
1413.000000	14.496320
1412.000000	14.682202
1411.000000	14.876982
1410.000000	15.091866
1409.000000	15.374642
1408.000000	15.655222
1407.000000	15.931517
1406.000000	16.212976
1405.000000	16.510693
1404.000000	16.853233
1403.000000	17.149742
1402.000000	17.498105
1401.000000	17.799997
1400.000000	18.177692
1399.000000	18.545939
1398.000000	18.836735
1397.000000	19.063045
1396.000000	19.342636
1395.000000	19.673750
1394.000000	19.957076
1393.000000	20.226121
1392.000000	20.485168
1391.000000	20.793103
1390.000000	21.118285
1389.000000	21.402380
1388.000000	21.748875
1387.000000	22.197539
1386.000000	22.614014
1385.000000	23.050373
1384.000000	23.514088
1383.000000	24.007134
1382.000000	24.572139
1381.000000	25.062109
1380.000000	25.504182
1379.000000	25.826508
1378.000000	26.065670
1377.000000	26.272974
1376.000000	26.494340
1375.000000	26.682199
1374.000000	26.934544
1373.000000	27.178321
1372.000000	27.499659
1371.000000	27.824511
1370.000000	28.206161
1369.000000	28.541890
1368.000000	28.824557
1367.000000	29.147981
1366.000000	29.411313
1365.000000	29.620704
1364.000000	29.847343
1363.000000	30.039926
1362.000000	30.243384
1361.000000	30.434429
1360.000000	30.614927
1359.000000	30.702375
1358.000000	30.831020
1357.000000	30.935386
1356.000000	31.103909
1355.000000	31.363176
1354.000000	31.690116
1353.000000	32.126366
1352.000000	32.525703
1351.000000	33.065769
1350.000000	33.585731
1349.000000	34.060212
1348.000000	34.519532
1347.000000	34.941170
1346.000000	35.357426
1345.000000	35.733033
1344.000000	36.117100
1343.000000	36.503034
1342.000000	36.840521
1341.000000	37.184050
1340.000000	37.542959
1339.000000	37.885938
1338.000000	38.225292
1337.000000	38.579697
1336.000000	38.909823
1335.000000	39.216110
1334.000000	39.537667
1333.000000	39.841646
1332.000000	40.150569
1331.000000	40.453560
1330.000000	40.749740
1329.000000	41.001756
1328.000000	41.281786
1327.000000	41.540834
1326.000000	41.784611
1325.000000	42.034210
1324.000000	42.241624
1323.000000	42.479907
1322.000000	42.694462
1321.000000	42.904073
1320.000000	43.108740
1319.000000	43.289787
1318.000000	43.459409
1317.000000	43.640347
1316.000000	43.839192
1315.000000	43.997498
1314.000000	44.144599
1313.000000	44.292689
1312.000000	44.431661
1311.000000	44.559097
1310.000000	44.714108
1309.000000	44.834953
1308.000000	44.949535
1307.000000	45.058955
1306.000000	45.148160
1305.000000	45.238354
1304.000000	45.321408
1303.000000	45.384027
1302.000000	45.445329
1301.000000	45.509157
1300.000000	45.544861
1299.000000	45.583092
1298.000000	45.616599
1297.000000	45.661421
1296.000000	45.696905
1295.000000	45.722063
1294.000000	45.739091
1293.000000	45.753812
1292.000000	45.781826
1291.000000	45.769962
1290.000000	45.750626
1289.000000	45.731401
1288.000000	45.717669
1287.000000	45.705694
1286.000000	45.670759
1285.000000	45.629013
1284.000000	45.545630
1283.000000	45.479055
1282.000000	45.435881
1281.000000	45.381171
1280.000000	45.306577
1279.000000	45.244836
1278.000000	45.183425
1277.000000	45.133879
1276.000000	45.084113
1275.000000	45.024569
1274.000000	44.970628
1273.000000	44.945910
1272.000000	44.892958
1271.000000	44.844840
1270.000000	44.816826
1269.000000	44.777496
1268.000000	44.738606
1267.000000	44.699936
1266.000000	44.660497
1265.000000	44.605018
1264.000000	44.554373
1263.000000	44.486700
1262.000000	44.429573
1261.000000	44.386179
1260.000000	44.345861
1259.000000	44.287636
1258.000000	44.236222
1257.000000	44.165692
1256.000000	44.096921
1255.000000	44.042980
1254.000000	43.971242
1253.000000	43.899504
1252.000000	43.823152
1251.000000	43.732299
1250.000000	43.625406
1249.000000	43.531367
1248.000000	43.442821
1247.000000	43.321536
1246.000000	43.213106
1245.000000	43.087427
1244.000000	42.946368
1243.000000	42.814098
1242.000000	42.660406
1241.000000	42.498803
1240.000000	42.332806
1239.000000	42.178784
1238.000000	42.028607
1237.000000	41.872937
1236.000000	41.710126
1235.000000	41.543141
1234.000000	41.369124
1233.000000	41.184342
1232.000000	40.995274
1231.000000	40.792035
1230.000000	40.596926
1229.000000	40.405772
1228.000000	40.213958
1227.000000	40.011708
1226.000000	39.789243
1225.000000	39.565681
1224.000000	39.354532
1223.000000	39.145800
1222.000000	38.937947
1221.000000	38.730204
1220.000000	38.514770
1219.000000	38.309115
1218.000000	38.113126
1217.000000	37.914282
1216.000000	37.714888
1215.000000	37.552406
1214.000000	37.391903
1213.000000	37.212503
1212.000000	37.068478
1211.000000	36.913138
1210.000000	36.765817
1209.000000	36.643764
1208.000000	36.519733
1207.000000	36.407347
1206.000000	36.308914
1205.000000	36.208613
1204.000000	36.137534
1203.000000	36.091942
1202.000000	36.038661
1201.000000	35.986917
1200.000000	35.941655
1199.000000	35.883870
1198.000000	35.809495
1197.000000	35.717214
1196.000000	35.593622
1195.000000	35.424550
1194.000000	35.185277
1193.000000	34.897337
1192.000000	34.580614
1191.000000	34.185781
1190.000000	33.760956
1189.000000	33.362059
1188.000000	33.013806
1187.000000	32.707519
1186.000000	32.514827
1185.000000	32.446275
1184.000000	32.503402
1183.000000	32.677967
1182.000000	32.973708
1181.000000	33.385019
1180.000000	33.855545
1179.000000	34.368366
1178.000000	34.863500
1177.000000	35.314801
1176.000000	35.722487
1175.000000	36.091173
1174.000000	36.424266
1173.000000	36.762521
1172.000000	37.072103
1171.000000	37.416181
1170.000000	37.767400
1169.000000	38.130484
1168.000000	38.471486
1167.000000	38.823584
1166.000000	39.206772
1165.000000	39.589630
1164.000000	39.989846
1163.000000	40.410495
1162.000000	40.813348
1161.000000	41.238722
1160.000000	41.652231
1159.000000	42.052007
1158.000000	42.466834
1157.000000	42.862216
1156.000000	43.242438
1155.000000	43.571246
1154.000000	43.861822
1153.000000	44.110213
1152.000000	44.313233
1151.000000	44.471979
1150.000000	44.601063
1149.000000	44.711471
1148.000000	44.809136
1147.000000	44.942504
1146.000000	45.070380
1145.000000	45.293174
1144.000000	45.570568
1143.000000	45.893773
1142.000000	46.278169
1141.000000	46.674430
1140.000000	47.110899
1139.000000	47.553521
1138.000000	48.019432
1137.000000	48.492155
1136.000000	49.002450
1135.000000	49.545592
1134.000000	50.092579
1133.000000	50.613091
1132.000000	51.091197
1131.000000	51.483942
1130.000000	51.883719
1129.000000	52.274377
1128.000000	52.588464
1127.000000	52.851246
1126.000000	53.045257
1125.000000	53.207519
1124.000000	53.353301
1123.000000	53.493481
1122.000000	53.589498
1121.000000	53.685295
1120.000000	53.774281
1119.000000	53.821740
1118.000000	53.858103
1117.000000	53.896554
1116.000000	53.909956
1115.000000	53.921492
1114.000000	53.927973
1113.000000	53.934784
1112.000000	53.921601
1111.000000	53.932807
1110.000000	53.938410
1109.000000	53.923908
1108.000000	53.910286
1107.000000	53.892379
1106.000000	53.899300
1105.000000	53.870847
1104.000000	53.871725
1103.000000	53.855796
1102.000000	53.845689
1101.000000	53.844151
1100.000000	53.807897
1099.000000	53.809985
1098.000000	53.778236
1097.000000	53.743300
1096.000000	53.714078
1095.000000	53.677385
1094.000000	53.645746
1093.000000	53.619929
1092.000000	53.588289
1091.000000	53.545335
1090.000000	53.476453
1089.000000	53.418008
1088.000000	53.387138
1087.000000	53.317597
1086.000000	53.251572
1085.000000	53.199169
1084.000000	53.130178
1083.000000	53.090519
1082.000000	53.028998
1081.000000	52.943198
1080.000000	52.891784
1079.000000	52.828286
1078.000000	52.757756
1077.000000	52.678109
1076.000000	52.626475
1075.000000	52.578686
1074.000000	52.534962
1073.000000	52.426861
1072.000000	52.362045
1071.000000	52.296129
1070.000000	52.228127
1069.000000	52.168693
1068.000000	52.090034
1067.000000	52.032578
1066.000000	51.945569
1065.000000	51.883279
1064.000000	51.822967
1063.000000	51.742001
1062.000000	51.660266
1061.000000	51.587649
1060.000000	51.517669
1059.000000	51.421543
1058.000000	51.350024
1057.000000	51.278616
1056.000000	51.192267
1055.000000	51.100205
1054.000000	51.009022
1053.000000	50.936406
1052.000000	50.840719
1051.000000	50.754260
1050.000000	50.689772
1049.000000	50.617595
1048.000000	50.546297
1047.000000	50.459948
1046.000000	50.418641
1045.000000	50.341849
1044.000000	50.285272
1043.000000	50.201120
1042.000000	50.148937
1041.000000	50.068740
1040.000000	49.998430
1039.000000	49.937898
1038.000000	49.871214
1037.000000	49.800135
1036.000000	49.742569
1035.000000	49.659955
1034.000000	49.593820
1033.000000	49.508570
1032.000000	49.419584
1031.000000	49.333235
1030.000000	49.250291
1029.000000	49.150649
1028.000000	49.060785
1027.000000	49.004427
1026.000000	48.894458
1025.000000	48.780535
1024.000000	48.688034
1023.000000	48.604541
1022.000000	48.496440
1021.000000	48.400203
1020.000000	48.308691
1019.000000	48.209159
1018.000000	48.139618
1017.000000	48.038218
1016.000000	47.969996
1015.000000	47.909134
1014.000000	47.849700
1013.000000	47.770602
1012.000000	47.696667
1011.000000	47.660853
1010.000000	47.638112
1009.000000	47.608450
1008.000000	47.566374
1007.000000	47.554619
1006.000000	47.548248
1005.000000	47.520343
1004.000000	47.501667
1003.000000	47.490681
1002.000000	47.458163
1001.000000	47.416746
1000.000000	47.386755
999.000000	47.363685
998.000000	47.346327
997.000000	47.345558
996.000000	47.333693
995.000000	47.309195
994.000000	47.298758
993.000000	47.296671
992.000000	47.273271
991.000000	47.267888
990.000000	47.246026
989.000000	47.233612
988.000000	47.246795
987.000000	47.242950
986.000000	47.253496
985.000000	47.251409
984.000000	47.239544
983.000000	47.237347
982.000000	47.260527
981.000000	47.256572
980.000000	47.255144
979.000000	47.272721
978.000000	47.287662
977.000000	47.285575
976.000000	47.298538
975.000000	47.307217
974.000000	47.327321
973.000000	47.309634
972.000000	47.317873
971.000000	47.339186
970.000000	47.337648
969.000000	47.336440
968.000000	47.343690
967.000000	47.356873
966.000000	47.361707
965.000000	47.361707
964.000000	47.364893
963.000000	47.402794
962.000000	47.427183
961.000000	47.444980
960.000000	47.464315
959.000000	47.473214
958.000000	47.506391
957.000000	47.545391
956.000000	47.564177
955.000000	47.573954
954.000000	47.578898
953.000000	47.578349
952.000000	47.590543
951.000000	47.615042
950.000000	47.627456
949.000000	47.621743
948.000000	47.618337
947.000000	47.624270
946.000000	47.638112
945.000000	47.633278
944.000000	47.603726
943.000000	47.604495
942.000000	47.599552
941.000000	47.556377
940.000000	47.525946
939.000000	47.500129
938.000000	47.495515
937.000000	47.474642
936.000000	47.441794
935.000000	47.427952
934.000000	47.429160
933.000000	47.414000
932.000000	47.393456
931.000000	47.375330
930.000000	47.342921
929.000000	47.324465
928.000000	47.289640
927.000000	47.227020
926.000000	47.209113
925.000000	47.182417
924.000000	47.129246
923.000000	47.087499
922.000000	47.070801
921.000000	47.015212
920.000000	46.954021
919.000000	46.915241
918.000000	46.888215
917.000000	46.828232
916.000000	46.765723
915.000000	46.705410
914.000000	46.637847
913.000000	46.577205
912.000000	46.532822
911.000000	46.455371
910.000000	46.395498
909.000000	46.361771
908.000000	46.320025
907.000000	46.254110
906.000000	46.212254
905.000000	46.188304
904.000000	46.160840
903.000000	46.147217
902.000000	46.155127
901.000000	46.150183
900.000000	46.141395
899.000000	46.137110
898.000000	46.123048
897.000000	46.103823
896.000000	46.098769
895.000000	46.079764
894.000000	46.075699
893.000000	46.061198
892.000000	46.037578
891.000000	46.009234
890.000000	45.966389
889.000000	45.916953
888.000000	45.901243
887.000000	45.861584
886.000000	45.795449
885.000000	45.766886
884.000000	45.710308
883.000000	45.671967
882.000000	45.632748
881.000000	45.588365
880.000000	45.527283
879.000000	45.485537
878.000000	45.438078
877.000000	45.380182
876.000000	45.317013
875.000000	45.223084
874.000000	45.124431
873.000000	45.010397
872.000000	44.923828
871.000000	44.837369
870.000000	44.818913
869.000000	44.806939
868.000000	44.806389
867.000000	44.824077
866.000000	44.825175
865.000000	44.815398
864.000000	44.834733
863.000000	44.839237
862.000000	44.828031
861.000000	44.840885
860.000000	44.814409
859.000000	44.800896
858.000000	44.823967
857.000000	44.574900
856.000000	45.160200
855.000000	44.736800
854.000000	44.685900
853.000000	44.859200
852.000000	44.993000
851.000000	44.988300
850.000000	44.744800
849.000000	44.933000
848.000000	45.039600
847.000000	44.887300
846.000000	45.134500
845.000000	45.229600
844.000000	45.102800
843.000000	45.094400
842.000000	44.788400
841.000000	44.716900
840.000000	44.877700
839.000000	44.861900
838.000000	44.840200
837.000000	44.779000
836.000000	44.821000
835.000000	44.636200
834.000000	44.683300
833.000000	44.672800
832.000000	44.632500
831.000000	44.643400
830.000000	44.654900
829.000000	44.479200
828.000000	44.532300
827.000000	44.348600
826.000000	44.528900
825.000000	44.349500
824.000000	44.289600
823.000000	44.207400
822.000000	44.121100
821.000000	43.992100
820.000000	44.068900
819.000000	44.097800
818.000000	43.903800
817.000000	43.776400
816.000000	43.570600
815.000000	43.512500
814.000000	43.591400
813.000000	43.567200
812.000000	43.455900
811.000000	43.253700
810.000000	43.212800
809.000000	43.290200
808.000000	43.068000
807.000000	43.187300
806.000000	43.018400
805.000000	42.874800
804.000000	42.892700
803.000000	42.674900
802.000000	42.851800
801.000000	42.636300
800.000000	42.587500
799.000000	42.586000
798.000000	42.457600
797.000000	42.369500
796.000000	42.299600
795.000000	42.138000
794.000000	42.044600
793.000000	41.976800
792.000000	41.911400
791.000000	41.831600
790.000000	41.785700
789.000000	41.652500
788.000000	41.626300
787.000000	41.466500
786.000000	41.345700
785.000000	41.247300
784.000000	41.180400
783.000000	40.969000
782.000000	40.823400
781.000000	40.879800
780.000000	40.785800
779.000000	40.737900
778.000000	40.559900
777.000000	40.382200
776.000000	40.304700
775.000000	40.294400
774.000000	40.102600
773.000000	39.927200
772.000000	39.905100
771.000000	39.811400
770.000000	39.700400
769.000000	39.573000
768.000000	39.513900
767.000000	39.285800
766.000000	39.267500
765.000000	39.083600
764.000000	39.007900
763.000000	38.962100
762.000000	38.782000
761.000000	38.564100
760.000000	38.460300
759.000000	38.381400
758.000000	38.205600
757.000000	38.140700
756.000000	37.945900
755.000000	37.766700
754.000000	37.686300
753.000000	37.589600
752.000000	37.431000
751.000000	37.308400
750.000000	37.223900
749.000000	36.977500
748.000000	36.869400
747.000000	36.744600
746.000000	36.627800
745.000000	36.441300
744.000000	36.294500
743.000000	36.109400
742.000000	35.915800
741.000000	35.793900
740.000000	35.570600
739.000000	35.421300
738.000000	35.258900
737.000000	35.170000
736.000000	34.956300
735.000000	34.730200
734.000000	34.576800
733.000000	34.423400
732.000000	34.268300
731.000000	34.079500
730.000000	33.925100
729.000000	33.740000
728.000000	33.506100
727.000000	33.336600
726.000000	33.107400
725.000000	32.903100
724.000000	32.725500
723.000000	32.536000
722.000000	32.387000
721.000000	32.191000
720.000000	32.031600
719.000000	31.811900
718.000000	31.631600
717.000000	31.392900
716.000000	31.262600
715.000000	31.055600
714.000000	30.823800
713.000000	30.630900
712.000000	30.453700
711.000000	30.253800
710.000000	30.051400
709.000000	29.873300
708.000000	29.658700
707.000000	29.418000
706.000000	29.255900
705.000000	29.105100
704.000000	28.911500
703.000000	28.725600
702.000000	28.562200
701.000000	28.377000
700.000000	28.197000
699.000000	27.990700
698.000000	27.838900
697.000000	27.677500
696.000000	27.471200
695.000000	27.289600
694.000000	27.157100
693.000000	26.970600
692.000000	26.785100
691.000000	26.639000
690.000000	26.464200
689.000000	26.301300
688.000000	26.133600
687.000000	25.962700
686.000000	25.813200
685.000000	25.675400
684.000000	25.534500
683.000000	25.366500
682.000000	25.202300
681.000000	25.060800
680.000000	24.944700
679.000000	24.798900
678.000000	24.659700
677.000000	24.556300
676.000000	24.444200
675.000000	24.315900
674.000000	24.191300
673.000000	24.044600
672.000000	23.923100
671.000000	23.810800
670.000000	23.680600
669.000000	23.574700
668.000000	23.469000
667.000000	23.360600
666.000000	23.233500
665.000000	23.123600
664.000000	23.036900
663.000000	22.962600
662.000000	22.867800
661.000000	22.750400
660.000000	22.666800
659.000000	22.593100
658.000000	22.509700
657.000000	22.416900
656.000000	22.340100
655.000000	22.261900
654.000000	22.163200
653.000000	22.081300
652.000000	22.025400
651.000000	21.958400
650.000000	21.897800
649.000000	21.855600
648.000000	21.813800
647.000000	21.767200
646.000000	21.719400
645.000000	21.674300
644.000000	21.629900
643.000000	21.580600
642.000000	21.535100
641.000000	21.497200
640.000000	21.455200
639.000000	21.437000
638.000000	21.408300
637.000000	21.369500
636.000000	21.337200
635.000000	21.329100
634.000000	21.326500
633.000000	21.296700
632.000000	21.276600
631.000000	21.251000
630.000000	21.236500
629.000000	21.235800
628.000000	21.215100
627.000000	21.209600
626.000000	21.213900
625.000000	21.229700
624.000000	21.231400
623.000000	21.229500
622.000000	21.236300
621.000000	21.252700
620.000000	21.273700
619.000000	21.305200
618.000000	21.328100
617.000000	21.353800
616.000000	21.391600
615.000000	21.423800
614.000000	21.464100
613.000000	21.532700
612.000000	21.588800
611.000000	21.637900
610.000000	21.709500
609.000000	21.775900
608.000000	21.855000
607.000000	21.936300
606.000000	22.020900
605.000000	22.108900
604.000000	22.211600
603.000000	22.290800
602.000000	22.392600
601.000000	22.507400
600.000000	22.609600
599.000000	22.697300
598.000000	22.800600
597.000000	22.917300
596.000000	22.988700
595.000000	23.089900
594.000000	23.197700
593.000000	23.289700
592.000000	23.370600
591.000000	23.454200
590.000000	23.555500
589.000000	23.636500
588.000000	23.709000
587.000000	23.780700
586.000000	23.847300
585.000000	23.909300
584.000000	23.976100
583.000000	24.053800
582.000000	24.110100
581.000000	24.131800
580.000000	24.151100
579.000000	24.200700
578.000000	24.240500
577.000000	24.257300
576.000000	24.286500
575.000000	24.310900
574.000000	24.321500
573.000000	24.330000
572.000000	24.339800
571.000000	24.339700
570.000000	24.331500
569.000000	24.335700
568.000000	24.318800
567.000000	24.290200
566.000000	24.245200
565.000000	24.217400
564.000000	24.195100
563.000000	24.148500
562.000000	24.096900
561.000000	24.051500
560.000000	23.970100
559.000000	23.957800
558.000000	23.908800
557.000000	23.826800
556.000000	23.758100
555.000000	23.658700
554.000000	23.544500
553.000000	23.420600
552.000000	23.287600
551.000000	23.149000
550.000000	22.976700
549.000000	22.828700
548.000000	22.670800
547.000000	22.505500
546.000000	22.339400
545.000000	22.158600
544.000000	21.956500
543.000000	21.765500
542.000000	21.555800
541.000000	21.335300
540.000000	21.097600
539.000000	20.878200
538.000000	20.649100
537.000000	20.436500
536.000000	20.208200
535.000000	19.958700
534.000000	19.703700
533.000000	19.447000
532.000000	19.207600
531.000000	18.934100
530.000000	18.690500
529.000000	18.421400
528.000000	18.167600
527.000000	17.927600
526.000000	17.676300
525.000000	17.416500
524.000000	17.137600
523.000000	16.872900
522.000000	16.632100
521.000000	16.357000
520.000000	16.106900
519.000000	15.875900
518.000000	15.612400
517.000000	15.373700
516.000000	15.136200
515.000000	14.882600
514.000000	14.658100
513.000000	14.445500
512.000000	14.201000
511.000000	13.987200
510.000000	13.791200
509.000000	13.576300
508.000000	13.398700
507.000000	13.194500
506.000000	13.021600
505.000000	12.847200
504.000000	12.658300
503.000000	12.510300
502.000000	12.343100
501.000000	12.210200
500.000000	12.046600
499.000000	11.911000
498.000000	11.767000
497.000000	11.662500
496.000000	11.540000
495.000000	11.411900
494.000000	11.309400
493.000000	11.196600
492.000000	11.083900
491.000000	10.982500
490.000000	10.895900
489.000000	10.798400
488.000000	10.692800
487.000000	10.627200
486.000000	10.531500
485.000000	10.441800
484.000000	10.363300
483.000000	10.289000
482.000000	10.184300
481.000000	10.070800
480.000000	9.987700
479.000000	9.887500
478.000000	9.788300
477.000000	9.693500
476.000000	9.606500
475.000000	9.519700
474.000000	9.435700
473.000000	9.346500
472.000000	9.247900
471.000000	9.182900
470.000000	9.083800
469.000000	8.999700
468.000000	8.932800
467.000000	8.840600
466.000000	8.765300
465.000000	8.706600
464.000000	8.631200
463.000000	8.547400
462.000000	8.473600
461.000000	8.389000
460.000000	8.315400
459.000000	8.231600
458.000000	8.182300
457.000000	8.094400
456.000000	8.026900
455.000000	7.956600
454.000000	7.873000
453.000000	7.821800
452.000000	7.739200
451.000000	7.646600
450.000000	7.576300
449.000000	7.487800
448.000000	7.421100
447.000000	7.348200
446.000000	7.275300
445.000000	7.196900
444.000000	7.127700
443.000000	7.048600
442.000000	6.958900
441.000000	6.879600
440.000000	6.808400
439.000000	6.720300
438.000000	6.638900
437.000000	6.558800
436.000000	6.489800
435.000000	6.423200
434.000000	6.339100
433.000000	6.263700
432.000000	6.189000
431.000000	6.140600
430.000000	6.045700
429.000000	5.967800
428.000000	5.898900
427.000000	5.833000
426.000000	5.771000
425.000000	5.705100
424.000000	5.633400
423.000000	5.566700
422.000000	5.502900
421.000000	5.461700
420.000000	5.389600
419.000000	5.331100
418.000000	5.267100
417.000000	5.197700
416.000000	5.138400
415.000000	5.089900
414.000000	5.031800
413.000000	4.996200
412.000000	4.927500
411.000000	4.877400
410.000000	4.819900
409.000000	4.761800
408.000000	4.720200
407.000000	4.689800
406.000000	4.638600
405.000000	4.590700
404.000000	4.541300
403.000000	4.487500
402.000000	4.453000
401.000000	4.412300
400.000000	4.377300
399.000000	4.337000
398.000000	4.327600
397.000000	4.279600
396.000000	4.233500
395.000000	4.204200
394.000000	4.190600
393.000000	4.141500
392.000000	4.113000
391.000000	4.093600
390.000000	4.059800
389.000000	4.021800
388.000000	3.998200
387.000000	3.964100
386.000000	3.938800
385.000000	3.929600
384.000000	3.908600
383.000000	3.884700
382.000000	3.873300
381.000000	3.861000
380.000000	3.831500
379.000000	3.810700
378.000000	3.835100
377.000000	3.822700
376.000000	3.803700
375.000000	3.688700
374.000000	3.349500
373.000000	3.206000
372.000000	3.342400
371.000000	3.422100
370.000000	3.483500
369.000000	3.428200
368.000000	3.515700
367.000000	3.591800
366.000000	3.522300
365.000000	3.464100
364.000000	3.526600
363.000000	3.479300
362.000000	3.540200
361.000000	3.704900
360.000000	3.761000
359.000000	3.727000
358.000000	3.707700
357.000000	3.699500
356.000000	3.711100
355.000000	3.605400
354.000000	3.649000
353.000000	3.701500
352.000000	3.788000
351.000000	3.893300
350.000000	3.887900
349.000000	3.911900
348.000000	3.932700
347.000000	3.821200
346.000000	3.728700
345.000000	3.804700
344.000000	3.810000
343.000000	3.840000
342.000000	3.878400
341.000000	3.935800
340.000000	4.181400
339.000000	4.211500
338.000000	3.974100
337.000000	3.884000
336.000000	3.790100
335.000000	3.861200
334.000000	4.007400
333.000000	3.957000
332.000000	3.989300
331.000000	3.975200
330.000000	4.047400
329.000000	4.305000
328.000000	4.531500
327.000000	4.494200
326.000000	4.307200
325.000000	4.255700
324.000000	4.341900
323.000000	4.442100
322.000000	4.527400
321.000000	4.427900
320.000000	4.639600
319.000000	4.641500
318.000000	4.815800
317.000000	5.108100
316.000000	4.276200
315.000000	3.667900
314.000000	3.683800
313.000000	3.684000
312.000000	3.688900
311.000000	3.702400
310.000000	3.705400
309.000000	3.716500
308.000000	3.699500
307.000000	3.677200
306.000000	3.702400
305.000000	3.704600
304.000000	3.694900
303.000000	3.722900
302.000000	3.731200
301.000000	3.736900
300.000000	3.755600
299.000000	3.750600
298.000000	3.739100
297.000000	3.761200
296.000000	3.811300
295.000000	3.796100
294.000000	3.763500
293.000000	3.763300
292.000000	3.786800
291.000000	3.836000
290.000000	3.862200
289.000000	3.860000
288.000000	3.869200
287.000000	3.848500
286.000000	3.825900
285.000000	3.846700
284.000000	3.855800
283.000000	3.857000
282.000000	3.853200
281.000000	3.884600
280.000000	3.891900
279.000000	3.879000
278.000000	3.879200
277.000000	3.874500
276.000000	3.910600
275.000000	3.932800
274.000000	3.913000
273.000000	3.930800
272.000000	3.935700
271.000000	3.930300
270.000000	3.944300
269.000000	3.935100
268.000000	3.953600
267.000000	3.995200
266.000000	4.010200
265.000000	4.015700
264.000000	4.044600
263.000000	4.015000
262.000000	4.016100
261.000000	4.038700
260.000000	4.080900
259.000000	4.061600
258.000000	4.042300
257.000000	4.077700
256.000000	4.088200
255.000000	4.085400
254.000000	4.157600
253.000000	4.137800
252.000000	4.124100
251.000000	4.093400
250.000000	4.134600
