PE UV       SUBTECH     SPECTRUM    ASCII       PEDS        4.00        
   -1
CICIMAUCR0250-2.ASC
24/05/30
11:32:27.00
24/05/30
11:32:27.00
Vinicio Soto Monge
C. resplendens, M Ventral
250,000000
1
Lambda 1050
1050L1511233
PerkinElmer UV WinLab 6.3.2.0749 / 2.02.05 Lambda 900 UV/VIS/NIR, Aug  7 2015 09:38:08

0
0
3350/servo 860,8/2
0
0
UV/VIS
1
1
1
DoubleDePol,CommonBeamDepol,RBeamAtt,SBeamAtt,60mm sphere, WB InGaAs Detector
0
0
0
0
Program
Program
3350/servo 860,8/2
3350/0,2 860,8/0,2
3350/0,2 860,8/0,2
0
15.00
 
 
 
0
 
860,8
319,2
860,8
Front
100
on
S:100 R:100
0
0
0
0
 
0
 
 
 
0
 
 
0
0
0
0
0
 
 
 
 
0
0


0
0
#HDR
-1
-1
#GR
nm
%R
1.0
0.0
2500,000000
-1,000000
2251
8
57,718300
4,029700
#DATA
2500.000000	5.525104
2499.000000	5.266916
2498.000000	5.394920
2497.000000	5.372241
2496.000000	5.330918
2495.000000	5.345964
2494.000000	5.413019
2493.000000	5.322740
2492.000000	5.291121
2491.000000	5.293738
2490.000000	5.304314
2489.000000	5.271059
2488.000000	5.225702
2487.000000	5.332553
2486.000000	5.302024
2485.000000	5.247944
2484.000000	5.285996
2483.000000	5.183833
2482.000000	5.196481
2481.000000	5.259283
2480.000000	5.269969
2479.000000	5.259065
2478.000000	5.204440
2477.000000	5.191683
2476.000000	5.205422
2475.000000	5.119504
2474.000000	5.096607
2473.000000	5.149379
2472.000000	5.168460
2471.000000	5.161918
2470.000000	5.138803
2469.000000	5.157665
2468.000000	5.187649
2467.000000	5.185469
2466.000000	5.162245
2465.000000	5.189721
2464.000000	5.174456
2463.000000	5.190811
2462.000000	5.212291
2461.000000	5.204440
2460.000000	5.193101
2459.000000	5.195936
2458.000000	5.252633
2457.000000	5.254050
2456.000000	5.262445
2455.000000	5.268987
2454.000000	5.259502
2453.000000	5.301479
2452.000000	5.282507
2451.000000	5.308457
2450.000000	5.340295
2449.000000	5.355559
2448.000000	5.362210
2447.000000	5.399826
2446.000000	5.431991
2445.000000	5.445511
2444.000000	5.456305
2443.000000	5.462193
2442.000000	5.491413
2441.000000	5.531210
2440.000000	5.519653
2439.000000	5.541350
2438.000000	5.572642
2437.000000	5.578203
2436.000000	5.607097
2435.000000	5.608296
2434.000000	5.634137
2433.000000	5.655289
2432.000000	5.670444
2431.000000	5.676877
2430.000000	5.697266
2429.000000	5.718092
2428.000000	5.726705
2427.000000	5.741424
2426.000000	5.763122
2425.000000	5.752764
2424.000000	5.788635
2423.000000	5.793324
2422.000000	5.812077
2421.000000	5.818074
2420.000000	5.811532
2419.000000	5.826797
2418.000000	5.837700
2417.000000	5.857435
2416.000000	5.878151
2415.000000	5.884257
2414.000000	5.904537
2413.000000	5.906936
2412.000000	5.905954
2411.000000	5.920674
2410.000000	5.928742
2409.000000	5.949240
2408.000000	5.945424
2407.000000	5.951530
2406.000000	5.953819
2405.000000	5.966249
2404.000000	5.968430
2403.000000	5.988056
2402.000000	5.996233
2401.000000	5.991327
2400.000000	6.000158
2399.000000	6.020438
2398.000000	6.052494
2397.000000	6.058490
2396.000000	6.062852
2395.000000	6.069939
2394.000000	6.080733
2393.000000	6.086076
2392.000000	6.100359
2391.000000	6.109081
2390.000000	6.113116
2389.000000	6.118894
2388.000000	6.129798
2387.000000	6.143209
2386.000000	6.161417
2385.000000	6.153022
2384.000000	6.147679
2383.000000	6.154221
2382.000000	6.155747
2381.000000	6.169158
2380.000000	6.167632
2379.000000	6.148442
2378.000000	6.147570
2377.000000	6.149969
2376.000000	6.139065
2375.000000	6.146261
2374.000000	6.142336
2373.000000	6.127944
2372.000000	6.113770
2371.000000	6.109409
2370.000000	6.103630
2369.000000	6.102212
2368.000000	6.107228
2367.000000	6.093817
2366.000000	6.068958
2365.000000	6.039301
2364.000000	6.023273
2363.000000	6.025454
2362.000000	6.025127
2361.000000	5.974754
2360.000000	5.943679
2359.000000	5.943570
2358.000000	5.920892
2357.000000	5.891998
2356.000000	5.896141
2355.000000	5.896796
2354.000000	5.882076
2353.000000	5.874444
2352.000000	5.868011
2351.000000	5.869974
2350.000000	5.887092
2349.000000	5.885238
2348.000000	5.863759
2347.000000	5.870410
2346.000000	5.896577
2345.000000	5.919692
2344.000000	5.937356
2343.000000	5.950985
2342.000000	5.956327
2341.000000	5.958508
2340.000000	5.977698
2339.000000	5.981187
2338.000000	5.990127
2337.000000	5.993834
2336.000000	5.986856
2335.000000	5.997432
2334.000000	5.990672
2333.000000	5.977916
2332.000000	5.974318
2331.000000	5.975408
2330.000000	5.968103
2329.000000	5.954037
2328.000000	5.940845
2327.000000	5.924381
2326.000000	5.900285
2325.000000	5.882512
2324.000000	5.863541
2323.000000	5.840535
2322.000000	5.802701
2321.000000	5.776206
2320.000000	5.777950
2319.000000	5.755053
2318.000000	5.714493
2317.000000	5.685709
2316.000000	5.652345
2315.000000	5.623997
2314.000000	5.604371
2313.000000	5.580166
2312.000000	5.559777
2311.000000	5.521506
2310.000000	5.510603
2309.000000	5.491195
2308.000000	5.480510
2307.000000	5.482037
2306.000000	5.464918
2305.000000	5.470043
2304.000000	5.475058
2303.000000	5.483999
2302.000000	5.490868
2301.000000	5.498064
2300.000000	5.527830
2299.000000	5.558359
2298.000000	5.572315
2297.000000	5.591287
2296.000000	5.602190
2295.000000	5.634682
2294.000000	5.652999
2293.000000	5.678186
2292.000000	5.695086
2291.000000	5.717437
2290.000000	5.716238
2289.000000	5.736736
2288.000000	5.759633
2287.000000	5.758433
2286.000000	5.738699
2285.000000	5.739680
2284.000000	5.736300
2283.000000	5.710350
2282.000000	5.710677
2281.000000	5.696721
2280.000000	5.701628
2279.000000	5.687672
2278.000000	5.672298
2277.000000	5.675569
2276.000000	5.654744
2275.000000	5.638171
2274.000000	5.646675
2273.000000	5.629884
2272.000000	5.633155
2271.000000	5.625523
2270.000000	5.616146
2269.000000	5.629884
2268.000000	5.645585
2267.000000	5.684182
2266.000000	5.690615
2265.000000	5.696067
2264.000000	5.775661
2263.000000	5.782966
2262.000000	5.836719
2261.000000	5.906172
2260.000000	5.975844
2259.000000	6.036357
2258.000000	6.089456
2257.000000	6.161199
2256.000000	6.243409
2255.000000	6.345791
2254.000000	6.441412
2253.000000	6.522968
2252.000000	6.616736
2251.000000	6.677358
2250.000000	6.765456
2249.000000	6.848103
2248.000000	6.932494
2247.000000	6.999112
2246.000000	7.081759
2245.000000	7.139328
2244.000000	7.216087
2243.000000	7.240074
2242.000000	7.322284
2241.000000	7.381489
2240.000000	7.420304
2239.000000	7.465989
2238.000000	7.523449
2237.000000	7.576111
2236.000000	7.584616
2235.000000	7.631936
2234.000000	7.670752
2233.000000	7.694412
2232.000000	7.729193
2231.000000	7.759613
2230.000000	7.783818
2229.000000	7.778803
2228.000000	7.795157
2227.000000	7.803117
2226.000000	7.813148
2225.000000	7.836045
2224.000000	7.858287
2223.000000	7.827322
2222.000000	7.847166
2221.000000	7.835281
2220.000000	7.843459
2219.000000	7.813257
2218.000000	7.798865
2217.000000	7.810858
2216.000000	7.796466
2215.000000	7.770625
2214.000000	7.775968
2213.000000	7.751435
2212.000000	7.755361
2211.000000	7.736934
2210.000000	7.728212
2209.000000	7.730065
2208.000000	7.711094
2207.000000	7.698991
2206.000000	7.709676
2205.000000	7.691032
2204.000000	7.669661
2203.000000	7.699209
2202.000000	7.693430
2201.000000	7.688960
2200.000000	7.653852
2199.000000	7.669225
2198.000000	7.634444
2197.000000	7.628883
2196.000000	7.640659
2195.000000	7.624086
2194.000000	7.642730
2193.000000	7.624413
2192.000000	7.626812
2191.000000	7.599444
2190.000000	7.604460
2189.000000	7.596937
2188.000000	7.598899
2187.000000	7.612201
2186.000000	7.579710
2185.000000	7.571532
2184.000000	7.583962
2183.000000	7.551906
2182.000000	7.556377
2181.000000	7.558339
2180.000000	7.545691
2179.000000	7.551797
2178.000000	7.555504
2177.000000	7.546237
2176.000000	7.521050
2175.000000	7.521704
2174.000000	7.516253
2173.000000	7.513636
2172.000000	7.529010
2171.000000	7.525411
2170.000000	7.521377
2169.000000	7.519524
2168.000000	7.530100
2167.000000	7.554414
2166.000000	7.548308
2165.000000	7.556050
2164.000000	7.556159
2163.000000	7.563900
2162.000000	7.590177
2161.000000	7.589741
2160.000000	7.602061
2159.000000	7.602606
2158.000000	7.612637
2157.000000	7.623213
2156.000000	7.643166
2155.000000	7.648073
2154.000000	7.669443
2153.000000	7.684708
2152.000000	7.703461
2151.000000	7.723196
2150.000000	7.720143
2149.000000	7.744130
2148.000000	7.771061
2147.000000	7.784581
2146.000000	7.796139
2145.000000	7.812603
2144.000000	7.829176
2143.000000	7.850546
2142.000000	7.845966
2141.000000	7.849237
2140.000000	7.872679
2139.000000	7.911604
2138.000000	7.916074
2137.000000	7.911604
2136.000000	7.929812
2135.000000	7.920654
2134.000000	7.931230
2133.000000	7.960559
2132.000000	7.972880
2131.000000	7.957834
2130.000000	7.957507
2129.000000	7.974952
2128.000000	7.981821
2127.000000	7.955435
2126.000000	7.955217
2125.000000	7.975061
2124.000000	7.967319
2123.000000	7.969718
2122.000000	7.966883
2121.000000	7.958161
2120.000000	7.944641
2119.000000	7.943550
2118.000000	7.935482
2117.000000	7.924688
2116.000000	7.890234
2115.000000	7.875078
2114.000000	7.875296
2113.000000	7.872352
2112.000000	7.872025
2111.000000	7.864720
2110.000000	7.847166
2109.000000	7.828848
2108.000000	7.815219
2107.000000	7.812166
2106.000000	7.796684
2105.000000	7.785890
2104.000000	7.769862
2103.000000	7.757432
2102.000000	7.739660
2101.000000	7.726358
2100.000000	7.717854
2099.000000	7.701826
2098.000000	7.684053
2097.000000	7.679256
2096.000000	7.679365
2095.000000	7.675331
2094.000000	7.666935
2093.000000	7.649054
2092.000000	7.631391
2091.000000	7.609912
2090.000000	7.606641
2089.000000	7.622668
2088.000000	7.611656
2087.000000	7.590177
2086.000000	7.584071
2085.000000	7.573931
2084.000000	7.565971
2083.000000	7.560520
2082.000000	7.545582
2081.000000	7.535660
2080.000000	7.522904
2079.000000	7.515926
2078.000000	7.494228
2077.000000	7.472204
2076.000000	7.455086
2075.000000	7.457048
2074.000000	7.454213
2073.000000	7.420958
2072.000000	7.407329
2071.000000	7.383342
2070.000000	7.372112
2069.000000	7.364262
2068.000000	7.348125
2067.000000	7.328281
2066.000000	7.306584
2065.000000	7.296225
2064.000000	7.284886
2063.000000	7.278998
2062.000000	7.263952
2061.000000	7.249887
2060.000000	7.238765
2059.000000	7.238438
2058.000000	7.240728
2057.000000	7.221211
2056.000000	7.204093
2055.000000	7.205074
2054.000000	7.215214
2053.000000	7.244980
2052.000000	7.255884
2051.000000	7.278998
2050.000000	7.297425
2049.000000	7.317269
2048.000000	7.342128
2047.000000	7.366551
2046.000000	7.415616
2045.000000	7.434588
2044.000000	7.470023
2043.000000	7.511564
2042.000000	7.554523
2041.000000	7.587015
2040.000000	7.627248
2039.000000	7.660066
2038.000000	7.710439
2037.000000	7.756451
2036.000000	7.786217
2035.000000	7.801590
2034.000000	7.815219
2033.000000	7.869081
2032.000000	7.881293
2031.000000	7.904517
2030.000000	7.940934
2029.000000	7.973425
2028.000000	7.986291
2027.000000	7.991198
2026.000000	8.023580
2025.000000	8.039608
2024.000000	8.055527
2023.000000	8.068283
2022.000000	8.080604
2021.000000	8.095651
2020.000000	8.093688
2019.000000	8.113314
2018.000000	8.120837
2017.000000	8.131086
2016.000000	8.130541
2015.000000	8.130541
2014.000000	8.132612
2013.000000	8.126289
2012.000000	8.117566
2011.000000	8.122254
2010.000000	8.122363
2009.000000	8.109934
2008.000000	8.101429
2007.000000	8.088018
2006.000000	8.082676
2005.000000	8.056944
2004.000000	8.042879
2003.000000	8.028487
2002.000000	7.980403
2001.000000	7.977023
2000.000000	7.953472
1999.000000	7.941261
1998.000000	7.915747
1997.000000	7.894486
1996.000000	7.887617
1995.000000	7.836699
1994.000000	7.822416
1993.000000	7.783055
1992.000000	7.755361
1991.000000	7.731483
1990.000000	7.710112
1989.000000	7.662247
1988.000000	7.620924
1987.000000	7.589631
1986.000000	7.548962
1985.000000	7.523013
1984.000000	7.485833
1983.000000	7.453995
1982.000000	7.413871
1981.000000	7.373420
1980.000000	7.337658
1979.000000	7.303095
1978.000000	7.290120
1977.000000	7.259700
1976.000000	7.224482
1975.000000	7.163097
1974.000000	7.159935
1973.000000	7.134422
1972.000000	7.084921
1971.000000	7.057336
1970.000000	7.020265
1969.000000	6.991480
1968.000000	6.965530
1967.000000	6.936419
1966.000000	6.923880
1965.000000	6.881030
1964.000000	6.856389
1963.000000	6.836109
1962.000000	6.801764
1961.000000	6.770581
1960.000000	6.759677
1959.000000	6.732419
1958.000000	6.688043
1957.000000	6.672452
1956.000000	6.676595
1955.000000	6.634835
1954.000000	6.590350
1953.000000	6.580210
1952.000000	6.548918
1951.000000	6.538015
1950.000000	6.524386
1949.000000	6.481863
1948.000000	6.469433
1947.000000	6.441085
1946.000000	6.448172
1945.000000	6.427565
1944.000000	6.437051
1943.000000	6.386024
1942.000000	6.388640
1941.000000	6.396927
1940.000000	6.378609
1939.000000	6.378936
1938.000000	6.377301
1937.000000	6.365307
1936.000000	6.362364
1935.000000	6.367052
1934.000000	6.371195
1933.000000	6.394310
1932.000000	6.394528
1931.000000	6.411537
1930.000000	6.422113
1929.000000	6.436615
1928.000000	6.462455
1927.000000	6.495056
1926.000000	6.534417
1925.000000	6.549899
1924.000000	6.603434
1923.000000	6.639088
1922.000000	6.672997
1921.000000	6.697965
1920.000000	6.737980
1919.000000	6.808633
1918.000000	6.852028
1917.000000	6.902292
1916.000000	6.944378
1915.000000	7.012959
1914.000000	7.077071
1913.000000	7.172801
1912.000000	7.240837
1911.000000	7.319013
1910.000000	7.383124
1909.000000	7.469696
1908.000000	7.533480
1907.000000	7.627139
1906.000000	7.748601
1905.000000	7.879657
1904.000000	8.004172
1903.000000	8.122909
1902.000000	8.213842
1901.000000	8.343590
1900.000000	8.477373
1899.000000	8.642666
1898.000000	8.789750
1897.000000	8.944249
1896.000000	9.078795
1895.000000	9.216285
1894.000000	9.378634
1893.000000	9.557229
1892.000000	9.744219
1891.000000	9.969698
1890.000000	10.188962
1889.000000	10.406700
1888.000000	10.644717
1887.000000	10.884043
1886.000000	11.149646
1885.000000	11.433675
1884.000000	11.771676
1883.000000	12.132136
1882.000000	12.523344
1881.000000	12.904958
1880.000000	13.301399
1879.000000	13.705691
1878.000000	14.087195
1877.000000	14.495303
1876.000000	14.877352
1875.000000	15.246209
1874.000000	15.598274
1873.000000	15.970402
1872.000000	16.331844
1871.000000	16.639860
1870.000000	16.940462
1869.000000	17.232996
1868.000000	17.498163
1867.000000	17.702925
1866.000000	17.887735
1865.000000	18.058698
1864.000000	18.202948
1863.000000	18.332260
1862.000000	18.463644
1861.000000	18.592956
1860.000000	18.712456
1859.000000	18.816363
1858.000000	18.879384
1857.000000	18.958651
1856.000000	19.001064
1855.000000	19.043042
1854.000000	19.076187
1853.000000	19.094178
1852.000000	19.079240
1851.000000	19.067901
1850.000000	19.067356
1849.000000	19.067465
1848.000000	19.055144
1847.000000	19.020472
1846.000000	18.967918
1845.000000	18.902499
1844.000000	18.882328
1843.000000	18.863465
1842.000000	18.873714
1841.000000	18.864120
1840.000000	18.823451
1839.000000	18.799136
1838.000000	18.758903
1837.000000	18.742112
1836.000000	18.699590
1835.000000	18.638532
1834.000000	18.575402
1833.000000	18.514889
1832.000000	18.461572
1831.000000	18.393318
1830.000000	18.335531
1829.000000	18.281560
1828.000000	18.219302
1827.000000	18.147886
1826.000000	18.061751
1825.000000	17.994369
1824.000000	17.941488
1823.000000	17.908669
1822.000000	17.885991
1821.000000	17.861458
1820.000000	17.847393
1819.000000	17.809886
1818.000000	17.768672
1817.000000	17.747847
1816.000000	17.727785
1815.000000	17.704670
1814.000000	17.701835
1813.000000	17.695838
1812.000000	17.682972
1811.000000	17.665527
1810.000000	17.629765
1809.000000	17.587351
1808.000000	17.541776
1807.000000	17.497617
1806.000000	17.456948
1805.000000	17.415843
1804.000000	17.369177
1803.000000	17.321421
1802.000000	17.277699
1801.000000	17.233214
1800.000000	17.178371
1799.000000	17.128434
1798.000000	17.073918
1797.000000	17.029215
1796.000000	16.983966
1795.000000	16.933375
1794.000000	16.886600
1793.000000	16.839716
1792.000000	16.781711
1791.000000	16.734064
1790.000000	16.686199
1789.000000	16.634299
1788.000000	16.571170
1787.000000	16.510875
1786.000000	16.470206
1785.000000	16.408603
1784.000000	16.336423
1783.000000	16.271004
1782.000000	16.192064
1781.000000	16.126318
1780.000000	16.069730
1779.000000	15.994607
1778.000000	15.919702
1777.000000	15.850357
1776.000000	15.772726
1775.000000	15.686481
1774.000000	15.606452
1773.000000	15.513992
1772.000000	15.403870
1771.000000	15.282844
1770.000000	15.162036
1769.000000	15.074483
1768.000000	14.993581
1767.000000	14.891091
1766.000000	14.815749
1765.000000	14.742479
1764.000000	14.692761
1763.000000	14.667247
1762.000000	14.662232
1761.000000	14.681967
1760.000000	14.710969
1759.000000	14.745532
1758.000000	14.811824
1757.000000	14.877352
1756.000000	14.938847
1755.000000	14.983550
1754.000000	15.008300
1753.000000	15.028253
1752.000000	15.045698
1751.000000	15.038284
1750.000000	15.029234
1749.000000	15.003612
1748.000000	14.971556
1747.000000	14.932850
1746.000000	14.848350
1745.000000	14.762214
1744.000000	14.651110
1743.000000	14.543168
1742.000000	14.404370
1741.000000	14.237224
1740.000000	14.056121
1739.000000	13.887775
1738.000000	13.721719
1737.000000	13.552501
1736.000000	13.416646
1735.000000	13.314047
1734.000000	13.244811
1733.000000	13.205233
1732.000000	13.199345
1731.000000	13.228784
1730.000000	13.268144
1729.000000	13.351881
1728.000000	13.437799
1727.000000	13.534619
1726.000000	13.623372
1725.000000	13.682794
1724.000000	13.741890
1723.000000	13.783322
1722.000000	13.826608
1721.000000	13.862807
1720.000000	13.870984
1719.000000	13.897043
1718.000000	13.911217
1717.000000	13.952649
1716.000000	13.998552
1715.000000	14.037040
1714.000000	14.093301
1713.000000	14.163300
1712.000000	14.213346
1711.000000	14.275167
1710.000000	14.304169
1709.000000	14.295120
1708.000000	14.303188
1707.000000	14.302643
1706.000000	14.271678
1705.000000	14.206804
1704.000000	14.186415
1703.000000	14.142911
1702.000000	14.071931
1701.000000	13.972275
1700.000000	13.877962
1699.000000	13.736438
1698.000000	13.624244
1697.000000	13.510959
1696.000000	13.426677
1695.000000	13.381320
1694.000000	13.370199
1693.000000	13.404653
1692.000000	13.478468
1691.000000	13.603201
1690.000000	13.738619
1689.000000	13.857900
1688.000000	13.948288
1687.000000	14.038349
1686.000000	14.043146
1685.000000	14.065607
1684.000000	14.097335
1683.000000	14.213346
1682.000000	14.377984
1681.000000	14.671063
1680.000000	15.031742
1679.000000	15.451735
1678.000000	15.922645
1677.000000	16.385379
1676.000000	16.815729
1675.000000	17.222202
1674.000000	17.592257
1673.000000	17.886427
1672.000000	18.171764
1671.000000	18.385686
1670.000000	18.611165
1669.000000	18.786598
1668.000000	18.942732
1667.000000	19.107044
1666.000000	19.222618
1665.000000	19.319766
1664.000000	19.409608
1663.000000	19.492691
1662.000000	19.561381
1661.000000	19.637704
1660.000000	19.666489
1659.000000	19.721877
1658.000000	19.755241
1657.000000	19.779010
1656.000000	19.802016
1655.000000	19.817062
1654.000000	19.809430
1653.000000	19.786751
1652.000000	19.798200
1651.000000	19.792639
1650.000000	19.761238
1649.000000	19.723185
1648.000000	19.667470
1647.000000	19.626256
1646.000000	19.590602
1645.000000	19.549606
1644.000000	19.477645
1643.000000	19.421711
1642.000000	19.384749
1641.000000	19.316386
1640.000000	19.265795
1639.000000	19.207353
1638.000000	19.144333
1637.000000	19.072371
1636.000000	18.999647
1635.000000	18.926704
1634.000000	18.887016
1633.000000	18.817345
1632.000000	18.742876
1631.000000	18.659793
1630.000000	18.568969
1629.000000	18.489812
1628.000000	18.437476
1627.000000	18.349378
1626.000000	18.283522
1625.000000	18.199022
1624.000000	18.104382
1623.000000	18.040271
1622.000000	17.964712
1621.000000	17.874324
1620.000000	17.814029
1619.000000	17.728766
1618.000000	17.659203
1617.000000	17.583971
1616.000000	17.539595
1615.000000	17.447026
1614.000000	17.375610
1613.000000	17.318259
1612.000000	17.262217
1611.000000	17.192545
1610.000000	17.146969
1609.000000	17.056582
1608.000000	16.984729
1607.000000	16.929886
1606.000000	16.865993
1605.000000	16.805807
1604.000000	16.744640
1603.000000	16.666682
1602.000000	16.600826
1601.000000	16.553834
1600.000000	16.484707
1599.000000	16.423540
1598.000000	16.358339
1597.000000	16.293355
1596.000000	16.235023
1595.000000	16.170476
1594.000000	16.124900
1593.000000	16.088156
1592.000000	16.035603
1591.000000	15.985884
1590.000000	15.940091
1589.000000	15.892662
1588.000000	15.848067
1587.000000	15.797367
1586.000000	15.758661
1585.000000	15.720718
1584.000000	15.690407
1583.000000	15.635563
1582.000000	15.604816
1581.000000	15.571343
1580.000000	15.557169
1579.000000	15.537216
1578.000000	15.523042
1577.000000	15.488152
1576.000000	15.468962
1575.000000	15.454352
1574.000000	15.429819
1573.000000	15.428620
1572.000000	15.417826
1571.000000	15.409539
1570.000000	15.416953
1569.000000	15.430910
1568.000000	15.431782
1567.000000	15.428729
1566.000000	15.437452
1565.000000	15.454352
1564.000000	15.453043
1563.000000	15.455878
1562.000000	15.464055
1561.000000	15.478666
1560.000000	15.481719
1559.000000	15.479102
1558.000000	15.485426
1557.000000	15.482918
1556.000000	15.458931
1555.000000	15.452389
1554.000000	15.433962
1553.000000	15.426439
1552.000000	15.414119
1551.000000	15.390132
1550.000000	15.365490
1549.000000	15.348481
1548.000000	15.341721
1547.000000	15.310647
1546.000000	15.286115
1545.000000	15.264635
1544.000000	15.242284
1543.000000	15.238468
1542.000000	15.234651
1541.000000	15.211428
1540.000000	15.203686
1539.000000	15.177737
1538.000000	15.167160
1537.000000	15.170649
1536.000000	15.146008
1535.000000	15.119186
1534.000000	15.097053
1533.000000	15.086367
1532.000000	15.064888
1531.000000	15.032614
1530.000000	14.991618
1529.000000	14.966759
1528.000000	14.946588
1527.000000	14.920093
1526.000000	14.890218
1525.000000	14.857836
1524.000000	14.812369
1523.000000	14.770174
1522.000000	14.749458
1521.000000	14.732230
1520.000000	14.690144
1519.000000	14.643696
1518.000000	14.610114
1517.000000	14.574788
1516.000000	14.538480
1515.000000	14.496066
1514.000000	14.457578
1513.000000	14.409386
1512.000000	14.353561
1511.000000	14.318671
1510.000000	14.283017
1509.000000	14.237987
1508.000000	14.199935
1507.000000	14.148471
1506.000000	14.102896
1505.000000	14.058411
1504.000000	14.006729
1503.000000	13.974565
1502.000000	13.939674
1501.000000	13.900641
1500.000000	13.865314
1499.000000	13.826608
1498.000000	13.801094
1497.000000	13.772092
1496.000000	13.733276
1495.000000	13.709071
1494.000000	13.678542
1493.000000	13.651720
1492.000000	13.634711
1491.000000	13.600475
1490.000000	13.582048
1489.000000	13.570382
1488.000000	13.547158
1487.000000	13.529604
1486.000000	13.506925
1485.000000	13.485882
1484.000000	13.482502
1483.000000	13.474433
1482.000000	13.454153
1481.000000	13.444013
1480.000000	13.428204
1479.000000	13.423406
1478.000000	13.426241
1477.000000	13.411849
1476.000000	13.409123
1475.000000	13.410213
1474.000000	13.397784
1473.000000	13.404544
1472.000000	13.426459
1471.000000	13.440524
1470.000000	13.449792
1469.000000	13.453390
1468.000000	13.452191
1467.000000	13.467782
1466.000000	13.481739
1465.000000	13.499620
1464.000000	13.495041
1463.000000	13.512922
1462.000000	13.540616
1461.000000	13.570055
1460.000000	13.611051
1459.000000	13.651720
1458.000000	13.682249
1457.000000	13.721174
1456.000000	13.756609
1455.000000	13.820502
1454.000000	13.860953
1453.000000	13.912089
1452.000000	13.981216
1451.000000	14.048271
1450.000000	14.128191
1449.000000	14.201025
1448.000000	14.249217
1447.000000	14.316708
1446.000000	14.416364
1445.000000	14.487235
1444.000000	14.582529
1443.000000	14.644786
1442.000000	14.723508
1441.000000	14.822509
1440.000000	14.924891
1439.000000	15.021384
1438.000000	15.107084
1437.000000	15.188531
1436.000000	15.274448
1435.000000	15.376393
1434.000000	15.460566
1433.000000	15.575050
1432.000000	15.704363
1431.000000	15.804454
1430.000000	15.915340
1429.000000	16.056537
1428.000000	16.196317
1427.000000	16.341548
1426.000000	16.495283
1425.000000	16.661667
1424.000000	16.846149
1423.000000	17.042189
1422.000000	17.227762
1421.000000	17.422603
1420.000000	17.624749
1419.000000	17.844885
1418.000000	18.061642
1417.000000	18.261171
1416.000000	18.475528
1415.000000	18.735898
1414.000000	18.989507
1413.000000	19.282368
1412.000000	19.518423
1411.000000	19.770178
1410.000000	20.076014
1409.000000	20.440727
1408.000000	20.786905
1407.000000	21.177241
1406.000000	21.539882
1405.000000	21.965980
1404.000000	22.370708
1403.000000	22.792227
1402.000000	23.181364
1401.000000	23.600157
1400.000000	24.085569
1399.000000	24.542196
1398.000000	24.827643
1397.000000	25.123448
1396.000000	25.483472
1395.000000	25.881658
1394.000000	26.195672
1393.000000	26.461929
1392.000000	26.781938
1391.000000	27.110126
1390.000000	27.454450
1389.000000	27.764865
1388.000000	28.207318
1387.000000	28.706468
1386.000000	29.209216
1385.000000	29.720905
1384.000000	30.305209
1383.000000	30.965618
1382.000000	31.589174
1381.000000	32.169335
1380.000000	32.603611
1379.000000	32.896362
1378.000000	33.173850
1377.000000	33.389298
1376.000000	33.614886
1375.000000	33.851704
1374.000000	34.100952
1373.000000	34.453889
1372.000000	34.850331
1371.000000	35.292348
1370.000000	35.758679
1369.000000	36.156320
1368.000000	36.535426
1367.000000	36.884656
1366.000000	37.191146
1365.000000	37.455985
1364.000000	37.711230
1363.000000	37.958188
1362.000000	38.183231
1361.000000	38.407402
1360.000000	38.569206
1359.000000	38.625030
1358.000000	38.753252
1357.000000	38.909386
1356.000000	39.097576
1355.000000	39.460000
1354.000000	39.935926
1353.000000	40.418721
1352.000000	40.981982
1351.000000	41.668122
1350.000000	42.281756
1349.000000	42.846653
1348.000000	43.370444
1347.000000	43.872320
1346.000000	44.332873
1345.000000	44.752865
1344.000000	45.203169
1343.000000	45.641370
1342.000000	46.032469
1341.000000	46.424767
1340.000000	46.824479
1339.000000	47.202167
1338.000000	47.585198
1337.000000	47.966048
1336.000000	48.296743
1335.000000	48.664073
1334.000000	49.012867
1333.000000	49.345198
1332.000000	49.677637
1331.000000	49.992959
1330.000000	50.297704
1329.000000	50.611281
1328.000000	50.878738
1327.000000	51.145213
1326.000000	51.422482
1325.000000	51.661917
1324.000000	51.895355
1323.000000	52.123015
1322.000000	52.331266
1321.000000	52.571465
1320.000000	52.771539
1319.000000	52.959511
1318.000000	53.153479
1317.000000	53.316046
1316.000000	53.483738
1315.000000	53.674218
1314.000000	53.837003
1313.000000	53.983215
1312.000000	54.128010
1311.000000	54.254270
1310.000000	54.403971
1309.000000	54.517910
1308.000000	54.635010
1307.000000	54.737719
1306.000000	54.822001
1305.000000	54.906501
1304.000000	54.985549
1303.000000	55.032651
1302.000000	55.100578
1301.000000	55.158584
1300.000000	55.204922
1299.000000	55.224875
1298.000000	55.235670
1297.000000	55.267071
1296.000000	55.299017
1295.000000	55.306541
1294.000000	55.321369
1293.000000	55.336088
1292.000000	55.331182
1291.000000	55.315481
1290.000000	55.288877
1289.000000	55.270778
1288.000000	55.224766
1287.000000	55.197726
1286.000000	55.131435
1285.000000	55.070158
1284.000000	55.012807
1283.000000	54.934631
1282.000000	54.857545
1281.000000	54.788964
1280.000000	54.718856
1279.000000	54.645041
1278.000000	54.560214
1277.000000	54.488907
1276.000000	54.431229
1275.000000	54.369081
1274.000000	54.302789
1273.000000	54.236279
1272.000000	54.198445
1271.000000	54.157340
1270.000000	54.096609
1269.000000	54.049616
1268.000000	54.003713
1267.000000	53.930116
1266.000000	53.872765
1265.000000	53.823483
1264.000000	53.754465
1263.000000	53.689700
1262.000000	53.627443
1261.000000	53.570964
1260.000000	53.507289
1259.000000	53.435110
1258.000000	53.361731
1257.000000	53.271561
1256.000000	53.195675
1255.000000	53.125894
1254.000000	53.048045
1253.000000	52.955367
1252.000000	52.859092
1251.000000	52.744717
1250.000000	52.631868
1249.000000	52.527306
1248.000000	52.420128
1247.000000	52.290597
1246.000000	52.143295
1245.000000	51.990322
1244.000000	51.834515
1243.000000	51.681325
1242.000000	51.516359
1241.000000	51.340490
1240.000000	51.154589
1239.000000	50.967599
1238.000000	50.779191
1237.000000	50.595799
1236.000000	50.417204
1235.000000	50.201974
1234.000000	49.984782
1233.000000	49.775985
1232.000000	49.559992
1231.000000	49.338002
1230.000000	49.104455
1229.000000	48.873851
1228.000000	48.636706
1227.000000	48.387349
1226.000000	48.141590
1225.000000	47.900520
1224.000000	47.661085
1223.000000	47.417724
1222.000000	47.180252
1221.000000	46.935038
1220.000000	46.690152
1219.000000	46.452461
1218.000000	46.220004
1217.000000	46.020911
1216.000000	45.813859
1215.000000	45.613566
1214.000000	45.430174
1213.000000	45.235442
1212.000000	45.055212
1211.000000	44.870293
1210.000000	44.698676
1209.000000	44.557588
1208.000000	44.409958
1207.000000	44.281409
1206.000000	44.169542
1205.000000	44.075120
1204.000000	43.997380
1203.000000	43.939266
1202.000000	43.892600
1201.000000	43.842990
1200.000000	43.774300
1199.000000	43.694815
1198.000000	43.599194
1197.000000	43.461595
1196.000000	43.278966
1195.000000	43.038441
1194.000000	42.724537
1193.000000	42.338998
1192.000000	41.906576
1191.000000	41.383984
1190.000000	40.833262
1189.000000	40.332695
1188.000000	39.893294
1187.000000	39.561509
1186.000000	39.380951
1185.000000	39.338974
1184.000000	39.462617
1183.000000	39.740540
1182.000000	40.133383
1181.000000	40.663935
1180.000000	41.271790
1179.000000	41.917479
1178.000000	42.493061
1177.000000	43.020450
1176.000000	43.494414
1175.000000	43.915824
1174.000000	44.303434
1173.000000	44.693552
1172.000000	45.104058
1171.000000	45.496466
1170.000000	45.909480
1169.000000	46.333616
1168.000000	46.758297
1167.000000	47.182651
1166.000000	47.638733
1165.000000	48.085874
1164.000000	48.545337
1163.000000	49.020173
1162.000000	49.502313
1161.000000	49.976713
1160.000000	50.441409
1159.000000	50.881245
1158.000000	51.333839
1157.000000	51.764952
1156.000000	52.162266
1155.000000	52.504628
1154.000000	52.799996
1153.000000	53.020569
1152.000000	53.180301
1151.000000	53.315937
1150.000000	53.397493
1149.000000	53.471854
1148.000000	53.540544
1147.000000	53.642707
1146.000000	53.773873
1145.000000	54.019523
1144.000000	54.325359
1143.000000	54.681131
1142.000000	55.100797
1141.000000	55.533328
1140.000000	56.001295
1139.000000	56.482890
1138.000000	56.993380
1137.000000	57.520115
1136.000000	58.071928
1135.000000	58.625267
1134.000000	59.212406
1133.000000	59.732708
1132.000000	60.176361
1131.000000	60.634187
1130.000000	61.033682
1129.000000	61.404501
1128.000000	61.706302
1127.000000	61.941376
1126.000000	62.150064
1125.000000	62.307943
1124.000000	62.448921
1123.000000	62.560352
1122.000000	62.674291
1121.000000	62.727935
1120.000000	62.797934
1119.000000	62.847108
1118.000000	62.877418
1117.000000	62.909692
1116.000000	62.931608
1115.000000	62.927900
1114.000000	62.906748
1113.000000	62.928337
1112.000000	62.911219
1111.000000	62.907075
1110.000000	62.885923
1109.000000	62.865534
1108.000000	62.845254
1107.000000	62.839693
1106.000000	62.826282
1105.000000	62.806875
1104.000000	62.794227
1103.000000	62.776782
1102.000000	62.734150
1101.000000	62.727172
1100.000000	62.711580
1099.000000	62.675600
1098.000000	62.642236
1097.000000	62.618249
1096.000000	62.559916
1095.000000	62.530805
1094.000000	62.486320
1093.000000	62.434856
1092.000000	62.384156
1091.000000	62.333129
1090.000000	62.278831
1089.000000	62.225950
1088.000000	62.141450
1087.000000	62.092277
1086.000000	62.014210
1085.000000	61.971796
1084.000000	61.874539
1083.000000	61.782952
1082.000000	61.732797
1081.000000	61.665960
1080.000000	61.594217
1079.000000	61.515823
1078.000000	61.431541
1077.000000	61.370156
1076.000000	61.303537
1075.000000	61.246840
1074.000000	61.143695
1073.000000	61.091687
1072.000000	61.024850
1071.000000	60.936643
1070.000000	60.864027
1069.000000	60.767425
1068.000000	60.692302
1067.000000	60.634732
1066.000000	60.550560
1065.000000	60.458100
1064.000000	60.376217
1063.000000	60.291717
1062.000000	60.225861
1061.000000	60.129368
1060.000000	60.054135
1059.000000	59.966146
1058.000000	59.885353
1057.000000	59.790604
1056.000000	59.689422
1055.000000	59.599580
1054.000000	59.516388
1053.000000	59.424256
1052.000000	59.324382
1051.000000	59.251875
1050.000000	59.172827
1049.000000	59.085819
1048.000000	59.023998
1047.000000	58.936663
1046.000000	58.848129
1045.000000	58.772678
1044.000000	58.703225
1043.000000	58.633553
1042.000000	58.562246
1041.000000	58.479381
1040.000000	58.412981
1039.000000	58.344617
1038.000000	58.289447
1037.000000	58.196333
1036.000000	58.098531
1035.000000	58.042271
1034.000000	57.941198
1033.000000	57.848084
1032.000000	57.760967
1031.000000	57.659894
1030.000000	57.567217
1029.000000	57.474757
1028.000000	57.366815
1027.000000	57.264325
1026.000000	57.171430
1025.000000	57.066322
1024.000000	56.960779
1023.000000	56.836046
1022.000000	56.745222
1021.000000	56.636626
1020.000000	56.544385
1019.000000	56.439932
1018.000000	56.346818
1017.000000	56.251524
1016.000000	56.154812
1015.000000	56.082415
1014.000000	56.009036
1013.000000	55.935766
1012.000000	55.876671
1011.000000	55.837964
1010.000000	55.791734
1009.000000	55.747576
1008.000000	55.720427
1007.000000	55.698512
1006.000000	55.684556
1005.000000	55.648902
1004.000000	55.614884
1003.000000	55.605180
1002.000000	55.591987
1001.000000	55.564620
1000.000000	55.529839
999.000000	55.488079
998.000000	55.473251
997.000000	55.477067
996.000000	55.457986
995.000000	55.425495
994.000000	55.397910
993.000000	55.382100
992.000000	55.362801
991.000000	55.333799
990.000000	55.325621
989.000000	55.323550
988.000000	55.334998
987.000000	55.331618
986.000000	55.320170
985.000000	55.317226
984.000000	55.311120
983.000000	55.315263
982.000000	55.320170
981.000000	55.324313
980.000000	55.319515
979.000000	55.331509
978.000000	55.324313
977.000000	55.327366
976.000000	55.311883
975.000000	55.313628
974.000000	55.336524
973.000000	55.334780
972.000000	55.326384
971.000000	55.337179
970.000000	55.341867
969.000000	55.325185
968.000000	55.322459
967.000000	55.329546
966.000000	55.355496
965.000000	55.390168
964.000000	55.385916
963.000000	55.387988
962.000000	55.417754
961.000000	55.444030
960.000000	55.474886
959.000000	55.486989
958.000000	55.502036
957.000000	55.530602
956.000000	55.554262
955.000000	55.565165
954.000000	55.561567
953.000000	55.581084
952.000000	55.586318
951.000000	55.581629
950.000000	55.582501
949.000000	55.570944
948.000000	55.571598
947.000000	55.572143
946.000000	55.560586
945.000000	55.556443
944.000000	55.564620
943.000000	55.574215
942.000000	55.560041
941.000000	55.538016
940.000000	55.530384
939.000000	55.544231
938.000000	55.513266
937.000000	55.481756
936.000000	55.491677
935.000000	55.478703
934.000000	55.481319
933.000000	55.468454
932.000000	55.439015
931.000000	55.432255
930.000000	55.444357
929.000000	55.416663
928.000000	55.392567
927.000000	55.378720
926.000000	55.355387
925.000000	55.364110
924.000000	55.359203
923.000000	55.334344
922.000000	55.321696
921.000000	55.301852
920.000000	55.278301
919.000000	55.260965
918.000000	55.261619
917.000000	55.234579
916.000000	55.184533
915.000000	55.137431
914.000000	55.076155
913.000000	55.066451
912.000000	55.030798
911.000000	54.973883
910.000000	54.937248
909.000000	54.907918
908.000000	54.887093
907.000000	54.869321
906.000000	54.855910
905.000000	54.852966
904.000000	54.861471
903.000000	54.881969
902.000000	54.918385
901.000000	54.937684
900.000000	54.963852
899.000000	54.972247
898.000000	54.990783
897.000000	55.017605
896.000000	55.057511
895.000000	55.066233
894.000000	55.038103
893.000000	55.050206
892.000000	55.068196
891.000000	55.072666
890.000000	55.031125
889.000000	54.989147
888.000000	54.961780
887.000000	54.918713
886.000000	54.858636
885.000000	54.836175
884.000000	54.795833
883.000000	54.726271
882.000000	54.661396
881.000000	54.581585
880.000000	54.499919
879.000000	54.397211
878.000000	54.262229
877.000000	54.126593
876.000000	54.011782
875.000000	53.863825
874.000000	53.683485
873.000000	53.482866
872.000000	53.372743
871.000000	53.374161
870.000000	53.414394
869.000000	53.449284
868.000000	53.506090
867.000000	53.540871
866.000000	53.569765
865.000000	53.617412
864.000000	53.639436
863.000000	53.674763
862.000000	53.705401
861.000000	53.742690
860.000000	53.760135
859.000000	53.780197
858.000000	53.802767
857.000000	53.141900
856.000000	54.020400
855.000000	54.246000
854.000000	54.585500
853.000000	53.862100
852.000000	54.100700
851.000000	53.821500
850.000000	54.486400
849.000000	54.305800
848.000000	54.276700
847.000000	54.166800
846.000000	54.456200
845.000000	54.540100
844.000000	54.350300
843.000000	54.326600
842.000000	54.206800
841.000000	54.471400
840.000000	54.304900
839.000000	54.430000
838.000000	54.216500
837.000000	54.270000
836.000000	54.019400
835.000000	54.037000
834.000000	54.144000
833.000000	54.016900
832.000000	54.039000
831.000000	54.064400
830.000000	53.985000
829.000000	53.970600
828.000000	53.875800
827.000000	53.903700
826.000000	53.908200
825.000000	53.668100
824.000000	53.735700
823.000000	53.686000
822.000000	53.530300
821.000000	53.621900
820.000000	53.544500
819.000000	53.316200
818.000000	53.207900
817.000000	53.228400
816.000000	53.220300
815.000000	52.961800
814.000000	52.755200
813.000000	52.792700
812.000000	52.839400
811.000000	52.758500
810.000000	52.523100
809.000000	52.722000
808.000000	52.512500
807.000000	52.381600
806.000000	52.161100
805.000000	52.057800
804.000000	51.970500
803.000000	52.017000
802.000000	51.995500
801.000000	51.780300
800.000000	51.727200
799.000000	51.601700
798.000000	51.232200
797.000000	51.372700
796.000000	51.204900
795.000000	51.107600
794.000000	50.892200
793.000000	50.961300
792.000000	50.682100
791.000000	50.632400
790.000000	50.413300
789.000000	50.252700
788.000000	50.277100
787.000000	50.064700
786.000000	50.014100
785.000000	49.760400
784.000000	49.801800
783.000000	49.704300
782.000000	49.515400
781.000000	49.305100
780.000000	49.177300
779.000000	48.965300
778.000000	48.818700
777.000000	48.710500
776.000000	48.496300
775.000000	48.414100
774.000000	48.286200
773.000000	48.127500
772.000000	47.798800
771.000000	47.773400
770.000000	47.515000
769.000000	47.455900
768.000000	47.250100
767.000000	47.110000
766.000000	47.008700
765.000000	46.875500
764.000000	46.731500
763.000000	46.498800
762.000000	46.351000
761.000000	46.191900
760.000000	45.963800
759.000000	45.843200
758.000000	45.627500
757.000000	45.402200
756.000000	45.206300
755.000000	45.023400
754.000000	44.820700
753.000000	44.711000
752.000000	44.540000
751.000000	44.283600
750.000000	44.145600
749.000000	43.908900
748.000000	43.704900
747.000000	43.546100
746.000000	43.337100
745.000000	43.138700
744.000000	42.967600
743.000000	42.732200
742.000000	42.460900
741.000000	42.292400
740.000000	42.068400
739.000000	41.811400
738.000000	41.613900
737.000000	41.387900
736.000000	41.205800
735.000000	40.989800
734.000000	40.740400
733.000000	40.525400
732.000000	40.314100
731.000000	40.168900
730.000000	39.873000
729.000000	39.778000
728.000000	39.582400
727.000000	39.297100
726.000000	39.117200
725.000000	38.965400
724.000000	38.701800
723.000000	38.420400
722.000000	38.247300
721.000000	37.973600
720.000000	37.805700
719.000000	37.583000
718.000000	37.346800
717.000000	37.155800
716.000000	36.951700
715.000000	36.717900
714.000000	36.539900
713.000000	36.326800
712.000000	36.084800
711.000000	35.887200
710.000000	35.669300
709.000000	35.423300
708.000000	35.239100
707.000000	35.061800
706.000000	34.855800
705.000000	34.673100
704.000000	34.473100
703.000000	34.287300
702.000000	34.139100
701.000000	33.923500
700.000000	33.739400
699.000000	33.539100
698.000000	33.373300
697.000000	33.218600
696.000000	33.014100
695.000000	32.862400
694.000000	32.704500
693.000000	32.514300
692.000000	32.336300
691.000000	32.143500
690.000000	32.007200
689.000000	31.849700
688.000000	31.699400
687.000000	31.501800
686.000000	31.365200
685.000000	31.242100
684.000000	31.109000
683.000000	30.970900
682.000000	30.822700
681.000000	30.673100
680.000000	30.539600
679.000000	30.407400
678.000000	30.283200
677.000000	30.131400
676.000000	30.018300
675.000000	29.882800
674.000000	29.752700
673.000000	29.664300
672.000000	29.553900
671.000000	29.421100
670.000000	29.329100
669.000000	29.223800
668.000000	29.095500
667.000000	28.996100
666.000000	28.933900
665.000000	28.851800
664.000000	28.752700
663.000000	28.677900
662.000000	28.573500
661.000000	28.509100
660.000000	28.442700
659.000000	28.364400
658.000000	28.298100
657.000000	28.224400
656.000000	28.180700
655.000000	28.157600
654.000000	28.092500
653.000000	28.021300
652.000000	28.000000
651.000000	27.982000
650.000000	27.953600
649.000000	27.921600
648.000000	27.909600
647.000000	27.880500
646.000000	27.863100
645.000000	27.856400
644.000000	27.828300
643.000000	27.824100
642.000000	27.805800
641.000000	27.767700
640.000000	27.782200
639.000000	27.787700
638.000000	27.798100
637.000000	27.801500
636.000000	27.815400
635.000000	27.844700
634.000000	27.854400
633.000000	27.875100
632.000000	27.891500
631.000000	27.906200
630.000000	27.924800
629.000000	27.954200
628.000000	28.002700
627.000000	28.034600
626.000000	28.084200
625.000000	28.127200
624.000000	28.150100
623.000000	28.204600
622.000000	28.259200
621.000000	28.313100
620.000000	28.367700
619.000000	28.402000
618.000000	28.471700
617.000000	28.544900
616.000000	28.598600
615.000000	28.646800
614.000000	28.727400
613.000000	28.791000
612.000000	28.821600
611.000000	28.882000
610.000000	28.950900
609.000000	29.002500
608.000000	29.066700
607.000000	29.127500
606.000000	29.184800
605.000000	29.240300
604.000000	29.271800
603.000000	29.316000
602.000000	29.354200
601.000000	29.381900
600.000000	29.412900
599.000000	29.470200
598.000000	29.493800
597.000000	29.497200
596.000000	29.531700
595.000000	29.543000
594.000000	29.555500
593.000000	29.560900
592.000000	29.550500
591.000000	29.552900
590.000000	29.544400
589.000000	29.544800
588.000000	29.494100
587.000000	29.465300
586.000000	29.432200
585.000000	29.379000
584.000000	29.345200
583.000000	29.307400
582.000000	29.248800
581.000000	29.166900
580.000000	29.067100
579.000000	28.996800
578.000000	28.944100
577.000000	28.847100
576.000000	28.740800
575.000000	28.623600
574.000000	28.527500
573.000000	28.419300
572.000000	28.283900
571.000000	28.144400
570.000000	28.018600
569.000000	27.869100
568.000000	27.708700
567.000000	27.562200
566.000000	27.411300
565.000000	27.260400
564.000000	27.078400
563.000000	26.905800
562.000000	26.704700
561.000000	26.495500
560.000000	26.305900
559.000000	26.077900
558.000000	25.868300
557.000000	25.659200
556.000000	25.444800
555.000000	25.223400
554.000000	25.001400
553.000000	24.744700
552.000000	24.522700
551.000000	24.276800
550.000000	24.008100
549.000000	23.768200
548.000000	23.504800
547.000000	23.246300
546.000000	22.967700
545.000000	22.690500
544.000000	22.404400
543.000000	22.136800
542.000000	21.851900
541.000000	21.563600
540.000000	21.286300
539.000000	20.999100
538.000000	20.718000
537.000000	20.432800
536.000000	20.148200
535.000000	19.862400
534.000000	19.571200
533.000000	19.281400
532.000000	18.996400
531.000000	18.706200
530.000000	18.432400
529.000000	18.163800
528.000000	17.905500
527.000000	17.638000
526.000000	17.379700
525.000000	17.124800
524.000000	16.863100
523.000000	16.599800
522.000000	16.390400
521.000000	16.151700
520.000000	15.920300
519.000000	15.712000
518.000000	15.500700
517.000000	15.305600
516.000000	15.106400
515.000000	14.926900
514.000000	14.740300
513.000000	14.569300
512.000000	14.415400
511.000000	14.267500
510.000000	14.124800
509.000000	13.974300
508.000000	13.837800
507.000000	13.716800
506.000000	13.582400
505.000000	13.487000
504.000000	13.388800
503.000000	13.297800
502.000000	13.191100
501.000000	13.105600
500.000000	13.021700
499.000000	12.920300
498.000000	12.859000
497.000000	12.788300
496.000000	12.728500
495.000000	12.673900
494.000000	12.596200
493.000000	12.531300
492.000000	12.471300
491.000000	12.419000
490.000000	12.375800
489.000000	12.331000
488.000000	12.305800
487.000000	12.241500
486.000000	12.196700
485.000000	12.157200
484.000000	12.099400
483.000000	12.058600
482.000000	12.002200
481.000000	11.935900
480.000000	11.894300
479.000000	11.821300
478.000000	11.734800
477.000000	11.657600
476.000000	11.587800
475.000000	11.516100
474.000000	11.444300
473.000000	11.353500
472.000000	11.278500
471.000000	11.190300
470.000000	11.136400
469.000000	11.064600
468.000000	11.002700
467.000000	10.924800
466.000000	10.854300
465.000000	10.778200
464.000000	10.708500
463.000000	10.626300
462.000000	10.551500
461.000000	10.484900
460.000000	10.408100
459.000000	10.329400
458.000000	10.234900
457.000000	10.180600
456.000000	10.101500
455.000000	10.026400
454.000000	9.936200
453.000000	9.857600
452.000000	9.751500
451.000000	9.680900
450.000000	9.599600
449.000000	9.538100
448.000000	9.406500
447.000000	9.331600
446.000000	9.245900
445.000000	9.161600
444.000000	9.052700
443.000000	8.967400
442.000000	8.879300
441.000000	8.764300
440.000000	8.666600
439.000000	8.578100
438.000000	8.477500
437.000000	8.393500
436.000000	8.295300
435.000000	8.197000
434.000000	8.097300
433.000000	7.996900
432.000000	7.913100
431.000000	7.801200
430.000000	7.694100
429.000000	7.597400
428.000000	7.514700
427.000000	7.428500
426.000000	7.350700
425.000000	7.257900
424.000000	7.159600
423.000000	7.076000
422.000000	6.988600
421.000000	6.889200
420.000000	6.808900
419.000000	6.706700
418.000000	6.637200
417.000000	6.548400
416.000000	6.486800
415.000000	6.403200
414.000000	6.317000
413.000000	6.235500
412.000000	6.164200
411.000000	6.098900
410.000000	6.033100
409.000000	5.966400
408.000000	5.891200
407.000000	5.819400
406.000000	5.754400
405.000000	5.687200
404.000000	5.633300
403.000000	5.578200
402.000000	5.512100
401.000000	5.459800
400.000000	5.399100
399.000000	5.342200
398.000000	5.287300
397.000000	5.239800
396.000000	5.184800
395.000000	5.141300
394.000000	5.101200
393.000000	5.059100
392.000000	4.991400
391.000000	4.961900
390.000000	4.941300
389.000000	4.902600
388.000000	4.870300
387.000000	4.812500
386.000000	4.777500
385.000000	4.755300
384.000000	4.723800
383.000000	4.688700
382.000000	4.649200
381.000000	4.633400
380.000000	4.611600
379.000000	4.603400
378.000000	4.577300
377.000000	4.578600
376.000000	4.521400
375.000000	4.320500
374.000000	4.079400
373.000000	4.129600
372.000000	4.196400
371.000000	4.150900
370.000000	4.170400
369.000000	4.129700
368.000000	4.122900
367.000000	4.183400
366.000000	4.206600
365.000000	4.203400
364.000000	4.227600
363.000000	4.296300
362.000000	4.336800
361.000000	4.248400
360.000000	4.327200
359.000000	4.374700
358.000000	4.256000
357.000000	4.195100
356.000000	4.208300
355.000000	4.215700
354.000000	4.248700
353.000000	4.309500
352.000000	4.336600
351.000000	4.295200
350.000000	4.271500
349.000000	4.197400
348.000000	4.044500
347.000000	4.172200
346.000000	4.357900
345.000000	4.321400
344.000000	4.277100
343.000000	4.343100
342.000000	4.289400
341.000000	4.341700
340.000000	4.410800
339.000000	4.528800
338.000000	4.384700
337.000000	4.282300
336.000000	4.313200
335.000000	4.300400
334.000000	4.349000
333.000000	4.422200
332.000000	4.351900
331.000000	4.135600
330.000000	4.594700
329.000000	4.869700
328.000000	4.619800
327.000000	4.525400
326.000000	4.550600
325.000000	4.743700
324.000000	4.771300
323.000000	4.687200
322.000000	4.996600
321.000000	5.055000
320.000000	4.652200
319.000000	4.431100
318.000000	4.763600
317.000000	5.031300
316.000000	4.463900
315.000000	4.029700
314.000000	4.084800
313.000000	4.125600
312.000000	4.093200
311.000000	4.068100
310.000000	4.095500
309.000000	4.099600
308.000000	4.077400
307.000000	4.071900
306.000000	4.100000
305.000000	4.103800
304.000000	4.125800
303.000000	4.128700
302.000000	4.096800
301.000000	4.102600
300.000000	4.132700
299.000000	4.143100
298.000000	4.132900
297.000000	4.115100
296.000000	4.128700
295.000000	4.179800
294.000000	4.197700
293.000000	4.154500
292.000000	4.145900
291.000000	4.157800
290.000000	4.160000
289.000000	4.162300
288.000000	4.172000
287.000000	4.204900
286.000000	4.197000
285.000000	4.176600
284.000000	4.187000
283.000000	4.211500
282.000000	4.222100
281.000000	4.214400
280.000000	4.262200
279.000000	4.255500
278.000000	4.227400
277.000000	4.257700
276.000000	4.266700
275.000000	4.283100
274.000000	4.307200
273.000000	4.292300
272.000000	4.301800
271.000000	4.305300
270.000000	4.300100
269.000000	4.350200
268.000000	4.378100
267.000000	4.397000
266.000000	4.373400
265.000000	4.369600
264.000000	4.382400
263.000000	4.402500
262.000000	4.440500
261.000000	4.450700
260.000000	4.471900
259.000000	4.495600
258.000000	4.513100
257.000000	4.514600
256.000000	4.507500
255.000000	4.549400
254.000000	4.532100
253.000000	4.559200
252.000000	4.574100
251.000000	4.590600
250.000000	4.592900
