PE UV       SUBTECH     SPECTRUM    ASCII       PEDS        4.00        
   -1
CICIMAUCR0201-3.ASC
24/06/06
13:45:31.00
24/06/06
13:45:31.00
Vinicio Soto Monge
C. cupreomarginata. Sex F. Ventral
250,000000
1
Lambda 1050
1050L1511233
PerkinElmer UV WinLab 6.3.2.0749 / 2.02.05 Lambda 900 UV/VIS/NIR, Aug  7 2015 09:38:08

0
0
3350/servo 860,8/2
0
0
UV/VIS
1
1
1
DoubleDePol,CommonBeamDepol,RBeamAtt,SBeamAtt,60mm sphere, WB InGaAs Detector
0
0
0
0
Program
Program
3350/servo 860,8/2
3350/0,2 860,8/0,2
3350/0,2 860,8/0,2
0
15.00
 
 
 
0
 
860,8
319,2
860,8
Front
100
on
S:100 R:100
0
0
0
0
 
0
 
 
 
0
 
 
0
0
0
0
0
 
 
 
 
0
0


0
0
#HDR
-1
-1
#GR
nm
%R
1.0
0.0
2500,000000
-1,000000
2251
8
54,950700
3,908500
#DATA
2500.000000	6.314121
2499.000000	6.280032
2498.000000	6.206494
2497.000000	6.174870
2496.000000	6.055772
2495.000000	5.990166
2494.000000	6.020289
2493.000000	6.000029
2492.000000	5.958007
2491.000000	5.869568
2490.000000	5.972478
2489.000000	6.073031
2488.000000	5.930242
2487.000000	5.967333
2486.000000	5.955541
2485.000000	5.912769
2484.000000	5.939032
2483.000000	5.970013
2482.000000	5.937853
2481.000000	5.890364
2480.000000	5.878036
2479.000000	5.947823
2478.000000	5.864744
2477.000000	5.870211
2476.000000	5.924775
2475.000000	5.882753
2474.000000	5.904086
2473.000000	5.899583
2472.000000	5.880073
2471.000000	5.860348
2470.000000	5.906873
2469.000000	5.849521
2468.000000	5.842017
2467.000000	5.822722
2466.000000	5.827224
2465.000000	5.849843
2464.000000	5.858740
2463.000000	5.907194
2462.000000	5.891329
2461.000000	5.906444
2460.000000	5.917057
2459.000000	5.919308
2458.000000	5.930778
2457.000000	5.939568
2456.000000	5.945572
2455.000000	5.988987
2454.000000	5.982448
2453.000000	6.034225
2452.000000	6.030902
2451.000000	6.066277
2450.000000	6.058452
2449.000000	6.093720
2448.000000	6.117733
2447.000000	6.114624
2446.000000	6.171976
2445.000000	6.187305
2444.000000	6.218607
2443.000000	6.243477
2442.000000	6.273922
2441.000000	6.287107
2440.000000	6.309405
2439.000000	6.328486
2438.000000	6.363862
2437.000000	6.397736
2436.000000	6.408778
2435.000000	6.434184
2434.000000	6.469345
2433.000000	6.486497
2432.000000	6.511689
2431.000000	6.514690
2430.000000	6.531521
2429.000000	6.571506
2428.000000	6.578581
2427.000000	6.595304
2426.000000	6.610097
2425.000000	6.640220
2424.000000	6.657587
2423.000000	6.677954
2422.000000	6.674417
2421.000000	6.696714
2420.000000	6.722013
2419.000000	6.724907
2418.000000	6.747634
2417.000000	6.764357
2416.000000	6.777756
2415.000000	6.797588
2414.000000	6.795444
2413.000000	6.811739
2412.000000	6.832535
2411.000000	6.855797
2410.000000	6.852688
2409.000000	6.839181
2408.000000	6.860514
2407.000000	6.878309
2406.000000	6.883562
2405.000000	6.909290
2404.000000	6.936518
2403.000000	6.920545
2402.000000	6.929979
2401.000000	6.956779
2400.000000	6.967713
2399.000000	6.981113
2398.000000	6.993012
2397.000000	7.022920
2396.000000	7.033747
2395.000000	7.038893
2394.000000	7.030639
2393.000000	7.039536
2392.000000	7.058403
2391.000000	7.071696
2390.000000	7.074483
2389.000000	7.085846
2388.000000	7.094851
2387.000000	7.094636
2386.000000	7.075448
2385.000000	7.078021
2384.000000	7.099568
2383.000000	7.101711
2382.000000	7.102891
2381.000000	7.103855
2380.000000	7.107286
2379.000000	7.101711
2378.000000	7.099246
2377.000000	7.088848
2376.000000	7.078878
2375.000000	7.081880
2374.000000	7.072125
2373.000000	7.058189
2372.000000	7.052614
2371.000000	7.060333
2370.000000	7.056152
2369.000000	7.042109
2368.000000	7.027530
2367.000000	7.010056
2366.000000	7.004697
2365.000000	6.998050
2364.000000	6.973609
2363.000000	6.954313
2362.000000	6.945308
2361.000000	6.931480
2360.000000	6.904251
2359.000000	6.872842
2358.000000	6.863623
2357.000000	6.859335
2356.000000	6.856333
2355.000000	6.841111
2354.000000	6.827175
2353.000000	6.822351
2352.000000	6.808737
2351.000000	6.806700
2350.000000	6.818170
2349.000000	6.809595
2348.000000	6.813132
2347.000000	6.811095
2346.000000	6.816777
2345.000000	6.839503
2344.000000	6.858692
2343.000000	6.876272
2342.000000	6.865231
2341.000000	6.875093
2340.000000	6.894818
2339.000000	6.893210
2338.000000	6.894174
2337.000000	6.889565
2336.000000	6.891923
2335.000000	6.902536
2334.000000	6.895461
2333.000000	6.895246
2332.000000	6.892138
2331.000000	6.881418
2330.000000	6.872199
2329.000000	6.854940
2328.000000	6.840682
2327.000000	6.824388
2326.000000	6.825889
2325.000000	6.794694
2324.000000	6.761141
2323.000000	6.759640
2322.000000	6.749349
2321.000000	6.711936
2320.000000	6.682993
2319.000000	6.646009
2318.000000	6.615565
2317.000000	6.580296
2316.000000	6.544385
2315.000000	6.517906
2314.000000	6.466987
2313.000000	6.436650
2312.000000	6.418640
2311.000000	6.387767
2310.000000	6.358502
2309.000000	6.321625
2308.000000	6.288072
2307.000000	6.281962
2306.000000	6.279710
2305.000000	6.265024
2304.000000	6.259450
2303.000000	6.275208
2302.000000	6.292360
2301.000000	6.287536
2300.000000	6.309619
2299.000000	6.344459
2298.000000	6.377797
2297.000000	6.358502
2296.000000	6.404490
2295.000000	6.427216
2294.000000	6.450049
2293.000000	6.469560
2292.000000	6.505686
2291.000000	6.505364
2290.000000	6.517585
2289.000000	6.546100
2288.000000	6.529591
2287.000000	6.540418
2286.000000	6.531949
2285.000000	6.557784
2284.000000	6.551567
2283.000000	6.530985
2282.000000	6.528733
2281.000000	6.530877
2280.000000	6.493251
2279.000000	6.486390
2278.000000	6.481566
2277.000000	6.474920
2276.000000	6.470846
2275.000000	6.430218
2274.000000	6.451765
2273.000000	6.430646
2272.000000	6.439544
2271.000000	6.428181
2270.000000	6.434934
2269.000000	6.449835
2268.000000	6.451979
2267.000000	6.477492
2266.000000	6.490785
2265.000000	6.542562
2264.000000	6.593803
2263.000000	6.610633
2262.000000	6.676775
2261.000000	6.764035
2260.000000	6.833393
2259.000000	6.896854
2258.000000	6.980362
2257.000000	7.067193
2256.000000	7.153489
2255.000000	7.240212
2254.000000	7.335191
2253.000000	7.424273
2252.000000	7.515714
2251.000000	7.609834
2250.000000	7.675118
2249.000000	7.764629
2248.000000	7.859072
2247.000000	7.949333
2246.000000	8.003254
2245.000000	8.037451
2244.000000	8.125675
2243.000000	8.202108
2242.000000	8.259459
2241.000000	8.308878
2240.000000	8.359583
2239.000000	8.400104
2238.000000	8.443627
2237.000000	8.490580
2236.000000	8.514807
2235.000000	8.548575
2234.000000	8.566584
2233.000000	8.592312
2232.000000	8.615253
2231.000000	8.629403
2230.000000	8.640980
2229.000000	8.640230
2228.000000	8.660705
2227.000000	8.660062
2226.000000	8.648484
2225.000000	8.655452
2224.000000	8.643339
2223.000000	8.613216
2222.000000	8.603461
2221.000000	8.614824
2220.000000	8.596171
2219.000000	8.575911
2218.000000	8.556293
2217.000000	8.549754
2216.000000	8.501514
2215.000000	8.505052
2214.000000	8.492295
2213.000000	8.467747
2212.000000	8.440947
2211.000000	8.424546
2210.000000	8.415005
2209.000000	8.417792
2208.000000	8.377485
2207.000000	8.394208
2206.000000	8.352615
2205.000000	8.360548
2204.000000	8.340073
2203.000000	8.323779
2202.000000	8.339966
2201.000000	8.336214
2200.000000	8.314024
2199.000000	8.301696
2198.000000	8.302446
2197.000000	8.303518
2196.000000	8.286259
2195.000000	8.285187
2194.000000	8.292905
2193.000000	8.281542
2192.000000	8.266535
2191.000000	8.279506
2190.000000	8.271680
2189.000000	8.245202
2188.000000	8.248096
2187.000000	8.240056
2186.000000	8.239735
2185.000000	8.215079
2184.000000	8.194497
2183.000000	8.192353
2182.000000	8.202751
2181.000000	8.218938
2180.000000	8.193425
2179.000000	8.195890
2178.000000	8.166196
2177.000000	8.173486
2176.000000	8.182491
2175.000000	8.164588
2174.000000	8.188708
2173.000000	8.176380
2172.000000	8.160944
2171.000000	8.192782
2170.000000	8.183670
2169.000000	8.171771
2168.000000	8.180990
2167.000000	8.194390
2166.000000	8.199857
2165.000000	8.202430
2164.000000	8.212935
2163.000000	8.223655
2162.000000	8.241450
2161.000000	8.241236
2160.000000	8.279184
2159.000000	8.294085
2158.000000	8.298158
2157.000000	8.332569
2156.000000	8.340073
2155.000000	8.378021
2154.000000	8.397639
2153.000000	8.406536
2152.000000	8.429155
2151.000000	8.468926
2150.000000	8.485113
2149.000000	8.507518
2148.000000	8.547824
2147.000000	8.561117
2146.000000	8.584379
2145.000000	8.597565
2144.000000	8.637657
2143.000000	8.663063
2142.000000	8.686004
2141.000000	8.697045
2140.000000	8.730598
2139.000000	8.743998
2138.000000	8.771656
2137.000000	8.792667
2136.000000	8.807460
2135.000000	8.836297
2134.000000	8.841442
2133.000000	8.856450
2132.000000	8.869207
2131.000000	8.888717
2130.000000	8.884107
2129.000000	8.896757
2128.000000	8.916267
2127.000000	8.929667
2126.000000	8.937278
2125.000000	8.950249
2124.000000	8.952500
2123.000000	8.944031
2122.000000	8.944353
2121.000000	8.941459
2120.000000	8.939636
2119.000000	8.942423
2118.000000	8.945747
2117.000000	8.933526
2116.000000	8.927308
2115.000000	8.917661
2114.000000	8.913373
2113.000000	8.922056
2112.000000	8.916481
2111.000000	8.886037
2110.000000	8.875103
2109.000000	8.882285
2108.000000	8.874567
2107.000000	8.862775
2106.000000	8.855056
2105.000000	8.851412
2104.000000	8.856343
2103.000000	8.831580
2102.000000	8.804244
2101.000000	8.802636
2100.000000	8.807353
2099.000000	8.794275
2098.000000	8.769190
2097.000000	8.766617
2096.000000	8.765867
2095.000000	8.760614
2094.000000	8.754289
2093.000000	8.742390
2092.000000	8.735422
2091.000000	8.743891
2090.000000	8.747107
2089.000000	8.737674
2088.000000	8.722880
2087.000000	8.702727
2086.000000	8.686969
2085.000000	8.684396
2084.000000	8.677213
2083.000000	8.670353
2082.000000	8.667994
2081.000000	8.652879
2080.000000	8.633691
2079.000000	8.622971
2078.000000	8.608928
2077.000000	8.578269
2076.000000	8.562725
2075.000000	8.551255
2074.000000	8.525849
2073.000000	8.504302
2072.000000	8.470963
2071.000000	8.438910
2070.000000	8.404821
2069.000000	8.382309
2068.000000	8.376199
2067.000000	8.356153
2066.000000	8.320884
2065.000000	8.289475
2064.000000	8.264927
2063.000000	8.241343
2062.000000	8.200714
2061.000000	8.165124
2060.000000	8.156441
2059.000000	8.146150
2058.000000	8.133608
2057.000000	8.126854
2056.000000	8.123960
2055.000000	8.105843
2054.000000	8.104986
2053.000000	8.115599
2052.000000	8.126640
2051.000000	8.141541
2050.000000	8.166625
2049.000000	8.200393
2048.000000	8.225263
2047.000000	8.250562
2046.000000	8.294728
2045.000000	8.337929
2044.000000	8.390028
2043.000000	8.439339
2042.000000	8.479432
2041.000000	8.535711
2040.000000	8.570658
2039.000000	8.612680
2038.000000	8.655774
2037.000000	8.700690
2036.000000	8.739496
2035.000000	8.781411
2034.000000	8.801886
2033.000000	8.847016
2032.000000	8.873387
2031.000000	8.907155
2030.000000	8.942423
2029.000000	8.947033
2028.000000	8.988197
2027.000000	9.013068
2026.000000	9.036115
2025.000000	9.045334
2024.000000	9.056162
2023.000000	9.091001
2022.000000	9.099899
2021.000000	9.109332
2020.000000	9.131201
2019.000000	9.125626
2018.000000	9.152319
2017.000000	9.144386
2016.000000	9.164111
2015.000000	9.171829
2014.000000	9.167434
2013.000000	9.169792
2012.000000	9.174938
2011.000000	9.155213
2010.000000	9.151461
2009.000000	9.145458
2008.000000	9.145887
2007.000000	9.140098
2006.000000	9.106438
2005.000000	9.103222
2004.000000	9.091752
2003.000000	9.060342
2002.000000	9.060449
2001.000000	9.046728
2000.000000	9.024323
1999.000000	9.001383
1998.000000	8.964614
1997.000000	8.934598
1996.000000	8.915195
1995.000000	8.859559
1994.000000	8.851412
1993.000000	8.829221
1992.000000	8.790308
1991.000000	8.760400
1990.000000	8.721594
1989.000000	8.683645
1988.000000	8.666172
1987.000000	8.622971
1986.000000	8.594885
1985.000000	8.573659
1984.000000	8.504302
1983.000000	8.478681
1982.000000	8.457241
1981.000000	8.411467
1980.000000	8.370732
1979.000000	8.335035
1978.000000	8.292905
1977.000000	8.260960
1976.000000	8.241128
1975.000000	8.192567
1974.000000	8.152153
1973.000000	8.131571
1972.000000	8.095338
1971.000000	8.055889
1970.000000	8.040452
1969.000000	7.999181
1968.000000	7.982993
1967.000000	7.947618
1966.000000	7.915351
1965.000000	7.869148
1964.000000	7.839990
1963.000000	7.805151
1962.000000	7.795610
1961.000000	7.762378
1960.000000	7.712102
1959.000000	7.693021
1958.000000	7.665685
1957.000000	7.648533
1956.000000	7.635348
1955.000000	7.597399
1954.000000	7.571457
1953.000000	7.538869
1952.000000	7.526219
1951.000000	7.495775
1950.000000	7.457290
1949.000000	7.428668
1948.000000	7.403476
1947.000000	7.378821
1946.000000	7.386003
1945.000000	7.357488
1944.000000	7.340443
1943.000000	7.335834
1942.000000	7.336584
1941.000000	7.318253
1940.000000	7.331760
1939.000000	7.288559
1938.000000	7.296492
1937.000000	7.318789
1936.000000	7.283950
1935.000000	7.304853
1934.000000	7.299922
1933.000000	7.331331
1932.000000	7.311393
1931.000000	7.341944
1930.000000	7.352664
1929.000000	7.403584
1928.000000	7.419878
1927.000000	7.462543
1926.000000	7.464365
1925.000000	7.511533
1924.000000	7.564811
1923.000000	7.569742
1922.000000	7.650141
1921.000000	7.697094
1920.000000	7.769989
1919.000000	7.810725
1918.000000	7.882227
1917.000000	7.936148
1916.000000	7.986638
1915.000000	8.083010
1914.000000	8.116135
1913.000000	8.220332
1912.000000	8.308664
1911.000000	8.399140
1910.000000	8.484684
1909.000000	8.578376
1908.000000	8.678285
1907.000000	8.789451
1906.000000	8.906512
1905.000000	9.036115
1904.000000	9.167648
1903.000000	9.288247
1902.000000	9.428999
1901.000000	9.537806
1900.000000	9.715006
1899.000000	9.880842
1898.000000	10.043142
1897.000000	10.198794
1896.000000	10.391431
1895.000000	10.543010
1894.000000	10.699413
1893.000000	10.882616
1892.000000	11.094655
1891.000000	11.340784
1890.000000	11.588521
1889.000000	11.810958
1888.000000	12.078956
1887.000000	12.314043
1886.000000	12.548808
1885.000000	12.848108
1884.000000	13.145156
1883.000000	13.462464
1882.000000	13.805394
1881.000000	14.140283
1880.000000	14.485034
1879.000000	14.789372
1878.000000	15.107217
1877.000000	15.445215
1876.000000	15.760701
1875.000000	16.077152
1874.000000	16.390066
1873.000000	16.694082
1872.000000	17.010426
1871.000000	17.270383
1870.000000	17.524980
1869.000000	17.752028
1868.000000	17.959565
1867.000000	18.121971
1866.000000	18.277624
1865.000000	18.395650
1864.000000	18.506386
1863.000000	18.618409
1862.000000	18.739436
1861.000000	18.848994
1860.000000	18.959194
1859.000000	19.078399
1858.000000	19.160085
1857.000000	19.220009
1856.000000	19.259137
1855.000000	19.308770
1854.000000	19.366336
1853.000000	19.382844
1852.000000	19.366336
1851.000000	19.364942
1850.000000	19.384988
1849.000000	19.413289
1848.000000	19.442876
1847.000000	19.440410
1846.000000	19.391742
1845.000000	19.336749
1844.000000	19.318739
1843.000000	19.294941
1842.000000	19.288402
1841.000000	19.311021
1840.000000	19.291403
1839.000000	19.263853
1838.000000	19.254527
1837.000000	19.229871
1836.000000	19.200820
1835.000000	19.163515
1834.000000	19.095122
1833.000000	19.038950
1832.000000	18.982992
1831.000000	18.943543
1830.000000	18.892731
1829.000000	18.837952
1828.000000	18.801933
1827.000000	18.747262
1826.000000	18.692591
1825.000000	18.647781
1824.000000	18.601043
1823.000000	18.562773
1822.000000	18.547443
1821.000000	18.538010
1820.000000	18.532114
1819.000000	18.496524
1818.000000	18.452358
1817.000000	18.431347
1816.000000	18.405834
1815.000000	18.398651
1814.000000	18.393827
1813.000000	18.367028
1812.000000	18.351377
1811.000000	18.337762
1810.000000	18.313750
1809.000000	18.274622
1808.000000	18.233779
1807.000000	18.203228
1806.000000	18.169996
1805.000000	18.130868
1804.000000	18.094957
1803.000000	18.053900
1802.000000	18.020882
1801.000000	17.988937
1800.000000	17.955491
1799.000000	17.906072
1798.000000	17.867802
1797.000000	17.826638
1796.000000	17.781507
1795.000000	17.748383
1794.000000	17.715044
1793.000000	17.678275
1792.000000	17.639040
1791.000000	17.597768
1790.000000	17.560678
1789.000000	17.532806
1788.000000	17.488533
1787.000000	17.439007
1786.000000	17.413279
1785.000000	17.383478
1784.000000	17.327198
1783.000000	17.274564
1782.000000	17.236830
1781.000000	17.189984
1780.000000	17.149891
1779.000000	17.096506
1778.000000	17.033259
1777.000000	16.965831
1776.000000	16.906550
1775.000000	16.842659
1774.000000	16.764726
1773.000000	16.691080
1772.000000	16.615183
1771.000000	16.532426
1770.000000	16.437233
1769.000000	16.358657
1768.000000	16.283296
1767.000000	16.207184
1766.000000	16.142436
1765.000000	16.072971
1764.000000	16.039847
1763.000000	16.001041
1762.000000	15.985819
1761.000000	15.989035
1760.000000	16.007151
1759.000000	16.027090
1758.000000	16.058071
1757.000000	16.102666
1756.000000	16.141472
1755.000000	16.170201
1754.000000	16.205898
1753.000000	16.227552
1752.000000	16.231733
1751.000000	16.229696
1750.000000	16.221764
1749.000000	16.213509
1748.000000	16.178241
1747.000000	16.134075
1746.000000	16.085192
1745.000000	16.035666
1744.000000	15.956661
1743.000000	15.872510
1742.000000	15.768955
1741.000000	15.647285
1740.000000	15.534297
1739.000000	15.417236
1738.000000	15.268444
1737.000000	15.151919
1736.000000	15.036680
1735.000000	14.937628
1734.000000	14.880277
1733.000000	14.830536
1732.000000	14.818852
1731.000000	14.816815
1730.000000	14.817029
1729.000000	14.853691
1728.000000	14.908577
1727.000000	14.953279
1726.000000	15.006771
1725.000000	15.060692
1724.000000	15.107431
1723.000000	15.136696
1722.000000	15.171643
1721.000000	15.228673
1720.000000	15.224171
1719.000000	15.292135
1718.000000	15.329333
1717.000000	15.371140
1716.000000	15.454220
1715.000000	15.513393
1714.000000	15.581572
1713.000000	15.654681
1712.000000	15.736367
1711.000000	15.794576
1710.000000	15.837348
1709.000000	15.876047
1708.000000	15.888161
1707.000000	15.890090
1706.000000	15.889018
1705.000000	15.889018
1704.000000	15.853750
1703.000000	15.828236
1702.000000	15.797149
1701.000000	15.734009
1700.000000	15.668510
1699.000000	15.588969
1698.000000	15.510070
1697.000000	15.463439
1696.000000	15.410268
1695.000000	15.372212
1694.000000	15.379288
1693.000000	15.395260
1692.000000	15.440391
1691.000000	15.512965
1690.000000	15.607836
1689.000000	15.697775
1688.000000	15.788894
1687.000000	15.859646
1686.000000	15.883980
1685.000000	15.949586
1684.000000	16.037381
1683.000000	16.169450
1682.000000	16.317385
1681.000000	16.538000
1680.000000	16.832904
1679.000000	17.163077
1678.000000	17.543633
1677.000000	17.922474
1676.000000	18.273872
1675.000000	18.566096
1674.000000	18.887371
1673.000000	19.154189
1672.000000	19.383273
1671.000000	19.608391
1670.000000	19.767259
1669.000000	19.946496
1668.000000	20.099254
1667.000000	20.244723
1666.000000	20.355996
1665.000000	20.459657
1664.000000	20.545952
1663.000000	20.626994
1662.000000	20.707501
1661.000000	20.804730
1660.000000	20.853506
1659.000000	20.906676
1658.000000	20.964028
1657.000000	20.988683
1656.000000	21.041425
1655.000000	21.055468
1654.000000	21.055575
1653.000000	21.061043
1652.000000	21.043569
1651.000000	21.053217
1650.000000	21.041961
1649.000000	21.018270
1648.000000	20.990077
1647.000000	20.964885
1646.000000	20.929831
1645.000000	20.901102
1644.000000	20.868192
1643.000000	20.824883
1642.000000	20.782433
1641.000000	20.738052
1640.000000	20.698818
1639.000000	20.661727
1638.000000	20.620026
1637.000000	20.561496
1636.000000	20.505538
1635.000000	20.473700
1634.000000	20.424281
1633.000000	20.366394
1632.000000	20.309471
1631.000000	20.240221
1630.000000	20.174079
1629.000000	20.110510
1628.000000	20.051229
1627.000000	19.979084
1626.000000	19.927522
1625.000000	19.863631
1624.000000	19.802313
1623.000000	19.736708
1622.000000	19.681071
1621.000000	19.627901
1620.000000	19.544286
1619.000000	19.472570
1618.000000	19.437087
1617.000000	19.376627
1616.000000	19.307591
1615.000000	19.251418
1614.000000	19.203179
1613.000000	19.155690
1612.000000	19.098231
1611.000000	19.050099
1610.000000	18.968199
1609.000000	18.919959
1608.000000	18.859070
1607.000000	18.798932
1606.000000	18.755838
1605.000000	18.674367
1604.000000	18.621196
1603.000000	18.560843
1602.000000	18.496524
1601.000000	18.433920
1600.000000	18.375818
1599.000000	18.319431
1598.000000	18.263259
1597.000000	18.203656
1596.000000	18.138051
1595.000000	18.065584
1594.000000	18.027314
1593.000000	17.980790
1592.000000	17.923117
1591.000000	17.886562
1590.000000	17.826638
1589.000000	17.769823
1588.000000	17.727586
1587.000000	17.706254
1586.000000	17.660373
1585.000000	17.615563
1584.000000	17.571612
1583.000000	17.522086
1582.000000	17.491427
1581.000000	17.451871
1580.000000	17.435040
1579.000000	17.410170
1578.000000	17.393983
1577.000000	17.384764
1576.000000	17.353998
1575.000000	17.322374
1574.000000	17.313906
1573.000000	17.307795
1572.000000	17.290429
1571.000000	17.285069
1570.000000	17.299112
1569.000000	17.293752
1568.000000	17.284748
1567.000000	17.313263
1566.000000	17.314442
1565.000000	17.304794
1564.000000	17.321624
1563.000000	17.326448
1562.000000	17.316264
1561.000000	17.318944
1560.000000	17.327413
1559.000000	17.312834
1558.000000	17.304579
1557.000000	17.297076
1556.000000	17.276172
1555.000000	17.256126
1554.000000	17.240474
1553.000000	17.221929
1552.000000	17.195451
1551.000000	17.171653
1550.000000	17.125772
1549.000000	17.088681
1548.000000	17.067134
1547.000000	17.027042
1546.000000	16.994882
1545.000000	16.969583
1544.000000	16.935065
1543.000000	16.910195
1542.000000	16.908265
1541.000000	16.885539
1540.000000	16.868066
1539.000000	16.851128
1538.000000	16.817253
1537.000000	16.803532
1536.000000	16.791311
1535.000000	16.755828
1534.000000	16.733638
1533.000000	16.710054
1532.000000	16.673392
1531.000000	16.654418
1530.000000	16.640697
1529.000000	16.604464
1528.000000	16.565979
1527.000000	16.531247
1526.000000	16.504983
1525.000000	16.465641
1524.000000	16.430373
1523.000000	16.397891
1522.000000	16.353511
1521.000000	16.329284
1520.000000	16.292944
1519.000000	16.246205
1518.000000	16.205898
1517.000000	16.167521
1516.000000	16.121747
1515.000000	16.078975
1514.000000	16.038989
1513.000000	16.000827
1512.000000	15.971776
1511.000000	15.927181
1510.000000	15.882265
1509.000000	15.848068
1508.000000	15.794362
1507.000000	15.753626
1506.000000	15.715356
1505.000000	15.666688
1504.000000	15.627024
1503.000000	15.584145
1502.000000	15.542766
1501.000000	15.508891
1500.000000	15.462581
1499.000000	15.417022
1498.000000	15.384326
1497.000000	15.366531
1496.000000	15.337051
1495.000000	15.308322
1494.000000	15.289240
1493.000000	15.261154
1492.000000	15.243681
1491.000000	15.230388
1490.000000	15.211414
1489.000000	15.200909
1488.000000	15.186222
1487.000000	15.163389
1486.000000	15.155242
1485.000000	15.142056
1484.000000	15.126620
1483.000000	15.122546
1482.000000	15.113220
1481.000000	15.106145
1480.000000	15.101428
1479.000000	15.096282
1478.000000	15.095532
1477.000000	15.099070
1476.000000	15.092531
1475.000000	15.082775
1474.000000	15.082990
1473.000000	15.106466
1472.000000	15.123297
1471.000000	15.138412
1470.000000	15.144200
1469.000000	15.153419
1468.000000	15.166927
1467.000000	15.174859
1466.000000	15.188902
1465.000000	15.216667
1464.000000	15.226529
1463.000000	15.250970
1462.000000	15.266836
1461.000000	15.278735
1460.000000	15.326117
1459.000000	15.369425
1458.000000	15.387649
1457.000000	15.428706
1456.000000	15.488952
1455.000000	15.533654
1454.000000	15.592506
1453.000000	15.654467
1452.000000	15.719751
1451.000000	15.787394
1450.000000	15.797578
1449.000000	15.881621
1448.000000	15.945726
1447.000000	16.004043
1446.000000	16.067183
1445.000000	16.148975
1444.000000	16.229160
1443.000000	16.297660
1442.000000	16.371306
1441.000000	16.446131
1440.000000	16.522349
1439.000000	16.612718
1438.000000	16.693439
1437.000000	16.770086
1436.000000	16.864099
1435.000000	16.944713
1434.000000	17.027363
1433.000000	17.137564
1432.000000	17.254089
1431.000000	17.360644
1430.000000	17.454122
1429.000000	17.589728
1428.000000	17.702823
1427.000000	17.839180
1426.000000	17.964925
1425.000000	18.124972
1424.000000	18.316966
1423.000000	18.484196
1422.000000	18.631809
1421.000000	18.800540
1420.000000	18.994677
1419.000000	19.233838
1418.000000	19.441160
1417.000000	19.614608
1416.000000	19.818072
1415.000000	20.048228
1414.000000	20.303254
1413.000000	20.569536
1412.000000	20.797226
1411.000000	21.045606
1410.000000	21.342011
1409.000000	21.657068
1408.000000	22.021652
1407.000000	22.370906
1406.000000	22.717158
1405.000000	23.096642
1404.000000	23.499710
1403.000000	23.863650
1402.000000	24.250745
1401.000000	24.633017
1400.000000	25.088612
1399.000000	25.484926
1398.000000	25.815313
1397.000000	26.116649
1396.000000	26.446178
1395.000000	26.858787
1394.000000	27.218546
1393.000000	27.512379
1392.000000	27.807819
1391.000000	28.192555
1390.000000	28.550814
1389.000000	28.888812
1388.000000	29.343550
1387.000000	29.847277
1386.000000	30.331066
1385.000000	30.832971
1384.000000	31.384831
1383.000000	31.954915
1382.000000	32.501629
1381.000000	33.060993
1380.000000	33.408853
1379.000000	33.774080
1378.000000	34.022567
1377.000000	34.226995
1376.000000	34.470229
1375.000000	34.688272
1374.000000	34.937402
1373.000000	35.224588
1372.000000	35.577165
1371.000000	35.956006
1370.000000	36.330130
1369.000000	36.668342
1368.000000	37.021670
1367.000000	37.332868
1366.000000	37.609441
1365.000000	37.826304
1364.000000	38.096338
1363.000000	38.287367
1362.000000	38.492010
1361.000000	38.705228
1360.000000	38.872030
1359.000000	38.937421
1358.000000	39.074957
1357.000000	39.227501
1356.000000	39.401592
1355.000000	39.685133
1354.000000	40.045965
1353.000000	40.459323
1352.000000	40.875684
1351.000000	41.391203
1350.000000	41.883461
1349.000000	42.340342
1348.000000	42.755416
1347.000000	43.174028
1346.000000	43.587601
1345.000000	43.941036
1344.000000	44.333598
1343.000000	44.697324
1342.000000	45.023423
1341.000000	45.379966
1340.000000	45.713569
1339.000000	46.066039
1338.000000	46.378953
1337.000000	46.694868
1336.000000	46.989665
1335.000000	47.309225
1334.000000	47.592766
1333.000000	47.885526
1332.000000	48.179144
1331.000000	48.458504
1330.000000	48.735077
1329.000000	48.998786
1328.000000	49.236017
1327.000000	49.462636
1326.000000	49.707264
1325.000000	49.923484
1324.000000	50.113226
1323.000000	50.317011
1322.000000	50.512006
1321.000000	50.693815
1320.000000	50.864797
1319.000000	51.047464
1318.000000	51.219947
1317.000000	51.379352
1316.000000	51.526858
1315.000000	51.675971
1314.000000	51.812543
1313.000000	51.963693
1312.000000	52.105517
1311.000000	52.197815
1310.000000	52.322809
1309.000000	52.428186
1308.000000	52.525951
1307.000000	52.622108
1306.000000	52.677316
1305.000000	52.770150
1304.000000	52.839186
1303.000000	52.904149
1302.000000	52.958499
1301.000000	52.987121
1300.000000	53.026034
1299.000000	53.064840
1298.000000	53.088209
1297.000000	53.107719
1296.000000	53.128730
1295.000000	53.145239
1294.000000	53.163570
1293.000000	53.166893
1292.000000	53.179650
1291.000000	53.173004
1290.000000	53.143524
1289.000000	53.131196
1288.000000	53.110078
1287.000000	53.068913
1286.000000	53.034824
1285.000000	52.994410
1284.000000	52.922694
1283.000000	52.862984
1282.000000	52.805740
1281.000000	52.751069
1280.000000	52.690073
1279.000000	52.644191
1278.000000	52.591771
1277.000000	52.525094
1276.000000	52.471280
1275.000000	52.431187
1274.000000	52.389594
1273.000000	52.346715
1272.000000	52.317878
1271.000000	52.279715
1270.000000	52.250450
1269.000000	52.227617
1268.000000	52.188596
1267.000000	52.155472
1266.000000	52.117309
1265.000000	52.080754
1264.000000	52.040662
1263.000000	51.976342
1262.000000	51.927031
1261.000000	51.883723
1260.000000	51.830123
1259.000000	51.780704
1258.000000	51.718851
1257.000000	51.659677
1256.000000	51.598038
1255.000000	51.517317
1254.000000	51.428771
1253.000000	51.351266
1252.000000	51.274511
1251.000000	51.161524
1250.000000	51.055182
1249.000000	50.969209
1248.000000	50.857829
1247.000000	50.743341
1246.000000	50.624457
1245.000000	50.487886
1244.000000	50.337915
1243.000000	50.199950
1242.000000	50.064772
1241.000000	49.905582
1240.000000	49.749071
1239.000000	49.586236
1238.000000	49.428011
1237.000000	49.279111
1236.000000	49.113704
1235.000000	48.926105
1234.000000	48.740008
1233.000000	48.565488
1232.000000	48.389146
1231.000000	48.198118
1230.000000	48.000765
1229.000000	47.791834
1228.000000	47.574756
1227.000000	47.363146
1226.000000	47.143710
1225.000000	46.916448
1224.000000	46.677931
1223.000000	46.435875
1222.000000	46.205291
1221.000000	45.969453
1220.000000	45.733401
1219.000000	45.506997
1218.000000	45.281451
1217.000000	45.055368
1216.000000	44.843865
1215.000000	44.640723
1214.000000	44.462022
1213.000000	44.292434
1212.000000	44.116092
1211.000000	43.948004
1210.000000	43.786455
1209.000000	43.644202
1208.000000	43.502592
1207.000000	43.370523
1206.000000	43.269006
1205.000000	43.177887
1204.000000	43.094594
1203.000000	43.030274
1202.000000	42.976032
1201.000000	42.918895
1200.000000	42.861758
1199.000000	42.789077
1198.000000	42.684451
1197.000000	42.569748
1196.000000	42.434463
1195.000000	42.263373
1194.000000	42.027000
1193.000000	41.739171
1192.000000	41.403746
1191.000000	41.046023
1190.000000	40.654211
1189.000000	40.290807
1188.000000	39.970711
1187.000000	39.730693
1186.000000	39.591334
1185.000000	39.553386
1184.000000	39.628746
1183.000000	39.833175
1182.000000	40.140514
1181.000000	40.544439
1180.000000	40.997033
1179.000000	41.460775
1178.000000	41.907259
1177.000000	42.327693
1176.000000	42.722185
1175.000000	43.056752
1174.000000	43.353157
1173.000000	43.659532
1172.000000	43.947682
1171.000000	44.268528
1170.000000	44.573080
1169.000000	44.887280
1168.000000	45.193119
1167.000000	45.539693
1166.000000	45.872009
1165.000000	46.234556
1164.000000	46.585847
1163.000000	46.970905
1162.000000	47.373651
1161.000000	47.778327
1160.000000	48.155453
1159.000000	48.530113
1158.000000	48.910883
1157.000000	49.288438
1156.000000	49.622577
1155.000000	49.926700
1154.000000	50.206489
1153.000000	50.452939
1152.000000	50.632604
1151.000000	50.769926
1150.000000	50.889989
1149.000000	51.013696
1148.000000	51.138047
1147.000000	51.255752
1146.000000	51.417193
1145.000000	51.624837
1144.000000	51.906878
1143.000000	52.199316
1142.000000	52.548892
1141.000000	52.918299
1140.000000	53.298962
1139.000000	53.693990
1138.000000	54.101882
1137.000000	54.518671
1136.000000	54.975660
1135.000000	55.438759
1134.000000	55.935519
1133.000000	56.344375
1132.000000	56.741762
1131.000000	57.090265
1130.000000	57.418079
1129.000000	57.706337
1128.000000	57.970153
1127.000000	58.161289
1126.000000	58.339025
1125.000000	58.469486
1124.000000	58.585689
1123.000000	58.684634
1122.000000	58.751312
1121.000000	58.815524
1120.000000	58.858511
1119.000000	58.869445
1118.000000	58.879736
1117.000000	58.906536
1116.000000	58.897209
1115.000000	58.887669
1114.000000	58.863442
1113.000000	58.838464
1112.000000	58.809199
1111.000000	58.791297
1110.000000	58.762568
1109.000000	58.740913
1108.000000	58.709611
1107.000000	58.673271
1106.000000	58.654726
1105.000000	58.629641
1104.000000	58.599947
1103.000000	58.571539
1102.000000	58.550421
1101.000000	58.529946
1100.000000	58.472273
1099.000000	58.428750
1098.000000	58.390480
1097.000000	58.361429
1096.000000	58.308366
1095.000000	58.247477
1094.000000	58.194735
1093.000000	58.171044
1092.000000	58.074244
1091.000000	58.010675
1090.000000	57.948499
1089.000000	57.895221
1088.000000	57.807962
1087.000000	57.744929
1086.000000	57.655954
1085.000000	57.600425
1084.000000	57.510270
1083.000000	57.434909
1082.000000	57.351616
1081.000000	57.254601
1080.000000	57.173880
1079.000000	57.097769
1078.000000	57.020479
1077.000000	56.925822
1076.000000	56.848853
1075.000000	56.768454
1074.000000	56.659862
1073.000000	56.561131
1072.000000	56.503458
1071.000000	56.409123
1070.000000	56.319184
1069.000000	56.209841
1068.000000	56.126869
1067.000000	56.048292
1066.000000	55.935412
1065.000000	55.844292
1064.000000	55.760463
1063.000000	55.650262
1062.000000	55.556999
1061.000000	55.454196
1060.000000	55.338207
1059.000000	55.230043
1058.000000	55.138602
1057.000000	55.026151
1056.000000	54.912734
1055.000000	54.803070
1054.000000	54.706698
1053.000000	54.614293
1052.000000	54.504842
1051.000000	54.382743
1050.000000	54.280368
1049.000000	54.171668
1048.000000	54.089661
1047.000000	53.981926
1046.000000	53.905815
1045.000000	53.810515
1044.000000	53.711035
1043.000000	53.626455
1042.000000	53.520971
1041.000000	53.445503
1040.000000	53.327477
1039.000000	53.240324
1038.000000	53.153922
1037.000000	53.056586
1036.000000	52.947993
1035.000000	52.842617
1034.000000	52.757929
1033.000000	52.653732
1032.000000	52.534849
1031.000000	52.428722
1030.000000	52.309945
1029.000000	52.207142
1028.000000	52.098871
1027.000000	51.980952
1026.000000	51.858745
1025.000000	51.734395
1024.000000	51.632877
1023.000000	51.500165
1022.000000	51.374957
1021.000000	51.278692
1020.000000	51.148553
1019.000000	51.015412
1018.000000	50.925043
1017.000000	50.804766
1016.000000	50.693386
1015.000000	50.599373
1014.000000	50.493460
1013.000000	50.387333
1012.000000	50.311973
1011.000000	50.247546
1010.000000	50.165753
1009.000000	50.091036
1008.000000	50.025108
1007.000000	49.958645
1006.000000	49.886071
1005.000000	49.828506
1004.000000	49.774692
1003.000000	49.710265
1002.000000	49.639192
1001.000000	49.569084
1000.000000	49.512912
999.000000	49.443983
998.000000	49.386632
997.000000	49.314058
996.000000	49.229585
995.000000	49.177701
994.000000	49.111667
993.000000	49.046919
992.000000	48.985172
991.000000	48.929965
990.000000	48.862322
989.000000	48.804649
988.000000	48.751907
987.000000	48.694985
986.000000	48.641171
985.000000	48.589501
984.000000	48.535473
983.000000	48.476835
982.000000	48.425594
981.000000	48.374138
980.000000	48.333188
979.000000	48.287093
978.000000	48.237567
977.000000	48.168853
976.000000	48.117183
975.000000	48.070873
974.000000	48.024134
973.000000	47.970535
972.000000	47.909538
971.000000	47.852401
970.000000	47.811344
969.000000	47.762569
968.000000	47.693962
967.000000	47.647652
966.000000	47.604022
965.000000	47.567145
964.000000	47.517941
963.000000	47.468844
962.000000	47.424249
961.000000	47.397664
960.000000	47.377725
959.000000	47.333880
958.000000	47.282103
957.000000	47.236222
956.000000	47.195594
955.000000	47.158718
954.000000	47.116588
953.000000	47.066848
952.000000	47.029436
951.000000	46.983555
950.000000	46.928669
949.000000	46.872175
948.000000	46.817932
947.000000	46.762296
946.000000	46.711591
945.000000	46.653918
944.000000	46.583488
943.000000	46.512844
942.000000	46.449704
941.000000	46.377023
940.000000	46.291693
939.000000	46.214295
938.000000	46.148690
937.000000	46.077295
936.000000	45.997861
935.000000	45.918534
934.000000	45.843709
933.000000	45.776388
932.000000	45.717536
931.000000	45.638745
930.000000	45.546446
929.000000	45.465726
928.000000	45.412877
927.000000	45.328940
926.000000	45.239965
925.000000	45.171893
924.000000	45.118508
923.000000	45.038538
922.000000	44.948813
921.000000	44.869807
920.000000	44.798305
919.000000	44.727018
918.000000	44.650371
917.000000	44.571794
916.000000	44.489894
915.000000	44.405207
914.000000	44.323736
913.000000	44.248911
912.000000	44.150502
911.000000	44.076214
910.000000	44.004926
909.000000	43.929351
908.000000	43.854419
907.000000	43.815613
906.000000	43.760942
905.000000	43.724816
904.000000	43.690083
903.000000	43.655565
902.000000	43.625014
901.000000	43.613222
900.000000	43.597892
899.000000	43.576988
898.000000	43.558550
897.000000	43.550939
896.000000	43.532394
895.000000	43.533359
894.000000	43.507095
893.000000	43.485977
892.000000	43.479223
891.000000	43.451780
890.000000	43.436880
889.000000	43.406649
888.000000	43.374490
887.000000	43.332789
886.000000	43.298164
885.000000	43.255821
884.000000	43.216050
883.000000	43.146156
882.000000	43.102741
881.000000	43.052036
880.000000	42.988359
879.000000	42.918680
878.000000	42.834958
877.000000	42.736871
876.000000	42.643715
875.000000	42.530835
874.000000	42.402625
873.000000	42.243327
872.000000	42.105041
871.000000	42.048547
870.000000	42.068057
869.000000	42.088532
868.000000	42.096143
867.000000	42.099573
866.000000	42.149099
865.000000	42.152744
864.000000	42.177078
863.000000	42.169146
862.000000	42.194337
861.000000	42.209560
860.000000	42.251153
859.000000	42.274308
858.000000	42.268733
857.000000	41.749500
856.000000	42.497900
855.000000	42.558800
854.000000	42.089700
853.000000	42.019100
852.000000	42.229400
851.000000	42.497600
850.000000	42.807800
849.000000	42.340700
848.000000	42.743600
847.000000	42.747000
846.000000	42.814800
845.000000	42.827400
844.000000	42.999700
843.000000	42.925400
842.000000	43.117800
841.000000	42.949500
840.000000	43.213700
839.000000	43.275500
838.000000	42.944400
837.000000	43.215800
836.000000	43.112600
835.000000	43.207700
834.000000	43.278800
833.000000	43.362200
832.000000	43.405700
831.000000	43.471200
830.000000	43.526600
829.000000	43.539400
828.000000	43.263600
827.000000	43.457200
826.000000	43.548900
825.000000	43.278700
824.000000	43.579100
823.000000	43.436900
822.000000	43.553100
821.000000	43.488600
820.000000	43.638300
819.000000	43.578900
818.000000	43.596300
817.000000	43.547900
816.000000	43.619300
815.000000	43.615500
814.000000	43.536500
813.000000	43.441000
812.000000	43.634900
811.000000	43.533500
810.000000	43.525500
809.000000	43.590100
808.000000	43.564900
807.000000	43.401800
806.000000	43.538400
805.000000	43.567000
804.000000	43.601500
803.000000	43.603900
802.000000	43.588200
801.000000	43.639600
800.000000	43.548700
799.000000	43.422200
798.000000	43.542600
797.000000	43.417400
796.000000	43.381100
795.000000	43.297900
794.000000	43.322200
793.000000	43.287500
792.000000	43.364200
791.000000	43.283100
790.000000	43.322500
789.000000	43.372400
788.000000	43.351800
787.000000	43.222500
786.000000	43.100700
785.000000	43.249800
784.000000	43.072200
783.000000	43.129300
782.000000	43.038700
781.000000	42.974000
780.000000	43.067500
779.000000	42.878200
778.000000	42.740600
777.000000	42.740300
776.000000	42.775900
775.000000	42.631800
774.000000	42.649200
773.000000	42.518000
772.000000	42.538800
771.000000	42.339000
770.000000	42.406300
769.000000	42.309800
768.000000	42.381200
767.000000	42.302800
766.000000	42.168500
765.000000	42.053200
764.000000	41.962100
763.000000	41.964900
762.000000	41.883700
761.000000	41.765600
760.000000	41.747100
759.000000	41.646900
758.000000	41.548100
757.000000	41.504000
756.000000	41.425300
755.000000	41.303700
754.000000	41.217400
753.000000	41.213700
752.000000	41.146400
751.000000	40.988300
750.000000	40.938000
749.000000	40.779400
748.000000	40.823400
747.000000	40.603000
746.000000	40.511100
745.000000	40.438800
744.000000	40.349100
743.000000	40.218000
742.000000	40.054200
741.000000	39.984100
740.000000	39.817000
739.000000	39.664200
738.000000	39.493400
737.000000	39.472300
736.000000	39.367500
735.000000	39.270500
734.000000	39.163700
733.000000	38.995100
732.000000	38.891200
731.000000	38.767000
730.000000	38.662400
729.000000	38.459700
728.000000	38.363000
727.000000	38.192400
726.000000	38.029600
725.000000	37.903900
724.000000	37.761300
723.000000	37.601200
722.000000	37.437400
721.000000	37.253000
720.000000	37.079400
719.000000	36.939000
718.000000	36.844400
717.000000	36.654200
716.000000	36.441500
715.000000	36.320300
714.000000	36.126600
713.000000	35.953700
712.000000	35.778400
711.000000	35.669200
710.000000	35.454800
709.000000	35.251600
708.000000	35.082700
707.000000	34.862200
706.000000	34.619100
705.000000	34.439200
704.000000	34.237300
703.000000	34.059900
702.000000	33.856300
701.000000	33.594000
700.000000	33.403200
699.000000	33.185900
698.000000	32.995800
697.000000	32.806700
696.000000	32.572300
695.000000	32.342900
694.000000	32.116800
693.000000	31.878400
692.000000	31.623700
691.000000	31.400000
690.000000	31.197700
689.000000	30.930300
688.000000	30.667300
687.000000	30.423100
686.000000	30.189200
685.000000	29.962800
684.000000	29.691600
683.000000	29.451300
682.000000	29.223400
681.000000	28.964200
680.000000	28.753200
679.000000	28.526300
678.000000	28.288500
677.000000	28.037700
676.000000	27.786800
675.000000	27.561600
674.000000	27.334900
673.000000	27.073100
672.000000	26.821400
671.000000	26.593700
670.000000	26.365900
669.000000	26.172100
668.000000	25.953700
667.000000	25.755500
666.000000	25.561100
665.000000	25.374100
664.000000	25.201300
663.000000	25.002100
662.000000	24.812300
661.000000	24.641700
660.000000	24.463000
659.000000	24.301000
658.000000	24.113300
657.000000	23.930300
656.000000	23.788200
655.000000	23.634400
654.000000	23.475100
653.000000	23.324600
652.000000	23.190700
651.000000	23.035700
650.000000	22.891200
649.000000	22.752900
648.000000	22.626900
647.000000	22.510900
646.000000	22.388300
645.000000	22.279000
644.000000	22.159600
643.000000	22.068800
642.000000	21.968900
641.000000	21.851100
640.000000	21.770500
639.000000	21.690300
638.000000	21.621900
637.000000	21.565900
636.000000	21.489300
635.000000	21.441300
634.000000	21.403200
633.000000	21.371800
632.000000	21.351600
631.000000	21.325800
630.000000	21.324600
629.000000	21.342300
628.000000	21.349000
627.000000	21.358700
626.000000	21.385300
625.000000	21.424600
624.000000	21.462200
623.000000	21.513700
622.000000	21.570000
621.000000	21.624100
620.000000	21.678300
619.000000	21.744800
618.000000	21.824000
617.000000	21.897900
616.000000	21.981400
615.000000	22.068600
614.000000	22.166000
613.000000	22.277700
612.000000	22.375600
611.000000	22.454200
610.000000	22.535000
609.000000	22.617600
608.000000	22.691900
607.000000	22.797000
606.000000	22.898100
605.000000	22.994500
604.000000	23.101900
603.000000	23.205400
602.000000	23.304400
601.000000	23.395200
600.000000	23.489000
599.000000	23.592900
598.000000	23.685500
597.000000	23.765800
596.000000	23.858000
595.000000	23.934500
594.000000	24.008300
593.000000	24.084900
592.000000	24.165100
591.000000	24.261600
590.000000	24.334500
589.000000	24.398000
588.000000	24.469700
587.000000	24.553000
586.000000	24.624700
585.000000	24.679700
584.000000	24.736400
583.000000	24.822300
582.000000	24.890100
581.000000	24.934200
580.000000	24.986000
579.000000	25.045100
578.000000	25.088500
577.000000	25.153700
576.000000	25.203300
575.000000	25.222800
574.000000	25.216800
573.000000	25.264300
572.000000	25.307600
571.000000	25.317000
570.000000	25.330400
569.000000	25.352500
568.000000	25.347300
567.000000	25.333200
566.000000	25.342900
565.000000	25.339600
564.000000	25.327200
563.000000	25.317200
562.000000	25.281200
561.000000	25.252100
560.000000	25.221900
559.000000	25.233500
558.000000	25.204700
557.000000	25.166600
556.000000	25.121700
555.000000	25.055500
554.000000	24.989400
553.000000	24.901200
552.000000	24.806000
551.000000	24.715500
550.000000	24.612700
549.000000	24.525400
548.000000	24.412700
547.000000	24.284200
546.000000	24.120800
545.000000	23.975500
544.000000	23.838000
543.000000	23.658100
542.000000	23.459100
541.000000	23.276200
540.000000	23.082300
539.000000	22.876900
538.000000	22.677000
537.000000	22.454200
536.000000	22.215400
535.000000	21.988600
534.000000	21.753700
533.000000	21.490900
532.000000	21.236500
531.000000	20.969000
530.000000	20.717900
529.000000	20.441300
528.000000	20.168700
527.000000	19.886700
526.000000	19.599200
525.000000	19.307300
524.000000	19.002100
523.000000	18.709200
522.000000	18.420300
521.000000	18.123100
520.000000	17.826800
519.000000	17.532700
518.000000	17.259800
517.000000	16.965400
516.000000	16.655100
515.000000	16.371200
514.000000	16.103700
513.000000	15.831500
512.000000	15.545500
511.000000	15.285200
510.000000	15.017600
509.000000	14.754200
508.000000	14.510700
507.000000	14.256700
506.000000	14.017100
505.000000	13.783100
504.000000	13.551300
503.000000	13.321800
502.000000	13.091200
501.000000	12.895500
500.000000	12.668700
499.000000	12.456800
498.000000	12.278100
497.000000	12.091200
496.000000	11.905600
495.000000	11.743200
494.000000	11.545700
493.000000	11.406400
492.000000	11.244800
491.000000	11.077100
490.000000	10.936000
489.000000	10.796900
488.000000	10.683600
487.000000	10.537800
486.000000	10.410000
485.000000	10.290500
484.000000	10.187900
483.000000	10.054200
482.000000	9.939600
481.000000	9.789500
480.000000	9.662600
479.000000	9.525100
478.000000	9.408500
477.000000	9.290600
476.000000	9.186300
475.000000	9.078900
474.000000	8.969500
473.000000	8.861000
472.000000	8.764100
471.000000	8.674100
470.000000	8.579400
469.000000	8.473600
468.000000	8.395000
467.000000	8.321900
466.000000	8.239900
465.000000	8.158400
464.000000	8.078100
463.000000	8.029500
462.000000	7.964700
461.000000	7.899700
460.000000	7.812100
459.000000	7.758200
458.000000	7.682100
457.000000	7.639100
456.000000	7.559000
455.000000	7.515200
454.000000	7.447600
453.000000	7.401100
452.000000	7.361800
451.000000	7.291500
450.000000	7.242100
449.000000	7.176500
448.000000	7.096200
447.000000	7.070000
446.000000	7.017900
445.000000	6.955500
444.000000	6.899700
443.000000	6.848500
442.000000	6.771800
441.000000	6.747800
440.000000	6.679300
439.000000	6.622600
438.000000	6.545600
437.000000	6.500400
436.000000	6.460900
435.000000	6.399600
434.000000	6.364900
433.000000	6.305700
432.000000	6.268600
431.000000	6.229900
430.000000	6.176200
429.000000	6.126100
428.000000	6.053900
427.000000	6.037300
426.000000	5.977400
425.000000	5.937200
424.000000	5.903200
423.000000	5.858900
422.000000	5.828100
421.000000	5.790900
420.000000	5.735600
419.000000	5.706200
418.000000	5.651700
417.000000	5.622300
416.000000	5.597200
415.000000	5.567800
414.000000	5.519000
413.000000	5.477200
412.000000	5.438400
411.000000	5.399600
410.000000	5.352400
409.000000	5.308200
408.000000	5.282500
407.000000	5.253500
406.000000	5.217600
405.000000	5.177100
404.000000	5.152100
403.000000	5.107500
402.000000	5.076500
401.000000	5.048700
400.000000	4.997400
399.000000	4.974500
398.000000	4.953100
397.000000	4.920100
396.000000	4.868300
395.000000	4.831200
394.000000	4.816400
393.000000	4.793000
392.000000	4.751900
391.000000	4.721000
390.000000	4.673600
389.000000	4.652500
388.000000	4.624100
387.000000	4.590700
386.000000	4.580600
385.000000	4.562500
384.000000	4.529000
383.000000	4.499100
382.000000	4.469900
381.000000	4.473500
380.000000	4.447300
379.000000	4.409600
378.000000	4.398300
377.000000	4.394800
376.000000	4.290700
375.000000	3.994200
374.000000	3.908500
373.000000	4.040300
372.000000	3.924000
371.000000	4.057400
370.000000	4.054400
369.000000	4.110100
368.000000	4.252400
367.000000	4.138500
366.000000	4.162500
365.000000	4.114300
364.000000	4.141700
363.000000	4.124400
362.000000	4.192100
361.000000	4.203500
360.000000	4.212900
359.000000	4.272400
358.000000	4.267300
357.000000	4.159300
356.000000	4.149400
355.000000	4.195400
354.000000	4.276300
353.000000	4.277700
352.000000	4.185700
351.000000	4.182000
350.000000	4.314700
349.000000	4.319700
348.000000	4.014300
347.000000	4.088900
346.000000	4.210800
345.000000	4.128000
344.000000	4.306300
343.000000	4.426000
342.000000	4.245300
341.000000	4.339200
340.000000	4.410300
339.000000	4.316900
338.000000	4.428400
337.000000	4.628700
336.000000	4.438400
335.000000	4.383700
334.000000	4.518300
333.000000	4.455000
332.000000	4.271400
331.000000	4.383000
330.000000	4.549100
329.000000	4.285900
328.000000	4.385900
327.000000	4.484100
326.000000	4.573400
325.000000	4.745200
324.000000	4.900800
323.000000	5.117400
322.000000	5.197300
321.000000	5.165700
320.000000	5.484100
319.000000	5.838100
318.000000	5.673500
317.000000	5.485900
316.000000	4.739000
315.000000	4.181300
314.000000	4.150400
313.000000	4.135100
312.000000	4.157400
311.000000	4.177600
310.000000	4.180000
309.000000	4.184200
308.000000	4.180300
307.000000	4.179400
306.000000	4.171900
305.000000	4.156300
304.000000	4.149500
303.000000	4.146100
302.000000	4.141900
301.000000	4.178500
300.000000	4.190500
299.000000	4.171200
298.000000	4.206300
297.000000	4.228100
296.000000	4.210000
295.000000	4.181100
294.000000	4.176900
293.000000	4.193200
292.000000	4.193200
291.000000	4.200500
290.000000	4.204900
289.000000	4.197800
288.000000	4.178200
287.000000	4.219200
286.000000	4.172400
285.000000	4.232000
284.000000	4.239500
283.000000	4.256900
282.000000	4.251100
281.000000	4.230500
280.000000	4.211600
279.000000	4.217600
278.000000	4.258900
277.000000	4.244400
276.000000	4.247000
275.000000	4.293200
274.000000	4.341600
273.000000	4.307800
272.000000	4.314700
271.000000	4.337400
270.000000	4.333600
269.000000	4.339500
268.000000	4.362900
267.000000	4.381200
266.000000	4.397600
265.000000	4.454900
264.000000	4.441200
263.000000	4.460200
262.000000	4.463500
261.000000	4.511300
260.000000	4.496000
259.000000	4.513200
258.000000	4.536200
257.000000	4.568900
256.000000	4.570300
255.000000	4.569900
254.000000	4.582900
253.000000	4.623000
252.000000	4.640200
251.000000	4.612100
250.000000	4.618200
