PE UV       SUBTECH     SPECTRUM    ASCII       PEDS        4.00        
   -1
CICIMAUCR0225-2.ASC
24/05/30
15:21:44.00
24/05/30
15:21:44.00
Vinicio Soto Monge
C. resplendens, F Ventral
250,000000
1
Lambda 1050
1050L1511233
PerkinElmer UV WinLab 6.3.2.0749 / 2.02.05 Lambda 900 UV/VIS/NIR, Aug  7 2015 09:38:08

0
0
3350/servo 860,8/2
0
0
UV/VIS
1
1
1
DoubleDePol,CommonBeamDepol,RBeamAtt,SBeamAtt,60mm sphere, WB InGaAs Detector
0
0
0
0
Program
Program
3350/servo 860,8/2
3350/0,2 860,8/0,2
3350/0,2 860,8/0,2
0
15.00
 
 
 
0
 
860,8
319,2
860,8
Front
100
on
S:100 R:100
0
0
0
0
 
0
 
 
 
0
 
 
0
0
0
0
0
 
 
 
 
0
0


0
0
#HDR
-1
-1
#GR
nm
%R
1.0
0.0
2500,000000
-1,000000
2251
8
55,860700
4,466100
#DATA
2500.000000	5.391332
2499.000000	5.325349
2498.000000	5.216443
2497.000000	5.258483
2496.000000	5.321707
2495.000000	5.309018
2494.000000	5.276358
2493.000000	5.131812
2492.000000	5.226153
2491.000000	5.193934
2490.000000	5.110516
2489.000000	5.092972
2488.000000	5.133688
2487.000000	5.257931
2486.000000	5.085910
2485.000000	5.153328
2484.000000	5.133798
2483.000000	5.103013
2482.000000	5.132253
2481.000000	5.148363
2480.000000	5.133136
2479.000000	5.111509
2478.000000	5.080835
2477.000000	5.044423
2476.000000	5.023237
2475.000000	5.081056
2474.000000	5.013307
2473.000000	5.050050
2472.000000	4.999404
2471.000000	5.008893
2470.000000	5.024892
2469.000000	5.047512
2468.000000	5.048284
2467.000000	5.029527
2466.000000	5.012424
2465.000000	5.025996
2464.000000	5.022134
2463.000000	5.034713
2462.000000	5.012424
2461.000000	5.031733
2460.000000	5.026327
2459.000000	4.999293
2458.000000	5.058767
2457.000000	5.079400
2456.000000	5.046519
2455.000000	5.099593
2454.000000	5.068146
2453.000000	5.051264
2452.000000	5.059539
2451.000000	5.092641
2450.000000	5.115371
2449.000000	5.118240
2448.000000	5.129495
2447.000000	5.138543
2446.000000	5.154101
2445.000000	5.180582
2444.000000	5.184334
2443.000000	5.200775
2442.000000	5.213133
2441.000000	5.228580
2440.000000	5.229132
2439.000000	5.261131
2438.000000	5.295226
2437.000000	5.295005
2436.000000	5.295336
2435.000000	5.313873
2434.000000	5.301736
2433.000000	5.306150
2432.000000	5.335279
2431.000000	5.337155
2430.000000	5.358009
2429.000000	5.348410
2428.000000	5.351058
2427.000000	5.391222
2426.000000	5.394642
2425.000000	5.402035
2424.000000	5.414062
2423.000000	5.415386
2422.000000	5.420462
2421.000000	5.443744
2420.000000	5.449261
2419.000000	5.452350
2418.000000	5.481259
2417.000000	5.479163
2416.000000	5.472212
2415.000000	5.480377
2414.000000	5.497921
2413.000000	5.486556
2412.000000	5.494059
2411.000000	5.513810
2410.000000	5.536429
2409.000000	5.532347
2408.000000	5.534002
2407.000000	5.541726
2406.000000	5.552650
2405.000000	5.550001
2404.000000	5.567766
2403.000000	5.559491
2402.000000	5.576924
2401.000000	5.583545
2400.000000	5.591710
2399.000000	5.604178
2398.000000	5.594910
2397.000000	5.580786
2396.000000	5.592593
2395.000000	5.604951
2394.000000	5.602303
2393.000000	5.602523
2392.000000	5.602303
2391.000000	5.607709
2390.000000	5.617530
2389.000000	5.623709
2388.000000	5.608923
2387.000000	5.604620
2386.000000	5.619185
2385.000000	5.617971
2384.000000	5.613116
2383.000000	5.612233
2382.000000	5.620288
2381.000000	5.626577
2380.000000	5.608923
2379.000000	5.586634
2378.000000	5.599765
2377.000000	5.606164
2376.000000	5.591931
2375.000000	5.575269
2374.000000	5.577917
2373.000000	5.577586
2372.000000	5.569421
2371.000000	5.562690
2370.000000	5.554525
2369.000000	5.549891
2368.000000	5.536871
2367.000000	5.526278
2366.000000	5.519327
2365.000000	5.512044
2364.000000	5.506196
2363.000000	5.480597
2362.000000	5.457426
2361.000000	5.460736
2360.000000	5.457647
2359.000000	5.458640
2358.000000	5.450033
2357.000000	5.418034
2356.000000	5.405456
2355.000000	5.402918
2354.000000	5.391994
2353.000000	5.397070
2352.000000	5.382946
2351.000000	5.378091
2350.000000	5.390118
2349.000000	5.392215
2348.000000	5.396849
2347.000000	5.397953
2346.000000	5.398063
2345.000000	5.397732
2344.000000	5.408545
2343.000000	5.418034
2342.000000	5.424545
2341.000000	5.429620
2340.000000	5.421565
2339.000000	5.428517
2338.000000	5.439109
2337.000000	5.430393
2336.000000	5.425869
2335.000000	5.435910
2334.000000	5.430393
2333.000000	5.415276
2332.000000	5.416159
2331.000000	5.408987
2330.000000	5.409649
2329.000000	5.400380
2328.000000	5.373347
2327.000000	5.366726
2326.000000	5.351830
2325.000000	5.332410
2324.000000	5.316853
2323.000000	5.309129
2322.000000	5.286068
2321.000000	5.271503
2320.000000	5.257600
2319.000000	5.238070
2318.000000	5.211919
2317.000000	5.193271
2316.000000	5.181686
2315.000000	5.157963
2314.000000	5.144832
2313.000000	5.117247
2312.000000	5.093414
2311.000000	5.101137
2310.000000	5.109523
2309.000000	5.087786
2308.000000	5.048395
2307.000000	5.041995
2306.000000	5.031071
2305.000000	5.019155
2304.000000	5.017169
2303.000000	5.042657
2302.000000	5.046740
2301.000000	5.046188
2300.000000	5.063732
2299.000000	5.077525
2298.000000	5.073883
2297.000000	5.099151
2296.000000	5.115813
2295.000000	5.116254
2294.000000	5.121661
2293.000000	5.135122
2292.000000	5.149908
2291.000000	5.163811
2290.000000	5.152115
2289.000000	5.163369
2288.000000	5.170100
2287.000000	5.175065
2286.000000	5.153218
2285.000000	5.163369
2284.000000	5.148253
2283.000000	5.155314
2282.000000	5.156859
2281.000000	5.136667
2280.000000	5.130488
2279.000000	5.134681
2278.000000	5.103455
2277.000000	5.104558
2276.000000	5.106765
2275.000000	5.074766
2274.000000	5.085138
2273.000000	5.078297
2272.000000	5.083152
2271.000000	5.068366
2270.000000	5.077635
2269.000000	5.094407
2268.000000	5.100034
2267.000000	5.109303
2266.000000	5.101799
2265.000000	5.139757
2264.000000	5.167893
2263.000000	5.199671
2262.000000	5.221298
2261.000000	5.243918
2260.000000	5.298867
2259.000000	5.306370
2258.000000	5.359333
2257.000000	5.411745
2256.000000	5.472874
2255.000000	5.501452
2254.000000	5.554856
2253.000000	5.633308
2252.000000	5.662548
2251.000000	5.729966
2250.000000	5.791646
2249.000000	5.847147
2248.000000	5.904083
2247.000000	5.946123
2246.000000	6.000079
2245.000000	6.029650
2244.000000	6.085372
2243.000000	6.132598
2242.000000	6.164817
2241.000000	6.218773
2240.000000	6.260923
2239.000000	6.283653
2238.000000	6.307928
2237.000000	6.350961
2236.000000	6.367070
2235.000000	6.393442
2234.000000	6.390573
2233.000000	6.442653
2232.000000	6.456446
2231.000000	6.490320
2230.000000	6.481714
2229.000000	6.526512
2228.000000	6.522429
2227.000000	6.538208
2226.000000	6.532691
2225.000000	6.535781
2224.000000	6.535891
2223.000000	6.545380
2222.000000	6.540636
2221.000000	6.560828
2220.000000	6.542511
2219.000000	6.524636
2218.000000	6.511616
2217.000000	6.521436
2216.000000	6.508085
2215.000000	6.510733
2214.000000	6.486790
2213.000000	6.484914
2212.000000	6.484693
2211.000000	6.485024
2210.000000	6.476969
2209.000000	6.472997
2208.000000	6.471894
2207.000000	6.484472
2206.000000	6.467039
2205.000000	6.445633
2204.000000	6.431288
2203.000000	6.454791
2202.000000	6.431950
2201.000000	6.444088
2200.000000	6.439343
2199.000000	6.434819
2198.000000	6.439454
2197.000000	6.430075
2196.000000	6.433606
2195.000000	6.428309
2194.000000	6.432282
2193.000000	6.423454
2192.000000	6.416834
2191.000000	6.413744
2190.000000	6.402269
2189.000000	6.424006
2188.000000	6.415179
2187.000000	6.399731
2186.000000	6.396200
2185.000000	6.383401
2184.000000	6.387373
2183.000000	6.380201
2182.000000	6.362326
2181.000000	6.374905
2180.000000	6.388256
2179.000000	6.369719
2178.000000	6.346327
2177.000000	6.361884
2176.000000	6.356698
2175.000000	6.375456
2174.000000	6.372587
2173.000000	6.357692
2172.000000	6.338713
2171.000000	6.346106
2170.000000	6.360119
2169.000000	6.359788
2168.000000	6.365857
2167.000000	6.375015
2166.000000	6.370601
2165.000000	6.382849
2164.000000	6.393221
2163.000000	6.386711
2162.000000	6.400724
2161.000000	6.435592
2160.000000	6.430957
2159.000000	6.418489
2158.000000	6.428530
2157.000000	6.446846
2156.000000	6.457218
2155.000000	6.447839
2154.000000	6.468583
2153.000000	6.480390
2152.000000	6.489327
2151.000000	6.495506
2150.000000	6.515809
2149.000000	6.519450
2148.000000	6.544277
2147.000000	6.545270
2146.000000	6.562042
2145.000000	6.589737
2144.000000	6.575613
2143.000000	6.602867
2142.000000	6.606840
2141.000000	6.599116
2140.000000	6.599778
2139.000000	6.606840
2138.000000	6.625487
2137.000000	6.647335
2136.000000	6.647114
2135.000000	6.654617
2134.000000	6.656603
2133.000000	6.664989
2132.000000	6.663555
2131.000000	6.680988
2130.000000	6.683636
2129.000000	6.674699
2128.000000	6.657155
2127.000000	6.650645
2126.000000	6.672492
2125.000000	6.669292
2124.000000	6.665982
2123.000000	6.662341
2122.000000	6.648990
2121.000000	6.649541
2120.000000	6.640162
2119.000000	6.633432
2118.000000	6.629680
2117.000000	6.614674
2116.000000	6.613791
2115.000000	6.596799
2114.000000	6.590620
2113.000000	6.586537
2112.000000	6.569986
2111.000000	6.562924
2110.000000	6.555090
2109.000000	6.571862
2108.000000	6.552994
2107.000000	6.528609
2106.000000	6.518016
2105.000000	6.506099
2104.000000	6.508196
2103.000000	6.499148
2102.000000	6.479948
2101.000000	6.479838
2100.000000	6.474652
2099.000000	6.464059
2098.000000	6.456336
2097.000000	6.444971
2096.000000	6.443095
2095.000000	6.442322
2094.000000	6.422241
2093.000000	6.414406
2092.000000	6.423454
2091.000000	6.420475
2090.000000	6.413524
2089.000000	6.400283
2088.000000	6.390242
2087.000000	6.387152
2086.000000	6.389028
2085.000000	6.380973
2084.000000	6.367181
2083.000000	6.363981
2082.000000	6.348423
2081.000000	6.333637
2080.000000	6.336065
2079.000000	6.334851
2078.000000	6.315762
2077.000000	6.315873
2076.000000	6.311790
2075.000000	6.304066
2074.000000	6.295460
2073.000000	6.287957
2072.000000	6.280122
2071.000000	6.270302
2070.000000	6.258496
2069.000000	6.245476
2068.000000	6.248013
2067.000000	6.239517
2066.000000	6.235545
2065.000000	6.216566
2064.000000	6.193505
2063.000000	6.188430
2062.000000	6.175851
2061.000000	6.179933
2060.000000	6.183244
2059.000000	6.167906
2058.000000	6.164927
2057.000000	6.174306
2056.000000	6.169562
2055.000000	6.160072
2054.000000	6.169230
2053.000000	6.177727
2052.000000	6.175410
2051.000000	6.193285
2050.000000	6.211160
2049.000000	6.233007
2048.000000	6.257392
2047.000000	6.284426
2046.000000	6.301418
2045.000000	6.331651
2044.000000	6.355705
2043.000000	6.383180
2042.000000	6.419813
2041.000000	6.439785
2040.000000	6.461301
2039.000000	6.505106
2038.000000	6.529491
2037.000000	6.553656
2036.000000	6.575393
2035.000000	6.595916
2034.000000	6.628797
2033.000000	6.638838
2032.000000	6.647445
2031.000000	6.668741
2030.000000	6.680326
2029.000000	6.711663
2028.000000	6.735496
2027.000000	6.751827
2026.000000	6.766171
2025.000000	6.782281
2024.000000	6.769371
2023.000000	6.763854
2022.000000	6.766833
2021.000000	6.788129
2020.000000	6.802914
2019.000000	6.822555
2018.000000	6.817810
2017.000000	6.815052
2016.000000	6.823327
2015.000000	6.822003
2014.000000	6.820458
2013.000000	6.824982
2012.000000	6.812845
2011.000000	6.817589
2010.000000	6.805121
2009.000000	6.804238
2008.000000	6.799273
2007.000000	6.799714
2006.000000	6.785370
2005.000000	6.764626
2004.000000	6.737151
2003.000000	6.738365
2002.000000	6.722587
2001.000000	6.712987
2000.000000	6.702174
1999.000000	6.684078
1998.000000	6.677899
1997.000000	6.661679
1996.000000	6.629570
1995.000000	6.603861
1994.000000	6.579144
1993.000000	6.574069
1992.000000	6.557076
1991.000000	6.519450
1990.000000	6.477962
1989.000000	6.456777
1988.000000	6.439454
1987.000000	6.417386
1986.000000	6.393552
1985.000000	6.371484
1984.000000	6.354712
1983.000000	6.350409
1982.000000	6.312011
1981.000000	6.269419
1980.000000	6.248786
1979.000000	6.227490
1978.000000	6.193505
1977.000000	6.177837
1976.000000	6.152900
1975.000000	6.136018
1974.000000	6.096185
1973.000000	6.065180
1972.000000	6.060656
1971.000000	6.036491
1970.000000	6.021485
1969.000000	6.019389
1968.000000	5.994672
1967.000000	5.956164
1966.000000	5.954288
1965.000000	5.935640
1964.000000	5.897904
1963.000000	5.885767
1962.000000	5.884663
1961.000000	5.871753
1960.000000	5.852554
1959.000000	5.836886
1958.000000	5.817356
1957.000000	5.812942
1956.000000	5.804004
1955.000000	5.777743
1954.000000	5.757331
1953.000000	5.753910
1952.000000	5.738904
1951.000000	5.716063
1950.000000	5.706905
1949.000000	5.708671
1948.000000	5.708891
1947.000000	5.682520
1946.000000	5.668948
1945.000000	5.664424
1944.000000	5.657804
1943.000000	5.659128
1942.000000	5.650632
1941.000000	5.666631
1940.000000	5.660452
1939.000000	5.648645
1938.000000	5.671376
1937.000000	5.666190
1936.000000	5.672920
1935.000000	5.667183
1934.000000	5.683072
1933.000000	5.662990
1932.000000	5.686382
1931.000000	5.694326
1930.000000	5.720367
1929.000000	5.720146
1928.000000	5.760089
1927.000000	5.777081
1926.000000	5.775095
1925.000000	5.819452
1924.000000	5.839093
1923.000000	5.856416
1922.000000	5.865023
1921.000000	5.929461
1920.000000	5.961681
1919.000000	5.988273
1918.000000	6.024133
1917.000000	6.067497
1916.000000	6.084710
1915.000000	6.145728
1914.000000	6.174748
1913.000000	6.249337
1912.000000	6.271185
1911.000000	6.344782
1910.000000	6.405690
1909.000000	6.449605
1908.000000	6.488555
1907.000000	6.553876
1906.000000	6.625929
1905.000000	6.689153
1904.000000	6.786915
1903.000000	6.861946
1902.000000	6.944701
1901.000000	7.025360
1900.000000	7.113963
1899.000000	7.193519
1898.000000	7.320961
1897.000000	7.423467
1896.000000	7.516484
1895.000000	7.612922
1894.000000	7.719290
1893.000000	7.813189
1892.000000	7.922536
1891.000000	8.121259
1890.000000	8.280590
1889.000000	8.414653
1888.000000	8.585460
1887.000000	8.765204
1886.000000	8.939431
1885.000000	9.140361
1884.000000	9.407825
1883.000000	9.699896
1882.000000	10.009842
1881.000000	10.310077
1880.000000	10.630505
1879.000000	10.943099
1878.000000	11.269375
1877.000000	11.595761
1876.000000	11.929651
1875.000000	12.291566
1874.000000	12.633400
1873.000000	12.929443
1872.000000	13.267305
1871.000000	13.583760
1870.000000	13.855308
1869.000000	14.141530
1868.000000	14.403698
1867.000000	14.576160
1866.000000	14.746194
1865.000000	14.875954
1864.000000	14.989715
1863.000000	15.081849
1862.000000	15.164384
1861.000000	15.270862
1860.000000	15.392898
1859.000000	15.493639
1858.000000	15.595152
1857.000000	15.651094
1856.000000	15.702182
1855.000000	15.724470
1854.000000	15.731312
1853.000000	15.737601
1852.000000	15.725243
1851.000000	15.702954
1850.000000	15.691258
1849.000000	15.672721
1848.000000	15.684086
1847.000000	15.673604
1846.000000	15.658708
1845.000000	15.607400
1844.000000	15.539540
1843.000000	15.492315
1842.000000	15.470467
1841.000000	15.472122
1840.000000	15.479515
1839.000000	15.458440
1838.000000	15.421587
1837.000000	15.397201
1836.000000	15.380209
1835.000000	15.349314
1834.000000	15.277262
1833.000000	15.206754
1832.000000	15.141764
1831.000000	15.081077
1830.000000	15.024252
1829.000000	14.955510
1828.000000	14.905415
1827.000000	14.860727
1826.000000	14.778414
1825.000000	14.715189
1824.000000	14.669398
1823.000000	14.613345
1822.000000	14.575939
1821.000000	14.557182
1820.000000	14.546258
1819.000000	14.536548
1818.000000	14.509404
1817.000000	14.482371
1816.000000	14.460965
1815.000000	14.446400
1814.000000	14.436911
1813.000000	14.415174
1812.000000	14.410098
1811.000000	14.396306
1810.000000	14.369272
1809.000000	14.338487
1808.000000	14.303620
1807.000000	14.270628
1806.000000	14.238078
1805.000000	14.202990
1804.000000	14.154771
1803.000000	14.107325
1802.000000	14.071133
1801.000000	14.028762
1800.000000	13.969068
1799.000000	13.925153
1798.000000	13.888741
1797.000000	13.846370
1796.000000	13.807641
1795.000000	13.761849
1794.000000	13.724334
1793.000000	13.684280
1792.000000	13.632641
1791.000000	13.595456
1790.000000	13.547900
1789.000000	13.482468
1788.000000	13.444401
1787.000000	13.399603
1786.000000	13.344543
1785.000000	13.289483
1784.000000	13.226920
1783.000000	13.160606
1782.000000	13.093188
1781.000000	13.014074
1780.000000	12.954601
1779.000000	12.910134
1778.000000	12.851764
1777.000000	12.779491
1776.000000	12.703356
1775.000000	12.623580
1774.000000	12.537073
1773.000000	12.432471
1772.000000	12.334047
1771.000000	12.261995
1770.000000	12.173833
1769.000000	12.084789
1768.000000	11.982835
1767.000000	11.890480
1766.000000	11.827476
1765.000000	11.759285
1764.000000	11.697605
1763.000000	11.650159
1762.000000	11.639897
1761.000000	11.665496
1760.000000	11.678296
1759.000000	11.732473
1758.000000	11.783891
1757.000000	11.822510
1756.000000	11.874260
1755.000000	11.904052
1754.000000	11.945760
1753.000000	11.963415
1752.000000	11.986145
1751.000000	11.980628
1750.000000	11.982173
1749.000000	11.950726
1748.000000	11.914203
1747.000000	11.880218
1746.000000	11.819531
1745.000000	11.762485
1744.000000	11.682158
1743.000000	11.570824
1742.000000	11.454305
1741.000000	11.327966
1740.000000	11.173048
1739.000000	11.024530
1738.000000	10.865640
1737.000000	10.714915
1736.000000	10.610975
1735.000000	10.520937
1734.000000	10.446127
1733.000000	10.392943
1732.000000	10.380916
1731.000000	10.399784
1730.000000	10.466098
1729.000000	10.530758
1728.000000	10.596300
1727.000000	10.678724
1726.000000	10.778913
1725.000000	10.815546
1724.000000	10.880867
1723.000000	10.927431
1722.000000	10.947071
1721.000000	10.984256
1720.000000	11.013717
1719.000000	11.010737
1718.000000	11.015482
1717.000000	11.049467
1716.000000	11.073300
1715.000000	11.128470
1714.000000	11.167972
1713.000000	11.196992
1712.000000	11.267278
1711.000000	11.292546
1710.000000	11.314835
1709.000000	11.325317
1708.000000	11.340655
1707.000000	11.333924
1706.000000	11.298505
1705.000000	11.271692
1704.000000	11.242452
1703.000000	11.185737
1702.000000	11.123836
1701.000000	11.053329
1700.000000	10.969250
1699.000000	10.851186
1698.000000	10.760155
1697.000000	10.657428
1696.000000	10.585486
1695.000000	10.537819
1694.000000	10.541019
1693.000000	10.571915
1692.000000	10.653235
1691.000000	10.741949
1690.000000	10.830442
1689.000000	10.951926
1688.000000	11.040860
1687.000000	11.109051
1686.000000	11.151973
1685.000000	11.160359
1684.000000	11.184523
1683.000000	11.228659
1682.000000	11.376515
1681.000000	11.612312
1680.000000	11.917734
1679.000000	12.276119
1678.000000	12.709535
1677.000000	13.133683
1676.000000	13.560699
1675.000000	13.952848
1674.000000	14.303178
1673.000000	14.594918
1672.000000	14.888754
1671.000000	15.118482
1670.000000	15.304626
1669.000000	15.484701
1668.000000	15.636750
1667.000000	15.806233
1666.000000	15.909621
1665.000000	16.017865
1664.000000	16.103599
1663.000000	16.179293
1662.000000	16.264806
1661.000000	16.306184
1660.000000	16.363671
1659.000000	16.401518
1658.000000	16.457129
1657.000000	16.451061
1656.000000	16.481515
1655.000000	16.469377
1654.000000	16.464522
1653.000000	16.460109
1652.000000	16.470701
1651.000000	16.421600
1650.000000	16.412000
1649.000000	16.380664
1648.000000	16.334321
1647.000000	16.301219
1646.000000	16.252338
1645.000000	16.207319
1644.000000	16.164507
1643.000000	16.124674
1642.000000	16.068622
1641.000000	16.030996
1640.000000	15.968653
1639.000000	15.906973
1638.000000	15.859968
1637.000000	15.771255
1636.000000	15.716085
1635.000000	15.637964
1634.000000	15.606186
1633.000000	15.544506
1632.000000	15.461530
1631.000000	15.384292
1630.000000	15.308378
1629.000000	15.225402
1628.000000	15.158536
1627.000000	15.077436
1626.000000	15.027783
1625.000000	14.960696
1624.000000	14.899347
1623.000000	14.805557
1622.000000	14.725119
1621.000000	14.657481
1620.000000	14.614669
1619.000000	14.539748
1618.000000	14.475420
1617.000000	14.384830
1616.000000	14.353383
1615.000000	14.280448
1614.000000	14.210824
1613.000000	14.128951
1612.000000	14.098608
1611.000000	14.018501
1610.000000	13.985288
1609.000000	13.924822
1608.000000	13.876383
1607.000000	13.801903
1606.000000	13.741657
1605.000000	13.677991
1604.000000	13.629000
1603.000000	13.559706
1602.000000	13.510605
1601.000000	13.468455
1600.000000	13.421229
1599.000000	13.357011
1598.000000	13.300186
1597.000000	13.245568
1596.000000	13.178260
1595.000000	13.150675
1594.000000	13.090871
1593.000000	13.048390
1592.000000	12.988365
1591.000000	12.956366
1590.000000	12.917857
1589.000000	12.869639
1588.000000	12.838964
1587.000000	12.799793
1586.000000	12.777836
1585.000000	12.734693
1584.000000	12.687467
1583.000000	12.650393
1582.000000	12.624463
1581.000000	12.604712
1580.000000	12.578672
1579.000000	12.556714
1578.000000	12.551859
1577.000000	12.529570
1576.000000	12.513019
1575.000000	12.484993
1574.000000	12.487420
1573.000000	12.498785
1572.000000	12.487200
1571.000000	12.480138
1570.000000	12.483558
1569.000000	12.504854
1568.000000	12.493599
1567.000000	12.488965
1566.000000	12.512578
1565.000000	12.513350
1564.000000	12.526922
1563.000000	12.531667
1562.000000	12.531998
1561.000000	12.535529
1560.000000	12.563776
1559.000000	12.559472
1558.000000	12.564879
1557.000000	12.565320
1556.000000	12.549652
1555.000000	12.541818
1554.000000	12.546342
1553.000000	12.537625
1552.000000	12.523943
1551.000000	12.516991
1550.000000	12.513902
1549.000000	12.513240
1548.000000	12.491172
1547.000000	12.465242
1546.000000	12.446594
1545.000000	12.440195
1544.000000	12.433133
1543.000000	12.419120
1542.000000	12.406541
1541.000000	12.393852
1540.000000	12.384914
1539.000000	12.370018
1538.000000	12.369246
1537.000000	12.364391
1536.000000	12.350378
1535.000000	12.335702
1534.000000	12.330627
1533.000000	12.322462
1532.000000	12.317055
1531.000000	12.289029
1530.000000	12.267292
1529.000000	12.240258
1528.000000	12.219956
1527.000000	12.199984
1526.000000	12.177033
1525.000000	12.151545
1524.000000	12.135214
1523.000000	12.102443
1522.000000	12.067134
1521.000000	12.047494
1520.000000	12.025205
1519.000000	12.000048
1518.000000	11.967828
1517.000000	11.934616
1516.000000	11.902728
1515.000000	11.862122
1514.000000	11.834758
1513.000000	11.818207
1512.000000	11.791505
1511.000000	11.756637
1510.000000	11.721439
1509.000000	11.688006
1508.000000	11.662848
1507.000000	11.620808
1506.000000	11.576672
1505.000000	11.544012
1504.000000	11.508372
1503.000000	11.480014
1502.000000	11.460484
1501.000000	11.432347
1500.000000	11.389425
1499.000000	11.359854
1498.000000	11.341206
1497.000000	11.316159
1496.000000	11.291774
1495.000000	11.258562
1494.000000	11.238921
1493.000000	11.217405
1492.000000	11.198316
1491.000000	11.188606
1490.000000	11.186951
1489.000000	11.168083
1488.000000	11.151863
1487.000000	11.150207
1486.000000	11.115671
1485.000000	11.096030
1484.000000	11.084996
1483.000000	11.079259
1482.000000	11.078597
1481.000000	11.068225
1480.000000	11.059839
1479.000000	11.052556
1478.000000	11.043729
1477.000000	11.045826
1476.000000	11.051232
1475.000000	11.067452
1474.000000	11.047922
1473.000000	11.057301
1472.000000	11.069549
1471.000000	11.066680
1470.000000	11.056418
1469.000000	11.067232
1468.000000	11.076942
1467.000000	11.100775
1466.000000	11.106402
1465.000000	11.111588
1464.000000	11.120085
1463.000000	11.141932
1462.000000	11.174703
1461.000000	11.191916
1460.000000	11.214977
1459.000000	11.250507
1458.000000	11.262313
1457.000000	11.297512
1456.000000	11.364709
1455.000000	11.416017
1454.000000	11.454305
1453.000000	11.487297
1452.000000	11.534302
1451.000000	11.599844
1450.000000	11.676199
1449.000000	11.722101
1448.000000	11.776829
1447.000000	11.841378
1446.000000	11.910782
1445.000000	11.979635
1444.000000	12.060404
1443.000000	12.122746
1442.000000	12.210246
1441.000000	12.275346
1440.000000	12.347068
1439.000000	12.437767
1438.000000	12.504192
1437.000000	12.596767
1436.000000	12.688350
1435.000000	12.755878
1434.000000	12.853639
1433.000000	12.948201
1432.000000	13.058541
1431.000000	13.145379
1430.000000	13.242478
1429.000000	13.357673
1428.000000	13.465034
1427.000000	13.593250
1426.000000	13.729078
1425.000000	13.865790
1424.000000	14.017618
1423.000000	14.174191
1422.000000	14.370155
1421.000000	14.535334
1420.000000	14.714416
1419.000000	14.913139
1418.000000	15.106676
1417.000000	15.290503
1416.000000	15.490880
1415.000000	15.713878
1414.000000	15.916683
1413.000000	16.181058
1412.000000	16.415641
1411.000000	16.622088
1410.000000	16.870133
1409.000000	17.204243
1408.000000	17.566379
1407.000000	17.924102
1406.000000	18.290763
1405.000000	18.652127
1404.000000	19.061820
1403.000000	19.470410
1402.000000	19.886392
1401.000000	20.246763
1400.000000	20.714937
1399.000000	21.183552
1398.000000	21.518434
1397.000000	21.799801
1396.000000	22.122547
1395.000000	22.503000
1394.000000	22.860171
1393.000000	23.124546
1392.000000	23.400727
1391.000000	23.724907
1390.000000	24.048093
1389.000000	24.365873
1388.000000	24.755153
1387.000000	25.247160
1386.000000	25.711361
1385.000000	26.282041
1384.000000	26.831756
1383.000000	27.535726
1382.000000	28.197767
1381.000000	28.854291
1380.000000	29.382490
1379.000000	29.735137
1378.000000	30.030738
1377.000000	30.225599
1376.000000	30.439990
1375.000000	30.685056
1374.000000	30.965320
1373.000000	31.341580
1372.000000	31.744432
1371.000000	32.217240
1370.000000	32.737935
1369.000000	33.178413
1368.000000	33.580272
1367.000000	33.997468
1366.000000	34.353536
1365.000000	34.653110
1364.000000	34.955552
1363.000000	35.196756
1362.000000	35.432663
1361.000000	35.718665
1360.000000	35.928863
1359.000000	36.012611
1358.000000	36.147447
1357.000000	36.288572
1356.000000	36.501308
1355.000000	36.831667
1354.000000	37.311205
1353.000000	37.947978
1352.000000	38.532119
1351.000000	39.265882
1350.000000	39.951094
1349.000000	40.602984
1348.000000	41.185691
1347.000000	41.759460
1346.000000	42.316567
1345.000000	42.772162
1344.000000	43.252693
1343.000000	43.753086
1342.000000	44.226115
1341.000000	44.639118
1340.000000	45.063376
1339.000000	45.502751
1338.000000	45.918181
1337.000000	46.314965
1336.000000	46.710424
1335.000000	47.108642
1334.000000	47.494391
1333.000000	47.856859
1332.000000	48.217561
1331.000000	48.549795
1330.000000	48.893174
1329.000000	49.229380
1328.000000	49.533919
1327.000000	49.829190
1326.000000	50.110226
1325.000000	50.394131
1324.000000	50.662920
1323.000000	50.907213
1322.000000	51.125025
1321.000000	51.358615
1320.000000	51.595405
1319.000000	51.803286
1318.000000	52.003443
1317.000000	52.186939
1316.000000	52.367014
1315.000000	52.550620
1314.000000	52.725068
1313.000000	52.885282
1312.000000	53.030821
1311.000000	53.167091
1310.000000	53.319029
1309.000000	53.439521
1308.000000	53.564536
1307.000000	53.665277
1306.000000	53.760942
1305.000000	53.838400
1304.000000	53.933845
1303.000000	53.997842
1302.000000	54.037896
1301.000000	54.089093
1300.000000	54.135326
1299.000000	54.163794
1298.000000	54.189613
1297.000000	54.207157
1296.000000	54.222274
1295.000000	54.245335
1294.000000	54.259459
1293.000000	54.256810
1292.000000	54.247873
1291.000000	54.241032
1290.000000	54.227901
1289.000000	54.182220
1288.000000	54.148125
1287.000000	54.110610
1286.000000	54.061288
1285.000000	53.985815
1284.000000	53.920825
1283.000000	53.848441
1282.000000	53.776831
1281.000000	53.679400
1280.000000	53.602603
1279.000000	53.515655
1278.000000	53.424625
1277.000000	53.351138
1276.000000	53.275003
1275.000000	53.196441
1274.000000	53.135533
1273.000000	53.067343
1272.000000	53.007318
1271.000000	52.947734
1270.000000	52.879655
1269.000000	52.831657
1268.000000	52.774059
1267.000000	52.710282
1266.000000	52.642423
1265.000000	52.566730
1264.000000	52.509353
1263.000000	52.430570
1262.000000	52.358518
1261.000000	52.287459
1260.000000	52.211986
1259.000000	52.128900
1258.000000	52.048903
1257.000000	51.983361
1256.000000	51.903254
1255.000000	51.797217
1254.000000	51.695153
1253.000000	51.608977
1252.000000	51.504374
1251.000000	51.394255
1250.000000	51.269681
1249.000000	51.144003
1248.000000	51.021084
1247.000000	50.882166
1246.000000	50.731110
1245.000000	50.566593
1244.000000	50.397552
1243.000000	50.217256
1242.000000	50.030781
1241.000000	49.837906
1240.000000	49.635874
1239.000000	49.435827
1238.000000	49.228608
1237.000000	49.024037
1236.000000	48.807550
1235.000000	48.571973
1234.000000	48.342466
1233.000000	48.099276
1232.000000	47.852335
1231.000000	47.607931
1230.000000	47.361100
1229.000000	47.107207
1228.000000	46.838419
1227.000000	46.560582
1226.000000	46.291904
1225.000000	46.020467
1224.000000	45.745720
1223.000000	45.468104
1222.000000	45.187509
1221.000000	44.925671
1220.000000	44.655890
1219.000000	44.381584
1218.000000	44.138173
1217.000000	43.893108
1216.000000	43.653118
1215.000000	43.435417
1214.000000	43.219150
1213.000000	43.012593
1212.000000	42.799306
1211.000000	42.606762
1210.000000	42.436507
1209.000000	42.256321
1208.000000	42.097873
1207.000000	41.956748
1206.000000	41.818933
1205.000000	41.715986
1204.000000	41.636651
1203.000000	41.563826
1202.000000	41.517484
1201.000000	41.467830
1200.000000	41.411998
1199.000000	41.336857
1198.000000	41.237219
1197.000000	41.102384
1196.000000	40.917123
1195.000000	40.671064
1194.000000	40.328568
1193.000000	39.925495
1192.000000	39.448826
1191.000000	38.888518
1190.000000	38.279882
1189.000000	37.695630
1188.000000	37.186741
1187.000000	36.767228
1186.000000	36.509363
1185.000000	36.429697
1184.000000	36.498660
1183.000000	36.753877
1182.000000	37.191817
1181.000000	37.756759
1180.000000	38.395297
1179.000000	39.083269
1178.000000	39.771571
1177.000000	40.371049
1176.000000	40.905647
1175.000000	41.386289
1174.000000	41.822905
1173.000000	42.242639
1172.000000	42.687090
1171.000000	43.137719
1170.000000	43.590334
1169.000000	44.061046
1168.000000	44.527454
1167.000000	44.998165
1166.000000	45.498447
1165.000000	45.980524
1164.000000	46.489302
1163.000000	46.991019
1162.000000	47.499025
1161.000000	48.031527
1160.000000	48.536885
1159.000000	49.009031
1158.000000	49.505231
1157.000000	49.977928
1156.000000	50.427564
1155.000000	50.788708
1154.000000	51.105605
1153.000000	51.352546
1152.000000	51.538249
1151.000000	51.660616
1150.000000	51.749771
1149.000000	51.817078
1148.000000	51.882179
1147.000000	51.968245
1146.000000	52.098115
1145.000000	52.296286
1144.000000	52.608990
1143.000000	52.970906
1142.000000	53.388323
1141.000000	53.870951
1140.000000	54.353358
1139.000000	54.889611
1138.000000	55.410417
1137.000000	55.946119
1136.000000	56.492413
1135.000000	57.095643
1134.000000	57.703176
1133.000000	58.235678
1132.000000	58.743905
1131.000000	59.210423
1130.000000	59.678486
1129.000000	60.043712
1128.000000	60.374843
1127.000000	60.640763
1126.000000	60.864864
1125.000000	61.026402
1124.000000	61.157927
1123.000000	61.280736
1122.000000	61.390083
1121.000000	61.471845
1120.000000	61.534188
1119.000000	61.574020
1118.000000	61.600833
1117.000000	61.636804
1116.000000	61.635149
1115.000000	61.632721
1114.000000	61.614515
1113.000000	61.598516
1112.000000	61.568503
1111.000000	61.541029
1110.000000	61.540698
1109.000000	61.519512
1108.000000	61.488396
1107.000000	61.462797
1106.000000	61.428702
1105.000000	61.395600
1104.000000	61.396262
1103.000000	61.363822
1102.000000	61.330831
1101.000000	61.295301
1100.000000	61.258558
1099.000000	61.226118
1098.000000	61.197981
1097.000000	61.146231
1096.000000	61.094482
1095.000000	61.032581
1094.000000	60.976528
1093.000000	60.911317
1092.000000	60.834410
1091.000000	60.793253
1090.000000	60.704650
1089.000000	60.648707
1088.000000	60.565842
1087.000000	60.498093
1086.000000	60.407945
1085.000000	60.330045
1084.000000	60.233387
1083.000000	60.150080
1082.000000	60.073063
1081.000000	59.964157
1080.000000	59.910642
1079.000000	59.797102
1078.000000	59.743366
1077.000000	59.636447
1076.000000	59.546740
1075.000000	59.458137
1074.000000	59.379795
1073.000000	59.296378
1072.000000	59.211195
1071.000000	59.114648
1070.000000	59.032003
1069.000000	58.933028
1068.000000	58.830301
1067.000000	58.769945
1066.000000	58.651109
1065.000000	58.567802
1064.000000	58.488688
1063.000000	58.373272
1062.000000	58.287758
1061.000000	58.184921
1060.000000	58.073147
1059.000000	57.970089
1058.000000	57.885458
1057.000000	57.770373
1056.000000	57.664888
1055.000000	57.537445
1054.000000	57.448180
1053.000000	57.322171
1052.000000	57.224741
1051.000000	57.110760
1050.000000	57.018074
1049.000000	56.933332
1048.000000	56.843957
1047.000000	56.753478
1046.000000	56.663661
1045.000000	56.559831
1044.000000	56.464718
1043.000000	56.387038
1042.000000	56.302959
1041.000000	56.202108
1040.000000	56.119574
1039.000000	56.036598
1038.000000	55.943360
1037.000000	55.845489
1036.000000	55.772995
1035.000000	55.651952
1034.000000	55.557059
1033.000000	55.440761
1032.000000	55.338586
1031.000000	55.223942
1030.000000	55.118898
1029.000000	55.000172
1028.000000	54.883212
1027.000000	54.781809
1026.000000	54.657566
1025.000000	54.534095
1024.000000	54.410183
1023.000000	54.289913
1022.000000	54.143381
1021.000000	54.014724
1020.000000	53.875475
1019.000000	53.770652
1018.000000	53.671676
1017.000000	53.556371
1016.000000	53.433893
1015.000000	53.338890
1014.000000	53.222150
1013.000000	53.117548
1012.000000	53.050902
1011.000000	52.988891
1010.000000	52.915515
1009.000000	52.863545
1008.000000	52.799879
1007.000000	52.772183
1006.000000	52.726944
1005.000000	52.696379
1004.000000	52.642533
1003.000000	52.584605
1002.000000	52.551282
1001.000000	52.495450
1000.000000	52.451093
999.000000	52.394820
998.000000	52.352890
997.000000	52.307430
996.000000	52.248178
995.000000	52.207021
994.000000	52.168843
993.000000	52.110363
992.000000	52.087633
991.000000	52.051882
990.000000	52.002781
989.000000	51.975417
988.000000	51.935253
987.000000	51.893434
986.000000	51.873793
985.000000	51.839698
984.000000	51.809796
983.000000	51.783645
982.000000	51.750764
981.000000	51.716228
980.000000	51.701111
979.000000	51.671650
978.000000	51.625197
977.000000	51.601253
976.000000	51.567268
975.000000	51.543545
974.000000	51.508678
973.000000	51.474251
972.000000	51.446777
971.000000	51.410254
970.000000	51.362808
969.000000	51.329816
968.000000	51.299252
967.000000	51.262398
966.000000	51.227420
965.000000	51.203256
964.000000	51.168499
963.000000	51.140583
962.000000	51.130321
961.000000	51.124142
960.000000	51.107481
959.000000	51.071510
958.000000	51.057276
957.000000	51.043594
956.000000	51.008285
955.000000	50.986548
954.000000	50.966356
953.000000	50.936453
952.000000	50.898938
951.000000	50.854691
950.000000	50.817727
949.000000	50.782860
948.000000	50.735193
947.000000	50.685098
946.000000	50.650121
945.000000	50.595061
944.000000	50.532608
943.000000	50.476224
942.000000	50.437274
941.000000	50.390269
940.000000	50.313914
939.000000	50.245724
938.000000	50.197284
937.000000	50.132294
936.000000	50.064435
935.000000	50.009706
934.000000	49.951557
933.000000	49.914924
932.000000	49.856885
931.000000	49.787040
930.000000	49.738600
929.000000	49.696892
928.000000	49.629584
927.000000	49.552125
926.000000	49.502141
925.000000	49.434172
924.000000	49.390698
923.000000	49.340714
922.000000	49.250345
921.000000	49.175424
920.000000	49.111537
919.000000	49.040147
918.000000	48.972508
917.000000	48.893505
916.000000	48.808653
915.000000	48.761317
914.000000	48.669845
913.000000	48.562705
912.000000	48.475205
911.000000	48.389802
910.000000	48.294026
909.000000	48.230470
908.000000	48.178390
907.000000	48.128516
906.000000	48.069374
905.000000	48.019941
904.000000	47.985074
903.000000	47.957048
902.000000	47.920304
901.000000	47.903201
900.000000	47.864472
899.000000	47.835011
898.000000	47.835232
897.000000	47.805550
896.000000	47.781496
895.000000	47.770573
894.000000	47.707789
893.000000	47.656591
892.000000	47.643681
891.000000	47.595242
890.000000	47.520873
889.000000	47.446393
888.000000	47.378424
887.000000	47.304716
886.000000	47.233547
885.000000	47.138875
884.000000	47.049168
883.000000	46.943131
882.000000	46.852542
881.000000	46.736133
880.000000	46.628331
879.000000	46.527590
878.000000	46.422767
877.000000	46.258912
876.000000	46.065155
875.000000	45.896886
874.000000	45.727514
873.000000	45.522612
872.000000	45.354895
871.000000	45.243341
870.000000	45.225135
869.000000	45.227121
868.000000	45.225797
867.000000	45.221052
866.000000	45.228224
865.000000	45.233300
864.000000	45.243230
863.000000	45.227121
862.000000	45.224693
861.000000	45.236169
860.000000	45.259450
859.000000	45.256471
858.000000	45.257133
857.000000	45.070400
856.000000	45.453200
855.000000	45.247800
854.000000	45.962800
853.000000	46.005800
852.000000	45.857800
851.000000	45.582800
850.000000	45.766400
849.000000	45.781000
848.000000	46.391500
847.000000	46.001700
846.000000	46.460600
845.000000	45.895600
844.000000	45.992400
843.000000	45.995400
842.000000	46.295500
841.000000	46.343700
840.000000	46.326200
839.000000	46.058700
838.000000	46.377500
837.000000	46.289600
836.000000	46.256800
835.000000	46.275200
834.000000	46.261900
833.000000	46.457400
832.000000	46.180600
831.000000	46.311800
830.000000	46.264000
829.000000	46.322000
828.000000	46.068700
827.000000	46.376300
826.000000	46.381700
825.000000	46.422300
824.000000	46.420000
823.000000	46.369500
822.000000	46.307400
821.000000	46.243800
820.000000	46.183100
819.000000	46.155100
818.000000	46.199400
817.000000	46.060900
816.000000	46.082900
815.000000	46.023200
814.000000	45.981400
813.000000	45.991000
812.000000	46.035400
811.000000	46.033400
810.000000	45.880600
809.000000	46.037200
808.000000	45.727200
807.000000	45.893400
806.000000	45.805400
805.000000	45.765600
804.000000	45.700800
803.000000	45.792600
802.000000	45.706400
801.000000	45.924700
800.000000	45.752600
799.000000	45.533300
798.000000	45.653800
797.000000	45.521600
796.000000	45.618400
795.000000	45.513300
794.000000	45.410400
793.000000	45.460900
792.000000	45.431100
791.000000	45.319000
790.000000	45.250700
789.000000	45.306600
788.000000	45.294100
787.000000	45.313600
786.000000	45.300300
785.000000	45.189900
784.000000	45.131100
783.000000	44.952000
782.000000	45.033700
781.000000	45.014200
780.000000	44.945100
779.000000	44.977400
778.000000	44.837800
777.000000	44.763900
776.000000	44.655800
775.000000	44.668800
774.000000	44.543800
773.000000	44.453000
772.000000	44.539100
771.000000	44.299900
770.000000	44.384700
769.000000	44.291200
768.000000	44.180500
767.000000	44.120500
766.000000	44.137100
765.000000	44.047600
764.000000	43.885700
763.000000	43.869100
762.000000	43.813100
761.000000	43.645800
760.000000	43.579300
759.000000	43.419800
758.000000	43.452500
757.000000	43.285400
756.000000	43.212100
755.000000	43.087200
754.000000	43.004000
753.000000	42.815200
752.000000	42.734100
751.000000	42.632800
750.000000	42.522900
749.000000	42.391900
748.000000	42.234800
747.000000	42.056900
746.000000	41.944300
745.000000	41.813700
744.000000	41.687600
743.000000	41.455100
742.000000	41.366700
741.000000	41.244200
740.000000	41.037400
739.000000	40.978100
738.000000	40.715700
737.000000	40.541300
736.000000	40.346500
735.000000	40.244600
734.000000	40.087700
733.000000	39.845100
732.000000	39.648700
731.000000	39.534700
730.000000	39.390100
729.000000	39.108400
728.000000	38.930500
727.000000	38.781300
726.000000	38.539400
725.000000	38.357700
724.000000	38.171700
723.000000	37.947200
722.000000	37.729500
721.000000	37.569800
720.000000	37.348300
719.000000	37.138500
718.000000	36.904400
717.000000	36.720300
716.000000	36.524400
715.000000	36.313100
714.000000	36.048300
713.000000	35.845400
712.000000	35.699100
711.000000	35.460200
710.000000	35.250200
709.000000	34.992400
708.000000	34.759100
707.000000	34.541600
706.000000	34.312800
705.000000	34.129800
704.000000	33.911100
703.000000	33.674500
702.000000	33.480300
701.000000	33.300100
700.000000	33.095500
699.000000	32.888300
698.000000	32.689200
697.000000	32.505600
696.000000	32.276800
695.000000	32.071800
694.000000	31.865300
693.000000	31.665800
692.000000	31.470700
691.000000	31.292400
690.000000	31.102900
689.000000	30.925900
688.000000	30.764200
687.000000	30.572900
686.000000	30.364300
685.000000	30.176900
684.000000	30.021200
683.000000	29.857100
682.000000	29.665900
681.000000	29.490600
680.000000	29.306000
679.000000	29.158900
678.000000	29.007400
677.000000	28.851600
676.000000	28.673500
675.000000	28.531700
674.000000	28.390500
673.000000	28.217000
672.000000	28.068800
671.000000	27.927000
670.000000	27.770000
669.000000	27.625000
668.000000	27.491400
667.000000	27.360000
666.000000	27.211600
665.000000	27.089100
664.000000	26.981000
663.000000	26.858400
662.000000	26.730200
661.000000	26.618700
660.000000	26.503300
659.000000	26.369600
658.000000	26.249500
657.000000	26.125100
656.000000	26.020300
655.000000	25.933600
654.000000	25.815600
653.000000	25.708100
652.000000	25.604000
651.000000	25.494000
650.000000	25.399900
649.000000	25.337900
648.000000	25.244100
647.000000	25.148200
646.000000	25.087700
645.000000	25.007500
644.000000	24.926200
643.000000	24.857000
642.000000	24.805500
641.000000	24.736800
640.000000	24.664300
639.000000	24.605700
638.000000	24.549100
637.000000	24.496900
636.000000	24.429000
635.000000	24.369900
634.000000	24.335300
633.000000	24.287400
632.000000	24.256800
631.000000	24.221700
630.000000	24.164600
629.000000	24.136400
628.000000	24.099100
627.000000	24.067600
626.000000	24.057200
625.000000	24.016700
624.000000	23.978000
623.000000	23.961800
622.000000	23.952400
621.000000	23.940500
620.000000	23.917900
619.000000	23.890400
618.000000	23.895600
617.000000	23.916100
616.000000	23.910100
615.000000	23.894600
614.000000	23.894800
613.000000	23.915500
612.000000	23.929100
611.000000	23.929200
610.000000	23.936600
609.000000	23.946900
608.000000	23.971000
607.000000	23.993500
606.000000	24.031200
605.000000	24.060000
604.000000	24.094800
603.000000	24.117100
602.000000	24.130900
601.000000	24.163400
600.000000	24.197100
599.000000	24.205700
598.000000	24.218600
597.000000	24.242000
596.000000	24.274800
595.000000	24.310000
594.000000	24.319200
593.000000	24.352300
592.000000	24.363700
591.000000	24.389200
590.000000	24.411800
589.000000	24.428700
588.000000	24.420400
587.000000	24.450300
586.000000	24.471500
585.000000	24.448600
584.000000	24.456600
583.000000	24.463400
582.000000	24.462800
581.000000	24.442700
580.000000	24.438000
579.000000	24.439500
578.000000	24.442400
577.000000	24.431700
576.000000	24.410200
575.000000	24.397800
574.000000	24.370000
573.000000	24.342300
572.000000	24.314200
571.000000	24.279500
570.000000	24.243300
569.000000	24.195100
568.000000	24.155000
567.000000	24.105500
566.000000	24.055500
565.000000	23.995900
564.000000	23.925700
563.000000	23.832500
562.000000	23.762700
561.000000	23.684300
560.000000	23.608300
559.000000	23.547400
558.000000	23.460200
557.000000	23.364300
556.000000	23.284700
555.000000	23.170300
554.000000	23.075900
553.000000	22.935500
552.000000	22.821800
551.000000	22.680500
550.000000	22.529000
549.000000	22.399300
548.000000	22.269900
547.000000	22.108500
546.000000	21.950100
545.000000	21.793700
544.000000	21.630500
543.000000	21.455500
542.000000	21.272000
541.000000	21.084000
540.000000	20.911400
539.000000	20.721900
538.000000	20.515500
537.000000	20.349700
536.000000	20.150900
535.000000	19.942100
534.000000	19.732800
533.000000	19.533000
532.000000	19.312500
531.000000	19.111300
530.000000	18.891200
529.000000	18.673300
528.000000	18.449500
527.000000	18.214300
526.000000	18.003500
525.000000	17.781500
524.000000	17.562700
523.000000	17.326700
522.000000	17.116500
521.000000	16.880800
520.000000	16.662000
519.000000	16.426200
518.000000	16.217100
517.000000	15.999800
516.000000	15.766100
515.000000	15.550700
514.000000	15.343300
513.000000	15.115200
512.000000	14.898800
511.000000	14.700100
510.000000	14.493200
509.000000	14.297500
508.000000	14.111200
507.000000	13.914400
506.000000	13.737000
505.000000	13.550200
504.000000	13.394000
503.000000	13.229700
502.000000	13.065400
501.000000	12.904300
500.000000	12.737600
499.000000	12.578900
498.000000	12.414700
497.000000	12.274900
496.000000	12.162000
495.000000	12.030500
494.000000	11.888200
493.000000	11.773700
492.000000	11.640700
491.000000	11.510600
490.000000	11.401700
489.000000	11.300600
488.000000	11.205100
487.000000	11.097800
486.000000	10.988400
485.000000	10.887300
484.000000	10.804000
483.000000	10.704300
482.000000	10.598900
481.000000	10.497600
480.000000	10.395300
479.000000	10.295300
478.000000	10.201500
477.000000	10.116700
476.000000	10.028800
475.000000	9.956000
474.000000	9.862900
473.000000	9.779200
472.000000	9.703300
471.000000	9.617900
470.000000	9.542600
469.000000	9.471500
468.000000	9.410700
467.000000	9.330500
466.000000	9.285900
465.000000	9.228700
464.000000	9.161400
463.000000	9.094400
462.000000	9.052500
461.000000	8.996300
460.000000	8.941700
459.000000	8.867800
458.000000	8.836600
457.000000	8.781600
456.000000	8.730800
455.000000	8.682400
454.000000	8.627800
453.000000	8.604700
452.000000	8.533000
451.000000	8.503000
450.000000	8.450700
449.000000	8.406500
448.000000	8.354700
447.000000	8.327100
446.000000	8.275300
445.000000	8.253800
444.000000	8.218200
443.000000	8.157500
442.000000	8.115600
441.000000	8.074600
440.000000	8.039500
439.000000	7.971400
438.000000	7.923100
437.000000	7.889600
436.000000	7.831200
435.000000	7.805100
434.000000	7.754100
433.000000	7.722500
432.000000	7.681200
431.000000	7.650100
430.000000	7.587200
429.000000	7.552100
428.000000	7.511400
427.000000	7.488600
426.000000	7.433100
425.000000	7.402400
424.000000	7.350900
423.000000	7.325300
422.000000	7.276100
421.000000	7.244100
420.000000	7.196500
419.000000	7.183700
418.000000	7.143400
417.000000	7.102900
416.000000	7.058600
415.000000	7.015700
414.000000	6.969000
413.000000	6.943300
412.000000	6.890500
411.000000	6.853000
410.000000	6.825300
409.000000	6.761200
408.000000	6.729600
407.000000	6.685600
406.000000	6.660700
405.000000	6.613900
404.000000	6.584100
403.000000	6.526100
402.000000	6.476200
401.000000	6.429900
400.000000	6.391300
399.000000	6.342400
398.000000	6.300600
397.000000	6.250800
396.000000	6.192100
395.000000	6.139700
394.000000	6.112400
393.000000	6.071900
392.000000	6.017000
391.000000	5.964500
390.000000	5.929900
389.000000	5.879700
388.000000	5.828900
387.000000	5.776500
386.000000	5.713800
385.000000	5.678300
384.000000	5.631500
383.000000	5.571200
382.000000	5.520900
381.000000	5.492100
380.000000	5.447600
379.000000	5.406600
378.000000	5.370000
377.000000	5.324700
376.000000	5.295800
375.000000	5.068800
374.000000	4.684100
373.000000	4.802100
372.000000	4.884900
371.000000	4.827200
370.000000	4.779500
369.000000	4.758700
368.000000	4.842500
367.000000	4.774900
366.000000	4.700600
365.000000	4.817300
364.000000	4.769200
363.000000	4.721300
362.000000	4.848200
361.000000	4.862200
360.000000	4.750500
359.000000	4.791500
358.000000	4.735800
357.000000	4.686100
356.000000	4.903200
355.000000	4.900300
354.000000	4.782600
353.000000	4.695500
352.000000	4.544100
351.000000	4.576500
350.000000	4.644300
349.000000	4.736300
348.000000	4.757100
347.000000	4.772700
346.000000	4.853300
345.000000	4.906100
344.000000	4.779400
343.000000	4.725700
342.000000	4.810700
341.000000	4.857300
340.000000	4.784900
339.000000	4.942500
338.000000	4.995300
337.000000	4.899300
336.000000	4.892200
335.000000	4.615800
334.000000	4.590700
333.000000	4.792200
332.000000	4.765600
331.000000	4.812000
330.000000	4.616300
329.000000	4.488700
328.000000	4.699900
327.000000	4.813300
326.000000	4.979700
325.000000	5.119200
324.000000	5.447900
323.000000	5.380400
322.000000	5.069900
321.000000	5.439500
320.000000	5.342300
319.000000	5.558100
318.000000	5.903200
317.000000	5.874900
316.000000	5.124800
315.000000	4.504400
314.000000	4.530900
313.000000	4.507300
312.000000	4.503900
311.000000	4.493000
310.000000	4.492200
309.000000	4.513500
308.000000	4.543100
307.000000	4.554000
306.000000	4.489700
305.000000	4.490000
304.000000	4.476000
303.000000	4.466100
302.000000	4.505200
301.000000	4.545900
300.000000	4.611200
299.000000	4.565300
298.000000	4.520800
297.000000	4.542800
296.000000	4.574700
295.000000	4.565500
294.000000	4.507900
293.000000	4.510400
292.000000	4.566300
291.000000	4.569200
290.000000	4.532300
289.000000	4.539800
288.000000	4.578000
287.000000	4.566300
286.000000	4.562100
285.000000	4.564600
284.000000	4.554200
283.000000	4.580100
282.000000	4.604500
281.000000	4.613500
280.000000	4.597600
279.000000	4.596100
278.000000	4.657400
277.000000	4.627800
276.000000	4.622300
275.000000	4.653100
274.000000	4.646400
273.000000	4.652900
272.000000	4.648000
271.000000	4.647600
270.000000	4.705800
269.000000	4.728000
268.000000	4.710900
267.000000	4.718300
266.000000	4.746100
265.000000	4.750900
264.000000	4.777800
263.000000	4.791000
262.000000	4.817100
261.000000	4.796000
260.000000	4.866900
259.000000	4.878400
258.000000	4.879100
257.000000	4.867400
256.000000	4.899900
255.000000	4.909200
254.000000	4.920100
253.000000	4.930900
252.000000	4.926600
251.000000	4.951800
250.000000	4.942000
