PE UV       SUBTECH     SPECTRUM    ASCII       PEDS        4.00        
   -1
CICIMAUCR0251-3.ASC
24/05/30
14:00:00.00
24/05/30
14:00:00.00
Vinicio Soto Monge
C. resplendens, F Ventral
250,000000
1
Lambda 1050
1050L1511233
PerkinElmer UV WinLab 6.3.2.0749 / 2.02.05 Lambda 900 UV/VIS/NIR, Aug  7 2015 09:38:08

0
0
3350/servo 860,8/2
0
0
UV/VIS
1
1
1
DoubleDePol,CommonBeamDepol,RBeamAtt,SBeamAtt,60mm sphere, WB InGaAs Detector
0
0
0
0
Program
Program
3350/servo 860,8/2
3350/0,2 860,8/0,2
3350/0,2 860,8/0,2
0
15.00
 
 
 
0
 
860,8
319,2
860,8
Front
100
on
S:100 R:100
0
0
0
0
 
0
 
 
 
0
 
 
0
0
0
0
0
 
 
 
 
0
0


0
0
#HDR
-1
-1
#GR
nm
%R
1.0
0.0
2500,000000
-1,000000
2251
8
60,560100
3,798400
#DATA
2500.000000	4.764316
2499.000000	4.664039
2498.000000	4.614503
2497.000000	4.600366
2496.000000	4.631271
2495.000000	4.615709
2494.000000	4.498554
2493.000000	4.662395
2492.000000	4.606174
2491.000000	4.456799
2490.000000	4.505678
2489.000000	4.476088
2488.000000	4.440251
2487.000000	4.506883
2486.000000	4.405949
2485.000000	4.359481
2484.000000	4.501623
2483.000000	4.444306
2482.000000	4.477622
2481.000000	4.326494
2480.000000	4.412743
2479.000000	4.408688
2478.000000	4.397510
2477.000000	4.452416
2476.000000	4.426662
2475.000000	4.378441
2474.000000	4.387756
2473.000000	4.376030
2472.000000	4.322549
2471.000000	4.331974
2470.000000	4.371646
2469.000000	4.366495
2468.000000	4.331206
2467.000000	4.369564
2466.000000	4.354002
2465.000000	4.380852
2464.000000	4.359262
2463.000000	4.341837
2462.000000	4.387208
2461.000000	4.361783
2460.000000	4.395099
2459.000000	4.392030
2458.000000	4.392797
2457.000000	4.387866
2456.000000	4.454717
2455.000000	4.452306
2454.000000	4.468197
2453.000000	4.451320
2452.000000	4.462827
2451.000000	4.502938
2450.000000	4.510829
2449.000000	4.503924
2448.000000	4.505678
2447.000000	4.534391
2446.000000	4.559268
2445.000000	4.564748
2444.000000	4.558282
2443.000000	4.579434
2442.000000	4.621517
2441.000000	4.654066
2440.000000	4.640257
2439.000000	4.642120
2438.000000	4.651107
2437.000000	4.689684
2436.000000	4.714671
2435.000000	4.736480
2434.000000	4.739219
2433.000000	4.751165
2432.000000	4.756754
2431.000000	4.771220
2430.000000	4.769577
2429.000000	4.792920
2428.000000	4.813633
2427.000000	4.828866
2426.000000	4.851333
2425.000000	4.848264
2424.000000	4.864155
2423.000000	4.873032
2422.000000	4.881471
2421.000000	4.888704
2420.000000	4.910293
2419.000000	4.911608
2418.000000	4.911608
2417.000000	4.932760
2416.000000	4.946459
2415.000000	4.948870
2414.000000	4.945144
2413.000000	4.964651
2412.000000	4.967939
2411.000000	4.973638
2410.000000	5.003228
2409.000000	5.001146
2408.000000	5.008817
2407.000000	5.028544
2406.000000	5.031503
2405.000000	5.031941
2404.000000	5.040380
2403.000000	5.024050
2402.000000	5.024708
2401.000000	5.060654
2400.000000	5.068545
2399.000000	5.069641
2398.000000	5.083888
2397.000000	5.091888
2396.000000	5.106902
2395.000000	5.120492
2394.000000	5.115999
2393.000000	5.125533
2392.000000	5.141314
2391.000000	5.142958
2390.000000	5.129369
2389.000000	5.145041
2388.000000	5.176274
2387.000000	5.163343
2386.000000	5.138794
2385.000000	5.138465
2384.000000	5.153698
2383.000000	5.157315
2382.000000	5.163781
2381.000000	5.172329
2380.000000	5.173644
2379.000000	5.177590
2378.000000	5.167836
2377.000000	5.164329
2376.000000	5.155342
2375.000000	5.157425
2374.000000	5.158082
2373.000000	5.152602
2372.000000	5.159726
2371.000000	5.155233
2370.000000	5.142410
2369.000000	5.148328
2368.000000	5.135287
2367.000000	5.114355
2366.000000	5.119177
2365.000000	5.112930
2364.000000	5.107122
2363.000000	5.087724
2362.000000	5.055065
2361.000000	5.045531
2360.000000	5.047065
2359.000000	5.039065
2358.000000	5.012762
2357.000000	5.003776
2356.000000	5.005529
2355.000000	4.999502
2354.000000	4.993912
2353.000000	4.995008
2352.000000	5.002022
2351.000000	5.004981
2350.000000	4.994570
2349.000000	4.996543
2348.000000	5.011118
2347.000000	5.009584
2346.000000	5.006296
2345.000000	5.025475
2344.000000	5.030845
2343.000000	5.036654
2342.000000	5.044215
2341.000000	5.064928
2340.000000	5.088162
2339.000000	5.085203
2338.000000	5.090025
2337.000000	5.091888
2336.000000	5.082354
2335.000000	5.097368
2334.000000	5.104163
2333.000000	5.102409
2332.000000	5.094628
2331.000000	5.094299
2330.000000	5.101971
2329.000000	5.073257
2328.000000	5.057476
2327.000000	5.042352
2326.000000	5.030407
2325.000000	5.030297
2324.000000	5.034681
2323.000000	5.006406
2322.000000	4.983611
2321.000000	4.968816
2320.000000	4.958514
2319.000000	4.945253
2318.000000	4.923335
2317.000000	4.899444
2316.000000	4.867114
2315.000000	4.838729
2314.000000	4.820647
2313.000000	4.806619
2312.000000	4.787769
2311.000000	4.765960
2310.000000	4.742398
2309.000000	4.731438
2308.000000	4.733959
2307.000000	4.724534
2306.000000	4.720917
2305.000000	4.712588
2304.000000	4.714232
2303.000000	4.733411
2302.000000	4.717191
2301.000000	4.720370
2300.000000	4.756425
2299.000000	4.778454
2298.000000	4.793358
2297.000000	4.802783
2296.000000	4.828318
2295.000000	4.840154
2294.000000	4.859662
2293.000000	4.875553
2292.000000	4.886950
2291.000000	4.892101
2290.000000	4.926842
2289.000000	4.920814
2288.000000	4.942404
2287.000000	4.938020
2286.000000	4.934952
2285.000000	4.931773
2284.000000	4.940212
2283.000000	4.922787
2282.000000	4.931006
2281.000000	4.911937
2280.000000	4.917636
2279.000000	4.907444
2278.000000	4.906129
2277.000000	4.901307
2276.000000	4.887169
2275.000000	4.895937
2274.000000	4.886841
2273.000000	4.874018
2272.000000	4.859333
2271.000000	4.878950
2270.000000	4.879169
2269.000000	4.897142
2268.000000	4.925527
2267.000000	4.924102
2266.000000	4.944157
2265.000000	4.977145
2264.000000	5.006954
2263.000000	5.038626
2262.000000	5.090354
2261.000000	5.142958
2260.000000	5.191617
2259.000000	5.269757
2258.000000	5.316443
2257.000000	5.376171
2256.000000	5.461215
2255.000000	5.543957
2254.000000	5.609603
2253.000000	5.688072
2252.000000	5.753170
2251.000000	5.842049
2250.000000	5.911969
2249.000000	5.975533
2248.000000	6.064741
2247.000000	6.135209
2246.000000	6.198334
2245.000000	6.223869
2244.000000	6.289187
2243.000000	6.370066
2242.000000	6.409629
2241.000000	6.460589
2240.000000	6.497193
2239.000000	6.524482
2238.000000	6.568538
2237.000000	6.612156
2236.000000	6.647225
2235.000000	6.676596
2234.000000	6.693035
2233.000000	6.730187
2232.000000	6.751667
2231.000000	6.761750
2230.000000	6.778956
2229.000000	6.797696
2228.000000	6.807011
2227.000000	6.811833
2226.000000	6.805915
2225.000000	6.802408
2224.000000	6.813477
2223.000000	6.802080
2222.000000	6.802956
2221.000000	6.796490
2220.000000	6.775997
2219.000000	6.780052
2218.000000	6.767996
2217.000000	6.747503
2216.000000	6.761092
2215.000000	6.743996
2214.000000	6.717365
2213.000000	6.705309
2212.000000	6.680651
2211.000000	6.677583
2210.000000	6.664651
2209.000000	6.645472
2208.000000	6.641965
2207.000000	6.639992
2206.000000	6.627937
2205.000000	6.613033
2204.000000	6.624869
2203.000000	6.609526
2202.000000	6.609416
2201.000000	6.595826
2200.000000	6.586073
2199.000000	6.595498
2198.000000	6.560976
2197.000000	6.577853
2196.000000	6.553853
2195.000000	6.582456
2194.000000	6.560209
2193.000000	6.542784
2192.000000	6.549688
2191.000000	6.536537
2190.000000	6.554729
2189.000000	6.528537
2188.000000	6.522399
2187.000000	6.511550
2186.000000	6.517249
2185.000000	6.516482
2184.000000	6.517468
2183.000000	6.505303
2182.000000	6.498728
2181.000000	6.485796
2180.000000	6.479001
2179.000000	6.468480
2178.000000	6.457849
2177.000000	6.461576
2176.000000	6.470562
2175.000000	6.462891
2174.000000	6.455110
2173.000000	6.455110
2172.000000	6.454452
2171.000000	6.457630
2170.000000	6.465959
2169.000000	6.457192
2168.000000	6.455986
2167.000000	6.447767
2166.000000	6.494673
2165.000000	6.465083
2164.000000	6.475713
2163.000000	6.503002
2162.000000	6.532153
2161.000000	6.504098
2160.000000	6.529852
2159.000000	6.531496
2158.000000	6.553853
2157.000000	6.559661
2156.000000	6.569853
2155.000000	6.609087
2154.000000	6.619498
2153.000000	6.623225
2152.000000	6.659609
2151.000000	6.657198
2150.000000	6.690953
2149.000000	6.713529
2148.000000	6.730954
2147.000000	6.731502
2146.000000	6.766133
2145.000000	6.781476
2144.000000	6.805148
2143.000000	6.830245
2142.000000	6.825313
2141.000000	6.848109
2140.000000	6.871452
2139.000000	6.883507
2138.000000	6.894028
2137.000000	6.918796
2136.000000	6.936440
2135.000000	6.941920
2134.000000	6.950468
2133.000000	6.962742
2132.000000	6.974030
2131.000000	7.003730
2130.000000	7.007018
2129.000000	7.006798
2128.000000	7.015347
2127.000000	7.032662
2126.000000	7.014908
2125.000000	7.026525
2124.000000	7.049211
2123.000000	7.045923
2122.000000	7.029923
2121.000000	7.028279
2120.000000	7.018854
2119.000000	7.016333
2118.000000	7.043402
2117.000000	7.016004
2116.000000	7.012607
2115.000000	7.025320
2114.000000	7.014908
2113.000000	7.016223
2112.000000	6.998469
2111.000000	6.985428
2110.000000	6.975345
2109.000000	6.970743
2108.000000	6.971181
2107.000000	6.964057
2106.000000	6.956605
2105.000000	6.945646
2104.000000	6.928221
2103.000000	6.926138
2102.000000	6.923399
2101.000000	6.920440
2100.000000	6.917809
2099.000000	6.908384
2098.000000	6.886904
2097.000000	6.879890
2096.000000	6.878904
2095.000000	6.864767
2094.000000	6.845040
2093.000000	6.841643
2092.000000	6.839451
2091.000000	6.842958
2090.000000	6.845040
2089.000000	6.834519
2088.000000	6.817751
2087.000000	6.811724
2086.000000	6.813477
2085.000000	6.810299
2084.000000	6.801860
2083.000000	6.794299
2082.000000	6.776325
2081.000000	6.766681
2080.000000	6.747393
2079.000000	6.742023
2078.000000	6.745530
2077.000000	6.717693
2076.000000	6.705200
2075.000000	6.694679
2074.000000	6.668267
2073.000000	6.640431
2072.000000	6.612485
2071.000000	6.611060
2070.000000	6.594731
2069.000000	6.566346
2068.000000	6.546729
2067.000000	6.530400
2066.000000	6.506399
2065.000000	6.484042
2064.000000	6.472535
2063.000000	6.446890
2062.000000	6.437684
2061.000000	6.414999
2060.000000	6.378943
2059.000000	6.374998
2058.000000	6.379600
2057.000000	6.377957
2056.000000	6.357134
2055.000000	6.356148
2054.000000	6.362723
2053.000000	6.374559
2052.000000	6.398779
2051.000000	6.414670
2050.000000	6.425848
2049.000000	6.472973
2048.000000	6.506399
2047.000000	6.525468
2046.000000	6.563716
2045.000000	6.584648
2044.000000	6.623115
2043.000000	6.674624
2042.000000	6.719118
2041.000000	6.749585
2040.000000	6.771065
2039.000000	6.813477
2038.000000	6.864109
2037.000000	6.918686
2036.000000	6.955509
2035.000000	6.979620
2034.000000	7.007456
2033.000000	7.046142
2032.000000	7.077486
2031.000000	7.102144
2030.000000	7.118364
2029.000000	7.147954
2028.000000	7.182366
2027.000000	7.191133
2026.000000	7.220504
2025.000000	7.234641
2024.000000	7.254368
2023.000000	7.259738
2022.000000	7.281766
2021.000000	7.310370
2020.000000	7.328343
2019.000000	7.314425
2018.000000	7.315082
2017.000000	7.330535
2016.000000	7.329768
2015.000000	7.325274
2014.000000	7.352234
2013.000000	7.354207
2012.000000	7.335686
2011.000000	7.328343
2010.000000	7.336343
2009.000000	7.319137
2008.000000	7.311575
2007.000000	7.296780
2006.000000	7.295465
2005.000000	7.288123
2004.000000	7.265108
2003.000000	7.243299
2002.000000	7.242422
2001.000000	7.229710
2000.000000	7.193654
1999.000000	7.170311
1998.000000	7.161872
1997.000000	7.129213
1996.000000	7.094253
1995.000000	7.079897
1994.000000	7.083294
1993.000000	7.039238
1992.000000	6.990688
1991.000000	6.958468
1990.000000	6.945646
1989.000000	6.897316
1988.000000	6.865643
1987.000000	6.831231
1986.000000	6.812053
1985.000000	6.765257
1984.000000	6.742680
1983.000000	6.727118
1982.000000	6.671117
1981.000000	6.634951
1980.000000	6.621910
1979.000000	6.591004
1978.000000	6.548154
1977.000000	6.514728
1976.000000	6.474179
1975.000000	6.470343
1974.000000	6.441082
1973.000000	6.411382
1972.000000	6.346394
1971.000000	6.324585
1970.000000	6.308584
1969.000000	6.273076
1968.000000	6.263652
1967.000000	6.224308
1966.000000	6.213897
1965.000000	6.174662
1964.000000	6.141894
1963.000000	6.115592
1962.000000	6.115044
1961.000000	6.088084
1960.000000	6.063645
1959.000000	6.035480
1958.000000	6.025617
1957.000000	5.988793
1956.000000	5.962601
1955.000000	5.938381
1954.000000	5.928846
1953.000000	5.892352
1952.000000	5.887092
1951.000000	5.856187
1950.000000	5.848734
1949.000000	5.818267
1948.000000	5.818706
1947.000000	5.794157
1946.000000	5.763910
1945.000000	5.753608
1944.000000	5.727634
1943.000000	5.720949
1942.000000	5.712949
1941.000000	5.696510
1940.000000	5.710867
1939.000000	5.703634
1938.000000	5.710428
1937.000000	5.695085
1936.000000	5.684126
1935.000000	5.712182
1934.000000	5.704620
1933.000000	5.719853
1932.000000	5.718648
1931.000000	5.758211
1930.000000	5.768512
1929.000000	5.769937
1928.000000	5.796459
1927.000000	5.812788
1926.000000	5.822980
1925.000000	5.880187
1924.000000	5.889064
1923.000000	5.944847
1922.000000	5.992300
1921.000000	6.006109
1920.000000	6.065727
1919.000000	6.129949
1918.000000	6.146388
1917.000000	6.221130
1916.000000	6.291159
1915.000000	6.346942
1914.000000	6.416095
1913.000000	6.469685
1912.000000	6.563058
1911.000000	6.643170
1910.000000	6.706953
1909.000000	6.805148
1908.000000	6.877479
1907.000000	6.961098
1906.000000	7.056663
1905.000000	7.193983
1904.000000	7.297328
1903.000000	7.432346
1902.000000	7.550487
1901.000000	7.677066
1900.000000	7.840140
1899.000000	7.993350
1898.000000	8.133738
1897.000000	8.310621
1896.000000	8.496709
1895.000000	8.652221
1894.000000	8.827021
1893.000000	9.001273
1892.000000	9.187690
1891.000000	9.398108
1890.000000	9.651047
1889.000000	9.856643
1888.000000	10.086897
1887.000000	10.368111
1886.000000	10.619626
1885.000000	10.917827
1884.000000	11.225453
1883.000000	11.577684
1882.000000	11.923339
1881.000000	12.273816
1880.000000	12.624402
1879.000000	12.978386
1878.000000	13.314725
1877.000000	13.659832
1876.000000	14.015131
1875.000000	14.329991
1874.000000	14.675536
1873.000000	14.985025
1872.000000	15.339338
1871.000000	15.657485
1870.000000	15.949439
1869.000000	16.254983
1868.000000	16.552527
1867.000000	16.758999
1866.000000	16.946731
1865.000000	17.095449
1864.000000	17.247344
1863.000000	17.368444
1862.000000	17.454254
1861.000000	17.581820
1860.000000	17.708400
1859.000000	17.830376
1858.000000	17.938434
1857.000000	18.011533
1856.000000	18.085069
1855.000000	18.111590
1854.000000	18.154880
1853.000000	18.205292
1852.000000	18.214607
1851.000000	18.207374
1850.000000	18.203648
1849.000000	18.198826
1848.000000	18.181839
1847.000000	18.186442
1846.000000	18.196415
1845.000000	18.160907
1844.000000	18.133290
1843.000000	18.081891
1842.000000	18.044958
1841.000000	18.051205
1840.000000	18.065233
1839.000000	18.030711
1838.000000	17.974819
1837.000000	17.947859
1836.000000	17.922215
1835.000000	17.914872
1834.000000	17.886049
1833.000000	17.821499
1832.000000	17.738647
1831.000000	17.682317
1830.000000	17.638041
1829.000000	17.609876
1828.000000	17.545326
1827.000000	17.485160
1826.000000	17.435843
1825.000000	17.386198
1824.000000	17.339840
1823.000000	17.275399
1822.000000	17.232330
1821.000000	17.212274
1820.000000	17.206685
1819.000000	17.211617
1818.000000	17.189808
1817.000000	17.151231
1816.000000	17.133696
1815.000000	17.126902
1814.000000	17.110682
1813.000000	17.087558
1812.000000	17.072325
1811.000000	17.056653
1810.000000	17.018624
1809.000000	16.981144
1808.000000	16.958348
1807.000000	16.922731
1806.000000	16.889305
1805.000000	16.848975
1804.000000	16.796809
1803.000000	16.744424
1802.000000	16.695545
1801.000000	16.658613
1800.000000	16.633297
1799.000000	16.591652
1798.000000	16.538061
1797.000000	16.478004
1796.000000	16.433729
1795.000000	16.402385
1794.000000	16.366001
1793.000000	16.318766
1792.000000	16.282272
1791.000000	16.234599
1790.000000	16.182872
1789.000000	16.153720
1788.000000	16.113390
1787.000000	16.036894
1786.000000	15.983523
1785.000000	15.945932
1784.000000	15.882369
1783.000000	15.827573
1782.000000	15.771461
1781.000000	15.714911
1780.000000	15.648937
1779.000000	15.576934
1778.000000	15.529371
1777.000000	15.467451
1776.000000	15.386901
1775.000000	15.307775
1774.000000	15.227334
1773.000000	15.140318
1772.000000	15.055274
1771.000000	14.944586
1770.000000	14.857569
1769.000000	14.777238
1768.000000	14.691756
1767.000000	14.608904
1766.000000	14.525832
1765.000000	14.453721
1764.000000	14.399143
1763.000000	14.367800
1762.000000	14.369554
1761.000000	14.373608
1760.000000	14.385554
1759.000000	14.416897
1758.000000	14.460515
1757.000000	14.492516
1756.000000	14.549176
1755.000000	14.604082
1754.000000	14.639261
1753.000000	14.661508
1752.000000	14.682111
1751.000000	14.671262
1750.000000	14.665892
1749.000000	14.652741
1748.000000	14.618767
1747.000000	14.549395
1746.000000	14.489667
1745.000000	14.433227
1744.000000	14.344128
1743.000000	14.241330
1742.000000	14.123628
1741.000000	13.982911
1740.000000	13.835728
1739.000000	13.668709
1738.000000	13.514622
1737.000000	13.368426
1736.000000	13.253573
1735.000000	13.146830
1734.000000	13.067704
1733.000000	13.027045
1732.000000	13.008305
1731.000000	13.009510
1730.000000	13.037237
1729.000000	13.062334
1728.000000	13.142884
1727.000000	13.214448
1726.000000	13.275162
1725.000000	13.339274
1724.000000	13.378947
1723.000000	13.421359
1722.000000	13.457744
1721.000000	13.493471
1720.000000	13.536979
1719.000000	13.575665
1718.000000	13.601639
1717.000000	13.667723
1716.000000	13.716711
1715.000000	13.782686
1714.000000	13.853373
1713.000000	13.934690
1712.000000	14.000336
1711.000000	14.057105
1710.000000	14.094476
1709.000000	14.129984
1708.000000	14.133930
1707.000000	14.151903
1706.000000	14.123628
1705.000000	14.126149
1704.000000	14.075846
1703.000000	14.051187
1702.000000	13.997377
1701.000000	13.930635
1700.000000	13.840550
1699.000000	13.733478
1698.000000	13.618735
1697.000000	13.537417
1696.000000	13.483498
1695.000000	13.443387
1694.000000	13.409085
1693.000000	13.401413
1692.000000	13.486786
1691.000000	13.591008
1690.000000	13.696327
1689.000000	13.767562
1688.000000	13.859619
1687.000000	13.934252
1686.000000	13.989158
1685.000000	14.024666
1684.000000	14.088120
1683.000000	14.183246
1682.000000	14.353005
1681.000000	14.610109
1680.000000	14.905242
1679.000000	15.267116
1678.000000	15.680938
1677.000000	16.064073
1676.000000	16.497840
1675.000000	16.868592
1674.000000	17.184986
1673.000000	17.478584
1672.000000	17.769223
1671.000000	17.991148
1670.000000	18.192360
1669.000000	18.354119
1668.000000	18.551057
1667.000000	18.696815
1666.000000	18.816818
1665.000000	18.939014
1664.000000	19.035236
1663.000000	19.104280
1662.000000	19.171898
1661.000000	19.253435
1660.000000	19.327520
1659.000000	19.392727
1658.000000	19.441386
1657.000000	19.453003
1656.000000	19.480072
1655.000000	19.511745
1654.000000	19.510430
1653.000000	19.536184
1652.000000	19.502648
1651.000000	19.513060
1650.000000	19.497936
1649.000000	19.489936
1648.000000	19.446866
1647.000000	19.405440
1646.000000	19.364891
1645.000000	19.322698
1644.000000	19.279189
1643.000000	19.230311
1642.000000	19.185926
1641.000000	19.138034
1640.000000	19.092444
1639.000000	19.037867
1638.000000	18.986906
1637.000000	18.927507
1636.000000	18.870519
1635.000000	18.800270
1634.000000	18.749638
1633.000000	18.686075
1632.000000	18.627662
1631.000000	18.534179
1630.000000	18.457684
1629.000000	18.419655
1628.000000	18.345132
1627.000000	18.272692
1626.000000	18.159702
1625.000000	18.113234
1624.000000	18.034109
1623.000000	17.954983
1622.000000	17.913776
1621.000000	17.823253
1620.000000	17.763525
1619.000000	17.679906
1618.000000	17.621821
1617.000000	17.531298
1616.000000	17.499845
1615.000000	17.453487
1614.000000	17.379512
1613.000000	17.309921
1612.000000	17.255344
1611.000000	17.182684
1610.000000	17.106408
1609.000000	17.057530
1608.000000	16.998678
1607.000000	16.934895
1606.000000	16.872537
1605.000000	16.809412
1604.000000	16.745191
1603.000000	16.689189
1602.000000	16.625406
1601.000000	16.543212
1600.000000	16.483265
1599.000000	16.429345
1598.000000	16.373782
1597.000000	16.312081
1596.000000	16.243915
1595.000000	16.176734
1594.000000	16.122048
1593.000000	16.062429
1592.000000	16.016839
1591.000000	15.969714
1590.000000	15.920945
1589.000000	15.871738
1588.000000	15.838751
1587.000000	15.798640
1586.000000	15.736720
1585.000000	15.700336
1584.000000	15.674801
1583.000000	15.628224
1582.000000	15.595236
1581.000000	15.562139
1580.000000	15.530906
1579.000000	15.503507
1578.000000	15.488932
1577.000000	15.471506
1576.000000	15.439834
1575.000000	15.407724
1574.000000	15.409367
1573.000000	15.404874
1572.000000	15.399395
1571.000000	15.380325
1570.000000	15.376490
1569.000000	15.370900
1568.000000	15.369257
1567.000000	15.381860
1566.000000	15.390518
1565.000000	15.387559
1564.000000	15.391065
1563.000000	15.389422
1562.000000	15.401038
1561.000000	15.398189
1560.000000	15.387011
1559.000000	15.386463
1558.000000	15.387559
1557.000000	15.378243
1556.000000	15.370900
1555.000000	15.352051
1554.000000	15.332433
1553.000000	15.309200
1552.000000	15.278733
1551.000000	15.255061
1550.000000	15.231060
1549.000000	15.208375
1548.000000	15.175278
1547.000000	15.151606
1546.000000	15.130674
1545.000000	15.098344
1544.000000	15.067768
1543.000000	15.049575
1542.000000	15.013848
1541.000000	14.999711
1540.000000	14.999491
1539.000000	14.992916
1538.000000	14.955983
1537.000000	14.934065
1536.000000	14.914996
1535.000000	14.902283
1534.000000	14.888036
1533.000000	14.854720
1532.000000	14.831157
1531.000000	14.813842
1530.000000	14.776580
1529.000000	14.743483
1528.000000	14.719482
1527.000000	14.694605
1526.000000	14.667755
1525.000000	14.613945
1524.000000	14.580738
1523.000000	14.556409
1522.000000	14.519147
1521.000000	14.486489
1520.000000	14.447693
1519.000000	14.399143
1518.000000	14.357718
1517.000000	14.314976
1516.000000	14.283852
1515.000000	14.238810
1514.000000	14.200781
1513.000000	14.168670
1512.000000	14.108175
1511.000000	14.065325
1510.000000	14.029707
1509.000000	13.992665
1508.000000	13.960883
1507.000000	13.903785
1506.000000	13.840989
1505.000000	13.803837
1504.000000	13.761096
1503.000000	13.719451
1502.000000	13.680545
1501.000000	13.625201
1500.000000	13.583446
1499.000000	13.568542
1498.000000	13.538294
1497.000000	13.486347
1496.000000	13.447661
1495.000000	13.429469
1494.000000	13.427496
1493.000000	13.398454
1492.000000	13.363384
1491.000000	13.329959
1490.000000	13.316808
1489.000000	13.304205
1488.000000	13.279437
1487.000000	13.253682
1486.000000	13.242723
1485.000000	13.233189
1484.000000	13.210393
1483.000000	13.197790
1482.000000	13.201516
1481.000000	13.194393
1480.000000	13.184310
1479.000000	13.184858
1478.000000	13.183214
1477.000000	13.171159
1476.000000	13.169515
1475.000000	13.169406
1474.000000	13.172584
1473.000000	13.181351
1472.000000	13.209297
1471.000000	13.223106
1470.000000	13.229901
1469.000000	13.228038
1468.000000	13.233737
1467.000000	13.246778
1466.000000	13.254230
1465.000000	13.268806
1464.000000	13.307054
1463.000000	13.320205
1462.000000	13.344206
1461.000000	13.370398
1460.000000	13.403605
1459.000000	13.434291
1458.000000	13.474402
1457.000000	13.530951
1456.000000	13.571939
1455.000000	13.617530
1454.000000	13.679449
1453.000000	13.729095
1452.000000	13.790686
1451.000000	13.852825
1450.000000	13.918580
1449.000000	13.966691
1448.000000	14.023570
1447.000000	14.090312
1446.000000	14.165054
1445.000000	14.241440
1444.000000	14.315415
1443.000000	14.384896
1442.000000	14.459200
1441.000000	14.549066
1440.000000	14.642001
1439.000000	14.715099
1438.000000	14.818664
1437.000000	14.895817
1436.000000	14.977792
1435.000000	15.078179
1434.000000	15.179662
1433.000000	15.292761
1432.000000	15.406408
1431.000000	15.500110
1430.000000	15.627676
1429.000000	15.749871
1428.000000	15.878752
1427.000000	16.032949
1426.000000	16.170378
1425.000000	16.332246
1424.000000	16.502772
1423.000000	16.672860
1422.000000	16.851167
1421.000000	17.056872
1420.000000	17.261920
1419.000000	17.478365
1418.000000	17.703249
1417.000000	17.903693
1416.000000	18.120248
1415.000000	18.359379
1414.000000	18.606182
1413.000000	18.873368
1412.000000	19.157542
1411.000000	19.427797
1410.000000	19.695203
1409.000000	20.048858
1408.000000	20.414458
1407.000000	20.807348
1406.000000	21.174373
1405.000000	21.554769
1404.000000	22.010016
1403.000000	22.400494
1402.000000	22.802260
1401.000000	23.198657
1400.000000	23.663219
1399.000000	24.139728
1398.000000	24.505986
1397.000000	24.786324
1396.000000	25.149075
1395.000000	25.577472
1394.000000	25.983074
1393.000000	26.275905
1392.000000	26.584956
1391.000000	26.971708
1390.000000	27.374680
1389.000000	27.707074
1388.000000	28.148842
1387.000000	28.682776
1386.000000	29.192820
1385.000000	29.771469
1384.000000	30.336857
1383.000000	30.940383
1382.000000	31.584896
1381.000000	32.192916
1380.000000	32.713809
1379.000000	33.094753
1378.000000	33.413996
1377.000000	33.598001
1376.000000	33.856530
1375.000000	34.093141
1374.000000	34.375999
1373.000000	34.703242
1372.000000	35.033664
1371.000000	35.468088
1370.000000	35.967063
1369.000000	36.315677
1368.000000	36.673606
1367.000000	37.065509
1366.000000	37.408863
1365.000000	37.648541
1364.000000	37.913865
1363.000000	38.159791
1362.000000	38.387962
1361.000000	38.620079
1360.000000	38.830497
1359.000000	38.993680
1358.000000	39.069299
1357.000000	39.205742
1356.000000	39.399063
1355.000000	39.704936
1354.000000	40.131141
1353.000000	40.680309
1352.000000	41.161640
1351.000000	41.809222
1350.000000	42.415159
1349.000000	42.992273
1348.000000	43.523139
1347.000000	44.030991
1346.000000	44.568214
1345.000000	44.980063
1344.000000	45.408021
1343.000000	45.895270
1342.000000	46.322900
1341.000000	46.728502
1340.000000	47.148022
1339.000000	47.565570
1338.000000	47.984213
1337.000000	48.348608
1336.000000	48.754101
1335.000000	49.111043
1334.000000	49.478726
1333.000000	49.859670
1332.000000	50.218257
1331.000000	50.563912
1330.000000	50.905950
1329.000000	51.230673
1328.000000	51.530299
1327.000000	51.848994
1326.000000	52.138756
1325.000000	52.405943
1324.000000	52.693075
1323.000000	52.954782
1322.000000	53.209585
1321.000000	53.447949
1320.000000	53.662750
1319.000000	53.880291
1318.000000	54.086654
1317.000000	54.296633
1316.000000	54.503873
1315.000000	54.702783
1314.000000	54.875172
1313.000000	55.048876
1312.000000	55.200224
1311.000000	55.372942
1310.000000	55.528782
1309.000000	55.682979
1308.000000	55.802106
1307.000000	55.916849
1306.000000	56.041456
1305.000000	56.136692
1304.000000	56.227982
1303.000000	56.308314
1302.000000	56.373083
1301.000000	56.438619
1300.000000	56.509306
1299.000000	56.554349
1298.000000	56.595117
1297.000000	56.620981
1296.000000	56.651338
1295.000000	56.695395
1294.000000	56.736601
1293.000000	56.728382
1292.000000	56.728053
1291.000000	56.727615
1290.000000	56.727724
1289.000000	56.710190
1288.000000	56.680709
1287.000000	56.630845
1286.000000	56.587665
1285.000000	56.536266
1284.000000	56.463826
1283.000000	56.401248
1282.000000	56.343712
1281.000000	56.275765
1280.000000	56.206502
1279.000000	56.131212
1278.000000	56.058881
1277.000000	55.991372
1276.000000	55.926822
1275.000000	55.861943
1274.000000	55.791256
1273.000000	55.737556
1272.000000	55.694815
1271.000000	55.653937
1270.000000	55.595524
1269.000000	55.542700
1268.000000	55.510261
1267.000000	55.456232
1266.000000	55.395737
1265.000000	55.329324
1264.000000	55.277267
1263.000000	55.221375
1262.000000	55.167346
1261.000000	55.100604
1260.000000	55.030465
1259.000000	54.973367
1258.000000	54.904653
1257.000000	54.844377
1256.000000	54.785854
1255.000000	54.680974
1254.000000	54.582012
1253.000000	54.504311
1252.000000	54.404582
1251.000000	54.294989
1250.000000	54.205452
1249.000000	54.092682
1248.000000	53.961280
1247.000000	53.843249
1246.000000	53.695628
1245.000000	53.538911
1244.000000	53.398961
1243.000000	53.238517
1242.000000	53.051333
1241.000000	52.867656
1240.000000	52.706446
1239.000000	52.522111
1238.000000	52.329228
1237.000000	52.142592
1236.000000	51.937325
1235.000000	51.746305
1234.000000	51.546847
1233.000000	51.331498
1232.000000	51.107162
1231.000000	50.862223
1230.000000	50.636572
1229.000000	50.415195
1228.000000	50.165652
1227.000000	49.921809
1226.000000	49.688158
1225.000000	49.450780
1224.000000	49.199594
1223.000000	48.937339
1222.000000	48.686153
1221.000000	48.446584
1220.000000	48.197480
1219.000000	47.955609
1218.000000	47.723712
1217.000000	47.496417
1216.000000	47.285889
1215.000000	47.076239
1214.000000	46.868671
1213.000000	46.675569
1212.000000	46.487289
1211.000000	46.312708
1210.000000	46.150730
1209.000000	45.988314
1208.000000	45.846720
1207.000000	45.707757
1206.000000	45.576575
1205.000000	45.454927
1204.000000	45.379308
1203.000000	45.327581
1202.000000	45.265113
1201.000000	45.206700
1200.000000	45.166041
1199.000000	45.098094
1198.000000	45.005598
1197.000000	44.879128
1196.000000	44.715287
1195.000000	44.509911
1194.000000	44.235053
1193.000000	43.885562
1192.000000	43.492015
1191.000000	43.019671
1190.000000	42.501628
1189.000000	42.017338
1188.000000	41.572721
1187.000000	41.227395
1186.000000	41.011936
1185.000000	40.942126
1184.000000	41.026183
1183.000000	41.257643
1182.000000	41.618202
1181.000000	42.104903
1180.000000	42.674565
1179.000000	43.297708
1178.000000	43.882932
1177.000000	44.420483
1176.000000	44.917047
1175.000000	45.344787
1174.000000	45.750060
1173.000000	46.154347
1172.000000	46.537592
1171.000000	46.935193
1170.000000	47.347042
1169.000000	47.755055
1168.000000	48.180165
1167.000000	48.628508
1166.000000	49.086604
1165.000000	49.544263
1164.000000	50.011565
1163.000000	50.499252
1162.000000	51.013570
1161.000000	51.500380
1160.000000	51.969874
1159.000000	52.457123
1158.000000	52.958618
1157.000000	53.430743
1156.000000	53.864839
1155.000000	54.252687
1154.000000	54.608095
1153.000000	54.891721
1152.000000	55.121865
1151.000000	55.300172
1150.000000	55.465438
1149.000000	55.583469
1148.000000	55.696020
1147.000000	55.836737
1146.000000	56.022496
1145.000000	56.263929
1144.000000	56.581966
1143.000000	56.966307
1142.000000	57.397883
1141.000000	57.870227
1140.000000	58.388270
1139.000000	58.903903
1138.000000	59.455482
1137.000000	60.028432
1136.000000	60.615300
1135.000000	61.237019
1134.000000	61.883834
1133.000000	62.495689
1132.000000	63.017459
1131.000000	63.529914
1130.000000	63.995353
1129.000000	64.408736
1128.000000	64.788145
1127.000000	65.059606
1126.000000	65.311340
1125.000000	65.512333
1124.000000	65.686256
1123.000000	65.860070
1122.000000	65.971416
1121.000000	66.067090
1120.000000	66.164299
1119.000000	66.221397
1118.000000	66.253617
1117.000000	66.312578
1116.000000	66.318057
1115.000000	66.342277
1114.000000	66.343263
1113.000000	66.356634
1112.000000	66.369347
1111.000000	66.335811
1110.000000	66.346222
1109.000000	66.346990
1108.000000	66.336798
1107.000000	66.322441
1106.000000	66.310167
1105.000000	66.328030
1104.000000	66.289782
1103.000000	66.282001
1102.000000	66.258658
1101.000000	66.259754
1100.000000	66.231260
1099.000000	66.207807
1098.000000	66.185998
1097.000000	66.166381
1096.000000	66.121558
1095.000000	66.070159
1094.000000	66.048131
1093.000000	66.013061
1092.000000	65.981608
1091.000000	65.904017
1090.000000	65.871468
1089.000000	65.814260
1088.000000	65.748395
1087.000000	65.712668
1086.000000	65.617213
1085.000000	65.555074
1084.000000	65.501374
1083.000000	65.430029
1082.000000	65.330190
1081.000000	65.296326
1080.000000	65.177747
1079.000000	65.120978
1078.000000	65.060593
1077.000000	64.966562
1076.000000	64.919766
1075.000000	64.849846
1074.000000	64.758775
1073.000000	64.707924
1072.000000	64.619044
1071.000000	64.543645
1070.000000	64.485232
1069.000000	64.385612
1068.000000	64.309993
1067.000000	64.240840
1066.000000	64.172235
1065.000000	64.083794
1064.000000	63.987243
1063.000000	63.911734
1062.000000	63.829320
1061.000000	63.731016
1060.000000	63.635890
1059.000000	63.577477
1058.000000	63.464377
1057.000000	63.363333
1056.000000	63.275769
1055.000000	63.177135
1054.000000	63.093407
1053.000000	62.997732
1052.000000	62.906990
1051.000000	62.810219
1050.000000	62.716189
1049.000000	62.640899
1048.000000	62.555855
1047.000000	62.494045
1046.000000	62.410974
1045.000000	62.332506
1044.000000	62.255352
1043.000000	62.207132
1042.000000	62.134253
1041.000000	62.026523
1040.000000	61.982467
1039.000000	61.888218
1038.000000	61.822572
1037.000000	61.734459
1036.000000	61.649744
1035.000000	61.589687
1034.000000	61.488424
1033.000000	61.388366
1032.000000	61.286445
1031.000000	61.211045
1030.000000	61.133892
1029.000000	61.035149
1028.000000	60.936406
1027.000000	60.836677
1026.000000	60.723030
1025.000000	60.600286
1024.000000	60.507790
1023.000000	60.396773
1022.000000	60.284331
1021.000000	60.190739
1020.000000	60.072160
1019.000000	59.981307
1018.000000	59.877085
1017.000000	59.789849
1016.000000	59.698230
1015.000000	59.622721
1014.000000	59.538444
1013.000000	59.460633
1012.000000	59.394439
1011.000000	59.366384
1010.000000	59.319917
1009.000000	59.276627
1008.000000	59.245722
1007.000000	59.234434
1006.000000	59.211639
1005.000000	59.204406
1004.000000	59.178213
1003.000000	59.152898
1002.000000	59.142486
1001.000000	59.124623
1000.000000	59.090868
999.000000	59.066867
998.000000	59.043195
997.000000	59.019633
996.000000	59.020948
995.000000	59.004290
994.000000	58.986207
993.000000	58.958480
992.000000	58.939959
991.000000	58.948398
990.000000	58.932178
989.000000	58.943247
988.000000	58.943247
987.000000	58.925274
986.000000	58.918260
985.000000	58.924068
984.000000	58.929548
983.000000	58.923192
982.000000	58.932617
981.000000	58.961987
980.000000	58.969768
979.000000	58.962097
978.000000	58.966919
977.000000	58.990810
976.000000	58.995413
975.000000	58.990701
974.000000	59.017441
973.000000	59.032784
972.000000	59.035086
971.000000	59.044949
970.000000	59.045716
969.000000	59.049552
968.000000	59.055908
967.000000	59.067854
966.000000	59.071141
965.000000	59.078813
964.000000	59.099636
963.000000	59.110814
962.000000	59.138760
961.000000	59.184460
960.000000	59.214817
959.000000	59.218324
958.000000	59.235421
957.000000	59.270052
956.000000	59.294820
955.000000	59.315971
954.000000	59.326273
953.000000	59.331862
952.000000	59.337123
951.000000	59.349507
950.000000	59.384357
949.000000	59.381288
948.000000	59.358055
947.000000	59.351150
946.000000	59.348301
945.000000	59.365507
944.000000	59.351260
943.000000	59.292080
942.000000	59.259202
941.000000	59.264682
940.000000	59.245065
939.000000	59.218434
938.000000	59.183364
937.000000	59.155637
936.000000	59.144568
935.000000	59.119143
934.000000	59.087580
933.000000	59.068511
932.000000	59.060730
931.000000	59.020619
930.000000	58.980070
929.000000	58.943357
928.000000	58.917712
927.000000	58.880450
926.000000	58.826531
925.000000	58.785763
924.000000	58.733925
923.000000	58.710363
922.000000	58.674636
921.000000	58.629703
920.000000	58.579400
919.000000	58.517590
918.000000	58.461040
917.000000	58.405038
916.000000	58.345749
915.000000	58.269801
914.000000	58.199771
913.000000	58.115933
912.000000	58.038122
911.000000	57.971819
910.000000	57.906392
909.000000	57.846883
908.000000	57.773456
907.000000	57.709893
906.000000	57.656740
905.000000	57.605341
904.000000	57.591533
903.000000	57.559422
902.000000	57.522818
901.000000	57.507146
900.000000	57.472844
899.000000	57.448514
898.000000	57.423747
897.000000	57.412787
896.000000	57.389006
895.000000	57.333881
894.000000	57.287304
893.000000	57.253878
892.000000	57.195246
891.000000	57.121600
890.000000	57.057708
889.000000	56.989760
888.000000	56.872825
887.000000	56.791836
886.000000	56.699669
885.000000	56.596104
884.000000	56.498238
883.000000	56.369905
882.000000	56.261299
881.000000	56.147322
880.000000	56.027757
879.000000	55.888574
878.000000	55.721555
877.000000	55.576345
876.000000	55.410751
875.000000	55.238691
874.000000	55.025972
873.000000	54.812595
872.000000	54.650946
871.000000	54.525572
870.000000	54.508695
869.000000	54.505407
868.000000	54.520421
867.000000	54.507380
866.000000	54.489407
865.000000	54.479653
864.000000	54.459488
863.000000	54.435487
862.000000	54.405787
861.000000	54.396143
860.000000	54.376307
859.000000	54.344964
858.000000	54.327100
857.000000	53.819300
856.000000	54.683700
855.000000	54.478300
854.000000	54.752700
853.000000	54.657600
852.000000	54.552900
851.000000	54.153400
850.000000	53.987700
849.000000	54.016900
848.000000	53.806700
847.000000	54.071000
846.000000	54.225900
845.000000	54.100200
844.000000	53.809400
843.000000	53.864000
842.000000	53.566700
841.000000	53.472500
840.000000	53.520700
839.000000	53.675300
838.000000	53.421400
837.000000	53.379000
836.000000	53.241100
835.000000	53.056500
834.000000	53.179700
833.000000	53.277000
832.000000	52.853400
831.000000	53.094400
830.000000	52.954000
829.000000	52.686600
828.000000	52.549700
827.000000	52.486300
826.000000	52.341500
825.000000	52.333500
824.000000	52.405500
823.000000	52.117700
822.000000	52.145100
821.000000	51.751900
820.000000	51.891800
819.000000	51.685700
818.000000	51.525000
817.000000	51.468800
816.000000	51.362300
815.000000	51.242100
814.000000	51.207100
813.000000	50.981900
812.000000	51.083400
811.000000	50.770100
810.000000	50.642800
809.000000	50.685000
808.000000	50.425800
807.000000	50.434200
806.000000	50.309000
805.000000	50.081600
804.000000	49.938900
803.000000	49.829200
802.000000	49.723600
801.000000	49.633100
800.000000	49.598200
799.000000	49.421900
798.000000	49.179200
797.000000	49.036800
796.000000	48.981800
795.000000	48.789600
794.000000	48.721900
793.000000	48.448300
792.000000	48.458200
791.000000	48.271200
790.000000	48.332700
789.000000	47.961500
788.000000	47.918000
787.000000	47.825200
786.000000	47.690200
785.000000	47.544700
784.000000	47.292800
783.000000	47.115900
782.000000	46.944500
781.000000	46.695400
780.000000	46.622400
779.000000	46.514300
778.000000	46.257500
777.000000	46.273600
776.000000	46.017500
775.000000	45.750200
774.000000	45.684700
773.000000	45.601500
772.000000	45.490500
771.000000	45.296600
770.000000	44.970400
769.000000	44.928000
768.000000	44.738500
767.000000	44.559900
766.000000	44.368400
765.000000	44.191100
764.000000	43.991100
763.000000	43.799100
762.000000	43.592300
761.000000	43.423100
760.000000	43.186000
759.000000	43.058900
758.000000	42.932400
757.000000	42.658100
756.000000	42.492300
755.000000	42.289300
754.000000	42.125500
753.000000	41.819700
752.000000	41.656700
751.000000	41.499100
750.000000	41.351100
749.000000	41.053600
748.000000	40.900900
747.000000	40.685700
746.000000	40.388400
745.000000	40.135900
744.000000	39.911200
743.000000	39.719900
742.000000	39.432600
741.000000	39.261200
740.000000	39.062300
739.000000	38.855300
738.000000	38.588200
737.000000	38.327500
736.000000	38.085700
735.000000	37.907800
734.000000	37.663400
733.000000	37.385800
732.000000	37.156200
731.000000	36.875600
730.000000	36.627900
729.000000	36.391900
728.000000	36.136600
727.000000	35.848300
726.000000	35.596600
725.000000	35.337900
724.000000	35.049600
723.000000	34.800800
722.000000	34.587000
721.000000	34.285200
720.000000	34.018800
719.000000	33.747000
718.000000	33.484200
717.000000	33.207800
716.000000	32.952200
715.000000	32.719900
714.000000	32.499900
713.000000	32.242600
712.000000	32.002200
711.000000	31.742500
710.000000	31.520300
709.000000	31.296400
708.000000	31.067100
707.000000	30.855000
706.000000	30.608000
705.000000	30.371900
704.000000	30.132500
703.000000	29.945000
702.000000	29.721600
701.000000	29.498400
700.000000	29.261000
699.000000	29.082900
698.000000	28.866300
697.000000	28.676100
696.000000	28.479100
695.000000	28.318800
694.000000	28.093800
693.000000	27.908800
692.000000	27.749400
691.000000	27.572500
690.000000	27.377100
689.000000	27.205500
688.000000	27.048300
687.000000	26.869900
686.000000	26.704000
685.000000	26.535400
684.000000	26.344700
683.000000	26.196700
682.000000	26.047200
681.000000	25.907400
680.000000	25.768200
679.000000	25.644100
678.000000	25.510300
677.000000	25.368100
676.000000	25.235000
675.000000	25.088900
674.000000	24.947500
673.000000	24.814100
672.000000	24.683500
671.000000	24.554600
670.000000	24.421300
669.000000	24.283500
668.000000	24.157900
667.000000	24.080400
666.000000	23.962700
665.000000	23.838700
664.000000	23.743300
663.000000	23.657600
662.000000	23.550800
661.000000	23.451700
660.000000	23.357700
659.000000	23.248600
658.000000	23.152100
657.000000	23.081600
656.000000	23.002100
655.000000	22.931300
654.000000	22.835800
653.000000	22.766800
652.000000	22.727200
651.000000	22.645000
650.000000	22.569800
649.000000	22.500200
648.000000	22.463800
647.000000	22.418900
646.000000	22.337300
645.000000	22.299500
644.000000	22.254900
643.000000	22.197500
642.000000	22.166200
641.000000	22.140600
640.000000	22.095200
639.000000	22.067000
638.000000	22.036600
637.000000	21.999300
636.000000	21.977100
635.000000	21.956800
634.000000	21.957600
633.000000	21.928800
632.000000	21.907600
631.000000	21.914200
630.000000	21.915000
629.000000	21.916000
628.000000	21.905100
627.000000	21.907200
626.000000	21.916900
625.000000	21.932100
624.000000	21.965100
623.000000	21.990700
622.000000	22.009500
621.000000	22.037200
620.000000	22.073900
619.000000	22.117300
618.000000	22.164300
617.000000	22.224500
616.000000	22.287400
615.000000	22.336400
614.000000	22.383600
613.000000	22.455800
612.000000	22.536100
611.000000	22.607300
610.000000	22.687500
609.000000	22.789300
608.000000	22.891100
607.000000	22.985900
606.000000	23.066500
605.000000	23.181000
604.000000	23.285100
603.000000	23.376200
602.000000	23.482900
601.000000	23.594900
600.000000	23.699400
599.000000	23.814900
598.000000	23.914200
597.000000	24.014300
596.000000	24.117700
595.000000	24.239800
594.000000	24.346200
593.000000	24.432800
592.000000	24.503100
591.000000	24.594900
590.000000	24.668400
589.000000	24.744200
588.000000	24.810200
587.000000	24.876100
586.000000	24.941500
585.000000	25.001500
584.000000	25.065400
583.000000	25.111300
582.000000	25.136900
581.000000	25.167800
580.000000	25.215600
579.000000	25.225900
578.000000	25.239300
577.000000	25.255300
576.000000	25.265900
575.000000	25.276900
574.000000	25.258500
573.000000	25.239600
572.000000	25.222600
571.000000	25.196800
570.000000	25.163900
569.000000	25.126000
568.000000	25.073000
567.000000	25.024700
566.000000	24.979300
565.000000	24.912600
564.000000	24.835300
563.000000	24.771500
562.000000	24.696900
561.000000	24.613600
560.000000	24.497900
559.000000	24.419600
558.000000	24.328000
557.000000	24.212700
556.000000	24.101300
555.000000	23.960900
554.000000	23.830000
553.000000	23.665800
552.000000	23.506700
551.000000	23.347000
550.000000	23.184200
549.000000	22.984400
548.000000	22.809700
547.000000	22.615600
546.000000	22.418900
545.000000	22.229600
544.000000	21.992100
543.000000	21.749800
542.000000	21.519500
541.000000	21.290600
540.000000	21.054600
539.000000	20.794600
538.000000	20.535100
537.000000	20.278600
536.000000	20.033500
535.000000	19.758000
534.000000	19.465400
533.000000	19.207200
532.000000	18.928600
531.000000	18.624200
530.000000	18.345400
529.000000	18.064700
528.000000	17.775300
527.000000	17.493900
526.000000	17.204600
525.000000	16.922100
524.000000	16.628600
523.000000	16.349100
522.000000	16.063500
521.000000	15.765500
520.000000	15.497800
519.000000	15.256900
518.000000	14.985000
517.000000	14.728600
516.000000	14.471000
515.000000	14.237400
514.000000	13.994900
513.000000	13.764800
512.000000	13.533700
511.000000	13.342700
510.000000	13.159600
509.000000	12.953900
508.000000	12.759400
507.000000	12.586800
506.000000	12.416600
505.000000	12.264200
504.000000	12.138300
503.000000	11.979400
502.000000	11.824000
501.000000	11.709300
500.000000	11.556500
499.000000	11.461400
498.000000	11.326100
497.000000	11.221300
496.000000	11.137700
495.000000	11.026900
494.000000	10.932700
493.000000	10.848300
492.000000	10.754300
491.000000	10.678500
490.000000	10.611700
489.000000	10.526600
488.000000	10.461800
487.000000	10.392800
486.000000	10.334600
485.000000	10.269900
484.000000	10.206200
483.000000	10.131000
482.000000	10.069600
481.000000	10.012000
480.000000	9.936200
479.000000	9.866800
478.000000	9.773100
477.000000	9.718100
476.000000	9.647300
475.000000	9.573700
474.000000	9.503900
473.000000	9.437100
472.000000	9.361000
471.000000	9.297600
470.000000	9.249800
469.000000	9.173700
468.000000	9.109500
467.000000	9.054200
466.000000	8.993400
465.000000	8.942900
464.000000	8.882300
463.000000	8.839300
462.000000	8.762900
461.000000	8.716800
460.000000	8.658300
459.000000	8.580500
458.000000	8.523000
457.000000	8.479200
456.000000	8.405100
455.000000	8.373800
454.000000	8.310500
453.000000	8.247700
452.000000	8.192300
451.000000	8.122900
450.000000	8.060200
449.000000	8.006200
448.000000	7.938100
447.000000	7.864100
446.000000	7.802700
445.000000	7.723600
444.000000	7.681700
443.000000	7.590100
442.000000	7.529500
441.000000	7.435300
440.000000	7.381000
439.000000	7.306000
438.000000	7.232700
437.000000	7.170100
436.000000	7.096500
435.000000	7.014100
434.000000	6.951000
433.000000	6.881600
432.000000	6.801000
431.000000	6.737700
430.000000	6.671500
429.000000	6.588600
428.000000	6.514900
427.000000	6.466100
426.000000	6.392100
425.000000	6.324200
424.000000	6.256400
423.000000	6.206300
422.000000	6.119400
421.000000	6.054700
420.000000	5.987200
419.000000	5.934100
418.000000	5.868300
417.000000	5.796600
416.000000	5.732400
415.000000	5.665400
414.000000	5.615300
413.000000	5.556300
412.000000	5.512000
411.000000	5.447800
410.000000	5.375900
409.000000	5.341600
408.000000	5.277600
407.000000	5.225500
406.000000	5.173900
405.000000	5.124900
404.000000	5.088900
403.000000	5.033500
402.000000	4.973000
401.000000	4.908600
400.000000	4.881300
399.000000	4.845500
398.000000	4.802000
397.000000	4.761300
396.000000	4.711000
395.000000	4.678800
394.000000	4.668500
393.000000	4.602000
392.000000	4.571200
391.000000	4.532900
390.000000	4.502900
389.000000	4.470600
388.000000	4.444300
387.000000	4.417200
386.000000	4.399900
385.000000	4.382300
384.000000	4.340300
383.000000	4.303500
382.000000	4.291100
381.000000	4.262700
380.000000	4.250300
379.000000	4.245600
378.000000	4.209300
377.000000	4.196100
376.000000	4.219000
375.000000	4.091800
374.000000	3.798400
373.000000	3.919800
372.000000	3.975600
371.000000	3.836600
370.000000	3.883300
369.000000	3.927800
368.000000	4.055200
367.000000	4.120200
366.000000	4.041500
365.000000	4.034300
364.000000	3.941100
363.000000	3.938200
362.000000	4.106500
361.000000	3.998600
360.000000	4.027500
359.000000	3.918300
358.000000	3.887800
357.000000	4.068800
356.000000	3.953300
355.000000	4.021200
354.000000	4.135400
353.000000	4.045200
352.000000	4.046000
351.000000	4.096000
350.000000	4.029500
349.000000	4.171100
348.000000	4.140000
347.000000	4.112100
346.000000	4.035300
345.000000	4.046600
344.000000	4.131800
343.000000	4.157800
342.000000	4.045400
341.000000	4.021500
340.000000	3.963100
339.000000	3.920300
338.000000	3.958500
337.000000	3.876000
336.000000	4.016600
335.000000	4.083600
334.000000	4.072000
333.000000	4.279200
332.000000	4.188700
331.000000	4.089400
330.000000	4.263500
329.000000	4.339900
328.000000	4.443200
327.000000	4.222300
326.000000	4.022200
325.000000	4.052300
324.000000	4.352600
323.000000	4.534700
322.000000	4.501000
321.000000	4.695600
320.000000	4.771400
319.000000	4.197500
318.000000	4.558700
317.000000	4.730900
316.000000	4.161200
315.000000	3.981600
314.000000	3.961000
313.000000	3.991200
312.000000	4.031300
311.000000	4.030300
310.000000	4.024000
309.000000	4.001400
308.000000	4.029000
307.000000	4.044600
306.000000	4.046800
305.000000	4.064400
304.000000	4.069400
303.000000	4.049700
302.000000	4.061000
301.000000	4.080800
300.000000	4.078000
299.000000	4.089100
298.000000	4.065200
297.000000	4.095900
296.000000	4.133000
295.000000	4.108400
294.000000	4.125700
293.000000	4.165700
292.000000	4.124900
291.000000	4.116000
290.000000	4.165600
289.000000	4.167400
288.000000	4.163700
287.000000	4.173100
286.000000	4.195900
285.000000	4.178400
284.000000	4.168300
283.000000	4.190300
282.000000	4.206900
281.000000	4.190800
280.000000	4.223000
279.000000	4.255100
278.000000	4.239600
277.000000	4.243900
276.000000	4.225300
275.000000	4.239500
274.000000	4.282400
273.000000	4.270200
272.000000	4.280400
271.000000	4.294000
270.000000	4.265300
269.000000	4.308400
268.000000	4.303700
267.000000	4.312800
266.000000	4.317200
265.000000	4.342900
264.000000	4.363100
263.000000	4.392600
262.000000	4.405100
261.000000	4.408100
260.000000	4.420900
259.000000	4.441200
258.000000	4.486100
257.000000	4.446400
256.000000	4.489800
255.000000	4.510600
254.000000	4.508500
253.000000	4.452300
252.000000	4.470200
251.000000	4.516200
250.000000	4.489400
