PE UV       SUBTECH     SPECTRUM    ASCII       PEDS        4.00        
   -1
CICIMAUCR0250-3.ASC
24/05/30
12:17:02.00
24/05/30
12:17:02.00
Vinicio Soto Monge
C. resplendens, M Ventral
250,000000
1
Lambda 1050
1050L1511233
PerkinElmer UV WinLab 6.3.2.0749 / 2.02.05 Lambda 900 UV/VIS/NIR, Aug  7 2015 09:38:08

0
0
3350/servo 860,8/2
0
0
UV/VIS
1
1
1
DoubleDePol,CommonBeamDepol,RBeamAtt,SBeamAtt,60mm sphere, WB InGaAs Detector
0
0
0
0
Program
Program
3350/servo 860,8/2
3350/0,2 860,8/0,2
3350/0,2 860,8/0,2
0
15.00
 
 
 
0
 
860,8
319,2
860,8
Front
100
on
S:100 R:100
0
0
0
0
 
0
 
 
 
0
 
 
0
0
0
0
0
 
 
 
 
0
0


0
0
#HDR
-1
-1
#GR
nm
%R
1.0
0.0
2500,000000
-1,000000
2251
8
57,892700
4,104500
#DATA
250.000000	4.657933
251.000000	4.652833
252.000000	4.638567
253.000000	4.637400
254.000000	4.609500
255.000000	4.618933
256.000000	4.607400
257.000000	4.589467
258.000000	4.590700
259.000000	4.587433
260.000000	4.555267
261.000000	4.533233
262.000000	4.516333
263.000000	4.497533
264.000000	4.478600
265.000000	4.461767
266.000000	4.445000
267.000000	4.430400
268.000000	4.415467
269.000000	4.407333
270.000000	4.387833
271.000000	4.389200
272.000000	4.367533
273.000000	4.364200
274.000000	4.358067
275.000000	4.356267
276.000000	4.335800
277.000000	4.334933
278.000000	4.315267
279.000000	4.334767
280.000000	4.325167
281.000000	4.307067
282.000000	4.300167
283.000000	4.289667
284.000000	4.282133
285.000000	4.281333
286.000000	4.285900
287.000000	4.282667
288.000000	4.263233
289.000000	4.267633
290.000000	4.250400
291.000000	4.235967
292.000000	4.243967
293.000000	4.246300
294.000000	4.248000
295.000000	4.239733
296.000000	4.220367
297.000000	4.204333
298.000000	4.210833
299.000000	4.218867
300.000000	4.201033
301.000000	4.204933
302.000000	4.223233
303.000000	4.225900
304.000000	4.197233
305.000000	4.182767
306.000000	4.192133
307.000000	4.171733
308.000000	4.165800
309.000000	4.190933
310.000000	4.186200
311.000000	4.174533
312.000000	4.165933
313.000000	4.185633
314.000000	4.190267
315.000000	4.162400
316.000000	4.386967
317.000000	4.805633
318.000000	4.794967
319.000000	4.599533
320.000000	4.580533
321.000000	4.591267
322.000000	4.659800
323.000000	4.587533
324.000000	4.586767
325.000000	4.683733
326.000000	4.655267
327.000000	4.508900
328.000000	4.447433
329.000000	4.552267
330.000000	4.557967
331.000000	4.351333
332.000000	4.382500
333.000000	4.431633
334.000000	4.393000
335.000000	4.343600
336.000000	4.309800
337.000000	4.323333
338.000000	4.359133
339.000000	4.342567
340.000000	4.325300
341.000000	4.283167
342.000000	4.265300
343.000000	4.339300
344.000000	4.302967
345.000000	4.323233
346.000000	4.371333
347.000000	4.274133
348.000000	4.194167
349.000000	4.259500
350.000000	4.299633
351.000000	4.333667
352.000000	4.315300
353.000000	4.304633
354.000000	4.295133
355.000000	4.259467
356.000000	4.316967
357.000000	4.275967
358.000000	4.287767
359.000000	4.370767
360.000000	4.381433
361.000000	4.342967
362.000000	4.389433
363.000000	4.391833
364.000000	4.321300
365.000000	4.322233
366.000000	4.343400
367.000000	4.347200
368.000000	4.307900
369.000000	4.300433
370.000000	4.303833
371.000000	4.276267
372.000000	4.287700
373.000000	4.268300
374.000000	4.306700
375.000000	4.447033
376.000000	4.559167
377.000000	4.595567
378.000000	4.610500
379.000000	4.637167
380.000000	4.655533
381.000000	4.679400
382.000000	4.706233
383.000000	4.734600
384.000000	4.755267
385.000000	4.785067
386.000000	4.819800
387.000000	4.853133
388.000000	4.893700
389.000000	4.918067
390.000000	4.955533
391.000000	4.998600
392.000000	5.032000
393.000000	5.076433
394.000000	5.113933
395.000000	5.164667
396.000000	5.211467
397.000000	5.258633
398.000000	5.302600
399.000000	5.352167
400.000000	5.410233
401.000000	5.473567
402.000000	5.520800
403.000000	5.580367
404.000000	5.648133
405.000000	5.707933
406.000000	5.768400
407.000000	5.826733
408.000000	5.895367
409.000000	5.966433
410.000000	6.027533
411.000000	6.108633
412.000000	6.174167
413.000000	6.256633
414.000000	6.327067
415.000000	6.407333
416.000000	6.488000
417.000000	6.570033
418.000000	6.660033
419.000000	6.730267
420.000000	6.821633
421.000000	6.905967
422.000000	6.997100
423.000000	7.092067
424.000000	7.183233
425.000000	7.279800
426.000000	7.372533
427.000000	7.449933
428.000000	7.544033
429.000000	7.633467
430.000000	7.738767
431.000000	7.837900
432.000000	7.940367
433.000000	8.028400
434.000000	8.129600
435.000000	8.244833
436.000000	8.337200
437.000000	8.434833
438.000000	8.539433
439.000000	8.639933
440.000000	8.726733
441.000000	8.829367
442.000000	8.940400
443.000000	9.045200
444.000000	9.138500
445.000000	9.230100
446.000000	9.313533
447.000000	9.421067
448.000000	9.503133
449.000000	9.600333
450.000000	9.688233
451.000000	9.775767
452.000000	9.860067
453.000000	9.959867
454.000000	10.042533
455.000000	10.133600
456.000000	10.221833
457.000000	10.304867
458.000000	10.376900
459.000000	10.465867
460.000000	10.537567
461.000000	10.611767
462.000000	10.687700
463.000000	10.763833
464.000000	10.849467
465.000000	10.923233
466.000000	11.001733
467.000000	11.069967
468.000000	11.150700
469.000000	11.220667
470.000000	11.302567
471.000000	11.366000
472.000000	11.451167
473.000000	11.531900
474.000000	11.609133
475.000000	11.685900
476.000000	11.756300
477.000000	11.833733
478.000000	11.908367
479.000000	11.986233
480.000000	12.069900
481.000000	12.130100
482.000000	12.204867
483.000000	12.245000
484.000000	12.291533
485.000000	12.346067
486.000000	12.398433
487.000000	12.439567
488.000000	12.497500
489.000000	12.534867
490.000000	12.581500
491.000000	12.625467
492.000000	12.669933
493.000000	12.739533
494.000000	12.805967
495.000000	12.870233
496.000000	12.929667
497.000000	13.001300
498.000000	13.070100
499.000000	13.136967
500.000000	13.239100
501.000000	13.325967
502.000000	13.423067
503.000000	13.514367
504.000000	13.611233
505.000000	13.719800
506.000000	13.823467
507.000000	13.944133
508.000000	14.074733
509.000000	14.211400
510.000000	14.362167
511.000000	14.502000
512.000000	14.666567
513.000000	14.814533
514.000000	14.994600
515.000000	15.181000
516.000000	15.360433
517.000000	15.560233
518.000000	15.763633
519.000000	15.973267
520.000000	16.179933
521.000000	16.405600
522.000000	16.636400
523.000000	16.861567
524.000000	17.117400
525.000000	17.364133
526.000000	17.621233
527.000000	17.873467
528.000000	18.131333
529.000000	18.389500
530.000000	18.657500
531.000000	18.923733
532.000000	19.199333
533.000000	19.480367
534.000000	19.761633
535.000000	20.038700
536.000000	20.319700
537.000000	20.601033
538.000000	20.873533
539.000000	21.143400
540.000000	21.432500
541.000000	21.710333
542.000000	21.986100
543.000000	22.265300
544.000000	22.541433
545.000000	22.812833
546.000000	23.085800
547.000000	23.354800
548.000000	23.613767
549.000000	23.868933
550.000000	24.110900
551.000000	24.364067
552.000000	24.616867
553.000000	24.850567
554.000000	25.098433
555.000000	25.321300
556.000000	25.542300
557.000000	25.753867
558.000000	25.960567
559.000000	26.174567
560.000000	26.402667
561.000000	26.597233
562.000000	26.797533
563.000000	26.988467
564.000000	27.170300
565.000000	27.348167
566.000000	27.501800
567.000000	27.665300
568.000000	27.824767
569.000000	27.966767
570.000000	28.104633
571.000000	28.238800
572.000000	28.378033
573.000000	28.511933
574.000000	28.628400
575.000000	28.739467
576.000000	28.848300
577.000000	28.950500
578.000000	29.047433
579.000000	29.118633
580.000000	29.196867
581.000000	29.287767
582.000000	29.365267
583.000000	29.419567
584.000000	29.475467
585.000000	29.527467
586.000000	29.564100
587.000000	29.600967
588.000000	29.632300
589.000000	29.664167
590.000000	29.691133
591.000000	29.706700
592.000000	29.709033
593.000000	29.720633
594.000000	29.722933
595.000000	29.712200
596.000000	29.713067
597.000000	29.687500
598.000000	29.676433
599.000000	29.654833
600.000000	29.616867
601.000000	29.596600
602.000000	29.562367
603.000000	29.519567
604.000000	29.480900
605.000000	29.448967
606.000000	29.398000
607.000000	29.345900
608.000000	29.304500
609.000000	29.248233
610.000000	29.195867
611.000000	29.139233
612.000000	29.089933
613.000000	29.038900
614.000000	28.981667
615.000000	28.914067
616.000000	28.868133
617.000000	28.823533
618.000000	28.767133
619.000000	28.717067
620.000000	28.676867
621.000000	28.620500
622.000000	28.568933
623.000000	28.529533
624.000000	28.493633
625.000000	28.462100
626.000000	28.425400
627.000000	28.394767
628.000000	28.363733
629.000000	28.323400
630.000000	28.297633
631.000000	28.276600
632.000000	28.263800
633.000000	28.251933
634.000000	28.228567
635.000000	28.218267
636.000000	28.204733
637.000000	28.194267
638.000000	28.193167
639.000000	28.191433
640.000000	28.198833
641.000000	28.197133
642.000000	28.204033
643.000000	28.215800
644.000000	28.238800
645.000000	28.257733
646.000000	28.260467
647.000000	28.279500
648.000000	28.312900
649.000000	28.329467
650.000000	28.354067
651.000000	28.392767
652.000000	28.428133
653.000000	28.465900
654.000000	28.509367
655.000000	28.557833
656.000000	28.602267
657.000000	28.662100
658.000000	28.737800
659.000000	28.799967
660.000000	28.873800
661.000000	28.952400
662.000000	29.023000
663.000000	29.103800
664.000000	29.192433
665.000000	29.275567
666.000000	29.358933
667.000000	29.453433
668.000000	29.549433
669.000000	29.647867
670.000000	29.741867
671.000000	29.851567
672.000000	29.978333
673.000000	30.086300
674.000000	30.191500
675.000000	30.327533
676.000000	30.449567
677.000000	30.561300
678.000000	30.692867
679.000000	30.824600
680.000000	30.944100
681.000000	31.080133
682.000000	31.233433
683.000000	31.387867
684.000000	31.522433
685.000000	31.650133
686.000000	31.778467
687.000000	31.920700
688.000000	32.092067
689.000000	32.242933
690.000000	32.411000
691.000000	32.556200
692.000000	32.733067
693.000000	32.913767
694.000000	33.075833
695.000000	33.234833
696.000000	33.388900
697.000000	33.578600
698.000000	33.746800
699.000000	33.902967
700.000000	34.078633
701.000000	34.259167
702.000000	34.457000
703.000000	34.614900
704.000000	34.823967
705.000000	35.010233
706.000000	35.195033
707.000000	35.408500
708.000000	35.588067
709.000000	35.770400
710.000000	35.972433
711.000000	36.211367
712.000000	36.407700
713.000000	36.618000
714.000000	36.805167
715.000000	37.011833
716.000000	37.222200
717.000000	37.442433
718.000000	37.652067
719.000000	37.847267
720.000000	38.078867
721.000000	38.272667
722.000000	38.532200
723.000000	38.739333
724.000000	38.967867
725.000000	39.192867
726.000000	39.364300
727.000000	39.580933
728.000000	39.800100
729.000000	40.037367
730.000000	40.185133
731.000000	40.445967
732.000000	40.625900
733.000000	40.840900
734.000000	41.031900
735.000000	41.260600
736.000000	41.463567
737.000000	41.648867
738.000000	41.873567
739.000000	42.073533
740.000000	42.305167
741.000000	42.525700
742.000000	42.724533
743.000000	42.957067
744.000000	43.159967
745.000000	43.342733
746.000000	43.577867
747.000000	43.789933
748.000000	43.980633
749.000000	44.173067
750.000000	44.354300
751.000000	44.532233
752.000000	44.774767
753.000000	44.921000
754.000000	45.091033
755.000000	45.274233
756.000000	45.451567
757.000000	45.624633
758.000000	45.801400
759.000000	46.060100
760.000000	46.171433
761.000000	46.401067
762.000000	46.587600
763.000000	46.746533
764.000000	46.915300
765.000000	47.108233
766.000000	47.242933
767.000000	47.380100
768.000000	47.523367
769.000000	47.722033
770.000000	47.833033
771.000000	48.012267
772.000000	48.134533
773.000000	48.281100
774.000000	48.459600
775.000000	48.683300
776.000000	48.739233
777.000000	48.921667
778.000000	49.036233
779.000000	49.158867
780.000000	49.386433
781.000000	49.463367
782.000000	49.636933
783.000000	49.817100
784.000000	49.954833
785.000000	49.989200
786.000000	50.161567
787.000000	50.270767
788.000000	50.428900
789.000000	50.476533
790.000000	50.651700
791.000000	50.810500
792.000000	50.878200
793.000000	51.075333
794.000000	51.087300
795.000000	51.251600
796.000000	51.375933
797.000000	51.437400
798.000000	51.498433
799.000000	51.725633
800.000000	51.840067
801.000000	51.953067
802.000000	52.043800
803.000000	52.123867
804.000000	52.203800
805.000000	52.269167
806.000000	52.421733
807.000000	52.460100
808.000000	52.638200
809.000000	52.803533
810.000000	52.761533
811.000000	52.945633
812.000000	53.037833
813.000000	53.084033
814.000000	53.060900
815.000000	53.245467
816.000000	53.396467
817.000000	53.475933
818.000000	53.420600
819.000000	53.506200
820.000000	53.647500
821.000000	53.765200
822.000000	53.790800
823.000000	53.761233
824.000000	53.795567
825.000000	53.865967
826.000000	54.091433
827.000000	54.103767
828.000000	54.012133
829.000000	54.135900
830.000000	54.236767
831.000000	54.232767
832.000000	54.317233
833.000000	54.360667
834.000000	54.334767
835.000000	54.350367
836.000000	54.346133
837.000000	54.546100
838.000000	54.457900
839.000000	54.566567
840.000000	54.591667
841.000000	54.612133
842.000000	54.507700
843.000000	54.548900
844.000000	54.710567
845.000000	54.449433
846.000000	54.563467
847.000000	54.500600
848.000000	54.433600
849.000000	54.706900
850.000000	54.693433
851.000000	54.336400
852.000000	54.620167
853.000000	54.362533
854.000000	54.849400
855.000000	54.520433
856.000000	54.628633
857.000000	53.475300
858.000000	54.208122
859.000000	54.198921
860.000000	54.176337
861.000000	54.151657
862.000000	54.115745
863.000000	54.092927
864.000000	54.061553
865.000000	54.043934
866.000000	54.006172
867.000000	53.981663
868.000000	53.947266
869.000000	53.897201
870.000000	53.859949
871.000000	53.846438
872.000000	53.903696
873.000000	54.054934
874.000000	54.255081
875.000000	54.421194
876.000000	54.585586
877.000000	54.714139
878.000000	54.851120
879.000000	54.967153
880.000000	55.074811
881.000000	55.184101
882.000000	55.272319
883.000000	55.342275
884.000000	55.418636
885.000000	55.485117
886.000000	55.538423
887.000000	55.594889
888.000000	55.622680
889.000000	55.651844
890.000000	55.690604
891.000000	55.726158
892.000000	55.758860
893.000000	55.763801
894.000000	55.773437
895.000000	55.785859
896.000000	55.777535
897.000000	55.767671
898.000000	55.753577
899.000000	55.739913
900.000000	55.745729
901.000000	55.738995
902.000000	55.742115
903.000000	55.728895
904.000000	55.719765
905.000000	55.716205
906.000000	55.728116
907.000000	55.751678
908.000000	55.782663
909.000000	55.814945
910.000000	55.856833
911.000000	55.911970
912.000000	55.976726
913.000000	56.027354
914.000000	56.064787
915.000000	56.109963
916.000000	56.162332
917.000000	56.212440
918.000000	56.254681
919.000000	56.279465
920.000000	56.312259
921.000000	56.343649
922.000000	56.377240
923.000000	56.402542
924.000000	56.422425
925.000000	56.433117
926.000000	56.450129
927.000000	56.475787
928.000000	56.500950
929.000000	56.518380
930.000000	56.535704
931.000000	56.551400
932.000000	56.566779
933.000000	56.581582
934.000000	56.599437
935.000000	56.611699
936.000000	56.619712
937.000000	56.631280
938.000000	56.657717
939.000000	56.663487
940.000000	56.669124
941.000000	56.687495
942.000000	56.702955
943.000000	56.700879
944.000000	56.708012
945.000000	56.722882
946.000000	56.719546
947.000000	56.717411
948.000000	56.723407
949.000000	56.723481
950.000000	56.721761
951.000000	56.719507
952.000000	56.723905
953.000000	56.724983
954.000000	56.713938
955.000000	56.703494
956.000000	56.684640
957.000000	56.668481
958.000000	56.651057
959.000000	56.632729
960.000000	56.611497
961.000000	56.580971
962.000000	56.557136
963.000000	56.541446
964.000000	56.526579
965.000000	56.513250
966.000000	56.499078
967.000000	56.487628
968.000000	56.475250
969.000000	56.472308
970.000000	56.478563
971.000000	56.485033
972.000000	56.481322
973.000000	56.472545
974.000000	56.471494
975.000000	56.462781
976.000000	56.458357
977.000000	56.458973
978.000000	56.457021
979.000000	56.455863
980.000000	56.453585
981.000000	56.456350
982.000000	56.459015
983.000000	56.450315
984.000000	56.448213
985.000000	56.447737
986.000000	56.453470
987.000000	56.458587
988.000000	56.459325
989.000000	56.460344
990.000000	56.471592
991.000000	56.486588
992.000000	56.502327
993.000000	56.512034
994.000000	56.533197
995.000000	56.552914
996.000000	56.577637
997.000000	56.596613
998.000000	56.604379
999.000000	56.633425
1000.000000	56.657459
1001.000000	56.687129
1002.000000	56.710455
1003.000000	56.733297
1004.000000	56.753966
1005.000000	56.781028
1006.000000	56.810560
1007.000000	56.826505
1008.000000	56.847085
1009.000000	56.884510
1010.000000	56.923850
1011.000000	56.960190
1012.000000	57.002895
1013.000000	57.077707
1014.000000	57.138003
1015.000000	57.212910
1016.000000	57.280887
1017.000000	57.379439
1018.000000	57.484036
1019.000000	57.576515
1020.000000	57.675917
1021.000000	57.778480
1022.000000	57.887665
1023.000000	57.996533
1024.000000	58.107105
1025.000000	58.203019
1026.000000	58.314109
1027.000000	58.416615
1028.000000	58.516115
1029.000000	58.612536
1030.000000	58.709315
1031.000000	58.810915
1032.000000	58.900096
1033.000000	58.994946
1034.000000	59.080408
1035.000000	59.171107
1036.000000	59.256996
1037.000000	59.344269
1038.000000	59.415551
1039.000000	59.490489
1040.000000	59.565548
1041.000000	59.643552
1042.000000	59.698484
1043.000000	59.781312
1044.000000	59.855944
1045.000000	59.938065
1046.000000	60.011655
1047.000000	60.083204
1048.000000	60.156703
1049.000000	60.239482
1050.000000	60.328827
1051.000000	60.409589
1052.000000	60.498060
1053.000000	60.584953
1054.000000	60.674069
1055.000000	60.761846
1056.000000	60.866492
1057.000000	60.958752
1058.000000	61.049278
1059.000000	61.129332
1060.000000	61.221359
1061.000000	61.310194
1062.000000	61.394325
1063.000000	61.477963
1064.000000	61.562769
1065.000000	61.652040
1066.000000	61.729599
1067.000000	61.811689
1068.000000	61.891685
1069.000000	61.966197
1070.000000	62.054515
1071.000000	62.128483
1072.000000	62.200302
1073.000000	62.274067
1074.000000	62.348993
1075.000000	62.440747
1076.000000	62.511146
1077.000000	62.568533
1078.000000	62.642369
1079.000000	62.713302
1080.000000	62.790924
1081.000000	62.867683
1082.000000	62.943858
1083.000000	63.008842
1084.000000	63.097566
1085.000000	63.181919
1086.000000	63.224861
1087.000000	63.308538
1088.000000	63.369993
1089.000000	63.440554
1090.000000	63.488414
1091.000000	63.559382
1092.000000	63.611539
1093.000000	63.666296
1094.000000	63.709595
1095.000000	63.752458
1096.000000	63.795522
1097.000000	63.850856
1098.000000	63.876824
1099.000000	63.908996
1100.000000	63.931061
1101.000000	63.956996
1102.000000	63.979532
1103.000000	64.001657
1104.000000	64.025604
1105.000000	64.042236
1106.000000	64.063264
1107.000000	64.076641
1108.000000	64.090608
1109.000000	64.105145
1110.000000	64.122362
1111.000000	64.138018
1112.000000	64.151023
1113.000000	64.163519
1114.000000	64.161287
1115.000000	64.175773
1116.000000	64.177171
1117.000000	64.161131
1118.000000	64.139006
1119.000000	64.096839
1120.000000	64.043419
1121.000000	63.974793
1122.000000	63.900260
1123.000000	63.790513
1124.000000	63.671379
1125.000000	63.531748
1126.000000	63.365226
1127.000000	63.161566
1128.000000	62.897841
1129.000000	62.588239
1130.000000	62.211145
1131.000000	61.791639
1132.000000	61.333421
1133.000000	60.865900
1134.000000	60.348342
1135.000000	59.761037
1136.000000	59.196691
1137.000000	58.647663
1138.000000	58.120939
1139.000000	57.623077
1140.000000	57.135605
1141.000000	56.666683
1142.000000	56.231284
1143.000000	55.814415
1144.000000	55.464891
1145.000000	55.176468
1146.000000	54.954237
1147.000000	54.821471
1148.000000	54.718385
1149.000000	54.648934
1150.000000	54.566926
1151.000000	54.473452
1152.000000	54.343554
1153.000000	54.162473
1154.000000	53.927061
1155.000000	53.637045
1156.000000	53.286715
1157.000000	52.874396
1158.000000	52.443315
1159.000000	51.991269
1160.000000	51.536386
1161.000000	51.073619
1162.000000	50.590400
1163.000000	50.109588
1164.000000	49.635617
1165.000000	49.178316
1166.000000	48.729504
1167.000000	48.278404
1168.000000	47.840093
1169.000000	47.421021
1170.000000	47.004597
1171.000000	46.591670
1172.000000	46.187411
1173.000000	45.784157
1174.000000	45.401171
1175.000000	45.008414
1176.000000	44.577701
1177.000000	44.099288
1178.000000	43.564348
1179.000000	42.964023
1180.000000	42.332154
1181.000000	41.727641
1182.000000	41.215850
1183.000000	40.825131
1184.000000	40.576242
1185.000000	40.485152
1186.000000	40.546261
1187.000000	40.752100
1188.000000	41.101200
1189.000000	41.557118
1190.000000	42.074335
1191.000000	42.615786
1192.000000	43.133727
1193.000000	43.575050
1194.000000	43.955026
1195.000000	44.256403
1196.000000	44.486459
1197.000000	44.656589
1198.000000	44.787497
1199.000000	44.878980
1200.000000	44.962691
1201.000000	45.032474
1202.000000	45.082072
1203.000000	45.127199
1204.000000	45.192118
1205.000000	45.274185
1206.000000	45.378283
1207.000000	45.491008
1208.000000	45.623770
1209.000000	45.779589
1210.000000	45.932348
1211.000000	46.105284
1212.000000	46.286628
1213.000000	46.471970
1214.000000	46.663030
1215.000000	46.857895
1216.000000	47.057985
1217.000000	47.266539
1218.000000	47.484605
1219.000000	47.713753
1220.000000	47.945007
1221.000000	48.188974
1222.000000	48.436076
1223.000000	48.681357
1224.000000	48.928840
1225.000000	49.174336
1226.000000	49.421926
1227.000000	49.668248
1228.000000	49.908431
1229.000000	50.146938
1230.000000	50.380529
1231.000000	50.616899
1232.000000	50.844829
1233.000000	51.055394
1234.000000	51.269467
1235.000000	51.483551
1236.000000	51.686311
1237.000000	51.878462
1238.000000	52.065835
1239.000000	52.256483
1240.000000	52.447396
1241.000000	52.629749
1242.000000	52.807726
1243.000000	52.979524
1244.000000	53.137682
1245.000000	53.296229
1246.000000	53.455493
1247.000000	53.594122
1248.000000	53.718189
1249.000000	53.838958
1250.000000	53.946375
1251.000000	54.054999
1252.000000	54.175161
1253.000000	54.272765
1254.000000	54.355533
1255.000000	54.443062
1256.000000	54.523769
1257.000000	54.594681
1258.000000	54.676312
1259.000000	54.751593
1260.000000	54.815846
1261.000000	54.886323
1262.000000	54.951661
1263.000000	55.009485
1264.000000	55.077821
1265.000000	55.147707
1266.000000	55.195314
1267.000000	55.257751
1268.000000	55.321857
1269.000000	55.375419
1270.000000	55.426237
1271.000000	55.479468
1272.000000	55.528829
1273.000000	55.574236
1274.000000	55.632926
1275.000000	55.689557
1276.000000	55.751529
1277.000000	55.826265
1278.000000	55.896113
1279.000000	55.974258
1280.000000	56.051535
1281.000000	56.121910
1282.000000	56.198026
1283.000000	56.278122
1284.000000	56.350460
1285.000000	56.416915
1286.000000	56.474147
1287.000000	56.526744
1288.000000	56.567754
1289.000000	56.607666
1290.000000	56.632810
1291.000000	56.653154
1292.000000	56.661154
1293.000000	56.666177
1294.000000	56.657831
1295.000000	56.644881
1296.000000	56.629071
1297.000000	56.610935
1298.000000	56.584110
1299.000000	56.555636
1300.000000	56.530876
1301.000000	56.491978
1302.000000	56.436128
1303.000000	56.375185
1304.000000	56.313011
1305.000000	56.235708
1306.000000	56.154454
1307.000000	56.059519
1308.000000	55.950080
1309.000000	55.841684
1310.000000	55.718855
1311.000000	55.574475
1312.000000	55.441724
1313.000000	55.294453
1314.000000	55.137479
1315.000000	54.977893
1316.000000	54.798857
1317.000000	54.629919
1318.000000	54.444485
1319.000000	54.253748
1320.000000	54.058144
1321.000000	53.854836
1322.000000	53.628365
1323.000000	53.406047
1324.000000	53.181708
1325.000000	52.925402
1326.000000	52.674641
1327.000000	52.406908
1328.000000	52.128837
1329.000000	51.852060
1330.000000	51.545042
1331.000000	51.227972
1332.000000	50.901252
1333.000000	50.562451
1334.000000	50.225435
1335.000000	49.880662
1336.000000	49.519778
1337.000000	49.162524
1338.000000	48.781866
1339.000000	48.389134
1340.000000	48.001346
1341.000000	47.598534
1342.000000	47.194382
1343.000000	46.800202
1344.000000	46.342935
1345.000000	45.898141
1346.000000	45.468594
1347.000000	44.983612
1348.000000	44.475392
1349.000000	43.942652
1350.000000	43.364134
1351.000000	42.740353
1352.000000	42.064259
1353.000000	41.534449
1354.000000	41.010450
1355.000000	40.542186
1356.000000	40.213854
1357.000000	40.014944
1358.000000	39.869769
1359.000000	39.751088
1360.000000	39.664582
1361.000000	39.485544
1362.000000	39.268839
1363.000000	39.041385
1364.000000	38.799469
1365.000000	38.530372
1366.000000	38.264147
1367.000000	37.951147
1368.000000	37.576397
1369.000000	37.195111
1370.000000	36.794016
1371.000000	36.322446
1372.000000	35.884006
1373.000000	35.485951
1374.000000	35.162637
1375.000000	34.892114
1376.000000	34.664521
1377.000000	34.437117
1378.000000	34.215647
1379.000000	33.940894
1380.000000	33.606161
1381.000000	33.144092
1382.000000	32.528480
1383.000000	31.882956
1384.000000	31.242799
1385.000000	30.658428
1386.000000	30.126523
1387.000000	29.641733
1388.000000	29.132531
1389.000000	28.706908
1390.000000	28.388663
1391.000000	28.031976
1392.000000	27.675683
1393.000000	27.382647
1394.000000	27.099307
1395.000000	26.753972
1396.000000	26.342307
1397.000000	25.995276
1398.000000	25.703922
1399.000000	25.381150
1400.000000	24.920149
1401.000000	24.425716
1402.000000	24.026488
1403.000000	23.628189
1404.000000	23.200429
1405.000000	22.772081
1406.000000	22.363723
1407.000000	21.983451
1408.000000	21.592272
1409.000000	21.225111
1410.000000	20.862879
1411.000000	20.552105
1412.000000	20.313009
1413.000000	20.057346
1414.000000	19.774125
1415.000000	19.516503
1416.000000	19.255689
1417.000000	19.054498
1418.000000	18.840534
1419.000000	18.601312
1420.000000	18.387700
1421.000000	18.180171
1422.000000	17.991498
1423.000000	17.792272
1424.000000	17.606433
1425.000000	17.420679
1426.000000	17.239012
1427.000000	17.091531
1428.000000	16.949613
1429.000000	16.807958
1430.000000	16.680757
1431.000000	16.566778
1432.000000	16.446737
1433.000000	16.323014
1434.000000	16.208386
1435.000000	16.117404
1436.000000	16.018639
1437.000000	15.924000
1438.000000	15.825464
1439.000000	15.734459
1440.000000	15.640455
1441.000000	15.549310
1442.000000	15.454174
1443.000000	15.374963
1444.000000	15.300984
1445.000000	15.208645
1446.000000	15.128190
1447.000000	15.035396
1448.000000	14.963680
1449.000000	14.911510
1450.000000	14.840736
1451.000000	14.764599
1452.000000	14.702658
1453.000000	14.634748
1454.000000	14.571009
1455.000000	14.526366
1456.000000	14.464740
1457.000000	14.418499
1458.000000	14.378628
1459.000000	14.342895
1460.000000	14.308937
1461.000000	14.268625
1462.000000	14.240329
1463.000000	14.217159
1464.000000	14.194076
1465.000000	14.184792
1466.000000	14.167902
1467.000000	14.157208
1468.000000	14.144038
1469.000000	14.137890
1470.000000	14.135434
1471.000000	14.135626
1472.000000	14.119798
1473.000000	14.101751
1474.000000	14.096942
1475.000000	14.104422
1476.000000	14.097287
1477.000000	14.093692
1478.000000	14.101855
1479.000000	14.108828
1480.000000	14.123251
1481.000000	14.132079
1482.000000	14.138089
1483.000000	14.150295
1484.000000	14.162778
1485.000000	14.177969
1486.000000	14.201057
1487.000000	14.218407
1488.000000	14.236991
1489.000000	14.258478
1490.000000	14.276405
1491.000000	14.292944
1492.000000	14.323301
1493.000000	14.349378
1494.000000	14.375926
1495.000000	14.404982
1496.000000	14.427532
1497.000000	14.463544
1498.000000	14.499541
1499.000000	14.535770
1500.000000	14.574183
1501.000000	14.608902
1502.000000	14.651591
1503.000000	14.692314
1504.000000	14.735559
1505.000000	14.784136
1506.000000	14.827842
1507.000000	14.869559
1508.000000	14.917776
1509.000000	14.964588
1510.000000	15.008225
1511.000000	15.051273
1512.000000	15.093799
1513.000000	15.144807
1514.000000	15.192463
1515.000000	15.233907
1516.000000	15.274549
1517.000000	15.301902
1518.000000	15.343645
1519.000000	15.391142
1520.000000	15.427136
1521.000000	15.466107
1522.000000	15.500473
1523.000000	15.532604
1524.000000	15.567110
1525.000000	15.601841
1526.000000	15.635041
1527.000000	15.674992
1528.000000	15.705538
1529.000000	15.726162
1530.000000	15.758129
1531.000000	15.786481
1532.000000	15.810863
1533.000000	15.839137
1534.000000	15.858687
1535.000000	15.876691
1536.000000	15.900931
1537.000000	15.914228
1538.000000	15.923737
1539.000000	15.939337
1540.000000	15.957187
1541.000000	15.966613
1542.000000	15.985181
1543.000000	16.002698
1544.000000	16.010816
1545.000000	16.026623
1546.000000	16.052856
1547.000000	16.075820
1548.000000	16.107445
1549.000000	16.123065
1550.000000	16.138808
1551.000000	16.158709
1552.000000	16.186104
1553.000000	16.192885
1554.000000	16.201856
1555.000000	16.219086
1556.000000	16.233345
1557.000000	16.246485
1558.000000	16.247603
1559.000000	16.244247
1560.000000	16.257096
1561.000000	16.255187
1562.000000	16.238493
1563.000000	16.238318
1564.000000	16.226967
1565.000000	16.224855
1566.000000	16.217738
1567.000000	16.204176
1568.000000	16.208222
1569.000000	16.202775
1570.000000	16.190578
1571.000000	16.189077
1572.000000	16.199784
1573.000000	16.210392
1574.000000	16.211422
1575.000000	16.228735
1576.000000	16.247628
1577.000000	16.267021
1578.000000	16.292182
1579.000000	16.309730
1580.000000	16.327205
1581.000000	16.367059
1582.000000	16.398586
1583.000000	16.427559
1584.000000	16.474467
1585.000000	16.506742
1586.000000	16.548927
1587.000000	16.592036
1588.000000	16.630749
1589.000000	16.682362
1590.000000	16.742125
1591.000000	16.781286
1592.000000	16.828972
1593.000000	16.883071
1594.000000	16.940772
1595.000000	16.989250
1596.000000	17.051412
1597.000000	17.110343
1598.000000	17.181353
1599.000000	17.245488
1600.000000	17.306294
1601.000000	17.371366
1602.000000	17.431895
1603.000000	17.499182
1604.000000	17.569385
1605.000000	17.636654
1606.000000	17.697127
1607.000000	17.762343
1608.000000	17.836723
1609.000000	17.893911
1610.000000	17.969666
1611.000000	18.027563
1612.000000	18.097448
1613.000000	18.172021
1614.000000	18.225701
1615.000000	18.298912
1616.000000	18.378758
1617.000000	18.445589
1618.000000	18.517230
1619.000000	18.584446
1620.000000	18.667837
1621.000000	18.739613
1622.000000	18.819587
1623.000000	18.893367
1624.000000	18.970889
1625.000000	19.057375
1626.000000	19.133817
1627.000000	19.205459
1628.000000	19.289321
1629.000000	19.365034
1630.000000	19.446310
1631.000000	19.526834
1632.000000	19.594855
1633.000000	19.677073
1634.000000	19.749215
1635.000000	19.804711
1636.000000	19.881504
1637.000000	19.949762
1638.000000	20.021994
1639.000000	20.083736
1640.000000	20.142121
1641.000000	20.193410
1642.000000	20.258951
1643.000000	20.308784
1644.000000	20.364168
1645.000000	20.413828
1646.000000	20.467428
1647.000000	20.508350
1648.000000	20.543864
1649.000000	20.593036
1650.000000	20.626243
1651.000000	20.645155
1652.000000	20.653208
1653.000000	20.665535
1654.000000	20.667531
1655.000000	20.677468
1656.000000	20.660605
1657.000000	20.627395
1658.000000	20.612649
1659.000000	20.570404
1660.000000	20.527110
1661.000000	20.461746
1662.000000	20.392536
1663.000000	20.319485
1664.000000	20.227593
1665.000000	20.131029
1666.000000	20.022975
1667.000000	19.903799
1668.000000	19.743235
1669.000000	19.578051
1670.000000	19.373202
1671.000000	19.156579
1672.000000	18.922068
1673.000000	18.615672
1674.000000	18.306299
1675.000000	17.926970
1676.000000	17.510430
1677.000000	17.068602
1678.000000	16.600435
1679.000000	16.115413
1680.000000	15.703805
1681.000000	15.353573
1682.000000	15.071617
1683.000000	14.907117
1684.000000	14.804922
1685.000000	14.761423
1686.000000	14.738875
1687.000000	14.709937
1688.000000	14.626944
1689.000000	14.535280
1690.000000	14.406267
1691.000000	14.284851
1692.000000	14.177929
1693.000000	14.086921
1694.000000	14.071378
1695.000000	14.075645
1696.000000	14.129236
1697.000000	14.219521
1698.000000	14.335508
1699.000000	14.461112
1700.000000	14.596461
1701.000000	14.702261
1702.000000	14.781470
1703.000000	14.858876
1704.000000	14.901599
1705.000000	14.940725
1706.000000	14.989991
1707.000000	15.018753
1708.000000	15.010673
1709.000000	15.002745
1710.000000	14.995592
1711.000000	14.970275
1712.000000	14.918264
1713.000000	14.850694
1714.000000	14.784304
1715.000000	14.714996
1716.000000	14.665025
1717.000000	14.627095
1718.000000	14.588757
1719.000000	14.553323
1720.000000	14.526913
1721.000000	14.512437
1722.000000	14.478590
1723.000000	14.439859
1724.000000	14.390986
1725.000000	14.328862
1726.000000	14.262110
1727.000000	14.178119
1728.000000	14.087365
1729.000000	14.007152
1730.000000	13.930933
1731.000000	13.878280
1732.000000	13.848959
1733.000000	13.858875
1734.000000	13.915780
1735.000000	13.993939
1736.000000	14.099069
1737.000000	14.251950
1738.000000	14.425379
1739.000000	14.598913
1740.000000	14.775707
1741.000000	14.951599
1742.000000	15.108520
1743.000000	15.249084
1744.000000	15.373808
1745.000000	15.487967
1746.000000	15.565413
1747.000000	15.635035
1748.000000	15.683478
1749.000000	15.723729
1750.000000	15.745424
1751.000000	15.763201
1752.000000	15.758959
1753.000000	15.741900
1754.000000	15.709927
1755.000000	15.677814
1756.000000	15.639515
1757.000000	15.575129
1758.000000	15.514604
1759.000000	15.450230
1760.000000	15.410160
1761.000000	15.382842
1762.000000	15.366289
1763.000000	15.376011
1764.000000	15.404827
1765.000000	15.461952
1766.000000	15.537758
1767.000000	15.622014
1768.000000	15.721082
1769.000000	15.814356
1770.000000	15.911060
1771.000000	16.025876
1772.000000	16.138671
1773.000000	16.243957
1774.000000	16.339980
1775.000000	16.428158
1776.000000	16.519143
1777.000000	16.602384
1778.000000	16.676691
1779.000000	16.745034
1780.000000	16.823899
1781.000000	16.896677
1782.000000	16.964056
1783.000000	17.030890
1784.000000	17.091330
1785.000000	17.162270
1786.000000	17.227146
1787.000000	17.274273
1788.000000	17.331537
1789.000000	17.389796
1790.000000	17.445637
1791.000000	17.496845
1792.000000	17.544469
1793.000000	17.604108
1794.000000	17.656213
1795.000000	17.697467
1796.000000	17.741472
1797.000000	17.788034
1798.000000	17.837768
1799.000000	17.892603
1800.000000	17.945432
1801.000000	17.990120
1802.000000	18.034339
1803.000000	18.083830
1804.000000	18.132422
1805.000000	18.182295
1806.000000	18.226934
1807.000000	18.272407
1808.000000	18.314366
1809.000000	18.350206
1810.000000	18.379560
1811.000000	18.416109
1812.000000	18.440845
1813.000000	18.453750
1814.000000	18.469010
1815.000000	18.472243
1816.000000	18.488195
1817.000000	18.508393
1818.000000	18.535842
1819.000000	18.577320
1820.000000	18.601950
1821.000000	18.616018
1822.000000	18.636519
1823.000000	18.663734
1824.000000	18.710770
1825.000000	18.776529
1826.000000	18.831001
1827.000000	18.901146
1828.000000	18.984361
1829.000000	19.051766
1830.000000	19.106712
1831.000000	19.162818
1832.000000	19.232216
1833.000000	19.297307
1834.000000	19.362137
1835.000000	19.424099
1836.000000	19.472735
1837.000000	19.504838
1838.000000	19.524507
1839.000000	19.564145
1840.000000	19.591635
1841.000000	19.616137
1842.000000	19.618400
1843.000000	19.626779
1844.000000	19.659489
1845.000000	19.694071
1846.000000	19.757561
1847.000000	19.784047
1848.000000	19.794294
1849.000000	19.813972
1850.000000	19.815964
1851.000000	19.823434
1852.000000	19.836352
1853.000000	19.847927
1854.000000	19.831699
1855.000000	19.800484
1856.000000	19.757725
1857.000000	19.709892
1858.000000	19.634343
1859.000000	19.544309
1860.000000	19.430485
1861.000000	19.312856
1862.000000	19.184319
1863.000000	19.062321
1864.000000	18.932162
1865.000000	18.779515
1866.000000	18.620141
1867.000000	18.421908
1868.000000	18.193922
1869.000000	17.922456
1870.000000	17.618718
1871.000000	17.294380
1872.000000	16.971096
1873.000000	16.594046
1874.000000	16.221315
1875.000000	15.856144
1876.000000	15.468038
1877.000000	15.079037
1878.000000	14.662347
1879.000000	14.279868
1880.000000	13.888644
1881.000000	13.473643
1882.000000	13.087400
1883.000000	12.691623
1884.000000	12.306736
1885.000000	11.968558
1886.000000	11.682868
1887.000000	11.400904
1888.000000	11.141778
1889.000000	10.910749
1890.000000	10.687961
1891.000000	10.446638
1892.000000	10.215599
1893.000000	10.018385
1894.000000	9.839779
1895.000000	9.673894
1896.000000	9.514496
1897.000000	9.373965
1898.000000	9.211587
1899.000000	9.037899
1900.000000	8.873218
1901.000000	8.731303
1902.000000	8.590304
1903.000000	8.475799
1904.000000	8.352922
1905.000000	8.222909
1906.000000	8.095227
1907.000000	7.973249
1908.000000	7.871053
1909.000000	7.800298
1910.000000	7.716386
1911.000000	7.639889
1912.000000	7.541785
1913.000000	7.466493
1914.000000	7.370414
1915.000000	7.312085
1916.000000	7.245735
1917.000000	7.182339
1918.000000	7.125680
1919.000000	7.083704
1920.000000	7.026886
1921.000000	6.970616
1922.000000	6.925093
1923.000000	6.896379
1924.000000	6.848109
1925.000000	6.810752
1926.000000	6.790049
1927.000000	6.743770
1928.000000	6.716937
1929.000000	6.710606
1930.000000	6.672644
1931.000000	6.669401
1932.000000	6.644016
1933.000000	6.633763
1934.000000	6.626398
1935.000000	6.613237
1936.000000	6.615216
1937.000000	6.611205
1938.000000	6.614635
1939.000000	6.630838
1940.000000	6.639176
1941.000000	6.634430
1942.000000	6.640971
1943.000000	6.656330
1944.000000	6.674561
1945.000000	6.688095
1946.000000	6.701728
1947.000000	6.720648
1948.000000	6.734645
1949.000000	6.753169
1950.000000	6.785291
1951.000000	6.797509
1952.000000	6.829456
1953.000000	6.853529
1954.000000	6.873609
1955.000000	6.902433
1956.000000	6.952285
1957.000000	6.959147
1958.000000	6.976517
1959.000000	7.008562
1960.000000	7.030060
1961.000000	7.065276
1962.000000	7.090312
1963.000000	7.131724
1964.000000	7.149932
1965.000000	7.163528
1966.000000	7.218930
1967.000000	7.242011
1968.000000	7.275477
1969.000000	7.308950
1970.000000	7.327841
1971.000000	7.368205
1972.000000	7.402565
1973.000000	7.440211
1974.000000	7.465558
1975.000000	7.500565
1976.000000	7.542585
1977.000000	7.576665
1978.000000	7.607074
1979.000000	7.642705
1980.000000	7.680248
1981.000000	7.721875
1982.000000	7.750667
1983.000000	7.797026
1984.000000	7.828792
1985.000000	7.878881
1986.000000	7.906964
1987.000000	7.941062
1988.000000	7.978116
1989.000000	8.018493
1990.000000	8.061390
1991.000000	8.083934
1992.000000	8.113598
1993.000000	8.157836
1994.000000	8.183826
1995.000000	8.206172
1996.000000	8.237610
1997.000000	8.269449
1998.000000	8.290132
1999.000000	8.315512
2000.000000	8.340975
2001.000000	8.369367
2002.000000	8.383564
2003.000000	8.406117
2004.000000	8.431276
2005.000000	8.440836
2006.000000	8.467142
2007.000000	8.473696
2008.000000	8.482208
2009.000000	8.492706
2010.000000	8.505140
2011.000000	8.507490
2012.000000	8.510096
2013.000000	8.510432
2014.000000	8.513485
2015.000000	8.510669
2016.000000	8.503508
2017.000000	8.493178
2018.000000	8.487562
2019.000000	8.478921
2020.000000	8.466827
2021.000000	8.462360
2022.000000	8.448598
2023.000000	8.434332
2024.000000	8.412636
2025.000000	8.388658
2026.000000	8.374791
2027.000000	8.360656
2028.000000	8.334975
2029.000000	8.309301
2030.000000	8.282487
2031.000000	8.242909
2032.000000	8.219909
2033.000000	8.204635
2034.000000	8.164766
2035.000000	8.136111
2036.000000	8.105285
2037.000000	8.066617
2038.000000	8.025514
2039.000000	7.976131
2040.000000	7.928939
2041.000000	7.893085
2042.000000	7.852119
2043.000000	7.814625
2044.000000	7.773846
2045.000000	7.727201
2046.000000	7.693379
2047.000000	7.654410
2048.000000	7.622109
2049.000000	7.592168
2050.000000	7.562818
2051.000000	7.543115
2052.000000	7.522244
2053.000000	7.508544
2054.000000	7.491178
2055.000000	7.483591
2056.000000	7.484725
2057.000000	7.490085
2058.000000	7.501146
2059.000000	7.501009
2060.000000	7.506035
2061.000000	7.520338
2062.000000	7.533789
2063.000000	7.546942
2064.000000	7.558784
2065.000000	7.574413
2066.000000	7.594439
2067.000000	7.614587
2068.000000	7.626021
2069.000000	7.643124
2070.000000	7.656545
2071.000000	7.672742
2072.000000	7.693322
2073.000000	7.710967
2074.000000	7.738370
2075.000000	7.746333
2076.000000	7.748418
2077.000000	7.767470
2078.000000	7.791131
2079.000000	7.804660
2080.000000	7.812642
2081.000000	7.824968
2082.000000	7.835210
2083.000000	7.848900
2084.000000	7.863229
2085.000000	7.879035
2086.000000	7.878567
2087.000000	7.882858
2088.000000	7.902278
2089.000000	7.910650
2090.000000	7.907418
2091.000000	7.914325
2092.000000	7.924858
2093.000000	7.940366
2094.000000	7.958130
2095.000000	7.967275
2096.000000	7.975052
2097.000000	7.981759
2098.000000	7.991501
2099.000000	8.003469
2100.000000	8.009523
2101.000000	8.021153
2102.000000	8.037649
2103.000000	8.062552
2104.000000	8.076936
2105.000000	8.082510
2106.000000	8.096750
2107.000000	8.108995
2108.000000	8.116260
2109.000000	8.129213
2110.000000	8.140488
2111.000000	8.159291
2112.000000	8.171984
2113.000000	8.178527
2114.000000	8.189794
2115.000000	8.198087
2116.000000	8.209965
2117.000000	8.226881
2118.000000	8.239719
2119.000000	8.246743
2120.000000	8.251803
2121.000000	8.253402
2122.000000	8.259428
2123.000000	8.258941
2124.000000	8.268851
2125.000000	8.272266
2126.000000	8.263834
2127.000000	8.266585
2128.000000	8.273440
2129.000000	8.270005
2130.000000	8.262819
2131.000000	8.255446
2132.000000	8.262702
2133.000000	8.253230
2134.000000	8.238290
2135.000000	8.225167
2136.000000	8.220708
2137.000000	8.204287
2138.000000	8.206831
2139.000000	8.192703
2140.000000	8.164106
2141.000000	8.154524
2142.000000	8.147947
2143.000000	8.135792
2144.000000	8.118276
2145.000000	8.102116
2146.000000	8.081526
2147.000000	8.056248
2148.000000	8.049085
2149.000000	8.028108
2150.000000	8.016138
2151.000000	7.992186
2152.000000	7.968400
2153.000000	7.962679
2154.000000	7.943660
2155.000000	7.925295
2156.000000	7.917312
2157.000000	7.895944
2158.000000	7.878655
2159.000000	7.871418
2160.000000	7.863063
2161.000000	7.861334
2162.000000	7.846271
2163.000000	7.832038
2164.000000	7.826859
2165.000000	7.804098
2166.000000	7.811915
2167.000000	7.814114
2168.000000	7.804583
2169.000000	7.801224
2170.000000	7.799746
2171.000000	7.798676
2172.000000	7.795054
2173.000000	7.786551
2174.000000	7.792909
2175.000000	7.798238
2176.000000	7.785117
2177.000000	7.795460
2178.000000	7.814176
2179.000000	7.819234
2180.000000	7.816465
2181.000000	7.827987
2182.000000	7.835828
2183.000000	7.838765
2184.000000	7.850593
2185.000000	7.854775
2186.000000	7.855455
2187.000000	7.873941
2188.000000	7.858914
2189.000000	7.869467
2190.000000	7.881564
2191.000000	7.881523
2192.000000	7.901750
2193.000000	7.908588
2194.000000	7.916059
2195.000000	7.911379
2196.000000	7.909127
2197.000000	7.917839
2198.000000	7.909976
2199.000000	7.938607
2200.000000	7.932099
2201.000000	7.944482
2202.000000	7.964323
2203.000000	7.972137
2204.000000	7.957714
2205.000000	7.970078
2206.000000	7.979609
2207.000000	7.986405
2208.000000	7.992464
2209.000000	8.003934
2210.000000	8.007782
2211.000000	8.016970
2212.000000	8.026063
2213.000000	8.047114
2214.000000	8.062267
2215.000000	8.067086
2216.000000	8.082734
2217.000000	8.090327
2218.000000	8.087771
2219.000000	8.107665
2220.000000	8.124329
2221.000000	8.126300
2222.000000	8.133239
2223.000000	8.113162
2224.000000	8.120089
2225.000000	8.128553
2226.000000	8.101457
2227.000000	8.094586
2228.000000	8.088549
2229.000000	8.077318
2230.000000	8.055417
2231.000000	8.042382
2232.000000	8.011613
2233.000000	7.972687
2234.000000	7.952272
2235.000000	7.913204
2236.000000	7.859478
2237.000000	7.835379
2238.000000	7.794597
2239.000000	7.731966
2240.000000	7.687949
2241.000000	7.631110
2242.000000	7.581166
2243.000000	7.506254
2244.000000	7.446552
2245.000000	7.378937
2246.000000	7.315289
2247.000000	7.228464
2248.000000	7.162881
2249.000000	7.076447
2250.000000	6.990248
2251.000000	6.888285
2252.000000	6.807041
2253.000000	6.723351
2254.000000	6.629374
2255.000000	6.534840
2256.000000	6.432820
2257.000000	6.349222
2258.000000	6.265725
2259.000000	6.198354
2260.000000	6.133608
2261.000000	6.061491
2262.000000	5.995592
2263.000000	5.948477
2264.000000	5.911726
2265.000000	5.849023
2266.000000	5.836686
2267.000000	5.815675
2268.000000	5.797524
2269.000000	5.789038
2270.000000	5.765224
2271.000000	5.773578
2272.000000	5.774386
2273.000000	5.778221
2274.000000	5.780806
2275.000000	5.785696
2276.000000	5.798737
2277.000000	5.817658
2278.000000	5.830480
2279.000000	5.837909
2280.000000	5.845663
2281.000000	5.864326
2282.000000	5.870446
2283.000000	5.874665
2284.000000	5.901406
2285.000000	5.906998
2286.000000	5.898198
2287.000000	5.904034
2288.000000	5.910420
2289.000000	5.889865
2290.000000	5.869779
2291.000000	5.862300
2292.000000	5.855997
2293.000000	5.839038
2294.000000	5.812413
2295.000000	5.784831
2296.000000	5.753396
2297.000000	5.730687
2298.000000	5.712611
2299.000000	5.693200
2300.000000	5.677494
2301.000000	5.646517
2302.000000	5.637462
2303.000000	5.629535
2304.000000	5.618994
2305.000000	5.618863
2306.000000	5.622027
2307.000000	5.626483
2308.000000	5.629841
2309.000000	5.652411
2310.000000	5.670356
2311.000000	5.684466
2312.000000	5.713343
2313.000000	5.735983
2314.000000	5.770713
2315.000000	5.795353
2316.000000	5.823044
2317.000000	5.855208
2318.000000	5.882407
2319.000000	5.917207
2320.000000	5.953126
2321.000000	5.970828
2322.000000	6.001365
2323.000000	6.024830
2324.000000	6.048806
2325.000000	6.079041
2326.000000	6.085907
2327.000000	6.104383
2328.000000	6.132646
2329.000000	6.147428
2330.000000	6.155976
2331.000000	6.165893
2332.000000	6.172842
2333.000000	6.182812
2334.000000	6.187931
2335.000000	6.186000
2336.000000	6.174415
2337.000000	6.182406
2338.000000	6.175991
2339.000000	6.163846
2340.000000	6.162600
2341.000000	6.150957
2342.000000	6.147680
2343.000000	6.133002
2344.000000	6.110300
2345.000000	6.095540
2346.000000	6.078464
2347.000000	6.073725
2348.000000	6.068534
2349.000000	6.065596
2350.000000	6.068239
2351.000000	6.054315
2352.000000	6.044837
2353.000000	6.051159
2354.000000	6.064537
2355.000000	6.079962
2356.000000	6.083243
2357.000000	6.088839
2358.000000	6.112703
2359.000000	6.133898
2360.000000	6.147352
2361.000000	6.164092
2362.000000	6.185010
2363.000000	6.201738
2364.000000	6.212183
2365.000000	6.227408
2366.000000	6.252568
2367.000000	6.272942
2368.000000	6.286774
2369.000000	6.289364
2370.000000	6.292598
2371.000000	6.296784
2372.000000	6.301952
2373.000000	6.309655
2374.000000	6.324740
2375.000000	6.339856
2376.000000	6.333731
2377.000000	6.335104
2378.000000	6.337672
2379.000000	6.340757
2380.000000	6.343857
2381.000000	6.347866
2382.000000	6.340146
2383.000000	6.332216
2384.000000	6.328948
2385.000000	6.328683
2386.000000	6.331591
2387.000000	6.318218
2388.000000	6.309097
2389.000000	6.305301
2390.000000	6.296341
2391.000000	6.281034
2392.000000	6.264203
2393.000000	6.262110
2394.000000	6.253177
2395.000000	6.246194
2396.000000	6.245265
2397.000000	6.229819
2398.000000	6.210251
2399.000000	6.186527
2400.000000	6.163827
2401.000000	6.157475
2402.000000	6.157608
2403.000000	6.150281
2404.000000	6.136682
2405.000000	6.122357
2406.000000	6.115561
2407.000000	6.104751
2408.000000	6.096975
2409.000000	6.093793
2410.000000	6.079791
2411.000000	6.066441
2412.000000	6.058845
2413.000000	6.055954
2414.000000	6.052401
2415.000000	6.031350
2416.000000	6.028260
2417.000000	6.013234
2418.000000	5.993768
2419.000000	5.988226
2420.000000	5.972219
2421.000000	5.963965
2422.000000	5.951163
2423.000000	5.940159
2424.000000	5.934624
2425.000000	5.910546
2426.000000	5.902005
2427.000000	5.885921
2428.000000	5.883795
2429.000000	5.865644
2430.000000	5.838821
2431.000000	5.826078
2432.000000	5.809362
2433.000000	5.794410
2434.000000	5.774687
2435.000000	5.757421
2436.000000	5.747725
2437.000000	5.724405
2438.000000	5.705052
2439.000000	5.679653
2440.000000	5.655082
2441.000000	5.648197
2442.000000	5.618252
2443.000000	5.595542
2444.000000	5.582943
2445.000000	5.570387
2446.000000	5.538881
2447.000000	5.524687
2448.000000	5.489409
2449.000000	5.494692
2450.000000	5.479081
2451.000000	5.449958
2452.000000	5.419771
2453.000000	5.420696
2454.000000	5.397019
2455.000000	5.394137
2456.000000	5.387131
2457.000000	5.377712
2458.000000	5.368763
2459.000000	5.324271
2460.000000	5.314793
2461.000000	5.319423
2462.000000	5.325777
2463.000000	5.341532
2464.000000	5.293640
2465.000000	5.303291
2466.000000	5.288875
2467.000000	5.294098
2468.000000	5.302952
2469.000000	5.291549
2470.000000	5.283844
2471.000000	5.291430
2472.000000	5.319075
2473.000000	5.296163
2474.000000	5.292943
2475.000000	5.323004
2476.000000	5.314350
2477.000000	5.322676
2478.000000	5.344043
2479.000000	5.346486
2480.000000	5.361960
2481.000000	5.380965
2482.000000	5.370279
2483.000000	5.365601
2484.000000	5.377251
2485.000000	5.391329
2486.000000	5.435420
2487.000000	5.425747
2488.000000	5.406027
2489.000000	5.440698
2490.000000	5.455177
2491.000000	5.441847
2492.000000	5.398014
2493.000000	5.493629
2494.000000	5.505358
2495.000000	5.484844
2496.000000	5.517926
2497.000000	5.566542
2498.000000	5.581231
2499.000000	5.526778
2500.000000	5.616059
