PE UV       SUBTECH     SPECTRUM    ASCII       PEDS        4.00        
   -1
CICIMAUCR0261-2.ASC
24/07/01
15:47:14.00
24/07/01
15:47:14.00
Vinicio Soto Monge
C. resplendens. Sex M. Ventral
250,000000
1
Lambda 1050
1050L1511233
PerkinElmer UV WinLab 6.3.2.0749 / 2.02.05 Lambda 900 UV/VIS/NIR, Aug  7 2015 09:38:08

0
0
3350/servo 860,8/2
0
0
UV/VIS
1
1
1
DoubleDePol,CommonBeamDepol,RBeamAtt,SBeamAtt,60mm sphere, WB InGaAs Detector
0
0
0
0
Program
Program
3350/servo 860,8/2
3350/0,2 860,8/0,2
3350/0,2 860,8/0,2
0
15.00
 
 
 
0
 
860,8
319,2
860,8
Front
100
on
S:100 R:100
0
0
0
0
 
0
 
 
 
0
 
 
0
0
0
0
0
 
 
 
 
0
0


0
0
#HDR
-1
-1
#GR
nm
%R
1.0
0.0
2500,000000
-1,000000
2251
8
48,614900
4,728300
#DATA
2482.000000	6.662103
2481.000000	6.644562
2480.000000	6.671156
2479.000000	6.726382
2478.000000	6.660293
2477.000000	6.671043
2476.000000	6.703296
2475.000000	6.641281
2474.000000	6.593298
2473.000000	6.629624
2472.000000	6.630643
2471.000000	6.637207
2470.000000	6.639923
2469.000000	6.642865
2468.000000	6.624079
2467.000000	6.627587
2466.000000	6.654521
2465.000000	6.684284
2464.000000	6.677720
2463.000000	6.648750
2462.000000	6.657916
2461.000000	6.643770
2460.000000	6.638451
2459.000000	6.643318
2458.000000	6.661651
2457.000000	6.680436
2456.000000	6.724345
2455.000000	6.702956
2454.000000	6.721063
2453.000000	6.706578
2452.000000	6.740075
2451.000000	6.749920
2450.000000	6.800279
2449.000000	6.796884
2448.000000	6.822686
2447.000000	6.834456
2446.000000	6.827326
2445.000000	6.865916
2444.000000	6.853128
2443.000000	6.918085
2442.000000	6.909145
2441.000000	6.950677
2440.000000	6.983835
2439.000000	7.002734
2438.000000	6.999905
2437.000000	7.033402
2436.000000	7.042568
2435.000000	7.050716
2434.000000	7.069163
2433.000000	7.093720
2432.000000	7.098699
2431.000000	7.123369
2430.000000	7.140684
2429.000000	7.166825
2428.000000	7.166712
2427.000000	7.181310
2426.000000	7.204057
2425.000000	7.208244
2424.000000	7.238573
2423.000000	7.261885
2422.000000	7.266638
2421.000000	7.294477
2420.000000	7.298324
2419.000000	7.311565
2418.000000	7.306359
2417.000000	7.325484
2416.000000	7.347891
2415.000000	7.368488
2414.000000	7.369959
2413.000000	7.375730
2412.000000	7.381389
2411.000000	7.415791
2410.000000	7.430163
2409.000000	7.416923
2408.000000	7.440348
2407.000000	7.459926
2406.000000	7.462076
2405.000000	7.480975
2404.000000	7.490481
2403.000000	7.488670
2402.000000	7.499761
2401.000000	7.511303
2400.000000	7.531673
2399.000000	7.560531
2398.000000	7.559739
2397.000000	7.563700
2396.000000	7.594707
2395.000000	7.597649
2394.000000	7.593123
2393.000000	7.608400
2392.000000	7.617001
2391.000000	7.632505
2390.000000	7.635786
2389.000000	7.649932
2388.000000	7.654685
2387.000000	7.667699
2386.000000	7.671434
2385.000000	7.649253
2384.000000	7.655704
2383.000000	7.680600
2382.000000	7.691691
2381.000000	7.690219
2380.000000	7.693614
2379.000000	7.686146
2378.000000	7.686485
2377.000000	7.686598
2376.000000	7.689427
2375.000000	7.690559
2374.000000	7.678224
2373.000000	7.670302
2372.000000	7.674037
2371.000000	7.679129
2370.000000	7.672679
2369.000000	7.654459
2368.000000	7.633976
2367.000000	7.635786
2366.000000	7.641218
2365.000000	7.633749
2364.000000	7.616548
2363.000000	7.601044
2362.000000	7.594028
2361.000000	7.582711
2360.000000	7.570150
2359.000000	7.552157
2358.000000	7.539142
2357.000000	7.541179
2356.000000	7.532239
2355.000000	7.514585
2354.000000	7.502703
2353.000000	7.493536
2352.000000	7.492065
2351.000000	7.481654
2350.000000	7.481088
2349.000000	7.493876
2348.000000	7.495008
2347.000000	7.499761
2346.000000	7.535182
2345.000000	7.551930
2344.000000	7.549893
2343.000000	7.565058
2342.000000	7.563700
2341.000000	7.563134
2340.000000	7.584522
2339.000000	7.604439
2338.000000	7.610211
2337.000000	7.623904
2336.000000	7.635221
2335.000000	7.615756
2334.000000	7.608513
2333.000000	7.621414
2332.000000	7.614172
2331.000000	7.593802
2330.000000	7.596518
2329.000000	7.594028
2328.000000	7.574111
2327.000000	7.557589
2326.000000	7.551138
2325.000000	7.525336
2324.000000	7.519565
2323.000000	7.503721
2322.000000	7.473619
2321.000000	7.450646
2320.000000	7.428466
2319.000000	7.395195
2318.000000	7.362829
2317.000000	7.324353
2316.000000	7.313489
2315.000000	7.277049
2314.000000	7.238120
2313.000000	7.192061
2312.000000	7.183461
2311.000000	7.164335
2310.000000	7.135818
2309.000000	7.111600
2308.000000	7.081837
2307.000000	7.050264
2306.000000	7.051169
2305.000000	7.060562
2304.000000	7.049132
2303.000000	7.050377
2302.000000	7.062712
2301.000000	7.069615
2300.000000	7.081271
2299.000000	7.091004
2298.000000	7.120087
2297.000000	7.139778
2296.000000	7.154490
2295.000000	7.195343
2294.000000	7.233027
2293.000000	7.241175
2292.000000	7.251474
2291.000000	7.268335
2290.000000	7.283613
2289.000000	7.298098
2288.000000	7.312470
2287.000000	7.323900
2286.000000	7.319600
2285.000000	7.306925
2284.000000	7.304775
2283.000000	7.315073
2282.000000	7.293006
2281.000000	7.279426
2280.000000	7.252718
2279.000000	7.247400
2278.000000	7.237215
2277.000000	7.219900
2276.000000	7.205868
2275.000000	7.209602
2274.000000	7.191609
2273.000000	7.175086
2272.000000	7.182103
2271.000000	7.186290
2270.000000	7.172823
2269.000000	7.175878
2268.000000	7.189685
2267.000000	7.224200
2266.000000	7.224653
2265.000000	7.234046
2264.000000	7.279652
2263.000000	7.313715
2262.000000	7.366111
2261.000000	7.413188
2260.000000	7.457436
2259.000000	7.533597
2258.000000	7.605571
2257.000000	7.683882
2256.000000	7.757327
2255.000000	7.818097
2254.000000	7.896409
2253.000000	7.990676
2252.000000	8.049183
2251.000000	8.158615
2250.000000	8.233531
2249.000000	8.292378
2248.000000	8.375442
2247.000000	8.430780
2246.000000	8.521540
2245.000000	8.579028
2244.000000	8.625653
2243.000000	8.673975
2242.000000	8.728181
2241.000000	8.772882
2240.000000	8.803776
2239.000000	8.853570
2238.000000	8.889217
2237.000000	8.915811
2236.000000	8.975450
2235.000000	8.995141
2234.000000	9.031354
2233.000000	9.030109
2232.000000	9.054779
2231.000000	9.050366
2230.000000	9.091445
2229.000000	9.090314
2228.000000	9.100725
2227.000000	9.101743
2226.000000	9.112834
2225.000000	9.115210
2224.000000	9.098122
2223.000000	9.105365
2222.000000	9.098348
2221.000000	9.074357
2220.000000	9.068925
2219.000000	9.072094
2218.000000	9.056477
2217.000000	9.066662
2216.000000	9.028185
2215.000000	9.009852
2214.000000	8.986993
2213.000000	8.991633
2212.000000	8.983032
2211.000000	8.974544
2210.000000	8.957909
2209.000000	8.939802
2208.000000	8.921696
2207.000000	8.909926
2206.000000	8.925996
2205.000000	8.925996
2204.000000	8.922375
2203.000000	8.892272
2202.000000	8.886275
2201.000000	8.888538
2200.000000	8.884804
2199.000000	8.881748
2198.000000	8.860360
2197.000000	8.844743
2196.000000	8.862057
2195.000000	8.847232
2194.000000	8.837274
2193.000000	8.826070
2192.000000	8.823241
2191.000000	8.834218
2190.000000	8.833765
2189.000000	8.823581
2188.000000	8.821770
2187.000000	8.816791
2186.000000	8.809208
2185.000000	8.797779
2184.000000	8.799137
2183.000000	8.804116
2182.000000	8.796647
2181.000000	8.773108
2180.000000	8.759415
2179.000000	8.768469
2178.000000	8.744817
2177.000000	8.761679
2176.000000	8.753644
2175.000000	8.753531
2174.000000	8.770958
2173.000000	8.756926
2172.000000	8.732482
2171.000000	8.764508
2170.000000	8.757152
2169.000000	8.764508
2168.000000	8.751380
2167.000000	8.776164
2166.000000	8.763829
2165.000000	8.758849
2164.000000	8.776503
2163.000000	8.782162
2162.000000	8.799929
2161.000000	8.832407
2160.000000	8.827994
2159.000000	8.849609
2158.000000	8.844856
2157.000000	8.864999
2156.000000	8.895781
2155.000000	8.896912
2154.000000	8.906758
2153.000000	8.922375
2152.000000	8.964812
2151.000000	8.964812
2150.000000	8.986766
2149.000000	8.991293
2148.000000	9.020829
2147.000000	9.036446
2146.000000	9.046858
2145.000000	9.067341
2144.000000	9.083524
2143.000000	9.089408
2142.000000	9.110570
2141.000000	9.131053
2140.000000	9.141804
2139.000000	9.126753
2138.000000	9.147802
2137.000000	9.167040
2136.000000	9.199519
2135.000000	9.213212
2134.000000	9.217965
2133.000000	9.215928
2132.000000	9.217513
2131.000000	9.228603
2130.000000	9.240825
2129.000000	9.226679
2128.000000	9.229395
2127.000000	9.227698
2126.000000	9.213665
2125.000000	9.212420
2124.000000	9.214683
2123.000000	9.241504
2122.000000	9.231885
2121.000000	9.215476
2120.000000	9.203819
2119.000000	9.210270
2118.000000	9.210609
2117.000000	9.184808
2116.000000	9.187410
2115.000000	9.184468
2114.000000	9.167040
2113.000000	9.144973
2112.000000	9.137278
2111.000000	9.111928
2110.000000	9.104459
2109.000000	9.115323
2108.000000	9.093595
2107.000000	9.086013
2106.000000	9.079336
2105.000000	9.059759
2104.000000	9.034409
2103.000000	9.029656
2102.000000	9.025696
2101.000000	9.002610
2100.000000	8.995480
2099.000000	8.999781
2098.000000	8.974658
2097.000000	8.951798
2096.000000	8.944782
2095.000000	8.948969
2094.000000	8.941726
2093.000000	8.914114
2092.000000	8.913661
2091.000000	8.901439
2090.000000	8.906758
2089.000000	8.897365
2088.000000	8.881069
2087.000000	8.879824
2086.000000	8.869866
2085.000000	8.851646
2084.000000	8.826070
2083.000000	8.815885
2082.000000	8.818262
2081.000000	8.816904
2080.000000	8.805021
2079.000000	8.780011
2078.000000	8.766545
2077.000000	8.766205
2076.000000	8.754096
2075.000000	8.750475
2074.000000	8.724220
2073.000000	8.681330
2072.000000	8.674314
2071.000000	8.656660
2070.000000	8.637196
2069.000000	8.617618
2068.000000	8.592382
2067.000000	8.578575
2066.000000	8.575746
2065.000000	8.549039
2064.000000	8.515089
2063.000000	8.490192
2062.000000	8.483968
2061.000000	8.485326
2060.000000	8.473557
2059.000000	8.454771
2058.000000	8.442776
2057.000000	8.431572
2056.000000	8.421500
2055.000000	8.411202
2054.000000	8.419124
2053.000000	8.425348
2052.000000	8.432930
2051.000000	8.422972
2050.000000	8.421614
2049.000000	8.441191
2048.000000	8.463033
2047.000000	8.500943
2046.000000	8.524142
2045.000000	8.526066
2044.000000	8.536477
2043.000000	8.565448
2042.000000	8.615128
2041.000000	8.625879
2040.000000	8.645457
2039.000000	8.668995
2038.000000	8.694458
2037.000000	8.701587
2036.000000	8.715846
2035.000000	8.743459
2034.000000	8.765639
2033.000000	8.779446
2032.000000	8.786915
2031.000000	8.802305
2030.000000	8.807398
2029.000000	8.810566
2028.000000	8.819733
2027.000000	8.815093
2026.000000	8.803663
2025.000000	8.832860
2024.000000	8.830370
2023.000000	8.836029
2022.000000	8.828107
2021.000000	8.819054
2020.000000	8.820186
2019.000000	8.822223
2018.000000	8.831615
2017.000000	8.825278
2016.000000	8.828447
2015.000000	8.809887
2014.000000	8.807964
2013.000000	8.801966
2012.000000	8.782048
2011.000000	8.754662
2010.000000	8.770166
2009.000000	8.748438
2008.000000	8.714714
2007.000000	8.698419
2006.000000	8.691742
2005.000000	8.669787
2004.000000	8.656321
2003.000000	8.628821
2002.000000	8.614449
2001.000000	8.585365
2000.000000	8.575746
1999.000000	8.549718
1998.000000	8.542928
1997.000000	8.499812
1996.000000	8.484308
1995.000000	8.470615
1994.000000	8.444473
1993.000000	8.402941
1992.000000	8.360843
1991.000000	8.363107
1990.000000	8.327799
1989.000000	8.285927
1988.000000	8.273366
1987.000000	8.236360
1986.000000	8.208974
1985.000000	8.186907
1984.000000	8.159407
1983.000000	8.106898
1982.000000	8.077927
1981.000000	8.058915
1980.000000	8.046467
1979.000000	8.016025
1978.000000	7.970646
1977.000000	7.957632
1976.000000	7.921984
1975.000000	7.919042
1974.000000	7.887355
1973.000000	7.819003
1972.000000	7.818663
1971.000000	7.792975
1970.000000	7.758119
1969.000000	7.747029
1968.000000	7.716700
1967.000000	7.700404
1966.000000	7.657854
1965.000000	7.644387
1964.000000	7.622207
1963.000000	7.610211
1962.000000	7.607269
1961.000000	7.577053
1960.000000	7.551025
1959.000000	7.537898
1958.000000	7.508474
1957.000000	7.478712
1956.000000	7.472940
1955.000000	7.467848
1954.000000	7.427334
1953.000000	7.432087
1952.000000	7.418507
1951.000000	7.387726
1950.000000	7.376296
1949.000000	7.345288
1948.000000	7.347665
1947.000000	7.324126
1946.000000	7.309528
1945.000000	7.289271
1944.000000	7.290176
1943.000000	7.285084
1942.000000	7.263922
1941.000000	7.238120
1940.000000	7.252605
1939.000000	7.230425
1938.000000	7.265167
1937.000000	7.239931
1936.000000	7.281010
1935.000000	7.290176
1934.000000	7.258716
1933.000000	7.248192
1932.000000	7.282368
1931.000000	7.291421
1930.000000	7.290629
1929.000000	7.312470
1928.000000	7.320958
1927.000000	7.345175
1926.000000	7.349249
1925.000000	7.410585
1924.000000	7.437859
1923.000000	7.436727
1922.000000	7.463660
1921.000000	7.499195
1920.000000	7.555665
1919.000000	7.631147
1918.000000	7.669510
1917.000000	7.685127
1916.000000	7.731525
1915.000000	7.771699
1914.000000	7.801462
1913.000000	7.873436
1912.000000	7.951634
1911.000000	8.053483
1910.000000	8.077814
1909.000000	8.121723
1908.000000	8.193923
1907.000000	8.222780
1906.000000	8.304034
1905.000000	8.413013
1904.000000	8.546889
1903.000000	8.636630
1902.000000	8.732482
1901.000000	8.829691
1900.000000	8.915472
1899.000000	9.067341
1898.000000	9.243767
1897.000000	9.369835
1896.000000	9.473721
1895.000000	9.585530
1894.000000	9.716010
1893.000000	9.855997
1892.000000	10.020428
1891.000000	10.244384
1890.000000	10.456910
1889.000000	10.676114
1888.000000	10.902446
1887.000000	11.141680
1886.000000	11.385554
1885.000000	11.639273
1884.000000	11.943351
1883.000000	12.291903
1882.000000	12.641021
1881.000000	12.973617
1880.000000	13.329865
1879.000000	13.686112
1878.000000	14.010108
1877.000000	14.355265
1876.000000	14.717058
1875.000000	15.098089
1874.000000	15.429553
1873.000000	15.776521
1872.000000	16.135711
1871.000000	16.477926
1870.000000	16.817991
1869.000000	17.140855
1868.000000	17.445725
1867.000000	17.676132
1866.000000	17.897485
1865.000000	18.065198
1864.000000	18.242077
1863.000000	18.401188
1862.000000	18.525785
1861.000000	18.684217
1860.000000	18.870263
1859.000000	19.017719
1858.000000	19.148313
1857.000000	19.273588
1856.000000	19.364913
1855.000000	19.438924
1854.000000	19.509879
1853.000000	19.588417
1852.000000	19.618972
1851.000000	19.660617
1850.000000	19.694680
1849.000000	19.737457
1848.000000	19.765069
1847.000000	19.805470
1846.000000	19.822105
1845.000000	19.813618
1844.000000	19.786118
1843.000000	19.764730
1842.000000	19.762127
1841.000000	19.800377
1840.000000	19.803772
1839.000000	19.801962
1838.000000	19.781252
1837.000000	19.776499
1836.000000	19.767898
1835.000000	19.753300
1834.000000	19.715955
1833.000000	19.670689
1832.000000	19.612521
1831.000000	19.570763
1830.000000	19.548808
1829.000000	19.515538
1828.000000	19.464047
1827.000000	19.409953
1826.000000	19.373627
1825.000000	19.328700
1824.000000	19.287055
1823.000000	19.246428
1822.000000	19.208744
1821.000000	19.196182
1820.000000	19.195277
1819.000000	19.168909
1818.000000	19.140504
1817.000000	19.109610
1816.000000	19.080639
1815.000000	19.081318
1814.000000	19.074076
1813.000000	19.053366
1812.000000	19.040805
1811.000000	19.024509
1810.000000	18.999952
1809.000000	18.968605
1808.000000	18.943708
1807.000000	18.895839
1806.000000	18.873545
1805.000000	18.849440
1804.000000	18.798855
1803.000000	18.766263
1802.000000	18.741932
1801.000000	18.707869
1800.000000	18.645741
1799.000000	18.589497
1798.000000	18.560640
1797.000000	18.538572
1796.000000	18.508696
1795.000000	18.463430
1794.000000	18.411600
1793.000000	18.381158
1792.000000	18.346416
1791.000000	18.301149
1790.000000	18.270594
1789.000000	18.236758
1788.000000	18.190812
1787.000000	18.152901
1786.000000	18.118838
1785.000000	18.073685
1784.000000	18.017781
1783.000000	17.978625
1782.000000	17.936754
1781.000000	17.885150
1780.000000	17.835017
1779.000000	17.790543
1778.000000	17.740750
1777.000000	17.688240
1776.000000	17.634260
1775.000000	17.578243
1774.000000	17.511588
1773.000000	17.452968
1772.000000	17.386086
1771.000000	17.311962
1770.000000	17.246213
1769.000000	17.175936
1768.000000	17.098417
1767.000000	17.035497
1766.000000	16.970426
1765.000000	16.906035
1764.000000	16.866992
1763.000000	16.835645
1762.000000	16.814596
1761.000000	16.825234
1760.000000	16.851602
1759.000000	16.877856
1758.000000	16.933534
1757.000000	16.987288
1756.000000	17.039458
1755.000000	17.078500
1754.000000	17.116750
1753.000000	17.185669
1752.000000	17.216676
1751.000000	17.236480
1750.000000	17.268280
1749.000000	17.252776
1748.000000	17.233199
1747.000000	17.218826
1746.000000	17.175710
1745.000000	17.126369
1744.000000	17.076010
1743.000000	16.994531
1742.000000	16.908751
1741.000000	16.811541
1740.000000	16.689547
1739.000000	16.550579
1738.000000	16.432547
1737.000000	16.301839
1736.000000	16.178488
1735.000000	16.081278
1734.000000	15.993574
1733.000000	15.926127
1732.000000	15.912321
1731.000000	15.919337
1730.000000	15.966075
1729.000000	16.018471
1728.000000	16.065095
1727.000000	16.139898
1726.000000	16.216965
1725.000000	16.277961
1724.000000	16.357744
1723.000000	16.421456
1722.000000	16.473286
1721.000000	16.496712
1720.000000	16.541073
1719.000000	16.579097
1718.000000	16.629682
1717.000000	16.672007
1716.000000	16.743075
1715.000000	16.796037
1714.000000	16.832250
1713.000000	16.912485
1712.000000	16.987854
1711.000000	17.028367
1710.000000	17.087101
1709.000000	17.102378
1708.000000	17.133838
1707.000000	17.128633
1706.000000	17.113242
1705.000000	17.085516
1704.000000	17.056885
1703.000000	17.009129
1702.000000	16.940890
1701.000000	16.890757
1700.000000	16.824781
1699.000000	16.698035
1698.000000	16.602070
1697.000000	16.488564
1696.000000	16.397465
1695.000000	16.317683
1694.000000	16.284638
1693.000000	16.281356
1692.000000	16.357178
1691.000000	16.436621
1690.000000	16.545487
1689.000000	16.662274
1688.000000	16.742170
1687.000000	16.854431
1686.000000	16.903884
1685.000000	16.968276
1684.000000	17.028367
1683.000000	17.090043
1682.000000	17.213734
1681.000000	17.404759
1680.000000	17.663457
1679.000000	17.975683
1678.000000	18.337363
1677.000000	18.730389
1676.000000	19.101235
1675.000000	19.461783
1674.000000	19.754205
1673.000000	20.051041
1672.000000	20.287672
1671.000000	20.537882
1670.000000	20.686922
1669.000000	20.873986
1668.000000	21.018613
1667.000000	21.157129
1666.000000	21.261694
1665.000000	21.378822
1664.000000	21.453511
1663.000000	21.536575
1662.000000	21.610473
1661.000000	21.690482
1660.000000	21.738351
1659.000000	21.778525
1658.000000	21.792105
1657.000000	21.858760
1656.000000	21.868605
1655.000000	21.860910
1654.000000	21.888636
1653.000000	21.899839
1652.000000	21.896105
1651.000000	21.873698
1650.000000	21.849820
1649.000000	21.815191
1648.000000	21.798895
1647.000000	21.741746
1646.000000	21.706551
1645.000000	21.685729
1644.000000	21.654268
1643.000000	21.605267
1642.000000	21.559888
1641.000000	21.502286
1640.000000	21.453398
1639.000000	21.425672
1638.000000	21.351888
1637.000000	21.306169
1636.000000	21.271879
1635.000000	21.198095
1634.000000	21.133137
1633.000000	21.063314
1632.000000	21.022913
1631.000000	20.979684
1630.000000	20.884737
1629.000000	20.851353
1628.000000	20.788319
1627.000000	20.678322
1626.000000	20.645051
1625.000000	20.574548
1624.000000	20.502688
1623.000000	20.428903
1622.000000	20.380355
1621.000000	20.313247
1620.000000	20.250666
1619.000000	20.187180
1618.000000	20.129125
1617.000000	20.060094
1616.000000	20.020033
1615.000000	19.957565
1614.000000	19.884120
1613.000000	19.832064
1612.000000	19.765975
1611.000000	19.741644
1610.000000	19.651224
1609.000000	19.625762
1608.000000	19.550280
1607.000000	19.489057
1606.000000	19.425683
1605.000000	19.353144
1604.000000	19.312291
1603.000000	19.242014
1602.000000	19.181697
1601.000000	19.110968
1600.000000	19.052348
1599.000000	18.984787
1598.000000	18.925375
1597.000000	18.853741
1596.000000	18.798742
1595.000000	18.768187
1594.000000	18.688518
1593.000000	18.636688
1592.000000	18.588931
1591.000000	18.540836
1590.000000	18.467164
1589.000000	18.437628
1588.000000	18.382629
1587.000000	18.349924
1586.000000	18.301715
1585.000000	18.238342
1584.000000	18.193528
1583.000000	18.159465
1582.000000	18.116801
1581.000000	18.058973
1580.000000	18.029211
1579.000000	17.995713
1578.000000	17.953842
1577.000000	17.934151
1576.000000	17.892506
1575.000000	17.884018
1574.000000	17.851426
1573.000000	17.828680
1572.000000	17.798351
1571.000000	17.778660
1570.000000	17.766099
1569.000000	17.756593
1568.000000	17.742334
1567.000000	17.729772
1566.000000	17.723096
1565.000000	17.714042
1564.000000	17.716079
1563.000000	17.712232
1562.000000	17.698652
1561.000000	17.673189
1560.000000	17.655988
1559.000000	17.649764
1558.000000	17.638787
1557.000000	17.623849
1556.000000	17.600763
1555.000000	17.560476
1554.000000	17.540445
1553.000000	17.535013
1552.000000	17.500950
1551.000000	17.463039
1550.000000	17.425808
1549.000000	17.400006
1548.000000	17.366056
1547.000000	17.332898
1546.000000	17.301777
1545.000000	17.267827
1544.000000	17.238291
1543.000000	17.216903
1542.000000	17.196759
1541.000000	17.173107
1540.000000	17.140176
1539.000000	17.108829
1538.000000	17.092420
1537.000000	17.084724
1536.000000	17.053604
1535.000000	17.017956
1534.000000	16.985025
1533.000000	16.956167
1532.000000	16.925273
1531.000000	16.888381
1530.000000	16.854883
1529.000000	16.821273
1528.000000	16.777930
1527.000000	16.742736
1526.000000	16.713312
1525.000000	16.663972
1524.000000	16.615197
1523.000000	16.576042
1522.000000	16.535075
1521.000000	16.488677
1520.000000	16.438658
1519.000000	16.389091
1518.000000	16.332621
1517.000000	16.293352
1516.000000	16.253178
1515.000000	16.195350
1514.000000	16.141030
1513.000000	16.091350
1512.000000	16.041217
1511.000000	16.004778
1510.000000	15.952382
1509.000000	15.877692
1508.000000	15.817714
1507.000000	15.768147
1506.000000	15.722654
1505.000000	15.674106
1504.000000	15.617975
1503.000000	15.551660
1502.000000	15.492700
1501.000000	15.458637
1500.000000	15.423895
1499.000000	15.369462
1498.000000	15.317292
1497.000000	15.270215
1496.000000	15.223025
1495.000000	15.177532
1494.000000	15.136000
1493.000000	15.102389
1492.000000	15.055425
1491.000000	15.024983
1490.000000	15.005293
1489.000000	14.963987
1488.000000	14.908422
1487.000000	14.872662
1486.000000	14.851952
1485.000000	14.830337
1484.000000	14.791295
1483.000000	14.757571
1482.000000	14.738107
1481.000000	14.745463
1480.000000	14.723621
1479.000000	14.684805
1478.000000	14.646782
1477.000000	14.636370
1476.000000	14.630372
1475.000000	14.606834
1474.000000	14.590085
1473.000000	14.577863
1472.000000	14.566886
1471.000000	14.568244
1470.000000	14.580466
1469.000000	14.576392
1468.000000	14.556927
1467.000000	14.569489
1466.000000	14.573337
1465.000000	14.581485
1464.000000	14.578882
1463.000000	14.568810
1462.000000	14.577637
1461.000000	14.601402
1460.000000	14.625619
1459.000000	14.658211
1458.000000	14.681750
1457.000000	14.709589
1456.000000	14.742633
1455.000000	14.765267
1454.000000	14.806912
1453.000000	14.878207
1452.000000	14.922681
1451.000000	14.950633
1450.000000	15.013327
1449.000000	15.064365
1448.000000	15.110537
1447.000000	15.174024
1446.000000	15.251656
1445.000000	15.329061
1444.000000	15.382250
1443.000000	15.441436
1442.000000	15.493492
1441.000000	15.573614
1440.000000	15.654302
1439.000000	15.731481
1438.000000	15.807189
1437.000000	15.894667
1436.000000	15.977731
1435.000000	16.069169
1434.000000	16.155402
1433.000000	16.271737
1432.000000	16.351633
1431.000000	16.462309
1430.000000	16.579436
1429.000000	16.680607
1428.000000	16.799206
1427.000000	16.938400
1426.000000	17.080198
1425.000000	17.204228
1424.000000	17.382012
1423.000000	17.556628
1422.000000	17.706347
1421.000000	17.898730
1420.000000	18.073685
1419.000000	18.287456
1418.000000	18.494664
1417.000000	18.709227
1416.000000	18.918019
1415.000000	19.138354
1414.000000	19.411764
1413.000000	19.679402
1412.000000	19.935158
1411.000000	20.189217
1410.000000	20.468285
1409.000000	20.816951
1408.000000	21.164484
1407.000000	21.531143
1406.000000	21.896218
1405.000000	22.259935
1404.000000	22.685214
1403.000000	23.076090
1402.000000	23.487337
1401.000000	23.878779
1400.000000	24.366526
1399.000000	24.852463
1398.000000	25.252506
1397.000000	25.557602
1396.000000	25.968622
1395.000000	26.425928
1394.000000	26.901453
1393.000000	27.292329
1392.000000	27.683545
1391.000000	28.121612
1390.000000	28.621242
1389.000000	29.031922
1388.000000	29.545585
1387.000000	30.154193
1386.000000	30.709048
1385.000000	31.276577
1384.000000	31.847614
1383.000000	32.499226
1382.000000	33.142690
1381.000000	33.723686
1380.000000	34.258624
1379.000000	34.620077
1378.000000	34.956407
1377.000000	35.232873
1376.000000	35.513978
1375.000000	35.767584
1374.000000	36.012589
1373.000000	36.298221
1372.000000	36.611352
1371.000000	36.976087
1370.000000	37.305967
1369.000000	37.638110
1368.000000	37.942528
1367.000000	38.255659
1366.000000	38.508360
1365.000000	38.755515
1364.000000	39.000973
1363.000000	39.179436
1362.000000	39.358805
1361.000000	39.573708
1360.000000	39.740854
1359.000000	39.804567
1358.000000	39.949873
1357.000000	40.059078
1356.000000	40.205289
1355.000000	40.422229
1354.000000	40.690433
1353.000000	40.989871
1352.000000	41.325410
1351.000000	41.752613
1350.000000	42.172573
1349.000000	42.575898
1348.000000	42.958740
1347.000000	43.330831
1346.000000	43.683344
1345.000000	43.972484
1344.000000	44.303269
1343.000000	44.646389
1342.000000	44.972082
1341.000000	45.265070
1340.000000	45.583181
1339.000000	45.884882
1338.000000	46.179228
1337.000000	46.465652
1336.000000	46.776407
1335.000000	47.049590
1334.000000	47.320510
1333.000000	47.603313
1332.000000	47.856127
1331.000000	48.135648
1330.000000	48.381784
1329.000000	48.627921
1328.000000	48.851085
1327.000000	49.077757
1326.000000	49.311220
1325.000000	49.540834
1324.000000	49.733783
1323.000000	49.942688
1322.000000	50.126696
1321.000000	50.318061
1320.000000	50.494940
1319.000000	50.650657
1318.000000	50.822330
1317.000000	50.968880
1316.000000	51.122673
1315.000000	51.267413
1314.000000	51.398686
1313.000000	51.518077
1312.000000	51.659535
1311.000000	51.773041
1310.000000	51.874777
1309.000000	51.977193
1308.000000	52.087756
1307.000000	52.156561
1306.000000	52.227856
1305.000000	52.315334
1304.000000	52.363995
1303.000000	52.428613
1302.000000	52.466637
1301.000000	52.520052
1300.000000	52.549928
1299.000000	52.578445
1298.000000	52.616469
1297.000000	52.641026
1296.000000	52.650193
1295.000000	52.666376
1294.000000	52.667621
1293.000000	52.665357
1292.000000	52.669658
1291.000000	52.666828
1290.000000	52.681200
1289.000000	52.656078
1288.000000	52.625749
1287.000000	52.590894
1286.000000	52.554567
1285.000000	52.514846
1284.000000	52.469014
1283.000000	52.422615
1282.000000	52.372822
1281.000000	52.324387
1280.000000	52.280818
1279.000000	52.214729
1278.000000	52.147508
1277.000000	52.101902
1276.000000	52.045998
1275.000000	51.999713
1274.000000	51.943130
1273.000000	51.895487
1272.000000	51.836187
1271.000000	51.789223
1270.000000	51.746446
1269.000000	51.693145
1268.000000	51.634864
1267.000000	51.588693
1266.000000	51.539352
1265.000000	51.499065
1264.000000	51.444858
1263.000000	51.383409
1262.000000	51.308493
1261.000000	51.240706
1260.000000	51.184010
1259.000000	51.135801
1258.000000	51.063714
1257.000000	50.993777
1256.000000	50.923953
1255.000000	50.841795
1254.000000	50.778308
1253.000000	50.699544
1252.000000	50.605956
1251.000000	50.527079
1250.000000	50.445486
1249.000000	50.331980
1248.000000	50.235676
1247.000000	50.154535
1246.000000	50.027676
1245.000000	49.913038
1244.000000	49.816394
1243.000000	49.698362
1242.000000	49.568899
1241.000000	49.433779
1240.000000	49.312691
1239.000000	49.191716
1238.000000	49.069610
1237.000000	48.937205
1236.000000	48.808195
1235.000000	48.669114
1234.000000	48.523129
1233.000000	48.372392
1232.000000	48.222446
1231.000000	48.071935
1230.000000	47.918368
1229.000000	47.767970
1228.000000	47.621986
1227.000000	47.457215
1226.000000	47.286334
1225.000000	47.122696
1224.000000	46.947061
1223.000000	46.779236
1222.000000	46.613900
1221.000000	46.438265
1220.000000	46.266932
1219.000000	46.098880
1218.000000	45.924038
1217.000000	45.754401
1216.000000	45.599137
1215.000000	45.445570
1214.000000	45.287477
1213.000000	45.129610
1212.000000	44.977401
1211.000000	44.833906
1210.000000	44.703425
1209.000000	44.553367
1208.000000	44.409306
1207.000000	44.285841
1206.000000	44.156492
1205.000000	44.040723
1204.000000	43.933441
1203.000000	43.841324
1202.000000	43.755544
1201.000000	43.670216
1200.000000	43.594395
1199.000000	43.519479
1198.000000	43.434717
1197.000000	43.334905
1196.000000	43.197747
1195.000000	43.043728
1194.000000	42.860738
1193.000000	42.629991
1192.000000	42.365522
1191.000000	42.075589
1190.000000	41.760534
1189.000000	41.428391
1188.000000	41.125897
1187.000000	40.877271
1186.000000	40.686586
1185.000000	40.569345
1184.000000	40.542864
1183.000000	40.622986
1182.000000	40.776779
1181.000000	41.011260
1180.000000	41.304587
1179.000000	41.639786
1178.000000	41.932321
1177.000000	42.229948
1176.000000	42.501548
1175.000000	42.723014
1174.000000	42.937691
1173.000000	43.120002
1172.000000	43.299936
1171.000000	43.483605
1170.000000	43.687644
1169.000000	43.882743
1168.000000	44.082255
1167.000000	44.289802
1166.000000	44.491352
1165.000000	44.702180
1164.000000	44.898071
1163.000000	45.127573
1162.000000	45.349831
1161.000000	45.581709
1160.000000	45.800120
1159.000000	46.016947
1158.000000	46.211254
1157.000000	46.421177
1156.000000	46.618879
1155.000000	46.791910
1154.000000	46.927936
1153.000000	47.068149
1152.000000	47.167509
1151.000000	47.238238
1150.000000	47.288597
1149.000000	47.344615
1148.000000	47.390447
1147.000000	47.449973
1146.000000	47.496710
1145.000000	47.592675
1144.000000	47.701315
1143.000000	47.824101
1142.000000	47.995774
1141.000000	48.167108
1140.000000	48.386990
1139.000000	48.593745
1138.000000	48.779790
1137.000000	49.013818
1136.000000	49.238227
1135.000000	49.475085
1134.000000	49.717261
1133.000000	49.952420
1132.000000	50.108477
1131.000000	50.292711
1130.000000	50.429077
1129.000000	50.572006
1128.000000	50.663331
1127.000000	50.721838
1126.000000	50.768576
1125.000000	50.804563
1124.000000	50.801734
1123.000000	50.801960
1122.000000	50.783740
1121.000000	50.761333
1120.000000	50.698865
1119.000000	50.662992
1118.000000	50.624742
1117.000000	50.546657
1116.000000	50.487923
1115.000000	50.410744
1114.000000	50.340694
1113.000000	50.268154
1112.000000	50.196860
1111.000000	50.110627
1110.000000	50.031863
1109.000000	49.974714
1108.000000	49.870375
1107.000000	49.787311
1106.000000	49.712281
1105.000000	49.626048
1104.000000	49.540834
1103.000000	49.475537
1102.000000	49.381949
1101.000000	49.311899
1100.000000	49.229627
1099.000000	49.129927
1098.000000	49.049353
1097.000000	48.941732
1096.000000	48.873153
1095.000000	48.771643
1094.000000	48.665606
1093.000000	48.578468
1092.000000	48.461680
1091.000000	48.374655
1090.000000	48.279482
1089.000000	48.167900
1088.000000	48.068540
1087.000000	47.968501
1086.000000	47.869933
1085.000000	47.762312
1084.000000	47.658312
1083.000000	47.578869
1082.000000	47.447483
1081.000000	47.340767
1080.000000	47.244915
1079.000000	47.130165
1078.000000	47.031257
1077.000000	46.927823
1076.000000	46.798134
1075.000000	46.695493
1074.000000	46.574065
1073.000000	46.481835
1072.000000	46.375571
1071.000000	46.275985
1070.000000	46.156368
1069.000000	46.049539
1068.000000	45.932525
1067.000000	45.819811
1066.000000	45.706079
1065.000000	45.591442
1064.000000	45.483141
1063.000000	45.373483
1062.000000	45.266202
1061.000000	45.142171
1060.000000	45.031721
1059.000000	44.928966
1058.000000	44.797353
1057.000000	44.682942
1056.000000	44.580074
1055.000000	44.464305
1054.000000	44.353854
1053.000000	44.222695
1052.000000	44.130238
1051.000000	44.020919
1050.000000	43.900963
1049.000000	43.790399
1048.000000	43.692737
1047.000000	43.580702
1046.000000	43.471723
1045.000000	43.365799
1044.000000	43.266326
1043.000000	43.169908
1042.000000	43.063192
1041.000000	42.973904
1040.000000	42.838670
1039.000000	42.746440
1038.000000	42.653417
1037.000000	42.546022
1036.000000	42.449491
1035.000000	42.335646
1034.000000	42.222819
1033.000000	42.151524
1032.000000	42.040621
1031.000000	41.933226
1030.000000	41.822323
1029.000000	41.711646
1028.000000	41.633788
1027.000000	41.515755
1026.000000	41.415037
1025.000000	41.293610
1024.000000	41.195721
1023.000000	41.101340
1022.000000	40.996548
1021.000000	40.888361
1020.000000	40.807900
1019.000000	40.711143
1018.000000	40.595826
1017.000000	40.518420
1016.000000	40.405141
1015.000000	40.321511
1014.000000	40.240710
1013.000000	40.149724
1012.000000	40.085446
1011.000000	40.001590
1010.000000	39.947157
1009.000000	39.875862
1008.000000	39.797664
1007.000000	39.723314
1006.000000	39.666278
1005.000000	39.604376
1004.000000	39.541568
1003.000000	39.480119
1002.000000	39.419009
1001.000000	39.367066
1000.000000	39.317273
999.000000	39.264537
998.000000	39.195619
997.000000	39.136433
996.000000	39.094788
995.000000	39.046692
994.000000	38.992825
993.000000	38.939750
992.000000	38.896973
991.000000	38.854309
990.000000	38.816285
989.000000	38.783354
988.000000	38.724847
987.000000	38.684673
986.000000	38.663624
985.000000	38.639406
984.000000	38.607720
983.000000	38.564716
982.000000	38.539254
981.000000	38.521374
980.000000	38.506323
979.000000	38.481992
978.000000	38.441931
977.000000	38.439441
976.000000	38.438310
975.000000	38.431293
974.000000	38.423032
973.000000	38.390667
972.000000	38.395759
971.000000	38.407415
970.000000	38.398701
969.000000	38.392817
968.000000	38.375729
967.000000	38.363394
966.000000	38.380369
965.000000	38.403568
964.000000	38.413526
963.000000	38.435028
962.000000	38.437518
961.000000	38.437518
960.000000	38.464338
959.000000	38.486632
958.000000	38.514471
957.000000	38.539820
956.000000	38.551589
955.000000	38.574675
954.000000	38.592555
953.000000	38.632050
952.000000	38.671772
951.000000	38.685691
950.000000	38.731071
949.000000	38.781204
948.000000	38.805195
947.000000	38.852951
946.000000	38.886788
945.000000	38.917569
944.000000	38.971097
943.000000	39.014213
942.000000	39.046579
941.000000	39.076794
940.000000	39.129190
939.000000	39.187697
938.000000	39.236359
937.000000	39.284794
936.000000	39.329268
935.000000	39.377138
934.000000	39.450130
933.000000	39.499810
932.000000	39.552206
931.000000	39.607544
930.000000	39.668541
929.000000	39.726822
928.000000	39.766430
927.000000	39.817581
926.000000	39.899966
925.000000	39.956776
924.000000	40.002721
923.000000	40.067113
922.000000	40.127317
921.000000	40.193067
920.000000	40.285071
919.000000	40.364061
918.000000	40.425511
917.000000	40.483113
916.000000	40.545128
915.000000	40.620496
914.000000	40.720196
913.000000	40.786964
912.000000	40.844792
911.000000	40.894925
910.000000	40.965201
909.000000	41.046228
908.000000	41.160074
907.000000	41.238951
906.000000	41.305266
905.000000	41.363773
904.000000	41.439708
903.000000	41.521527
902.000000	41.606402
901.000000	41.693992
900.000000	41.786676
899.000000	41.876190
898.000000	41.945901
897.000000	42.015045
896.000000	42.095620
895.000000	42.179702
894.000000	42.282684
893.000000	42.391097
892.000000	42.466126
891.000000	42.540137
890.000000	42.620372
889.000000	42.696420
888.000000	42.776089
887.000000	42.862435
886.000000	42.953987
885.000000	43.020189
884.000000	43.066587
883.000000	43.134034
882.000000	43.204990
881.000000	43.255462
880.000000	43.330717
879.000000	43.365007
878.000000	43.422609
877.000000	43.437886
876.000000	43.452258
875.000000	43.467422
874.000000	43.489490
873.000000	43.450787
872.000000	43.402578
871.000000	43.358896
870.000000	43.355501
869.000000	43.449203
868.000000	43.593377
867.000000	43.740040
866.000000	43.865768
865.000000	44.003605
864.000000	44.132162
863.000000	44.256531
862.000000	44.382938
861.000000	44.537410
860.000000	44.668910
859.000000	44.803351
858.000000	44.928400
857.000000	44.609900
856.000000	45.015300
855.000000	45.160000
854.000000	45.637900
853.000000	45.760900
852.000000	46.066100
851.000000	45.927100
850.000000	45.934500
849.000000	46.028500
848.000000	46.434800
847.000000	46.484700
846.000000	46.649100
845.000000	46.780700
844.000000	46.719500
843.000000	46.648100
842.000000	46.884400
841.000000	47.100100
840.000000	47.071600
839.000000	47.127700
838.000000	47.199800
837.000000	47.391700
836.000000	47.362700
835.000000	47.648600
834.000000	47.628700
833.000000	47.758100
832.000000	47.799800
831.000000	47.769600
830.000000	47.969300
829.000000	47.992000
828.000000	47.975000
827.000000	48.041000
826.000000	48.129700
825.000000	48.157900
824.000000	48.282500
823.000000	48.269200
822.000000	48.265700
821.000000	48.338800
820.000000	48.395100
819.000000	48.372200
818.000000	48.372700
817.000000	48.374800
816.000000	48.444000
815.000000	48.374400
814.000000	48.553300
813.000000	48.397900
812.000000	48.258500
811.000000	48.430100
810.000000	48.406400
809.000000	48.556200
808.000000	48.439200
807.000000	48.614900
806.000000	48.473100
805.000000	48.525000
804.000000	48.514000
803.000000	48.294000
802.000000	48.387100
801.000000	48.325800
800.000000	48.486500
799.000000	48.338000
798.000000	48.314500
797.000000	48.366000
796.000000	48.121600
795.000000	48.129000
794.000000	48.011900
793.000000	48.162800
792.000000	48.056900
791.000000	47.821100
790.000000	47.874000
789.000000	47.900900
788.000000	47.782500
787.000000	47.824500
786.000000	47.628800
785.000000	47.686700
784.000000	47.692900
783.000000	47.581000
782.000000	47.500500
781.000000	47.404000
780.000000	47.315000
779.000000	47.265400
778.000000	47.167200
777.000000	47.098900
776.000000	47.023300
775.000000	46.889500
774.000000	46.865700
773.000000	46.731000
772.000000	46.543300
771.000000	46.561100
770.000000	46.454700
769.000000	46.307200
768.000000	46.172300
767.000000	46.196900
766.000000	46.065800
765.000000	45.950300
764.000000	45.843300
763.000000	45.708900
762.000000	45.561000
761.000000	45.420500
760.000000	45.256900
759.000000	45.200400
758.000000	44.993800
757.000000	44.860200
756.000000	44.683300
755.000000	44.555800
754.000000	44.470300
753.000000	44.297100
752.000000	44.058300
751.000000	43.928000
750.000000	43.849500
749.000000	43.670500
748.000000	43.424200
747.000000	43.383200
746.000000	43.181100
745.000000	43.001100
744.000000	42.840700
743.000000	42.596100
742.000000	42.427300
741.000000	42.231100
740.000000	42.038000
739.000000	41.898700
738.000000	41.667400
737.000000	41.448800
736.000000	41.267400
735.000000	41.073600
734.000000	40.862300
733.000000	40.690800
732.000000	40.446700
731.000000	40.199900
730.000000	40.064700
729.000000	39.831600
728.000000	39.624900
727.000000	39.347200
726.000000	39.110500
725.000000	38.937800
724.000000	38.750900
723.000000	38.509200
722.000000	38.265200
721.000000	38.018400
720.000000	37.773900
719.000000	37.582200
718.000000	37.323100
717.000000	37.099600
716.000000	36.891800
715.000000	36.693600
714.000000	36.435400
713.000000	36.178300
712.000000	35.978000
711.000000	35.798300
710.000000	35.543900
709.000000	35.259900
708.000000	35.074700
707.000000	34.823200
706.000000	34.598200
705.000000	34.406000
704.000000	34.161800
703.000000	33.956200
702.000000	33.716900
701.000000	33.479300
700.000000	33.247100
699.000000	33.070300
698.000000	32.862000
697.000000	32.654600
696.000000	32.460700
695.000000	32.237600
694.000000	32.054000
693.000000	31.860300
692.000000	31.681300
691.000000	31.475200
690.000000	31.293100
689.000000	31.086300
688.000000	30.895300
687.000000	30.690300
686.000000	30.527900
685.000000	30.345600
684.000000	30.148900
683.000000	29.993600
682.000000	29.812300
681.000000	29.641500
680.000000	29.489200
679.000000	29.315900
678.000000	29.158900
677.000000	29.048500
676.000000	28.881500
675.000000	28.712200
674.000000	28.592500
673.000000	28.446400
672.000000	28.297100
671.000000	28.164000
670.000000	28.040800
669.000000	27.909200
668.000000	27.785900
667.000000	27.674700
666.000000	27.563400
665.000000	27.454900
664.000000	27.336000
663.000000	27.214400
662.000000	27.117500
661.000000	27.025800
660.000000	26.917300
659.000000	26.822500
658.000000	26.732400
657.000000	26.621000
656.000000	26.526700
655.000000	26.478500
654.000000	26.419400
653.000000	26.338800
652.000000	26.284700
651.000000	26.237600
650.000000	26.191200
649.000000	26.142500
648.000000	26.095000
647.000000	26.064300
646.000000	26.022100
645.000000	25.971200
644.000000	25.946400
643.000000	25.932400
642.000000	25.922400
641.000000	25.913500
640.000000	25.901300
639.000000	25.921800
638.000000	25.941900
637.000000	25.942700
636.000000	25.956800
635.000000	25.990100
634.000000	26.013800
633.000000	26.031000
632.000000	26.076900
631.000000	26.125400
630.000000	26.160200
629.000000	26.191000
628.000000	26.266800
627.000000	26.359900
626.000000	26.433600
625.000000	26.502600
624.000000	26.590200
623.000000	26.684900
622.000000	26.779900
621.000000	26.877000
620.000000	26.981100
619.000000	27.097200
618.000000	27.226600
617.000000	27.369200
616.000000	27.512200
615.000000	27.656000
614.000000	27.812600
613.000000	27.980900
612.000000	28.141000
611.000000	28.278400
610.000000	28.444200
609.000000	28.600100
608.000000	28.777200
607.000000	28.963000
606.000000	29.123300
605.000000	29.282800
604.000000	29.460400
603.000000	29.645600
602.000000	29.802900
601.000000	29.980500
600.000000	30.161700
599.000000	30.326400
598.000000	30.482400
597.000000	30.644400
596.000000	30.794200
595.000000	30.952200
594.000000	31.084600
593.000000	31.245800
592.000000	31.380400
591.000000	31.494500
590.000000	31.633100
589.000000	31.765400
588.000000	31.869000
587.000000	31.960400
586.000000	32.032300
585.000000	32.104100
584.000000	32.194200
583.000000	32.235300
582.000000	32.296700
581.000000	32.353500
580.000000	32.397100
579.000000	32.413700
578.000000	32.426300
577.000000	32.434400
576.000000	32.442300
575.000000	32.421700
574.000000	32.430100
573.000000	32.381100
572.000000	32.361600
571.000000	32.306200
570.000000	32.253200
569.000000	32.174200
568.000000	32.114400
567.000000	32.019600
566.000000	31.919400
565.000000	31.831000
564.000000	31.687400
563.000000	31.557700
562.000000	31.432300
561.000000	31.281600
560.000000	31.139000
559.000000	30.971800
558.000000	30.823500
557.000000	30.649300
556.000000	30.460400
555.000000	30.265700
554.000000	30.028800
553.000000	29.802700
552.000000	29.570200
551.000000	29.294500
550.000000	29.034800
549.000000	28.784100
548.000000	28.542200
547.000000	28.275500
546.000000	27.988700
545.000000	27.674800
544.000000	27.395600
543.000000	27.101700
542.000000	26.780100
541.000000	26.469500
540.000000	26.146600
539.000000	25.818200
538.000000	25.511000
537.000000	25.179800
536.000000	24.856200
535.000000	24.540600
534.000000	24.216000
533.000000	23.873800
532.000000	23.543900
531.000000	23.205200
530.000000	22.880900
529.000000	22.564300
528.000000	22.223700
527.000000	21.903800
526.000000	21.589200
525.000000	21.280200
524.000000	20.975000
523.000000	20.650700
522.000000	20.351200
521.000000	20.060800
520.000000	19.770900
519.000000	19.479500
518.000000	19.213400
517.000000	18.955700
516.000000	18.679500
515.000000	18.426300
514.000000	18.173900
513.000000	17.943000
512.000000	17.702500
511.000000	17.477600
510.000000	17.270800
509.000000	17.061200
508.000000	16.847700
507.000000	16.633200
506.000000	16.450300
505.000000	16.267800
504.000000	16.102400
503.000000	15.913100
502.000000	15.737400
501.000000	15.591800
500.000000	15.443700
499.000000	15.283200
498.000000	15.147500
497.000000	15.000400
496.000000	14.889500
495.000000	14.748000
494.000000	14.619400
493.000000	14.492400
492.000000	14.416800
491.000000	14.299400
490.000000	14.183300
489.000000	14.096100
488.000000	14.005400
487.000000	13.929800
486.000000	13.840200
485.000000	13.767100
484.000000	13.690400
483.000000	13.608600
482.000000	13.540700
481.000000	13.452000
480.000000	13.359700
479.000000	13.267100
478.000000	13.194300
477.000000	13.127500
476.000000	13.051300
475.000000	12.984200
474.000000	12.913800
473.000000	12.837700
472.000000	12.779300
471.000000	12.726800
470.000000	12.674200
469.000000	12.615900
468.000000	12.572100
467.000000	12.503700
466.000000	12.462300
465.000000	12.408300
464.000000	12.376700
463.000000	12.349200
462.000000	12.303200
461.000000	12.259000
460.000000	12.219400
459.000000	12.196400
458.000000	12.150500
457.000000	12.130400
456.000000	12.096200
455.000000	12.082900
454.000000	12.038200
453.000000	12.001700
452.000000	11.977300
451.000000	11.961800
450.000000	11.941500
449.000000	11.888000
448.000000	11.842100
447.000000	11.811100
446.000000	11.785700
445.000000	11.752300
444.000000	11.730400
443.000000	11.690800
442.000000	11.631000
441.000000	11.603600
440.000000	11.553900
439.000000	11.506800
438.000000	11.461000
437.000000	11.408700
436.000000	11.325700
435.000000	11.283100
434.000000	11.218700
433.000000	11.183500
432.000000	11.115400
431.000000	11.054000
430.000000	10.985800
429.000000	10.916400
428.000000	10.841800
427.000000	10.805000
426.000000	10.730300
425.000000	10.649100
424.000000	10.570600
423.000000	10.536000
422.000000	10.463900
421.000000	10.367800
420.000000	10.276200
419.000000	10.211800
418.000000	10.147700
417.000000	10.047400
416.000000	9.965000
415.000000	9.890600
414.000000	9.793700
413.000000	9.718900
412.000000	9.623100
411.000000	9.549600
410.000000	9.450500
409.000000	9.339900
408.000000	9.246700
407.000000	9.139800
406.000000	9.053500
405.000000	8.963700
404.000000	8.854600
403.000000	8.762700
402.000000	8.679800
401.000000	8.563500
400.000000	8.457200
399.000000	8.367400
398.000000	8.249700
397.000000	8.147900
396.000000	8.045300
395.000000	7.949000
394.000000	7.851000
393.000000	7.747800
392.000000	7.643300
391.000000	7.566000
390.000000	7.442000
389.000000	7.330600
388.000000	7.252100
387.000000	7.138500
386.000000	7.048900
385.000000	6.970700
384.000000	6.891100
383.000000	6.794000
382.000000	6.681400
381.000000	6.596700
380.000000	6.513900
379.000000	6.429100
378.000000	6.362100
377.000000	6.291900
376.000000	6.240600
375.000000	5.998900
374.000000	5.712800
373.000000	5.910900
372.000000	5.958600
371.000000	5.794000
370.000000	5.704100
369.000000	5.735600
368.000000	5.727100
367.000000	5.706200
366.000000	5.658500
365.000000	5.638700
364.000000	5.482200
363.000000	5.368900
362.000000	5.362400
361.000000	5.503800
360.000000	5.508500
359.000000	5.507800
358.000000	5.410900
357.000000	5.362200
356.000000	5.365800
355.000000	5.275100
354.000000	5.173500
353.000000	5.231800
352.000000	5.161100
351.000000	5.041700
350.000000	5.010400
349.000000	5.002800
348.000000	5.112600
347.000000	5.167500
346.000000	5.117700
345.000000	5.129400
344.000000	5.112600
343.000000	5.137100
342.000000	5.198800
341.000000	5.121800
340.000000	5.119500
339.000000	5.064900
338.000000	5.017700
337.000000	5.011800
336.000000	4.890000
335.000000	4.943500
334.000000	5.124600
333.000000	5.130200
332.000000	5.148200
331.000000	4.984400
330.000000	4.867700
329.000000	4.892300
328.000000	4.843800
327.000000	5.162400
326.000000	5.341400
325.000000	5.148800
324.000000	5.199000
323.000000	4.998600
322.000000	4.983400
321.000000	5.337500
320.000000	5.165600
319.000000	5.113000
318.000000	5.267300
317.000000	5.332500
316.000000	5.015000
315.000000	4.733700
314.000000	4.755800
313.000000	4.768000
312.000000	4.754000
311.000000	4.752100
310.000000	4.771600
309.000000	4.782600
308.000000	4.747300
307.000000	4.739500
306.000000	4.784900
305.000000	4.796200
304.000000	4.771400
303.000000	4.785200
302.000000	4.794000
301.000000	4.815000
300.000000	4.798300
299.000000	4.764700
298.000000	4.758200
297.000000	4.752700
296.000000	4.749000
295.000000	4.771200
294.000000	4.794100
293.000000	4.797700
292.000000	4.778300
291.000000	4.789900
290.000000	4.802000
289.000000	4.764400
288.000000	4.728300
287.000000	4.761800
286.000000	4.793800
285.000000	4.774800
284.000000	4.769700
283.000000	4.797200
282.000000	4.823200
281.000000	4.805700
280.000000	4.819700
279.000000	4.840400
278.000000	4.852200
277.000000	4.832100
276.000000	4.864600
275.000000	4.876800
274.000000	4.883700
273.000000	4.879000
272.000000	4.943400
271.000000	4.942300
270.000000	4.942200
269.000000	4.979200
268.000000	4.991200
267.000000	4.984000
266.000000	5.020000
265.000000	5.042000
264.000000	5.057500
263.000000	5.097100
262.000000	5.110000
261.000000	5.136000
260.000000	5.144000
259.000000	5.168700
258.000000	5.209700
257.000000	5.216600
256.000000	5.224200
255.000000	5.208300
254.000000	5.248700
253.000000	5.254100
252.000000	5.304500
251.000000	5.294900
250.000000	5.278200
