PE UV       SUBTECH     SPECTRUM    ASCII       PEDS        4.00        
   -1
CICIMAUCR0104-2.Sample.ASC
24/04/19
16:46:40.00
24/04/19
16:46:40.00
Vinicio Soto Monge
C. resplendens
250,000000
1
Lambda 1050
1050L1511233
PerkinElmer UV WinLab 6.3.2.0749 / 2.02.05 Lambda 900 UV/VIS/NIR, Aug  7 2015 09:38:08

0
0
3350/servo 860,8/2
0
0
UV/VIS
1
1
1
DoubleDePol,CommonBeamDepol,RBeamAtt,SBeamAtt,60mm sphere, WB InGaAs Detector
0
0
0
0
Program
Program
3350/servo 860,8/2
3350/0,2 860,8/0,2
3350/0,2 860,8/0,2
0
15.00
 
 
 
0
 
860,8
319,2
860,8
Front
100
on
S:100 R:100
0
0
0
0
 
0
 
 
 
0
 
 
0
0
0
0
0
 
 
 
 
0
0


0
0
#HDR
-1
-1
#GR
nm
%R
1.0
0.0
2500,000000
-1,000000
2251
8
93,269700
5,938000
#DATA
2482.000000	10.553044
2481.000000	10.533264
2480.000000	10.611170
2479.000000	10.499780
2478.000000	10.510389
2477.000000	10.549508
2476.000000	10.506411
2475.000000	10.496465
2474.000000	10.468949
2473.000000	10.531938
2472.000000	10.490609
2471.000000	10.485525
2470.000000	10.507958
2469.000000	10.497570
2468.000000	10.523650
2467.000000	10.523981
2466.000000	10.575256
2465.000000	10.578018
2464.000000	10.601666
2463.000000	10.643216
2462.000000	10.687750
2461.000000	10.732615
2460.000000	10.793172
2459.000000	10.820578
2458.000000	10.882571
2457.000000	10.924895
2456.000000	11.025234
2455.000000	11.112864
2454.000000	11.165907
2453.000000	11.270887
2452.000000	11.338848
2451.000000	11.426147
2450.000000	11.513225
2449.000000	11.603398
2448.000000	11.693791
2447.000000	11.759873
2446.000000	11.845294
2445.000000	11.959557
2444.000000	12.040115
2443.000000	12.116474
2442.000000	12.197475
2441.000000	12.299803
2440.000000	12.355387
2439.000000	12.432409
2438.000000	12.494845
2437.000000	12.561590
2436.000000	12.619937
2435.000000	12.690329
2434.000000	12.766578
2433.000000	12.839953
2432.000000	12.891228
2431.000000	12.945265
2430.000000	12.993114
2429.000000	13.030796
2428.000000	13.091021
2427.000000	13.134229
2426.000000	13.183293
2425.000000	13.223186
2424.000000	13.244845
2423.000000	13.281864
2422.000000	13.331481
2421.000000	13.360655
2420.000000	13.397784
2419.000000	13.432152
2418.000000	13.451932
2417.000000	13.488067
2416.000000	13.501659
2415.000000	13.530280
2414.000000	13.570504
2413.000000	13.590837
2412.000000	13.628520
2411.000000	13.658135
2410.000000	13.680678
2409.000000	13.705210
2408.000000	13.732395
2407.000000	13.759248
2406.000000	13.810633
2405.000000	13.845663
2404.000000	13.877267
2403.000000	13.913955
2402.000000	13.921690
2401.000000	13.949980
2400.000000	13.993850
2399.000000	14.023576
2398.000000	14.054407
2397.000000	14.081039
2396.000000	14.115075
2395.000000	14.157398
2394.000000	14.202374
2393.000000	14.231106
2392.000000	14.262489
2391.000000	14.282491
2390.000000	14.301829
2389.000000	14.326140
2388.000000	14.365480
2387.000000	14.366585
2386.000000	14.364928
2385.000000	14.385261
2384.000000	14.387139
2383.000000	14.369016
2382.000000	14.359071
2381.000000	14.355424
2380.000000	14.334981
2379.000000	14.308017
2378.000000	14.296635
2377.000000	14.270003
2376.000000	14.244698
2375.000000	14.228122
2374.000000	14.201048
2373.000000	14.152536
2372.000000	14.114522
2371.000000	14.077724
2370.000000	14.008769
2369.000000	13.943129
2368.000000	13.900473
2367.000000	13.836270
2366.000000	13.751181
2365.000000	13.671727
2364.000000	13.581776
2363.000000	13.478343
2362.000000	13.378777
2361.000000	13.282306
2360.000000	13.194123
2359.000000	13.096768
2358.000000	13.023171
2357.000000	12.964714
2356.000000	12.900289
2355.000000	12.864706
2354.000000	12.854761
2353.000000	12.842163
2352.000000	12.850893
2351.000000	12.864154
2350.000000	12.905925
2349.000000	12.966482
2348.000000	13.019414
2347.000000	13.091795
2346.000000	13.167270
2345.000000	13.245397
2344.000000	13.307170
2343.000000	13.374799
2342.000000	13.444307
2341.000000	13.490167
2340.000000	13.537242
2339.000000	13.568626
2338.000000	13.598020
2337.000000	13.586528
2336.000000	13.582439
2335.000000	13.545972
2334.000000	13.520887
2333.000000	13.475028
2332.000000	13.434251
2331.000000	13.375020
2330.000000	13.299766
2329.000000	13.228490
2328.000000	13.132792
2327.000000	13.034332
2326.000000	12.924711
2325.000000	12.827135
2324.000000	12.703369
2323.000000	12.560927
2322.000000	12.431636
2321.000000	12.285437
2320.000000	12.143769
2319.000000	12.009947
2318.000000	11.852919
2317.000000	11.692244
2316.000000	11.552676
2315.000000	11.388575
2314.000000	11.248676
2313.000000	11.118611
2312.000000	10.978600
2311.000000	10.880030
2310.000000	10.800576
2309.000000	10.759247
2308.000000	10.736925
2307.000000	10.724548
2306.000000	10.729632
2305.000000	10.760684
2304.000000	10.820578
2303.000000	10.930199
2302.000000	11.042472
2301.000000	11.149773
2300.000000	11.296856
2299.000000	11.440181
2298.000000	11.551018
2297.000000	11.683072
2296.000000	11.837117
2295.000000	11.941765
2294.000000	12.030833
2293.000000	12.121779
2292.000000	12.198359
2291.000000	12.237146
2290.000000	12.279359
2289.000000	12.299471
2288.000000	12.294167
2287.000000	12.259910
2286.000000	12.212172
2285.000000	12.168301
2284.000000	12.152057
2283.000000	12.094152
2282.000000	12.041662
2281.000000	11.969613
2280.000000	11.908172
2279.000000	11.819988
2278.000000	11.783964
2277.000000	11.730921
2276.000000	11.688487
2275.000000	11.657214
2274.000000	11.656882
2273.000000	11.657545
2272.000000	11.667491
2271.000000	11.670364
2270.000000	11.717550
2269.000000	11.797777
2268.000000	11.884413
2267.000000	12.008953
2266.000000	12.161450
2265.000000	12.354503
2264.000000	12.556286
2263.000000	12.768898
2262.000000	13.034995
2261.000000	13.290594
2260.000000	13.624210
2259.000000	13.922132
2258.000000	14.238288
2257.000000	14.581629
2256.000000	14.934362
2255.000000	15.267646
2254.000000	15.590211
2253.000000	15.900069
2252.000000	16.188156
2251.000000	16.522987
2250.000000	16.768862
2249.000000	17.033854
2248.000000	17.265252
2247.000000	17.518199
2246.000000	17.752802
2245.000000	17.951601
2244.000000	18.131062
2243.000000	18.297815
2242.000000	18.454401
2241.000000	18.640934
2240.000000	18.777076
2239.000000	18.915650
2238.000000	19.016873
2237.000000	19.174564
2236.000000	19.278439
2235.000000	19.366954
2234.000000	19.478454
2233.000000	19.543542
2232.000000	19.608188
2231.000000	19.680127
2230.000000	19.709079
2229.000000	19.759911
2228.000000	19.801019
2227.000000	19.839807
2226.000000	19.844006
2225.000000	19.842348
2224.000000	19.865113
2223.000000	19.877379
2222.000000	19.848316
2221.000000	19.834724
2220.000000	19.829419
2219.000000	19.797704
2218.000000	19.762232
2217.000000	19.733611
2216.000000	19.710405
2215.000000	19.682779
2214.000000	19.647748
2213.000000	19.611282
2212.000000	19.601999
2211.000000	19.540558
2210.000000	19.518899
2209.000000	19.487295
2208.000000	19.485527
2207.000000	19.452043
2206.000000	19.442871
2205.000000	19.437236
2204.000000	19.415577
2203.000000	19.386624
2202.000000	19.373143
2201.000000	19.345406
2200.000000	19.330598
2199.000000	19.300430
2198.000000	19.338444
2197.000000	19.297336
2196.000000	19.269046
2195.000000	19.263632
2194.000000	19.256559
2193.000000	19.239984
2192.000000	19.200202
2191.000000	19.196113
2190.000000	19.186941
2189.000000	19.163182
2188.000000	19.144949
2187.000000	19.120969
2186.000000	19.082734
2185.000000	19.068148
2184.000000	19.046710
2183.000000	19.035659
2182.000000	19.003170
2181.000000	18.975323
2180.000000	18.973555
2179.000000	18.944603
2178.000000	18.908799
2177.000000	18.902390
2176.000000	18.907252
2175.000000	18.896643
2174.000000	18.894433
2173.000000	18.902942
2172.000000	18.908246
2171.000000	18.918413
2170.000000	18.912004
2169.000000	18.938746
2168.000000	18.955653
2167.000000	18.976428
2166.000000	18.978086
2165.000000	19.009911
2164.000000	19.034665
2163.000000	19.075662
2162.000000	19.088149
2161.000000	19.129036
2160.000000	19.153458
2159.000000	19.210810
2158.000000	19.215230
2157.000000	19.255233
2156.000000	19.319326
2155.000000	19.370269
2154.000000	19.402758
2153.000000	19.457348
2152.000000	19.503870
2151.000000	19.546083
2150.000000	19.607193
2149.000000	19.649296
2148.000000	19.667750
2147.000000	19.712394
2146.000000	19.776598
2145.000000	19.818148
2144.000000	19.861687
2143.000000	19.881688
2142.000000	19.908431
2141.000000	19.959374
2140.000000	20.003023
2139.000000	20.031865
2138.000000	20.065901
2137.000000	20.087449
2136.000000	20.113087
2135.000000	20.137066
2134.000000	20.147012
2133.000000	20.171434
2132.000000	20.195524
2131.000000	20.206243
2130.000000	20.205690
2129.000000	20.225250
2128.000000	20.240610
2127.000000	20.231659
2126.000000	20.231217
2125.000000	20.225139
2124.000000	20.210994
2123.000000	20.196297
2122.000000	20.180495
2121.000000	20.157399
2120.000000	20.141487
2119.000000	20.116512
2118.000000	20.099937
2117.000000	20.070432
2116.000000	20.045899
2115.000000	20.035733
2114.000000	20.007112
2113.000000	19.975728
2112.000000	19.955174
2111.000000	19.906000
2110.000000	19.879920
2109.000000	19.861134
2108.000000	19.849200
2107.000000	19.821242
2106.000000	19.782786
2105.000000	19.754055
2104.000000	19.731622
2103.000000	19.702338
2102.000000	19.673386
2101.000000	19.649406
2100.000000	19.624542
2099.000000	19.604541
2098.000000	19.565422
2097.000000	19.534591
2096.000000	19.522546
2095.000000	19.520667
2094.000000	19.511716
2093.000000	19.475250
2092.000000	19.465194
2091.000000	19.459889
2090.000000	19.468619
2089.000000	19.475250
2088.000000	19.462983
2087.000000	19.446629
2086.000000	19.416350
2085.000000	19.400879
2084.000000	19.399885
2083.000000	19.389497
2082.000000	19.372037
2081.000000	19.360434
2080.000000	19.333803
2079.000000	19.318442
2078.000000	19.300872
2077.000000	19.286948
2076.000000	19.271588
2075.000000	19.242083
2074.000000	19.226060
2073.000000	19.210037
2072.000000	19.180200
2071.000000	19.178101
2070.000000	19.168929
2069.000000	19.137877
2068.000000	19.108593
2067.000000	19.096548
2066.000000	19.085608
2065.000000	19.097321
2064.000000	19.084060
2063.000000	19.061628
2062.000000	19.058644
2061.000000	19.058313
2060.000000	19.066048
2059.000000	19.095774
2058.000000	19.112681
2057.000000	19.149259
2056.000000	19.195450
2055.000000	19.245951
2054.000000	19.327946
2053.000000	19.410162
2052.000000	19.493151
2051.000000	19.596584
2050.000000	19.720129
2049.000000	19.850194
2048.000000	19.996724
2047.000000	20.147343
2046.000000	20.295310
2045.000000	20.446260
2044.000000	20.609145
2043.000000	20.774572
2042.000000	20.961879
2041.000000	21.136919
2040.000000	21.291295
2039.000000	21.454733
2038.000000	21.619496
2037.000000	21.748677
2036.000000	21.923497
2035.000000	22.061960
2034.000000	22.199539
2033.000000	22.328941
2032.000000	22.437678
2031.000000	22.565312
2030.000000	22.705543
2029.000000	22.806103
2028.000000	22.903900
2027.000000	23.000261
2026.000000	23.103694
2025.000000	23.199392
2024.000000	23.290559
2023.000000	23.360509
2022.000000	23.448471
2021.000000	23.511238
2020.000000	23.602184
2019.000000	23.681195
2018.000000	23.733796
2017.000000	23.796452
2016.000000	23.829273
2015.000000	23.908173
2014.000000	23.950497
2013.000000	23.990500
2012.000000	23.993705
2011.000000	24.006744
2010.000000	24.032050
2009.000000	24.064649
2008.000000	24.053598
2007.000000	24.044206
2006.000000	24.061776
2005.000000	24.057798
2004.000000	24.022104
2003.000000	23.991273
2002.000000	23.973040
2001.000000	23.944088
2000.000000	23.892150
1999.000000	23.825847
1998.000000	23.771699
1997.000000	23.726724
1996.000000	23.673902
1995.000000	23.600084
1994.000000	23.545937
1993.000000	23.465489
1992.000000	23.375427
1991.000000	23.290227
1990.000000	23.231991
1989.000000	23.113640
1988.000000	23.021478
1987.000000	22.935284
1986.000000	22.815717
1985.000000	22.718141
1984.000000	22.620012
1983.000000	22.540227
1982.000000	22.437678
1981.000000	22.324631
1980.000000	22.212800
1979.000000	22.100968
1978.000000	21.999414
1977.000000	21.889682
1976.000000	21.764811
1975.000000	21.674196
1974.000000	21.587229
1973.000000	21.473408
1972.000000	21.363234
1971.000000	21.268752
1970.000000	21.184878
1969.000000	21.109514
1968.000000	21.019010
1967.000000	20.924749
1966.000000	20.823194
1965.000000	20.744625
1964.000000	20.654895
1963.000000	20.593785
1962.000000	20.494330
1961.000000	20.373658
1960.000000	20.298846
1959.000000	20.222045
1958.000000	20.122148
1957.000000	20.031976
1956.000000	19.954622
1955.000000	19.895502
1954.000000	19.812844
1953.000000	19.733722
1952.000000	19.652832
1951.000000	19.564759
1950.000000	19.525529
1949.000000	19.445413
1948.000000	19.398006
1947.000000	19.334687
1946.000000	19.302309
1945.000000	19.263190
1944.000000	19.199207
1943.000000	19.193792
1942.000000	19.181858
1941.000000	19.170918
1940.000000	19.155557
1939.000000	19.188599
1938.000000	19.210589
1937.000000	19.236668
1936.000000	19.287501
1935.000000	19.339991
1934.000000	19.401321
1933.000000	19.469945
1932.000000	19.569400
1931.000000	19.655705
1930.000000	19.782676
1929.000000	19.900143
1928.000000	20.052309
1927.000000	20.226355
1926.000000	20.369901
1925.000000	20.534775
1924.000000	20.702522
1923.000000	20.879000
1922.000000	21.106309
1921.000000	21.359698
1920.000000	21.610766
1919.000000	21.829898
1918.000000	22.100305
1917.000000	22.315128
1916.000000	22.556692
1915.000000	22.805109
1914.000000	23.148228
1913.000000	23.502729
1912.000000	23.839329
1911.000000	24.115813
1910.000000	24.430864
1909.000000	24.708011
1908.000000	24.993447
1907.000000	25.351816
1906.000000	25.738916
1905.000000	26.151875
1904.000000	26.528146
1903.000000	26.893035
1902.000000	27.240795
1901.000000	27.596954
1900.000000	28.010134
1899.000000	28.409832
1898.000000	28.813508
1897.000000	29.218400
1896.000000	29.549363
1895.000000	29.869939
1894.000000	30.239801
1893.000000	30.617066
1892.000000	31.027373
1891.000000	31.442542
1890.000000	31.821023
1889.000000	32.177071
1888.000000	32.577322
1887.000000	32.981882
1886.000000	33.459155
1885.000000	33.995437
1884.000000	34.597581
1883.000000	35.187238
1882.000000	35.811041
1881.000000	36.453188
1880.000000	37.007593
1879.000000	37.569292
1878.000000	38.150661
1877.000000	38.676556
1876.000000	39.122335
1875.000000	39.565462
1874.000000	39.974995
1873.000000	40.362979
1872.000000	40.683003
1871.000000	40.967886
1870.000000	41.188565
1869.000000	41.395431
1868.000000	41.575886
1867.000000	41.700315
1866.000000	41.767834
1865.000000	41.838005
1864.000000	41.895799
1863.000000	41.951494
1862.000000	42.014261
1861.000000	42.051943
1860.000000	42.084874
1859.000000	42.070619
1858.000000	42.030616
1857.000000	42.001774
1856.000000	41.937128
1855.000000	41.878118
1854.000000	41.797892
1853.000000	41.678214
1852.000000	41.580196
1851.000000	41.530579
1850.000000	41.484167
1849.000000	41.402503
1848.000000	41.280616
1847.000000	41.139832
1846.000000	40.995070
1845.000000	40.876719
1844.000000	40.790414
1843.000000	40.777043
1842.000000	40.757594
1841.000000	40.692175
1840.000000	40.608522
1839.000000	40.528848
1838.000000	40.458456
1837.000000	40.366847
1836.000000	40.246948
1835.000000	40.102849
1834.000000	39.957203
1833.000000	39.843935
1832.000000	39.744591
1831.000000	39.624582
1830.000000	39.501147
1829.000000	39.365557
1828.000000	39.229194
1827.000000	39.112500
1826.000000	39.005420
1825.000000	38.898451
1824.000000	38.814025
1823.000000	38.780210
1822.000000	38.781868
1821.000000	38.755236
1820.000000	38.678435
1819.000000	38.608816
1818.000000	38.566382
1817.000000	38.545939
1816.000000	38.532789
1815.000000	38.511572
1814.000000	38.498200
1813.000000	38.484498
1812.000000	38.450794
1811.000000	38.391563
1810.000000	38.316530
1809.000000	38.236745
1808.000000	38.182708
1807.000000	38.144804
1806.000000	38.073528
1805.000000	37.994296
1804.000000	37.927551
1803.000000	37.872629
1802.000000	37.804448
1801.000000	37.728420
1800.000000	37.652613
1799.000000	37.583437
1798.000000	37.524537
1797.000000	37.459008
1796.000000	37.393920
1795.000000	37.338004
1794.000000	37.265623
1793.000000	37.193684
1792.000000	37.123182
1791.000000	37.057100
1790.000000	36.972453
1789.000000	36.887253
1788.000000	36.801611
1787.000000	36.733540
1786.000000	36.639500
1785.000000	36.519270
1784.000000	36.408765
1783.000000	36.285661
1782.000000	36.184328
1781.000000	36.087636
1780.000000	35.990502
1779.000000	35.874360
1778.000000	35.734350
1777.000000	35.591246
1776.000000	35.446042
1775.000000	35.286030
1774.000000	35.110326
1773.000000	34.920809
1772.000000	34.734718
1771.000000	34.558020
1770.000000	34.387068
1769.000000	34.216669
1768.000000	34.061630
1767.000000	33.915873
1766.000000	33.810893
1765.000000	33.710665
1764.000000	33.668120
1763.000000	33.645246
1762.000000	33.691437
1761.000000	33.772216
1760.000000	33.885153
1759.000000	33.978088
1758.000000	34.085057
1757.000000	34.170588
1756.000000	34.262971
1755.000000	34.307062
1754.000000	34.322754
1753.000000	34.310930
1752.000000	34.297117
1751.000000	34.250373
1750.000000	34.173351
1749.000000	34.077985
1748.000000	33.964275
1747.000000	33.835315
1746.000000	33.668673
1745.000000	33.453629
1744.000000	33.211512
1743.000000	32.926408
1742.000000	32.613899
1741.000000	32.275752
1740.000000	31.936611
1739.000000	31.592055
1738.000000	31.298222
1737.000000	31.021406
1736.000000	30.838077
1735.000000	30.718289
1734.000000	30.671545
1733.000000	30.701492
1732.000000	30.788239
1731.000000	30.921619
1730.000000	31.052900
1729.000000	31.255677
1728.000000	31.399887
1727.000000	31.558793
1726.000000	31.704439
1725.000000	31.811409
1724.000000	31.846549
1723.000000	31.896719
1722.000000	31.929318
1721.000000	31.932523
1720.000000	31.930312
1719.000000	31.940810
1718.000000	31.946115
1717.000000	32.015402
1716.000000	32.086125
1715.000000	32.166794
1714.000000	32.240280
1713.000000	32.293986
1712.000000	32.354874
1711.000000	32.362278
1710.000000	32.371560
1709.000000	32.346918
1708.000000	32.297411
1707.000000	32.229672
1706.000000	32.182707
1705.000000	32.083583
1704.000000	32.007887
1703.000000	31.851854
1702.000000	31.688085
1701.000000	31.471715
1700.000000	31.218105
1699.000000	30.966153
1698.000000	30.722709
1697.000000	30.563029
1696.000000	30.440368
1695.000000	30.427992
1694.000000	30.531646
1693.000000	30.719063
1692.000000	30.920293
1691.000000	31.160421
1690.000000	31.374139
1689.000000	31.536692
1688.000000	31.595371
1687.000000	31.628191
1686.000000	31.600233
1685.000000	31.619350
1684.000000	31.755382
1683.000000	32.057725
1682.000000	32.559420
1681.000000	33.226099
1680.000000	34.020190
1679.000000	34.872187
1678.000000	35.601854
1677.000000	36.339588
1676.000000	36.982619
1675.000000	37.537467
1674.000000	38.023469
1673.000000	38.406149
1672.000000	38.769491
1671.000000	39.063215
1670.000000	39.343125
1669.000000	39.558610
1668.000000	39.776969
1667.000000	39.943501
1666.000000	40.105722
1665.000000	40.250816
1664.000000	40.364195
1663.000000	40.430719
1662.000000	40.523985
1661.000000	40.614379
1660.000000	40.672836
1659.000000	40.695379
1658.000000	40.744775
1657.000000	40.771517
1656.000000	40.792845
1655.000000	40.800580
1654.000000	40.801022
1653.000000	40.789751
1652.000000	40.751737
1651.000000	40.748974
1650.000000	40.717922
1649.000000	40.690627
1648.000000	40.636590
1647.000000	40.575370
1646.000000	40.526195
1645.000000	40.462434
1644.000000	40.394805
1643.000000	40.342093
1642.000000	40.261093
1641.000000	40.177661
1640.000000	40.113458
1639.000000	40.030137
1638.000000	39.962949
1637.000000	39.885154
1636.000000	39.808021
1635.000000	39.715749
1634.000000	39.630439
1633.000000	39.543692
1632.000000	39.442690
1631.000000	39.344672
1630.000000	39.233393
1629.000000	39.120014
1628.000000	39.027853
1627.000000	38.935581
1626.000000	38.830932
1625.000000	38.729930
1624.000000	38.633238
1623.000000	38.520412
1622.000000	38.410128
1621.000000	38.321944
1620.000000	38.244591
1619.000000	38.140495
1618.000000	38.027558
1617.000000	37.922025
1616.000000	37.814614
1615.000000	37.730962
1614.000000	37.647972
1613.000000	37.548075
1612.000000	37.450057
1611.000000	37.369388
1610.000000	37.290598
1609.000000	37.192800
1608.000000	37.101854
1607.000000	37.016876
1606.000000	36.908912
1605.000000	36.800285
1604.000000	36.706577
1603.000000	36.626681
1602.000000	36.527116
1601.000000	36.424235
1600.000000	36.328648
1599.000000	36.233613
1598.000000	36.157254
1597.000000	36.082111
1596.000000	36.000668
1595.000000	35.909501
1594.000000	35.834357
1593.000000	35.753799
1592.000000	35.674898
1591.000000	35.622298
1590.000000	35.562514
1589.000000	35.490023
1588.000000	35.420183
1587.000000	35.353770
1586.000000	35.299511
1585.000000	35.245585
1584.000000	35.200278
1583.000000	35.158617
1582.000000	35.121598
1581.000000	35.085241
1580.000000	35.063140
1579.000000	35.046786
1578.000000	35.017944
1577.000000	35.003578
1576.000000	34.983908
1575.000000	34.967774
1574.000000	34.983134
1573.000000	34.987113
1572.000000	35.006230
1571.000000	35.028994
1570.000000	35.041813
1569.000000	35.053747
1568.000000	35.069881
1567.000000	35.106016
1566.000000	35.135853
1565.000000	35.154197
1564.000000	35.194089
1563.000000	35.225141
1562.000000	35.245143
1561.000000	35.279399
1560.000000	35.302716
1559.000000	35.314982
1558.000000	35.320397
1557.000000	35.336310
1556.000000	35.374324
1555.000000	35.378523
1554.000000	35.372224
1553.000000	35.369682
1552.000000	35.372887
1551.000000	35.387474
1550.000000	35.380291
1549.000000	35.364820
1548.000000	35.360952
1547.000000	35.353327
1546.000000	35.349570
1545.000000	35.342056
1544.000000	35.333326
1543.000000	35.354433
1542.000000	35.381396
1541.000000	35.396646
1540.000000	35.389905
1539.000000	35.404934
1538.000000	35.424603
1537.000000	35.444494
1536.000000	35.454329
1535.000000	35.451014
1534.000000	35.454882
1533.000000	35.466264
1532.000000	35.468143
1531.000000	35.468585
1530.000000	35.473336
1529.000000	35.475546
1528.000000	35.475657
1527.000000	35.474773
1526.000000	35.450793
1525.000000	35.437201
1524.000000	35.432118
1523.000000	35.438196
1522.000000	35.409796
1521.000000	35.394657
1520.000000	35.389463
1519.000000	35.372776
1518.000000	35.349570
1517.000000	35.359626
1516.000000	35.344487
1515.000000	35.307026
1514.000000	35.290671
1513.000000	35.277963
1512.000000	35.264481
1511.000000	35.234092
1510.000000	35.209228
1509.000000	35.211991
1508.000000	35.182486
1507.000000	35.159170
1506.000000	35.118946
1505.000000	35.093640
1504.000000	35.066898
1503.000000	35.043581
1502.000000	35.032641
1501.000000	35.020043
1500.000000	35.015623
1499.000000	35.014628
1498.000000	34.983576
1497.000000	34.989986
1496.000000	34.990649
1495.000000	34.990870
1494.000000	34.995180
1493.000000	35.010650
1492.000000	35.014960
1491.000000	35.011534
1490.000000	35.047228
1489.000000	35.058831
1488.000000	35.085462
1487.000000	35.095739
1486.000000	35.107785
1485.000000	35.122592
1484.000000	35.123034
1483.000000	35.144362
1482.000000	35.176187
1481.000000	35.224589
1480.000000	35.257409
1479.000000	35.277521
1478.000000	35.304816
1477.000000	35.352443
1476.000000	35.386258
1475.000000	35.417973
1474.000000	35.459302
1473.000000	35.524500
1472.000000	35.565829
1471.000000	35.621856
1470.000000	35.640089
1469.000000	35.668157
1468.000000	35.724736
1467.000000	35.759103
1466.000000	35.809715
1465.000000	35.856127
1464.000000	35.933481
1463.000000	36.019786
1462.000000	36.102333
1461.000000	36.183776
1460.000000	36.257372
1459.000000	36.351302
1458.000000	36.486339
1457.000000	36.600270
1456.000000	36.731993
1455.000000	36.852112
1454.000000	36.968364
1453.000000	37.109148
1452.000000	37.272917
1451.000000	37.424751
1450.000000	37.577580
1449.000000	37.702230
1448.000000	37.849202
1447.000000	38.060931
1446.000000	38.268239
1445.000000	38.408470
1444.000000	38.567487
1443.000000	38.755347
1442.000000	38.963760
1441.000000	39.125540
1440.000000	39.319035
1439.000000	39.490539
1438.000000	39.685470
1437.000000	39.857417
1436.000000	40.032015
1435.000000	40.218659
1434.000000	40.393478
1433.000000	40.593051
1432.000000	40.789861
1431.000000	40.981036
1430.000000	41.184366
1429.000000	41.439633
1428.000000	41.711034
1427.000000	41.928067
1426.000000	42.225547
1425.000000	42.540930
1424.000000	42.881949
1423.000000	43.153682
1422.000000	43.445195
1421.000000	43.774944
1420.000000	44.111101
1419.000000	44.446485
1418.000000	44.724406
1417.000000	44.945527
1416.000000	45.288094
1415.000000	45.623036
1414.000000	45.933114
1413.000000	46.138543
1412.000000	46.394695
1411.000000	46.763009
1410.000000	47.147237
1409.000000	47.594562
1408.000000	48.035810
1407.000000	48.515404
1406.000000	49.004169
1405.000000	49.505422
1404.000000	49.947222
1403.000000	50.434551
1402.000000	50.926190
1401.000000	51.559717
1400.000000	51.945381
1399.000000	52.210815
1398.000000	52.440224
1397.000000	52.776381
1396.000000	53.132540
1395.000000	53.287800
1394.000000	53.383387
1393.000000	53.515331
1392.000000	53.729380
1391.000000	53.893480
1390.000000	54.092390
1389.000000	54.371858
1388.000000	54.708900
1387.000000	55.014005
1386.000000	55.376684
1385.000000	55.877715
1384.000000	56.352667
1383.000000	56.770378
1382.000000	57.133499
1381.000000	57.332298
1380.000000	57.438825
1379.000000	57.495072
1378.000000	57.545242
1377.000000	57.642818
1376.000000	57.786033
1375.000000	58.009364
1374.000000	58.331487
1373.000000	58.757707
1372.000000	59.189230
1371.000000	59.620975
1370.000000	59.987521
1369.000000	60.359040
1368.000000	60.726913
1367.000000	60.994004
1366.000000	61.210042
1365.000000	61.472714
1364.000000	61.651843
1363.000000	61.866224
1362.000000	62.088229
1361.000000	62.171108
1360.000000	62.192877
1359.000000	62.243931
1358.000000	62.354878
1357.000000	62.585061
1356.000000	62.955475
1355.000000	63.487559
1354.000000	64.103074
1353.000000	64.698587
1352.000000	65.422398
1351.000000	66.089740
1350.000000	66.679065
1349.000000	67.191920
1348.000000	67.708533
1347.000000	68.136963
1346.000000	68.510360
1345.000000	68.936690
1344.000000	69.337051
1343.000000	69.668015
1342.000000	70.005830
1341.000000	70.338562
1340.000000	70.642120
1339.000000	70.947999
1338.000000	71.223710
1337.000000	71.495442
1336.000000	71.769606
1335.000000	72.000342
1334.000000	72.217374
1333.000000	72.439932
1332.000000	72.651771
1331.000000	72.860184
1330.000000	73.032683
1329.000000	73.190043
1328.000000	73.342319
1327.000000	73.501226
1326.000000	73.642894
1325.000000	73.775832
1324.000000	73.905897
1323.000000	74.013418
1322.000000	74.118509
1321.000000	74.232440
1320.000000	74.329685
1319.000000	74.419636
1318.000000	74.496990
1317.000000	74.582411
1316.000000	74.656670
1315.000000	74.722089
1314.000000	74.783862
1313.000000	74.832374
1312.000000	74.884311
1311.000000	74.937133
1310.000000	74.974926
1309.000000	75.014155
1308.000000	75.053053
1307.000000	75.067640
1306.000000	75.074270
1305.000000	75.067861
1304.000000	75.046644
1303.000000	75.029847
1302.000000	75.017028
1301.000000	74.989513
1300.000000	74.955256
1299.000000	74.933486
1298.000000	74.903208
1297.000000	74.878676
1296.000000	74.847403
1295.000000	74.803863
1294.000000	74.755683
1293.000000	74.700983
1292.000000	74.644183
1291.000000	74.579206
1290.000000	74.519202
1289.000000	74.454556
1288.000000	74.381180
1287.000000	74.292002
1286.000000	74.210339
1285.000000	74.133980
1284.000000	74.021264
1283.000000	73.920041
1282.000000	73.837162
1281.000000	73.749421
1280.000000	73.668089
1279.000000	73.584989
1278.000000	73.493159
1277.000000	73.406302
1276.000000	73.346076
1275.000000	73.284525
1274.000000	73.214796
1273.000000	73.156228
1272.000000	73.110700
1271.000000	73.056994
1270.000000	73.008703
1269.000000	72.961518
1268.000000	72.912674
1267.000000	72.868251
1266.000000	72.827474
1265.000000	72.786145
1264.000000	72.719400
1263.000000	72.661274
1262.000000	72.632101
1261.000000	72.600607
1260.000000	72.546459
1259.000000	72.487891
1258.000000	72.417610
1257.000000	72.372303
1256.000000	72.323901
1255.000000	72.237707
1254.000000	72.152287
1253.000000	72.100570
1252.000000	72.001447
1251.000000	71.925861
1250.000000	71.841766
1249.000000	71.723084
1248.000000	71.614457
1247.000000	71.491796
1246.000000	71.334878
1245.000000	71.177187
1244.000000	71.041155
1243.000000	70.858489
1242.000000	70.706765
1241.000000	70.527194
1240.000000	70.339667
1239.000000	70.160095
1238.000000	69.972347
1237.000000	69.772884
1236.000000	69.561709
1235.000000	69.349317
1234.000000	69.134163
1233.000000	68.930944
1232.000000	68.709159
1231.000000	68.465606
1230.000000	68.247799
1229.000000	68.021816
1228.000000	67.802352
1227.000000	67.559351
1226.000000	67.325853
1225.000000	67.096112
1224.000000	66.874217
1223.000000	66.638067
1222.000000	66.428770
1221.000000	66.223783
1220.000000	66.011502
1219.000000	65.812592
1218.000000	65.625506
1217.000000	65.456654
1216.000000	65.290123
1215.000000	65.115303
1214.000000	64.956728
1213.000000	64.802462
1212.000000	64.668198
1211.000000	64.536365
1210.000000	64.379116
1209.000000	64.268169
1208.000000	64.166062
1207.000000	64.114345
1206.000000	64.038318
1205.000000	63.964610
1204.000000	63.937758
1203.000000	63.909910
1202.000000	63.887699
1201.000000	63.811671
1200.000000	63.771557
1199.000000	63.659947
1198.000000	63.540712
1197.000000	63.354400
1196.000000	63.116924
1195.000000	62.810161
1194.000000	62.414441
1193.000000	61.954517
1192.000000	61.396465
1191.000000	60.838634
1190.000000	60.322574
1189.000000	59.888840
1188.000000	59.581082
1187.000000	59.432895
1186.000000	59.418750
1185.000000	59.561081
1184.000000	59.897901
1183.000000	60.329314
1182.000000	60.871012
1181.000000	61.484759
1180.000000	62.086129
1179.000000	62.638656
1178.000000	63.099022
1177.000000	63.528998
1176.000000	63.870128
1175.000000	64.230155
1174.000000	64.554709
1173.000000	64.908547
1172.000000	65.260176
1171.000000	65.642524
1170.000000	66.025426
1169.000000	66.419488
1168.000000	66.814213
1167.000000	67.182306
1166.000000	67.581452
1165.000000	67.968110
1164.000000	68.367145
1163.000000	68.783861
1162.000000	69.144993
1161.000000	69.542370
1160.000000	69.915657
1159.000000	70.242864
1158.000000	70.567087
1157.000000	70.868987
1156.000000	71.083699
1155.000000	71.251115
1154.000000	71.368582
1153.000000	71.429250
1152.000000	71.427371
1151.000000	71.405381
1150.000000	71.363610
1149.000000	71.321175
1148.000000	71.313551
1147.000000	71.375434
1146.000000	71.479530
1145.000000	71.675677
1144.000000	71.929729
1143.000000	72.220800
1142.000000	72.548669
1141.000000	72.880296
1140.000000	73.205182
1139.000000	73.542444
1138.000000	73.900371
1137.000000	74.284930
1136.000000	74.671478
1135.000000	75.010177
1134.000000	75.302906
1133.000000	75.546239
1132.000000	75.785593
1131.000000	76.030252
1130.000000	76.243086
1129.000000	76.404755
1128.000000	76.529626
1127.000000	76.606648
1126.000000	76.688091
1125.000000	76.726768
1124.000000	76.782684
1123.000000	76.814178
1122.000000	76.839262
1121.000000	76.832853
1120.000000	76.840699
1119.000000	76.827991
1118.000000	76.815504
1117.000000	76.777269
1116.000000	76.743233
1115.000000	76.669747
1114.000000	76.608527
1113.000000	76.579243
1112.000000	76.547860
1111.000000	76.496696
1110.000000	76.415364
1109.000000	76.386301
1108.000000	76.348950
1107.000000	76.293366
1106.000000	76.238886
1105.000000	76.189712
1104.000000	76.128602
1103.000000	76.071692
1102.000000	76.036662
1101.000000	75.972790
1100.000000	75.912785
1099.000000	75.853886
1098.000000	75.784378
1097.000000	75.736750
1096.000000	75.674093
1095.000000	75.600607
1094.000000	75.530657
1093.000000	75.482477
1092.000000	75.408991
1091.000000	75.345450
1090.000000	75.283788
1089.000000	75.218590
1088.000000	75.164885
1087.000000	75.105875
1086.000000	75.031394
1085.000000	74.956140
1084.000000	74.900114
1083.000000	74.839446
1082.000000	74.773806
1081.000000	74.717890
1080.000000	74.648714
1079.000000	74.611695
1078.000000	74.554784
1077.000000	74.503510
1076.000000	74.457540
1075.000000	74.382617
1074.000000	74.323054
1073.000000	74.270343
1072.000000	74.214870
1071.000000	74.164258
1070.000000	74.090220
1069.000000	74.016181
1068.000000	73.964133
1067.000000	73.905344
1066.000000	73.823349
1065.000000	73.747874
1064.000000	73.674167
1063.000000	73.597587
1062.000000	73.533272
1061.000000	73.442990
1060.000000	73.355027
1059.000000	73.264413
1058.000000	73.175677
1057.000000	73.100975
1056.000000	73.017323
1055.000000	72.916210
1054.000000	72.816755
1053.000000	72.724594
1052.000000	72.638952
1051.000000	72.544360
1050.000000	72.464464
1049.000000	72.388658
1048.000000	72.312961
1047.000000	72.230193
1046.000000	72.139910
1045.000000	72.074270
1044.000000	72.005093
1043.000000	71.919894
1042.000000	71.849944
1041.000000	71.785188
1040.000000	71.722421
1039.000000	71.657664
1038.000000	71.601086
1037.000000	71.537324
1036.000000	71.477541
1035.000000	71.416431
1034.000000	71.364383
1033.000000	71.318192
1032.000000	71.264928
1031.000000	71.210891
1030.000000	71.176634
1029.000000	71.132874
1028.000000	71.069886
1027.000000	71.038613
1026.000000	71.002367
1025.000000	70.957171
1024.000000	70.933744
1023.000000	70.916947
1022.000000	70.890646
1021.000000	70.866114
1020.000000	70.840588
1019.000000	70.827879
1018.000000	70.810420
1017.000000	70.803679
1016.000000	70.792076
1015.000000	70.786992
1014.000000	70.787655
1013.000000	70.798816
1012.000000	70.825669
1011.000000	70.845671
1010.000000	70.868987
1009.000000	70.900371
1008.000000	70.915289
1007.000000	70.948993
1006.000000	70.961591
1005.000000	70.972420
1004.000000	71.002699
1003.000000	71.024137
1002.000000	71.018722
1001.000000	71.040160
1000.000000	71.065798
999.000000	71.068892
998.000000	71.091545
997.000000	71.098839
996.000000	71.121934
995.000000	71.154423
994.000000	71.169341
993.000000	71.192879
992.000000	71.213212
991.000000	71.258519
990.000000	71.276531
989.000000	71.322391
988.000000	71.370350
987.000000	71.405049
986.000000	71.443063
985.000000	71.511024
984.000000	71.579095
983.000000	71.618877
982.000000	71.687390
981.000000	71.754578
980.000000	71.801321
979.000000	71.879449
978.000000	71.952493
977.000000	71.995258
976.000000	72.064103
975.000000	72.148308
974.000000	72.221463
973.000000	72.283788
972.000000	72.341914
971.000000	72.420152
970.000000	72.491870
969.000000	72.550437
968.000000	72.602486
967.000000	72.660943
966.000000	72.731887
965.000000	72.798522
964.000000	72.852007
963.000000	72.898198
962.000000	72.982624
961.000000	73.043844
960.000000	73.097108
959.000000	73.179876
958.000000	73.242975
957.000000	73.324528
956.000000	73.402103
955.000000	73.443763
954.000000	73.497137
953.000000	73.606648
952.000000	73.706987
951.000000	73.756493
950.000000	73.807547
949.000000	73.893852
948.000000	74.003473
947.000000	74.063367
946.000000	74.150335
945.000000	74.270012
944.000000	74.357090
943.000000	74.449031
942.000000	74.589372
941.000000	74.642526
940.000000	74.744743
939.000000	74.876355
938.000000	74.963433
937.000000	75.072723
936.000000	75.187538
935.000000	75.272848
934.000000	75.411864
933.000000	75.508004
932.000000	75.581821
931.000000	75.679177
930.000000	75.808910
929.000000	75.868693
928.000000	75.923283
927.000000	76.035004
926.000000	76.084289
925.000000	76.159875
924.000000	76.223526
923.000000	76.266181
922.000000	76.357238
921.000000	76.403098
920.000000	76.441664
919.000000	76.474926
918.000000	76.505978
917.000000	76.580459
916.000000	76.610185
915.000000	76.656928
914.000000	76.680245
913.000000	76.813294
912.000000	76.829759
911.000000	76.863463
910.000000	76.873519
909.000000	76.944574
908.000000	77.126134
907.000000	77.172436
906.000000	77.267581
905.000000	77.346703
904.000000	77.427040
903.000000	77.536993
902.000000	77.631144
901.000000	77.740655
900.000000	77.861658
899.000000	77.960229
898.000000	78.058910
897.000000	78.176378
896.000000	78.230525
895.000000	78.322908
894.000000	78.410317
893.000000	78.497948
892.000000	78.596630
891.000000	78.692990
890.000000	78.794876
889.000000	78.863058
888.000000	78.879192
887.000000	78.932566
886.000000	79.009146
885.000000	79.086942
884.000000	79.101750
883.000000	79.099319
882.000000	79.126724
881.000000	79.175678
880.000000	79.179877
879.000000	79.107496
878.000000	79.100313
877.000000	79.085947
876.000000	79.009920
875.000000	78.986714
874.000000	78.910023
873.000000	78.788246
872.000000	78.701499
871.000000	78.540272
870.000000	78.464576
869.000000	78.326002
868.000000	78.137148
867.000000	77.950836
866.000000	77.683634
865.000000	77.497101
864.000000	77.244928
863.000000	77.022812
862.000000	76.605543
861.000000	76.210155
860.000000	75.808468
859.000000	75.471316
858.000000	76.621567
857.000000	76.226900
856.000000	76.555600
855.000000	77.082200
854.000000	76.568000
853.000000	77.033100
852.000000	76.902600
851.000000	77.087200
850.000000	77.134100
849.000000	77.329200
848.000000	77.587200
847.000000	77.958600
846.000000	78.111700
845.000000	78.362100
844.000000	78.533600
843.000000	78.634400
842.000000	78.861000
841.000000	79.276000
840.000000	79.792400
839.000000	80.105500
838.000000	80.481300
837.000000	80.656600
836.000000	80.778000
835.000000	81.058400
834.000000	81.523100
833.000000	81.712500
832.000000	81.928400
831.000000	82.036800
830.000000	82.334300
829.000000	82.609300
828.000000	82.959900
827.000000	83.032000
826.000000	83.329700
825.000000	83.608700
824.000000	83.829500
823.000000	84.004800
822.000000	84.167900
821.000000	84.361300
820.000000	84.667100
819.000000	84.843000
818.000000	84.995900
817.000000	85.261200
816.000000	85.415600
815.000000	85.519400
814.000000	85.717300
813.000000	85.906000
812.000000	86.288300
811.000000	86.689900
810.000000	86.772200
809.000000	87.014800
808.000000	87.288700
807.000000	87.578600
806.000000	87.832300
805.000000	88.033600
804.000000	88.117200
803.000000	88.372300
802.000000	88.554000
801.000000	88.673200
800.000000	88.801200
799.000000	88.879200
798.000000	88.976600
797.000000	89.083000
796.000000	89.139200
795.000000	89.103200
794.000000	89.241100
793.000000	89.171600
792.000000	89.235100
791.000000	89.399900
790.000000	89.353600
789.000000	89.394800
788.000000	89.554800
787.000000	89.483800
786.000000	89.607500
785.000000	89.743800
784.000000	89.790900
783.000000	89.853400
782.000000	89.919700
781.000000	90.087600
780.000000	90.333800
779.000000	90.442100
778.000000	90.504500
777.000000	90.612200
776.000000	90.732600
775.000000	90.980300
774.000000	91.217500
773.000000	91.403600
772.000000	91.582500
771.000000	91.771500
770.000000	91.997100
769.000000	92.223600
768.000000	92.434200
767.000000	92.593700
766.000000	92.730900
765.000000	92.820600
764.000000	92.994300
763.000000	93.192600
762.000000	93.134000
761.000000	93.068300
760.000000	93.169100
759.000000	93.187200
758.000000	93.120000
757.000000	93.042200
756.000000	92.959800
755.000000	92.920900
754.000000	92.820500
753.000000	92.754400
752.000000	92.708100
751.000000	92.605900
750.000000	92.404700
749.000000	92.245400
748.000000	92.142100
747.000000	92.048100
746.000000	91.901900
745.000000	91.777000
744.000000	91.627100
743.000000	91.460800
742.000000	91.276200
741.000000	91.045700
740.000000	90.800400
739.000000	90.549600
738.000000	90.312700
737.000000	90.145800
736.000000	89.949500
735.000000	89.540300
734.000000	89.214600
733.000000	88.941400
732.000000	88.719800
731.000000	88.450200
730.000000	88.093700
729.000000	87.849000
728.000000	87.490600
727.000000	87.176700
726.000000	86.881400
725.000000	86.605900
724.000000	86.295000
723.000000	85.965200
722.000000	85.665900
721.000000	85.274400
720.000000	84.938800
719.000000	84.543300
718.000000	84.235700
717.000000	83.948400
716.000000	83.650900
715.000000	83.460700
714.000000	83.247300
713.000000	83.070400
712.000000	82.886100
711.000000	82.656300
710.000000	82.487000
709.000000	82.370500
708.000000	82.225000
707.000000	82.087300
706.000000	81.976100
705.000000	81.809900
704.000000	81.644200
703.000000	81.600300
702.000000	81.526800
701.000000	81.374300
700.000000	81.173000
699.000000	81.017700
698.000000	80.884700
697.000000	80.723300
696.000000	80.554900
695.000000	80.412600
694.000000	80.294300
693.000000	80.211500
692.000000	80.130600
691.000000	80.030100
690.000000	79.882300
689.000000	79.776800
688.000000	79.709600
687.000000	79.626900
686.000000	79.447700
685.000000	79.295800
684.000000	79.174200
683.000000	79.009800
682.000000	78.767700
681.000000	78.564600
680.000000	78.333300
679.000000	77.992500
678.000000	77.680600
677.000000	77.339000
676.000000	76.927100
675.000000	76.483000
674.000000	76.012000
673.000000	75.528800
672.000000	74.885500
671.000000	74.209600
670.000000	73.534800
669.000000	72.809500
668.000000	72.040200
667.000000	71.186700
666.000000	70.406300
665.000000	69.592300
664.000000	68.613500
663.000000	67.721200
662.000000	66.800200
661.000000	65.920300
660.000000	64.930600
659.000000	64.039600
658.000000	63.162800
657.000000	62.348400
656.000000	61.596100
655.000000	60.865300
654.000000	60.133800
653.000000	59.501600
652.000000	59.025800
651.000000	58.583900
650.000000	58.220600
649.000000	58.002600
648.000000	57.946300
647.000000	57.972300
646.000000	58.142500
645.000000	58.484700
644.000000	58.882000
643.000000	59.447000
642.000000	60.150800
641.000000	60.908600
640.000000	61.715000
639.000000	62.535800
638.000000	63.451300
637.000000	64.418500
636.000000	65.332400
635.000000	66.350400
634.000000	67.309800
633.000000	68.342200
632.000000	69.316800
631.000000	70.262000
630.000000	71.241700
629.000000	72.156600
628.000000	73.206400
627.000000	74.135900
626.000000	75.043000
625.000000	76.010200
624.000000	76.913300
623.000000	77.839800
622.000000	78.739100
621.000000	79.566700
620.000000	80.378700
619.000000	81.235300
618.000000	82.047900
617.000000	82.805900
616.000000	83.493600
615.000000	84.196200
614.000000	84.835300
613.000000	85.489600
612.000000	86.127200
611.000000	86.735400
610.000000	87.388700
609.000000	87.844300
608.000000	88.390400
607.000000	88.909900
606.000000	89.340200
605.000000	89.792600
604.000000	90.248100
603.000000	90.622300
602.000000	91.058800
601.000000	91.379300
600.000000	91.682000
599.000000	91.886800
598.000000	92.146900
597.000000	92.359100
596.000000	92.521500
595.000000	92.657100
594.000000	92.786200
593.000000	92.914900
592.000000	92.934100
591.000000	93.036800
590.000000	93.098200
589.000000	93.099700
588.000000	93.140000
587.000000	93.222800
586.000000	93.269700
585.000000	93.179800
584.000000	93.249500
583.000000	93.183900
582.000000	93.185200
581.000000	93.165600
580.000000	92.985200
579.000000	92.952900
578.000000	92.838500
577.000000	92.662400
576.000000	92.522500
575.000000	92.319800
574.000000	92.097400
573.000000	91.873900
572.000000	91.666300
571.000000	91.433000
570.000000	91.191800
569.000000	91.019300
568.000000	90.755700
567.000000	90.522500
566.000000	90.280900
565.000000	90.028500
564.000000	89.788300
563.000000	89.486500
562.000000	89.261200
561.000000	88.955700
560.000000	88.579100
559.000000	88.090000
558.000000	87.698300
557.000000	87.210300
556.000000	86.744200
555.000000	86.227700
554.000000	85.680700
553.000000	85.071500
552.000000	84.475200
551.000000	83.841200
550.000000	83.172100
549.000000	82.541000
548.000000	81.859600
547.000000	81.182000
546.000000	80.505500
545.000000	79.793100
544.000000	79.094200
543.000000	78.280300
542.000000	77.495600
541.000000	76.712100
540.000000	75.817500
539.000000	74.907700
538.000000	73.971600
537.000000	72.996100
536.000000	71.932700
535.000000	70.792700
534.000000	69.583000
533.000000	68.314900
532.000000	66.957900
531.000000	65.541700
530.000000	64.072700
529.000000	62.558800
528.000000	61.014200
527.000000	59.479300
526.000000	57.952700
525.000000	56.397700
524.000000	54.856700
523.000000	53.333600
522.000000	51.833500
521.000000	50.378900
520.000000	48.947500
519.000000	47.596300
518.000000	46.302200
517.000000	45.076900
516.000000	43.907900
515.000000	42.818800
514.000000	41.832000
513.000000	40.916100
512.000000	40.107300
511.000000	39.425500
510.000000	38.834000
509.000000	38.344400
508.000000	37.968600
507.000000	37.687100
506.000000	37.484400
505.000000	37.328300
504.000000	37.269600
503.000000	37.296700
502.000000	37.368500
501.000000	37.485700
500.000000	37.648600
499.000000	37.818600
498.000000	37.992400
497.000000	38.166500
496.000000	38.293600
495.000000	38.374000
494.000000	38.427900
493.000000	38.449800
492.000000	38.379900
491.000000	38.264100
490.000000	38.063200
489.000000	37.793900
488.000000	37.452900
487.000000	37.076400
486.000000	36.620000
485.000000	36.148400
484.000000	35.634300
483.000000	35.060400
482.000000	34.449200
481.000000	33.797700
480.000000	33.104100
479.000000	32.384800
478.000000	31.631800
477.000000	30.850100
476.000000	30.064300
475.000000	29.259500
474.000000	28.480800
473.000000	27.746600
472.000000	27.046600
471.000000	26.393700
470.000000	25.828600
469.000000	25.348300
468.000000	24.906900
467.000000	24.569400
466.000000	24.341800
465.000000	24.170000
464.000000	24.080300
463.000000	24.060400
462.000000	24.136900
461.000000	24.277500
460.000000	24.476300
459.000000	24.715000
458.000000	24.978000
457.000000	25.276900
456.000000	25.596000
455.000000	25.929400
454.000000	26.255800
453.000000	26.575800
452.000000	26.885400
451.000000	27.178600
450.000000	27.450500
449.000000	27.709800
448.000000	27.924400
447.000000	28.109400
446.000000	28.300200
445.000000	28.468400
444.000000	28.585700
443.000000	28.652000
442.000000	28.683600
441.000000	28.688200
440.000000	28.674600
439.000000	28.625300
438.000000	28.551000
437.000000	28.476700
436.000000	28.378400
435.000000	28.250900
434.000000	28.106100
433.000000	27.944400
432.000000	27.756200
431.000000	27.551800
430.000000	27.319900
429.000000	27.060700
428.000000	26.806200
427.000000	26.533300
426.000000	26.231800
425.000000	25.935100
424.000000	25.612100
423.000000	25.263600
422.000000	24.912400
421.000000	24.526900
420.000000	24.127900
419.000000	23.740400
418.000000	23.325900
417.000000	22.894600
416.000000	22.471700
415.000000	22.020000
414.000000	21.538100
413.000000	21.057100
412.000000	20.574600
411.000000	20.063600
410.000000	19.552600
409.000000	19.045500
408.000000	18.546900
407.000000	18.063600
406.000000	17.561800
405.000000	17.030300
404.000000	16.503300
403.000000	16.006700
402.000000	15.516400
401.000000	15.044900
400.000000	14.570900
399.000000	14.098900
398.000000	13.658500
397.000000	13.216200
396.000000	12.795100
395.000000	12.401500
394.000000	12.013200
393.000000	11.653800
392.000000	11.307900
391.000000	10.977500
390.000000	10.651200
389.000000	10.353300
388.000000	10.081000
387.000000	9.828600
386.000000	9.576500
385.000000	9.361200
384.000000	9.158500
383.000000	8.959800
382.000000	8.761000
381.000000	8.589600
380.000000	8.429400
379.000000	8.290500
378.000000	8.145300
377.000000	8.033300
376.000000	7.854000
375.000000	7.735500
374.000000	7.705000
373.000000	7.612400
372.000000	7.510500
371.000000	7.449700
370.000000	7.350100
369.000000	7.284000
368.000000	7.205600
367.000000	7.114100
366.000000	7.077700
365.000000	7.068800
364.000000	6.980600
363.000000	6.904600
362.000000	6.878700
361.000000	6.848400
360.000000	6.826200
359.000000	6.710600
358.000000	6.647800
357.000000	6.649000
356.000000	6.610800
355.000000	6.601100
354.000000	6.486400
353.000000	6.502200
352.000000	6.469800
351.000000	6.396400
350.000000	6.310400
349.000000	6.317500
348.000000	6.295100
347.000000	6.290200
346.000000	6.240400
345.000000	6.131700
344.000000	6.222600
343.000000	6.188500
342.000000	6.195700
341.000000	6.157700
340.000000	6.213200
339.000000	6.200000
338.000000	6.138400
337.000000	6.172300
336.000000	6.069100
335.000000	6.070500
334.000000	6.068600
333.000000	6.127200
332.000000	6.105900
331.000000	6.009700
330.000000	6.038200
329.000000	6.024400
328.000000	6.049000
327.000000	6.029600
326.000000	6.080000
325.000000	5.982300
324.000000	6.010900
323.000000	6.099700
322.000000	6.027900
321.000000	5.992200
320.000000	5.951800
319.000000	5.948900
318.000000	5.938000
317.000000	6.021400
316.000000	6.103600
315.000000	6.096600
314.000000	6.106800
313.000000	6.124600
312.000000	6.144200
311.000000	6.134500
310.000000	6.154800
309.000000	6.185900
308.000000	6.176600
307.000000	6.146300
306.000000	6.159100
305.000000	6.192600
304.000000	6.211800
303.000000	6.205800
302.000000	6.193000
301.000000	6.219500
300.000000	6.163600
299.000000	6.226700
298.000000	6.215100
297.000000	6.210400
296.000000	6.275500
295.000000	6.250500
294.000000	6.274200
293.000000	6.258500
292.000000	6.255400
291.000000	6.282700
290.000000	6.285000
289.000000	6.277700
288.000000	6.285000
287.000000	6.338400
286.000000	6.289700
285.000000	6.300600
284.000000	6.338700
283.000000	6.369900
282.000000	6.355000
281.000000	6.371000
280.000000	6.325500
279.000000	6.308900
278.000000	6.353800
277.000000	6.344200
276.000000	6.405800
275.000000	6.380600
274.000000	6.397500
273.000000	6.418400
272.000000	6.387400
271.000000	6.439400
270.000000	6.400800
269.000000	6.477700
268.000000	6.495400
267.000000	6.495100
266.000000	6.534000
265.000000	6.544300
264.000000	6.542500
263.000000	6.627700
262.000000	6.606700
261.000000	6.649900
260.000000	6.636500
259.000000	6.700800
258.000000	6.708500
257.000000	6.736200
256.000000	6.740100
255.000000	6.735300
254.000000	6.728900
253.000000	6.757200
252.000000	6.755800
251.000000	6.807200
250.000000	6.752200
