PE UV       SUBTECH     SPECTRUM    ASCII       PEDS        4.00        
   -1
CICIMAUCR0213-1.Sample.ASC
24/06/13
12:18:31.00
24/06/13
12:18:31.00
Vinicio Soto Monge
C. resplendens. Sex M. Ventral
250,000000
1
Lambda 1050
1050L1511233
PerkinElmer UV WinLab 6.3.2.0749 / 2.02.05 Lambda 900 UV/VIS/NIR, Aug  7 2015 09:38:08

0
0
3350/servo 860,8/2
0
0
UV/VIS
1
1
1
DoubleDePol,CommonBeamDepol,RBeamAtt,SBeamAtt,60mm sphere, WB InGaAs Detector
0
0
0
0
Program
Program
3350/servo 860,8/2
3350/0,2 860,8/0,2
3350/0,2 860,8/0,2
0
15.00
 
 
 
0
 
860,8
319,2
860,8
Front
100
on
S:100 R:100
0
0
0
0
 
0
 
 
 
0
 
 
0
0
0
0
0
 
 
 
 
0
0


0
0
#HDR
-1
-1
#GR
nm
%R
1.0
0.0
2500,000000
-1,000000
2251
8
55,438000
4,312800
#DATA
2482.000000	5.090488
2481.000000	5.110933
2480.000000	5.135309
2479.000000	5.092285
2478.000000	5.122054
2477.000000	5.082288
2476.000000	5.085882
2475.000000	5.061169
2474.000000	5.086893
2473.000000	5.140813
2472.000000	5.088915
2471.000000	5.033311
2470.000000	5.015000
2469.000000	5.056676
2468.000000	5.091274
2467.000000	5.113292
2466.000000	5.077233
2465.000000	5.056339
2464.000000	5.072739
2463.000000	5.101834
2462.000000	5.064539
2461.000000	5.068696
2460.000000	5.107787
2459.000000	5.131040
2458.000000	5.110483
2457.000000	5.086332
2456.000000	5.113629
2455.000000	5.104530
2454.000000	5.101609
2453.000000	5.145419
2452.000000	5.147778
2451.000000	5.178670
2450.000000	5.193385
2449.000000	5.197991
2448.000000	5.219559
2447.000000	5.210797
2446.000000	5.227085
2445.000000	5.230905
2444.000000	5.214616
2443.000000	5.245845
2442.000000	5.263818
2441.000000	5.298192
2440.000000	5.285498
2439.000000	5.307516
2438.000000	5.322231
2437.000000	5.343687
2436.000000	5.360312
2435.000000	5.364019
2434.000000	5.367951
2433.000000	5.383116
2432.000000	5.411761
2431.000000	5.424118
2430.000000	5.426140
2429.000000	5.422657
2428.000000	5.441417
2427.000000	5.465231
2426.000000	5.488709
2425.000000	5.481632
2424.000000	5.495561
2423.000000	5.506458
2422.000000	5.513085
2421.000000	5.516680
2420.000000	5.521286
2419.000000	5.531845
2418.000000	5.529261
2417.000000	5.554761
2416.000000	5.583855
2415.000000	5.566219
2414.000000	5.570263
2413.000000	5.580935
2412.000000	5.597335
2411.000000	5.599694
2410.000000	5.627328
2409.000000	5.645863
2408.000000	5.619690
2407.000000	5.626766
2406.000000	5.638898
2405.000000	5.659118
2404.000000	5.645975
2403.000000	5.663387
2402.000000	5.680462
2401.000000	5.676530
2400.000000	5.692032
2399.000000	5.698547
2398.000000	5.714611
2397.000000	5.736628
2396.000000	5.739100
2395.000000	5.739774
2394.000000	5.751681
2393.000000	5.746514
2392.000000	5.750558
2391.000000	5.763701
2390.000000	5.773024
2389.000000	5.793357
2388.000000	5.800995
2387.000000	5.810543
2386.000000	5.806500
2385.000000	5.792907
2384.000000	5.795154
2383.000000	5.805039
2382.000000	5.810206
2381.000000	5.826719
2380.000000	5.824922
2379.000000	5.813464
2378.000000	5.815598
2377.000000	5.813801
2376.000000	5.808971
2375.000000	5.818407
2374.000000	5.818294
2373.000000	5.814026
2372.000000	5.814026
2371.000000	5.812790
2370.000000	5.799423
2369.000000	5.799647
2368.000000	5.792346
2367.000000	5.766621
2366.000000	5.774822
2365.000000	5.784033
2364.000000	5.756399
2363.000000	5.751232
2362.000000	5.758870
2361.000000	5.738313
2360.000000	5.720565
2359.000000	5.710567
2358.000000	5.702479
2357.000000	5.701468
2356.000000	5.689561
2355.000000	5.685180
2354.000000	5.678103
2353.000000	5.673497
2352.000000	5.673834
2351.000000	5.676305
2350.000000	5.672261
2349.000000	5.664847
2348.000000	5.678777
2347.000000	5.679900
2346.000000	5.679563
2345.000000	5.695627
2344.000000	5.720565
2343.000000	5.723598
2342.000000	5.704501
2341.000000	5.723935
2340.000000	5.753703
2339.000000	5.747974
2338.000000	5.747525
2337.000000	5.765161
2336.000000	5.767632
2335.000000	5.761791
2334.000000	5.753928
2333.000000	5.756399
2332.000000	5.757410
2331.000000	5.738538
2330.000000	5.727529
2329.000000	5.717981
2328.000000	5.714049
2327.000000	5.712477
2326.000000	5.704389
2325.000000	5.675294
2324.000000	5.667319
2323.000000	5.668554
2322.000000	5.641257
2321.000000	5.599245
2320.000000	5.593404
2319.000000	5.589697
2318.000000	5.569589
2317.000000	5.546561
2316.000000	5.509041
2315.000000	5.498819
2314.000000	5.474555
2313.000000	5.448831
2312.000000	5.432543
2311.000000	5.415019
2310.000000	5.403898
2309.000000	5.372557
2308.000000	5.362447
2307.000000	5.358515
2306.000000	5.330207
2305.000000	5.356268
2304.000000	5.345372
2303.000000	5.337396
2302.000000	5.339081
2301.000000	5.359863
2300.000000	5.390193
2299.000000	5.401426
2298.000000	5.386037
2297.000000	5.432430
2296.000000	5.455009
2295.000000	5.439732
2294.000000	5.464557
2293.000000	5.473993
2292.000000	5.490506
2291.000000	5.509491
2290.000000	5.519151
2289.000000	5.512861
2288.000000	5.532070
2287.000000	5.536114
2286.000000	5.517242
2285.000000	5.512861
2284.000000	5.517916
2283.000000	5.527464
2282.000000	5.523645
2281.000000	5.495337
2280.000000	5.486687
2279.000000	5.499044
2278.000000	5.480509
2277.000000	5.460513
2276.000000	5.453773
2275.000000	5.451976
2274.000000	5.442652
2273.000000	5.426140
2272.000000	5.440518
2271.000000	5.428948
2270.000000	5.441417
2269.000000	5.432093
2268.000000	5.443439
2267.000000	5.460626
2266.000000	5.479610
2265.000000	5.507918
2264.000000	5.547347
2263.000000	5.546673
2262.000000	5.585877
2261.000000	5.613399
2260.000000	5.668442
2259.000000	5.742694
2258.000000	5.786841
2257.000000	5.859970
2256.000000	5.883560
2255.000000	5.950848
2254.000000	6.025324
2253.000000	6.088456
2252.000000	6.164168
2251.000000	6.225839
2250.000000	6.280882
2249.000000	6.342666
2248.000000	6.412312
2247.000000	6.478589
2246.000000	6.526780
2245.000000	6.565759
2244.000000	6.634956
2243.000000	6.683372
2242.000000	6.701795
2241.000000	6.741785
2240.000000	6.787505
2239.000000	6.830865
2238.000000	6.858387
2237.000000	6.882314
2236.000000	6.917586
2235.000000	6.947242
2234.000000	6.955780
2233.000000	6.989929
2232.000000	7.007790
2231.000000	7.025876
2230.000000	7.021045
2229.000000	7.050814
2228.000000	7.055981
2227.000000	7.063732
2226.000000	7.082379
2225.000000	7.087322
2224.000000	7.071820
2223.000000	7.047219
2222.000000	7.046994
2221.000000	7.092152
2220.000000	7.068225
2219.000000	7.027561
2218.000000	7.034750
2217.000000	7.031717
2216.000000	7.015990
2215.000000	7.018911
2214.000000	7.029021
2213.000000	7.006667
2212.000000	6.963868
2211.000000	6.965103
2210.000000	6.974764
2209.000000	6.972180
2208.000000	6.949938
2207.000000	6.955106
2206.000000	6.935223
2205.000000	6.932077
2204.000000	6.922978
2203.000000	6.932639
2202.000000	6.907477
2201.000000	6.906690
2200.000000	6.918710
2199.000000	6.913880
2198.000000	6.911184
2197.000000	6.873777
2196.000000	6.903096
2195.000000	6.891188
2194.000000	6.899052
2193.000000	6.875125
2192.000000	6.888717
2191.000000	6.891076
2190.000000	6.867486
2189.000000	6.867374
2188.000000	6.872316
2187.000000	6.869059
2186.000000	6.860184
2185.000000	6.853894
2184.000000	6.845469
2183.000000	6.836594
2182.000000	6.842436
2181.000000	6.835808
2180.000000	6.835920
2179.000000	6.824912
2178.000000	6.815700
2177.000000	6.822216
2176.000000	6.828843
2175.000000	6.812443
2174.000000	6.809410
2173.000000	6.826709
2172.000000	6.829967
2171.000000	6.824125
2170.000000	6.833898
2169.000000	6.848277
2168.000000	6.823002
2167.000000	6.833000
2166.000000	6.843896
2165.000000	6.881303
2164.000000	6.868385
2163.000000	6.862880
2162.000000	6.865689
2161.000000	6.889166
2160.000000	6.883550
2159.000000	6.908151
2158.000000	6.903882
2157.000000	6.916576
2156.000000	6.935560
2155.000000	6.938143
2154.000000	6.966451
2153.000000	6.973865
2152.000000	6.990715
2151.000000	6.995321
2150.000000	7.008913
2149.000000	7.022955
2148.000000	7.063620
2147.000000	7.069910
2146.000000	7.074853
2145.000000	7.092602
2144.000000	7.113832
2143.000000	7.133154
2142.000000	7.135962
2141.000000	7.146521
2140.000000	7.159777
2139.000000	7.179660
2138.000000	7.168988
2137.000000	7.170448
2136.000000	7.189320
2135.000000	7.187635
2134.000000	7.183479
2133.000000	7.188646
2132.000000	7.197970
2131.000000	7.204598
2130.000000	7.214483
2129.000000	7.225716
2128.000000	7.231558
2127.000000	7.224593
2126.000000	7.227289
2125.000000	7.247397
2124.000000	7.237287
2123.000000	7.217067
2122.000000	7.218527
2121.000000	7.221560
2120.000000	7.215606
2119.000000	7.193701
2118.000000	7.204598
2117.000000	7.188197
2116.000000	7.161237
2115.000000	7.159889
2114.000000	7.167752
2113.000000	7.147532
2112.000000	7.137535
2111.000000	7.138883
2110.000000	7.137422
2109.000000	7.119449
2108.000000	7.102936
2107.000000	7.101139
2106.000000	7.089007
2105.000000	7.069798
2104.000000	7.056767
2103.000000	7.042950
2102.000000	7.020484
2101.000000	7.012171
2100.000000	7.012957
2099.000000	7.009138
2098.000000	6.997568
2097.000000	6.991839
2096.000000	6.983077
2095.000000	6.970495
2094.000000	6.969372
2093.000000	6.952971
2092.000000	6.949601
2091.000000	6.943760
2090.000000	6.934324
2089.000000	6.925899
2088.000000	6.917362
2087.000000	6.917474
2086.000000	6.908712
2085.000000	6.899052
2084.000000	6.884785
2083.000000	6.873552
2082.000000	6.875012
2081.000000	6.861645
2080.000000	6.850861
2079.000000	6.843110
2078.000000	6.829068
2077.000000	6.814577
2076.000000	6.805703
2075.000000	6.798513
2074.000000	6.776721
2073.000000	6.766049
2072.000000	6.745380
2071.000000	6.723475
2070.000000	6.707524
2069.000000	6.686293
2068.000000	6.674498
2067.000000	6.672026
2066.000000	6.654615
2065.000000	6.622600
2064.000000	6.616421
2063.000000	6.618443
2062.000000	6.593168
2061.000000	6.569466
2060.000000	6.572724
2059.000000	6.555986
2058.000000	6.528914
2057.000000	6.530936
2056.000000	6.536103
2055.000000	6.535766
2054.000000	6.530487
2053.000000	6.527791
2052.000000	6.538350
2051.000000	6.553290
2050.000000	6.572724
2049.000000	6.585754
2048.000000	6.595415
2047.000000	6.604739
2046.000000	6.633608
2045.000000	6.674947
2044.000000	6.694942
2043.000000	6.711568
2042.000000	6.738864
2041.000000	6.759084
2040.000000	6.782225
2039.000000	6.807388
2038.000000	6.836707
2037.000000	6.849850
2036.000000	6.875349
2035.000000	6.886470
2034.000000	6.907477
2033.000000	6.940390
2032.000000	6.926798
2031.000000	6.945333
2030.000000	6.961509
2029.000000	6.969260
2028.000000	6.978696
2027.000000	6.984312
2026.000000	6.992850
2025.000000	7.008913
2024.000000	7.027111
2023.000000	7.013744
2022.000000	7.031155
2021.000000	7.029470
2020.000000	7.023966
2019.000000	7.045534
2018.000000	7.044972
2017.000000	7.022169
2016.000000	7.033402
2015.000000	7.030594
2014.000000	7.015541
2013.000000	7.013070
2012.000000	7.016777
2011.000000	7.004757
2010.000000	6.993074
2009.000000	6.999814
2008.000000	7.000264
2007.000000	6.971843
2006.000000	6.953533
2005.000000	6.943985
2004.000000	6.931853
2003.000000	6.910285
2002.000000	6.880966
2001.000000	6.882314
2000.000000	6.876697
1999.000000	6.863554
1998.000000	6.827720
1997.000000	6.783461
1996.000000	6.792223
1995.000000	6.769756
1994.000000	6.741897
1993.000000	6.699436
1992.000000	6.701008
1991.000000	6.681912
1990.000000	6.636192
1989.000000	6.645740
1988.000000	6.601818
1987.000000	6.582497
1986.000000	6.530711
1985.000000	6.526780
1984.000000	6.499033
1983.000000	6.461739
1982.000000	6.455111
1981.000000	6.435116
1980.000000	6.400966
1979.000000	6.394676
1978.000000	6.365469
1977.000000	6.338172
1976.000000	6.316043
1975.000000	6.290094
1974.000000	6.269424
1973.000000	6.245834
1972.000000	6.230669
1971.000000	6.204046
1970.000000	6.186859
1969.000000	6.167426
1968.000000	6.146869
1967.000000	6.114405
1966.000000	6.103733
1965.000000	6.089354
1964.000000	6.085984
1963.000000	6.055879
1962.000000	6.031503
1961.000000	6.028357
1960.000000	6.001510
1959.000000	5.995219
1958.000000	5.982301
1957.000000	5.979043
1956.000000	5.956015
1955.000000	5.929392
1954.000000	5.927370
1953.000000	5.900859
1952.000000	5.880639
1951.000000	5.890749
1950.000000	5.867609
1949.000000	5.823799
1948.000000	5.837728
1947.000000	5.825708
1946.000000	5.815598
1945.000000	5.805826
1944.000000	5.818519
1943.000000	5.823911
1942.000000	5.775833
1941.000000	5.782236
1940.000000	5.799310
1939.000000	5.781899
1938.000000	5.771002
1937.000000	5.788414
1936.000000	5.751232
1935.000000	5.781449
1934.000000	5.781786
1933.000000	5.795828
1932.000000	5.797738
1931.000000	5.793469
1930.000000	5.818631
1929.000000	5.819193
1928.000000	5.842895
1927.000000	5.839076
1926.000000	5.847726
1925.000000	5.872551
1924.000000	5.909397
1923.000000	5.920068
1922.000000	5.933661
1921.000000	5.956127
1920.000000	5.994882
1919.000000	6.052397
1918.000000	6.088006
1917.000000	6.115640
1916.000000	6.164168
1915.000000	6.149902
1914.000000	6.201126
1913.000000	6.265380
1912.000000	6.336263
1911.000000	6.363559
1910.000000	6.422759
1909.000000	6.466457
1908.000000	6.558233
1907.000000	6.590585
1906.000000	6.639450
1905.000000	6.740100
1904.000000	6.830079
1903.000000	6.905792
1902.000000	6.986110
1901.000000	7.075639
1900.000000	7.165169
1899.000000	7.276603
1898.000000	7.376580
1897.000000	7.501606
1896.000000	7.590574
1895.000000	7.705042
1894.000000	7.846694
1893.000000	7.962060
1892.000000	8.103150
1891.000000	8.265022
1890.000000	8.460482
1889.000000	8.634261
1888.000000	8.807479
1887.000000	8.986650
1886.000000	9.184918
1885.000000	9.454855
1884.000000	9.675927
1883.000000	9.978103
1882.000000	10.274100
1881.000000	10.544486
1880.000000	10.846662
1879.000000	11.138055
1878.000000	11.463821
1877.000000	11.788463
1876.000000	12.073565
1875.000000	12.419214
1874.000000	12.723300
1873.000000	13.042550
1872.000000	13.385054
1871.000000	13.675772
1870.000000	13.960200
1869.000000	14.263724
1868.000000	14.516698
1867.000000	14.731591
1866.000000	14.930533
1865.000000	15.074994
1864.000000	15.218892
1863.000000	15.363802
1862.000000	15.500849
1861.000000	15.660699
1860.000000	15.790443
1859.000000	15.928389
1858.000000	16.069367
1857.000000	16.159907
1856.000000	16.234833
1855.000000	16.297515
1854.000000	16.382102
1853.000000	16.425463
1852.000000	16.426923
1851.000000	16.442537
1850.000000	16.449502
1849.000000	16.477361
1848.000000	16.509263
1847.000000	16.537459
1846.000000	16.518137
1845.000000	16.484550
1844.000000	16.468936
1843.000000	16.431753
1842.000000	16.442313
1841.000000	16.464442
1840.000000	16.457927
1839.000000	16.455905
1838.000000	16.436921
1837.000000	16.397716
1836.000000	16.376822
1835.000000	16.352895
1834.000000	16.311220
1833.000000	16.256514
1832.000000	16.201358
1831.000000	16.159458
1830.000000	16.128342
1829.000000	16.087228
1828.000000	16.025444
1827.000000	15.975007
1826.000000	15.920301
1825.000000	15.864583
1824.000000	15.806395
1823.000000	15.770111
1822.000000	15.746297
1821.000000	15.725964
1820.000000	15.706306
1819.000000	15.691253
1818.000000	15.661260
1817.000000	15.626999
1816.000000	15.607340
1815.000000	15.588019
1814.000000	15.573865
1813.000000	15.550500
1812.000000	15.525225
1811.000000	15.514104
1810.000000	15.485010
1809.000000	15.459173
1808.000000	15.421092
1807.000000	15.385707
1806.000000	15.363241
1805.000000	15.346054
1804.000000	15.289101
1803.000000	15.231249
1802.000000	15.202043
1801.000000	15.165647
1800.000000	15.117568
1799.000000	15.072859
1798.000000	15.028263
1797.000000	14.974680
1796.000000	14.932668
1795.000000	14.899417
1794.000000	14.852799
1793.000000	14.817863
1792.000000	14.776300
1791.000000	14.718336
1790.000000	14.686546
1789.000000	14.643185
1788.000000	14.600948
1787.000000	14.552645
1786.000000	14.511643
1785.000000	14.472551
1784.000000	14.419418
1783.000000	14.376619
1782.000000	14.326406
1781.000000	14.265521
1780.000000	14.201716
1779.000000	14.159479
1778.000000	14.109828
1777.000000	14.043663
1776.000000	13.973230
1775.000000	13.906842
1774.000000	13.843373
1773.000000	13.788330
1772.000000	13.712955
1771.000000	13.620504
1770.000000	13.556475
1769.000000	13.468293
1768.000000	13.380898
1767.000000	13.342255
1766.000000	13.274406
1765.000000	13.212173
1764.000000	13.186000
1763.000000	13.159489
1762.000000	13.149379
1761.000000	13.167465
1760.000000	13.195436
1759.000000	13.226103
1758.000000	13.274855
1757.000000	13.319564
1756.000000	13.374719
1755.000000	13.425943
1754.000000	13.486716
1753.000000	13.519742
1752.000000	13.537490
1751.000000	13.544680
1750.000000	13.541085
1749.000000	13.517270
1748.000000	13.512328
1747.000000	13.483346
1746.000000	13.431785
1745.000000	13.386402
1744.000000	13.314284
1743.000000	13.220711
1742.000000	13.123543
1741.000000	12.996719
1740.000000	12.864839
1739.000000	12.742846
1738.000000	12.610293
1737.000000	12.479200
1736.000000	12.347208
1735.000000	12.261274
1734.000000	12.183314
1733.000000	12.155231
1732.000000	12.162870
1731.000000	12.173991
1730.000000	12.204882
1729.000000	12.257904
1728.000000	12.313845
1727.000000	12.387873
1726.000000	12.457744
1725.000000	12.538624
1724.000000	12.589736
1723.000000	12.632422
1722.000000	12.672188
1721.000000	12.718245
1720.000000	12.735544
1719.000000	12.785083
1718.000000	12.811594
1717.000000	12.854729
1716.000000	12.893260
1715.000000	12.944708
1714.000000	13.007952
1713.000000	13.068724
1712.000000	13.103884
1711.000000	13.157243
1710.000000	13.189257
1709.000000	13.204198
1708.000000	13.209702
1707.000000	13.202513
1706.000000	13.189819
1705.000000	13.161624
1704.000000	13.120060
1703.000000	13.085574
1702.000000	13.003795
1701.000000	12.933475
1700.000000	12.849450
1699.000000	12.750035
1698.000000	12.626806
1697.000000	12.545813
1696.000000	12.484592
1695.000000	12.419776
1694.000000	12.381470
1693.000000	12.415732
1692.000000	12.489534
1691.000000	12.566483
1690.000000	12.661629
1689.000000	12.745092
1688.000000	12.818109
1687.000000	12.893709
1686.000000	12.946618
1685.000000	12.974814
1684.000000	13.014467
1683.000000	13.101638
1682.000000	13.217902
1681.000000	13.449196
1680.000000	13.732276
1679.000000	14.038271
1678.000000	14.398299
1677.000000	14.781692
1676.000000	15.158570
1675.000000	15.506465
1674.000000	15.781906
1673.000000	16.072849
1672.000000	16.319083
1671.000000	16.490953
1670.000000	16.705284
1669.000000	16.861203
1668.000000	16.998362
1667.000000	17.117547
1666.000000	17.234711
1665.000000	17.317837
1664.000000	17.404221
1663.000000	17.469936
1662.000000	17.526889
1661.000000	17.576091
1660.000000	17.634392
1659.000000	17.676629
1658.000000	17.694939
1657.000000	17.712576
1656.000000	17.715384
1655.000000	17.721562
1654.000000	17.742906
1653.000000	17.725382
1652.000000	17.722349
1651.000000	17.668204
1650.000000	17.667193
1649.000000	17.635515
1648.000000	17.610465
1647.000000	17.560589
1646.000000	17.502063
1645.000000	17.476114
1644.000000	17.426463
1643.000000	17.390404
1642.000000	17.354345
1641.000000	17.297280
1640.000000	17.229768
1639.000000	17.168097
1638.000000	17.123164
1637.000000	17.047114
1636.000000	17.003978
1635.000000	16.955675
1634.000000	16.888724
1633.000000	16.814023
1632.000000	16.744713
1631.000000	16.677426
1630.000000	16.618788
1629.000000	16.569249
1628.000000	16.508140
1627.000000	16.439504
1626.000000	16.347728
1625.000000	16.281227
1624.000000	16.203043
1623.000000	16.145191
1622.000000	16.080937
1621.000000	16.018929
1620.000000	15.934342
1619.000000	15.885365
1618.000000	15.814707
1617.000000	15.733940
1616.000000	15.697319
1615.000000	15.645871
1614.000000	15.570271
1613.000000	15.506915
1612.000000	15.468946
1611.000000	15.419295
1610.000000	15.337067
1609.000000	15.282698
1608.000000	15.197886
1607.000000	15.158345
1606.000000	15.114086
1605.000000	15.058593
1604.000000	14.992991
1603.000000	14.936824
1602.000000	14.865380
1601.000000	14.814830
1600.000000	14.768886
1599.000000	14.700812
1598.000000	14.624201
1597.000000	14.579605
1596.000000	14.520405
1595.000000	14.465250
1594.000000	14.415598
1593.000000	14.358421
1592.000000	14.324047
1591.000000	14.282933
1590.000000	14.240808
1589.000000	14.192617
1588.000000	14.152626
1587.000000	14.107806
1586.000000	14.053998
1585.000000	14.024230
1584.000000	13.973343
1583.000000	13.972219
1582.000000	13.919872
1581.000000	13.867076
1580.000000	13.841576
1579.000000	13.798440
1578.000000	13.781927
1577.000000	13.757551
1576.000000	13.714303
1575.000000	13.702845
1574.000000	13.681614
1573.000000	13.651508
1572.000000	13.641174
1571.000000	13.626346
1570.000000	13.615449
1569.000000	13.597588
1568.000000	13.594668
1567.000000	13.585007
1566.000000	13.569056
1565.000000	13.570516
1564.000000	13.583771
1563.000000	13.555801
1562.000000	13.543332
1561.000000	13.546702
1560.000000	13.544455
1559.000000	13.515922
1558.000000	13.497724
1557.000000	13.497163
1556.000000	13.495028
1555.000000	13.472899
1554.000000	13.448747
1553.000000	13.425719
1552.000000	13.420102
1551.000000	13.388986
1550.000000	13.360229
1549.000000	13.326978
1548.000000	13.298333
1547.000000	13.266430
1546.000000	13.250479
1545.000000	13.228012
1544.000000	13.198581
1543.000000	13.173531
1542.000000	13.159714
1541.000000	13.129946
1540.000000	13.110849
1539.000000	13.090404
1538.000000	13.070858
1537.000000	13.048616
1536.000000	13.017725
1535.000000	12.995034
1534.000000	12.977622
1533.000000	12.945270
1532.000000	12.913367
1531.000000	12.880791
1530.000000	12.841811
1529.000000	12.815301
1528.000000	12.790587
1527.000000	12.752169
1526.000000	12.711729
1525.000000	12.688252
1524.000000	12.653765
1523.000000	12.607372
1522.000000	12.567494
1521.000000	12.527054
1520.000000	12.496387
1519.000000	12.460552
1518.000000	12.405959
1517.000000	12.366417
1516.000000	12.327213
1515.000000	12.282617
1514.000000	12.249366
1513.000000	12.201962
1512.000000	12.154332
1511.000000	12.118835
1510.000000	12.077272
1509.000000	12.015152
1508.000000	11.971791
1507.000000	11.947415
1506.000000	11.900235
1505.000000	11.838002
1504.000000	11.789811
1503.000000	11.760942
1502.000000	11.714436
1501.000000	11.674558
1500.000000	11.642206
1499.000000	11.598396
1498.000000	11.560876
1497.000000	11.527963
1496.000000	11.478761
1495.000000	11.441466
1494.000000	11.414619
1493.000000	11.393837
1492.000000	11.380694
1491.000000	11.344635
1490.000000	11.306442
1489.000000	11.291726
1488.000000	11.272517
1487.000000	11.241513
1486.000000	11.223428
1485.000000	11.198040
1484.000000	11.166812
1483.000000	11.148389
1482.000000	11.150748
1481.000000	11.112106
1480.000000	11.089639
1479.000000	11.085483
1478.000000	11.073688
1477.000000	11.075260
1476.000000	11.053131
1475.000000	11.042122
1474.000000	11.049087
1473.000000	11.040100
1472.000000	11.043245
1471.000000	11.046728
1470.000000	11.046840
1469.000000	11.030552
1468.000000	11.022014
1467.000000	11.030215
1466.000000	11.034146
1465.000000	11.040212
1464.000000	11.047626
1463.000000	11.047289
1462.000000	11.069082
1461.000000	11.085370
1460.000000	11.087505
1459.000000	11.108286
1458.000000	11.134685
1457.000000	11.166025
1456.000000	11.200849
1455.000000	11.219945
1454.000000	11.267912
1453.000000	11.321045
1452.000000	11.353285
1451.000000	11.396982
1450.000000	11.433041
1449.000000	11.463708
1448.000000	11.511001
1447.000000	11.575030
1446.000000	11.632994
1445.000000	11.675681
1444.000000	11.720389
1443.000000	11.764873
1442.000000	11.809470
1441.000000	11.882037
1440.000000	11.947639
1439.000000	12.012793
1438.000000	12.078957
1437.000000	12.154557
1436.000000	12.225889
1435.000000	12.290929
1434.000000	12.352937
1433.000000	12.432357
1432.000000	12.525481
1431.000000	12.626918
1430.000000	12.718919
1429.000000	12.796429
1428.000000	12.907301
1427.000000	13.012220
1426.000000	13.141067
1425.000000	13.261038
1424.000000	13.393816
1423.000000	13.540074
1422.000000	13.664876
1421.000000	13.817761
1420.000000	13.982105
1419.000000	14.177452
1418.000000	14.343593
1417.000000	14.505240
1416.000000	14.698902
1415.000000	14.865942
1414.000000	15.116782
1413.000000	15.368857
1412.000000	15.600713
1411.000000	15.784714
1410.000000	16.057010
1409.000000	16.358849
1408.000000	16.681695
1407.000000	17.021839
1406.000000	17.317388
1405.000000	17.665396
1404.000000	18.030928
1403.000000	18.403649
1402.000000	18.740087
1401.000000	19.108989
1400.000000	19.562702
1399.000000	20.004509
1398.000000	20.288599
1397.000000	20.591674
1396.000000	20.961025
1395.000000	21.406426
1394.000000	21.766903
1393.000000	22.108733
1392.000000	22.476399
1391.000000	22.906523
1390.000000	23.290814
1389.000000	23.638935
1388.000000	24.155218
1387.000000	24.729914
1386.000000	25.269225
1385.000000	25.811008
1384.000000	26.432098
1383.000000	27.110702
1382.000000	27.777736
1381.000000	28.416800
1380.000000	28.861976
1379.000000	29.274688
1378.000000	29.615506
1377.000000	29.852417
1376.000000	30.124825
1375.000000	30.403299
1374.000000	30.681099
1373.000000	30.987768
1372.000000	31.378463
1371.000000	31.776122
1370.000000	32.208604
1369.000000	32.579641
1368.000000	32.957979
1367.000000	33.313962
1366.000000	33.588055
1365.000000	33.828336
1364.000000	34.117369
1363.000000	34.318558
1362.000000	34.530980
1361.000000	34.781258
1360.000000	35.003565
1359.000000	35.069842
1358.000000	35.215201
1357.000000	35.341351
1356.000000	35.519399
1355.000000	35.834718
1354.000000	36.234624
1353.000000	36.708220
1352.000000	37.192039
1351.000000	37.712479
1350.000000	38.276840
1349.000000	38.797167
1348.000000	39.256722
1347.000000	39.715266
1346.000000	40.186953
1345.000000	40.598541
1344.000000	41.017881
1343.000000	41.428908
1342.000000	41.829151
1341.000000	42.223103
1340.000000	42.630760
1339.000000	43.001909
1338.000000	43.421922
1337.000000	43.787117
1336.000000	44.176688
1335.000000	44.582773
1334.000000	44.941452
1333.000000	45.295526
1332.000000	45.676785
1331.000000	46.038273
1330.000000	46.376621
1329.000000	46.733728
1328.000000	47.037364
1327.000000	47.362793
1326.000000	47.662386
1325.000000	47.959731
1324.000000	48.251910
1323.000000	48.530721
1322.000000	48.781224
1321.000000	49.051722
1320.000000	49.318288
1319.000000	49.588899
1318.000000	49.798962
1317.000000	50.024751
1316.000000	50.243015
1315.000000	50.471163
1314.000000	50.666847
1313.000000	50.850737
1312.000000	51.044511
1311.000000	51.225592
1310.000000	51.403416
1309.000000	51.561581
1308.000000	51.712332
1307.000000	51.852861
1306.000000	51.960139
1305.000000	52.087300
1304.000000	52.192556
1303.000000	52.284332
1302.000000	52.375097
1301.000000	52.459797
1300.000000	52.525736
1299.000000	52.611334
1298.000000	52.669298
1297.000000	52.725352
1296.000000	52.763770
1295.000000	52.809377
1294.000000	52.833192
1293.000000	52.856894
1292.000000	52.897671
1291.000000	52.925193
1290.000000	52.926316
1289.000000	52.893178
1288.000000	52.880372
1287.000000	52.868464
1286.000000	52.840269
1285.000000	52.822520
1284.000000	52.768825
1283.000000	52.725464
1282.000000	52.678509
1281.000000	52.603920
1280.000000	52.540452
1279.000000	52.486981
1278.000000	52.420592
1277.000000	52.372851
1276.000000	52.325895
1275.000000	52.268044
1274.000000	52.195140
1273.000000	52.152565
1272.000000	52.106172
1271.000000	52.066406
1270.000000	52.029673
1269.000000	51.981145
1268.000000	51.917565
1267.000000	51.870048
1266.000000	51.827136
1265.000000	51.766476
1264.000000	51.708737
1263.000000	51.641899
1262.000000	51.570567
1261.000000	51.509234
1260.000000	51.444417
1259.000000	51.369716
1258.000000	51.302878
1257.000000	51.234242
1256.000000	51.163809
1255.000000	51.089782
1254.000000	51.015529
1253.000000	50.917238
1252.000000	50.811757
1251.000000	50.732225
1250.000000	50.625734
1249.000000	50.506773
1248.000000	50.398147
1247.000000	50.271772
1246.000000	50.149216
1245.000000	50.033850
1244.000000	49.890626
1243.000000	49.716846
1242.000000	49.563062
1241.000000	49.418377
1240.000000	49.253809
1239.000000	49.082613
1238.000000	48.924561
1237.000000	48.747524
1236.000000	48.574531
1235.000000	48.399066
1234.000000	48.205516
1233.000000	48.015786
1232.000000	47.807520
1231.000000	47.592627
1230.000000	47.382227
1229.000000	47.177556
1228.000000	46.956821
1227.000000	46.731706
1226.000000	46.515015
1225.000000	46.286754
1224.000000	46.049843
1223.000000	45.828997
1222.000000	45.589839
1221.000000	45.338662
1220.000000	45.125454
1219.000000	44.904832
1218.000000	44.682300
1217.000000	44.473023
1216.000000	44.275317
1215.000000	44.078509
1214.000000	43.888891
1213.000000	43.710281
1212.000000	43.526055
1211.000000	43.349804
1210.000000	43.176811
1209.000000	43.015838
1208.000000	42.864975
1207.000000	42.700631
1206.000000	42.581221
1205.000000	42.487535
1204.000000	42.405307
1203.000000	42.338020
1202.000000	42.275001
1201.000000	42.213105
1200.000000	42.152221
1199.000000	42.080665
1198.000000	41.997875
1197.000000	41.878128
1196.000000	41.726366
1195.000000	41.524728
1194.000000	41.263329
1193.000000	40.932845
1192.000000	40.550687
1191.000000	40.091020
1190.000000	39.605629
1189.000000	39.146860
1188.000000	38.736844
1187.000000	38.410067
1186.000000	38.216293
1185.000000	38.165293
1184.000000	38.228200
1183.000000	38.437589
1182.000000	38.785485
1181.000000	39.293006
1180.000000	39.837597
1179.000000	40.394095
1178.000000	40.949807
1177.000000	41.482041
1176.000000	41.930588
1175.000000	42.351724
1174.000000	42.737252
1173.000000	43.098964
1172.000000	43.455734
1171.000000	43.835083
1170.000000	44.235663
1169.000000	44.621191
1168.000000	45.006044
1167.000000	45.421564
1166.000000	45.825065
1165.000000	46.261367
1164.000000	46.709127
1163.000000	47.140261
1162.000000	47.586111
1161.000000	48.041285
1160.000000	48.503536
1159.000000	48.933997
1158.000000	49.365693
1157.000000	49.790312
1156.000000	50.190218
1155.000000	50.555862
1154.000000	50.887807
1153.000000	51.151790
1152.000000	51.377804
1151.000000	51.566411
1150.000000	51.713006
1149.000000	51.861960
1148.000000	51.991704
1147.000000	52.160766
1146.000000	52.334208
1145.000000	52.602010
1144.000000	52.935640
1143.000000	53.321504
1142.000000	53.764546
1141.000000	54.246904
1140.000000	54.761278
1139.000000	55.266889
1138.000000	55.794855
1137.000000	56.355397
1136.000000	56.919422
1135.000000	57.550846
1134.000000	58.200132
1133.000000	58.761910
1132.000000	59.257973
1131.000000	59.746397
1130.000000	60.187305
1129.000000	60.583055
1128.000000	60.922975
1127.000000	61.194484
1126.000000	61.396122
1125.000000	61.591581
1124.000000	61.744467
1123.000000	61.863091
1122.000000	61.965763
1121.000000	62.060909
1120.000000	62.128646
1119.000000	62.178297
1118.000000	62.213233
1117.000000	62.237609
1116.000000	62.267040
1115.000000	62.275241
1114.000000	62.260188
1113.000000	62.262435
1112.000000	62.248843
1111.000000	62.243451
1110.000000	62.229858
1109.000000	62.217614
1108.000000	62.214244
1107.000000	62.197394
1106.000000	62.183240
1105.000000	62.178410
1104.000000	62.159425
1103.000000	62.129320
1102.000000	62.119996
1101.000000	62.101686
1100.000000	62.093598
1099.000000	62.051024
1098.000000	62.044958
1097.000000	61.999351
1096.000000	61.985309
1095.000000	61.926783
1094.000000	61.895442
1093.000000	61.854441
1092.000000	61.805688
1091.000000	61.761654
1090.000000	61.697961
1089.000000	61.660666
1088.000000	61.597647
1087.000000	61.533280
1086.000000	61.460601
1085.000000	61.369274
1084.000000	61.330294
1083.000000	61.261097
1082.000000	61.196618
1081.000000	61.102820
1080.000000	61.017896
1079.000000	60.948699
1078.000000	60.897250
1077.000000	60.822661
1076.000000	60.746612
1075.000000	60.686513
1074.000000	60.594962
1073.000000	60.536436
1072.000000	60.450277
1071.000000	60.355131
1070.000000	60.273689
1069.000000	60.210109
1068.000000	60.129790
1067.000000	60.035880
1066.000000	59.968031
1065.000000	59.870638
1064.000000	59.783243
1063.000000	59.704272
1062.000000	59.602499
1061.000000	59.496681
1060.000000	59.431191
1059.000000	59.331776
1058.000000	59.228429
1057.000000	59.158558
1056.000000	59.065771
1055.000000	58.956134
1054.000000	58.838521
1053.000000	58.747082
1052.000000	58.649015
1051.000000	58.549713
1050.000000	58.439963
1049.000000	58.350883
1048.000000	58.276181
1047.000000	58.189685
1046.000000	58.094988
1045.000000	58.017253
1044.000000	57.934689
1043.000000	57.841789
1042.000000	57.781803
1041.000000	57.675873
1040.000000	57.594095
1039.000000	57.495241
1038.000000	57.432223
1037.000000	57.344490
1036.000000	57.243166
1035.000000	57.133978
1034.000000	57.053772
1033.000000	56.956379
1032.000000	56.840115
1031.000000	56.730365
1030.000000	56.630838
1029.000000	56.518730
1028.000000	56.392692
1027.000000	56.293951
1026.000000	56.173979
1025.000000	56.071419
1024.000000	55.953919
1023.000000	55.829903
1022.000000	55.711167
1021.000000	55.602878
1020.000000	55.475042
1019.000000	55.342040
1018.000000	55.247568
1017.000000	55.139391
1016.000000	55.041212
1015.000000	54.961118
1014.000000	54.856873
1013.000000	54.764985
1012.000000	54.684105
1011.000000	54.627601
1010.000000	54.573007
1009.000000	54.517515
1008.000000	54.476289
1007.000000	54.428547
1006.000000	54.387770
1005.000000	54.346993
1004.000000	54.303296
1003.000000	54.264990
1002.000000	54.220618
1001.000000	54.193883
1000.000000	54.135582
999.000000	54.099748
998.000000	54.054478
997.000000	54.024934
996.000000	53.986628
995.000000	53.957646
994.000000	53.915859
993.000000	53.868454
992.000000	53.850368
991.000000	53.842393
990.000000	53.796111
989.000000	53.747921
988.000000	53.748370
987.000000	53.750167
986.000000	53.710514
985.000000	53.683329
984.000000	53.677151
983.000000	53.658503
982.000000	53.660525
981.000000	53.651089
980.000000	53.642440
979.000000	53.635812
978.000000	53.634576
977.000000	53.625927
976.000000	53.615480
975.000000	53.621658
974.000000	53.610425
973.000000	53.600539
972.000000	53.605257
971.000000	53.595821
970.000000	53.586048
969.000000	53.582903
968.000000	53.569086
967.000000	53.571895
966.000000	53.561672
965.000000	53.584588
964.000000	53.595372
963.000000	53.602561
962.000000	53.625927
961.000000	53.628960
960.000000	53.661649
959.000000	53.695461
958.000000	53.718040
957.000000	53.720399
956.000000	53.731520
955.000000	53.752863
954.000000	53.784541
953.000000	53.808917
952.000000	53.821162
951.000000	53.838573
950.000000	53.830373
949.000000	53.837001
948.000000	53.872947
947.000000	53.884405
946.000000	53.872723
945.000000	53.887775
944.000000	53.878339
943.000000	53.862613
942.000000	53.850256
941.000000	53.838798
940.000000	53.831833
939.000000	53.795100
938.000000	53.765220
937.000000	53.752189
936.000000	53.758480
935.000000	53.746573
934.000000	53.704111
933.000000	53.672208
932.000000	53.664345
931.000000	53.687148
930.000000	53.667153
929.000000	53.617165
928.000000	53.579533
927.000000	53.568749
926.000000	53.528646
925.000000	53.475962
924.000000	53.428445
923.000000	53.382164
922.000000	53.368010
921.000000	53.327345
920.000000	53.270055
919.000000	53.209508
918.000000	53.167832
917.000000	53.113351
916.000000	53.038200
915.000000	52.980798
914.000000	52.924294
913.000000	52.853861
912.000000	52.773431
911.000000	52.691203
910.000000	52.636047
909.000000	52.583138
908.000000	52.546068
907.000000	52.498776
906.000000	52.450698
905.000000	52.422951
904.000000	52.383073
903.000000	52.341847
902.000000	52.319605
901.000000	52.305451
900.000000	52.297587
899.000000	52.305900
898.000000	52.294217
897.000000	52.262764
896.000000	52.259282
895.000000	52.232322
894.000000	52.199970
893.000000	52.151667
892.000000	52.139085
891.000000	52.124033
890.000000	52.101342
889.000000	52.037649
888.000000	51.973619
887.000000	51.930707
886.000000	51.873867
885.000000	51.792762
884.000000	51.731092
883.000000	51.672117
882.000000	51.602470
881.000000	51.517996
880.000000	51.463065
879.000000	51.375894
878.000000	51.285691
877.000000	51.142915
876.000000	51.001151
875.000000	50.852759
874.000000	50.649548
873.000000	50.471500
872.000000	50.355011
871.000000	50.328275
870.000000	50.333443
869.000000	50.360290
868.000000	50.379275
867.000000	50.379612
866.000000	50.408257
865.000000	50.451168
864.000000	50.485429
863.000000	50.484531
862.000000	50.492731
861.000000	50.493068
860.000000	50.524409
859.000000	50.524184
858.000000	50.538900
857.000000	49.692300
856.000000	51.086300
855.000000	50.838100
854.000000	50.712200
853.000000	51.084300
852.000000	50.981000
851.000000	51.144200
850.000000	51.063900
849.000000	51.120000
848.000000	51.164900
847.000000	51.125400
846.000000	51.114900
845.000000	50.893600
844.000000	51.051000
843.000000	51.251100
842.000000	51.120400
841.000000	51.024800
840.000000	51.173700
839.000000	50.978000
838.000000	51.087200
837.000000	51.179800
836.000000	51.190800
835.000000	51.049300
834.000000	51.216500
833.000000	51.048700
832.000000	50.905300
831.000000	50.966500
830.000000	51.077000
829.000000	51.012100
828.000000	50.870200
827.000000	50.964800
826.000000	50.974500
825.000000	50.840100
824.000000	50.881100
823.000000	50.846300
822.000000	50.790300
821.000000	50.629600
820.000000	50.803700
819.000000	50.647000
818.000000	50.548400
817.000000	50.649200
816.000000	50.634900
815.000000	50.587600
814.000000	50.543000
813.000000	50.459000
812.000000	50.321200
811.000000	50.376400
810.000000	50.296000
809.000000	50.257800
808.000000	50.298900
807.000000	50.151100
806.000000	50.143200
805.000000	50.076100
804.000000	50.031400
803.000000	50.143200
802.000000	49.847500
801.000000	49.910500
800.000000	49.826000
799.000000	49.851700
798.000000	49.715000
797.000000	49.616800
796.000000	49.620100
795.000000	49.479100
794.000000	49.591600
793.000000	49.496800
792.000000	49.472400
791.000000	49.427500
790.000000	49.226400
789.000000	49.255200
788.000000	49.090900
787.000000	49.048400
786.000000	49.213500
785.000000	49.023200
784.000000	49.003100
783.000000	48.779000
782.000000	48.818900
781.000000	48.776000
780.000000	48.597800
779.000000	48.503900
778.000000	48.500000
777.000000	48.439900
776.000000	48.443600
775.000000	48.276000
774.000000	48.256200
773.000000	48.137800
772.000000	48.102700
771.000000	48.068300
770.000000	48.012400
769.000000	47.841600
768.000000	47.846700
767.000000	47.799900
766.000000	47.688100
765.000000	47.567600
764.000000	47.512300
763.000000	47.449700
762.000000	47.389600
761.000000	47.320100
760.000000	47.128100
759.000000	47.079700
758.000000	47.018400
757.000000	46.921500
756.000000	46.890000
755.000000	46.772200
754.000000	46.839600
753.000000	46.604800
752.000000	46.504100
751.000000	46.407500
750.000000	46.315300
749.000000	46.275300
748.000000	46.098600
747.000000	46.066800
746.000000	45.955900
745.000000	45.863000
744.000000	45.788600
743.000000	45.697000
742.000000	45.507500
741.000000	45.468500
740.000000	45.387300
739.000000	45.200300
738.000000	45.049500
737.000000	45.015400
736.000000	44.915900
735.000000	44.726700
734.000000	44.656500
733.000000	44.566900
732.000000	44.384000
731.000000	44.273500
730.000000	44.195700
729.000000	44.073500
728.000000	43.954500
727.000000	43.796900
726.000000	43.791400
725.000000	43.616300
724.000000	43.427300
723.000000	43.303600
722.000000	43.188700
721.000000	43.031100
720.000000	42.880000
719.000000	42.799400
718.000000	42.634600
717.000000	42.489800
716.000000	42.285100
715.000000	42.157400
714.000000	42.030600
713.000000	41.886400
712.000000	41.760200
711.000000	41.590300
710.000000	41.385500
709.000000	41.240600
708.000000	41.055300
707.000000	40.921600
706.000000	40.754500
705.000000	40.541900
704.000000	40.384400
703.000000	40.228200
702.000000	40.071800
701.000000	39.860600
700.000000	39.690100
699.000000	39.456700
698.000000	39.311600
697.000000	39.106300
696.000000	38.945300
695.000000	38.787800
694.000000	38.559700
693.000000	38.334300
692.000000	38.125000
691.000000	37.939500
690.000000	37.711800
689.000000	37.480700
688.000000	37.287400
687.000000	37.080800
686.000000	36.884700
685.000000	36.677700
684.000000	36.471500
683.000000	36.271400
682.000000	36.061900
681.000000	35.818200
680.000000	35.564000
679.000000	35.357800
678.000000	35.138300
677.000000	34.894100
676.000000	34.688600
675.000000	34.492700
674.000000	34.285300
673.000000	34.064900
672.000000	33.827300
671.000000	33.587000
670.000000	33.382200
669.000000	33.160700
668.000000	32.930400
667.000000	32.719400
666.000000	32.497400
665.000000	32.290200
664.000000	32.081200
663.000000	31.902600
662.000000	31.686500
661.000000	31.463100
660.000000	31.284000
659.000000	31.089400
658.000000	30.872600
657.000000	30.660900
656.000000	30.454500
655.000000	30.263300
654.000000	30.070300
653.000000	29.895600
652.000000	29.715100
651.000000	29.538800
650.000000	29.378200
649.000000	29.181700
648.000000	29.016600
647.000000	28.874600
646.000000	28.726500
645.000000	28.569100
644.000000	28.403900
643.000000	28.254200
642.000000	28.110500
641.000000	27.975300
640.000000	27.841700
639.000000	27.710000
638.000000	27.595000
637.000000	27.462800
636.000000	27.329800
635.000000	27.237300
634.000000	27.129700
633.000000	27.014300
632.000000	26.916900
631.000000	26.809600
630.000000	26.711700
629.000000	26.620200
628.000000	26.498300
627.000000	26.404700
626.000000	26.322200
625.000000	26.249700
624.000000	26.181900
623.000000	26.103500
622.000000	26.031100
621.000000	25.971000
620.000000	25.902600
619.000000	25.839000
618.000000	25.790600
617.000000	25.722600
616.000000	25.672800
615.000000	25.613500
614.000000	25.594100
613.000000	25.576100
612.000000	25.539500
611.000000	25.519700
610.000000	25.503300
609.000000	25.492300
608.000000	25.482800
607.000000	25.483900
606.000000	25.499200
605.000000	25.505500
604.000000	25.515000
603.000000	25.553400
602.000000	25.573300
601.000000	25.584600
600.000000	25.622600
599.000000	25.663700
598.000000	25.713200
597.000000	25.756900
596.000000	25.808400
595.000000	25.868900
594.000000	25.942500
593.000000	26.010700
592.000000	26.085900
591.000000	26.172600
590.000000	26.266400
589.000000	26.369200
588.000000	26.446100
587.000000	26.521600
586.000000	26.624100
585.000000	26.708900
584.000000	26.801600
583.000000	26.914600
582.000000	27.019700
581.000000	27.092700
580.000000	27.199900
579.000000	27.291300
578.000000	27.382400
577.000000	27.466600
576.000000	27.550900
575.000000	27.640600
574.000000	27.710400
573.000000	27.778000
572.000000	27.865300
571.000000	27.906600
570.000000	27.957000
569.000000	28.025700
568.000000	28.068900
567.000000	28.099700
566.000000	28.131000
565.000000	28.150500
564.000000	28.157200
563.000000	28.163000
562.000000	28.138300
561.000000	28.146400
560.000000	28.133700
559.000000	28.131100
558.000000	28.114400
557.000000	28.062700
556.000000	28.000000
555.000000	27.988500
554.000000	27.896400
553.000000	27.818700
552.000000	27.753400
551.000000	27.651300
550.000000	27.567600
549.000000	27.443000
548.000000	27.332100
547.000000	27.217900
546.000000	27.078200
545.000000	26.932400
544.000000	26.784000
543.000000	26.629100
542.000000	26.445300
541.000000	26.276900
540.000000	26.100300
539.000000	25.898300
538.000000	25.715600
537.000000	25.510100
536.000000	25.289500
535.000000	25.058800
534.000000	24.837800
533.000000	24.588400
532.000000	24.333300
531.000000	24.085100
530.000000	23.818200
529.000000	23.555300
528.000000	23.271400
527.000000	22.999300
526.000000	22.700100
525.000000	22.415900
524.000000	22.110900
523.000000	21.810100
522.000000	21.497500
521.000000	21.195900
520.000000	20.861500
519.000000	20.560000
518.000000	20.243600
517.000000	19.911300
516.000000	19.594600
515.000000	19.289400
514.000000	18.968300
513.000000	18.644100
512.000000	18.330100
511.000000	18.017000
510.000000	17.716200
509.000000	17.415200
508.000000	17.140100
507.000000	16.823200
506.000000	16.530100
505.000000	16.268800
504.000000	16.002500
503.000000	15.732200
502.000000	15.472600
501.000000	15.235600
500.000000	14.994900
499.000000	14.756900
498.000000	14.536300
497.000000	14.332800
496.000000	14.147400
495.000000	13.936400
494.000000	13.762800
493.000000	13.573600
492.000000	13.406500
491.000000	13.242700
490.000000	13.111500
489.000000	12.944600
488.000000	12.817000
487.000000	12.701900
486.000000	12.549000
485.000000	12.423400
484.000000	12.282800
483.000000	12.189600
482.000000	12.074600
481.000000	11.966700
480.000000	11.843900
479.000000	11.724100
478.000000	11.613000
477.000000	11.507800
476.000000	11.411400
475.000000	11.314300
474.000000	11.198000
473.000000	11.114600
472.000000	11.018300
471.000000	10.944500
470.000000	10.849900
469.000000	10.754500
468.000000	10.687100
467.000000	10.598600
466.000000	10.535800
465.000000	10.454900
464.000000	10.390500
463.000000	10.321700
462.000000	10.261800
461.000000	10.174400
460.000000	10.120800
459.000000	10.066400
458.000000	10.005800
457.000000	9.934600
456.000000	9.894100
455.000000	9.852800
454.000000	9.771900
453.000000	9.743100
452.000000	9.666700
451.000000	9.624800
450.000000	9.595800
449.000000	9.530800
448.000000	9.482200
447.000000	9.443100
446.000000	9.384500
445.000000	9.350100
444.000000	9.287400
443.000000	9.230800
442.000000	9.186000
441.000000	9.145800
440.000000	9.092000
439.000000	9.039800
438.000000	8.980400
437.000000	8.925400
436.000000	8.880100
435.000000	8.845500
434.000000	8.772700
433.000000	8.724900
432.000000	8.706400
431.000000	8.644200
430.000000	8.600400
429.000000	8.549600
428.000000	8.487700
427.000000	8.451100
426.000000	8.399700
425.000000	8.353100
424.000000	8.300900
423.000000	8.269100
422.000000	8.209300
421.000000	8.158600
420.000000	8.100200
419.000000	8.044100
418.000000	7.997200
417.000000	7.940000
416.000000	7.879900
415.000000	7.843000
414.000000	7.780600
413.000000	7.703800
412.000000	7.655400
411.000000	7.609600
410.000000	7.540200
409.000000	7.477100
408.000000	7.406600
407.000000	7.349600
406.000000	7.272900
405.000000	7.205800
404.000000	7.141300
403.000000	7.080400
402.000000	7.014600
401.000000	6.964800
400.000000	6.870700
399.000000	6.802700
398.000000	6.740500
397.000000	6.671300
396.000000	6.610900
395.000000	6.555800
394.000000	6.479300
393.000000	6.403100
392.000000	6.318000
391.000000	6.260200
390.000000	6.182400
389.000000	6.111700
388.000000	6.041300
387.000000	5.958500
386.000000	5.887000
385.000000	5.845400
384.000000	5.765000
383.000000	5.700500
382.000000	5.655300
381.000000	5.564200
380.000000	5.512200
379.000000	5.455000
378.000000	5.409000
377.000000	5.380000
376.000000	5.305800
375.000000	5.207200
374.000000	5.127200
373.000000	5.000500
372.000000	4.981900
371.000000	4.963400
370.000000	4.967000
369.000000	4.884500
368.000000	4.884700
367.000000	4.854800
366.000000	4.781500
365.000000	4.738400
364.000000	4.757900
363.000000	4.766800
362.000000	4.730600
361.000000	4.715300
360.000000	4.678900
359.000000	4.609700
358.000000	4.633100
357.000000	4.634300
356.000000	4.572100
355.000000	4.551500
354.000000	4.513200
353.000000	4.546500
352.000000	4.562900
351.000000	4.475800
350.000000	4.423900
349.000000	4.466400
348.000000	4.479500
347.000000	4.479400
346.000000	4.447100
345.000000	4.396900
344.000000	4.462800
343.000000	4.437300
342.000000	4.390500
341.000000	4.462300
340.000000	4.423900
339.000000	4.398800
338.000000	4.447800
337.000000	4.405400
336.000000	4.375700
335.000000	4.344400
334.000000	4.312800
333.000000	4.451500
332.000000	4.510700
331.000000	4.439700
330.000000	4.431800
329.000000	4.409400
328.000000	4.341100
327.000000	4.355800
326.000000	4.390000
325.000000	4.444100
324.000000	4.537100
323.000000	4.453200
322.000000	4.386800
321.000000	4.459100
320.000000	4.459000
319.000000	4.510200
318.000000	4.575900
317.000000	4.413900
316.000000	4.337300
315.000000	4.385300
314.000000	4.388200
313.000000	4.403600
312.000000	4.397900
311.000000	4.375800
310.000000	4.389500
309.000000	4.403000
308.000000	4.396400
307.000000	4.406500
306.000000	4.417900
305.000000	4.416800
304.000000	4.416200
303.000000	4.410400
302.000000	4.394600
301.000000	4.391000
300.000000	4.396800
299.000000	4.386700
298.000000	4.412200
297.000000	4.435800
296.000000	4.420000
295.000000	4.408200
294.000000	4.405000
293.000000	4.429600
292.000000	4.433300
291.000000	4.436300
290.000000	4.424200
289.000000	4.432100
288.000000	4.441300
287.000000	4.445100
286.000000	4.456600
285.000000	4.452600
284.000000	4.465300
283.000000	4.475600
282.000000	4.472400
281.000000	4.486400
280.000000	4.480500
279.000000	4.456100
278.000000	4.507800
277.000000	4.502500
276.000000	4.504700
275.000000	4.499400
274.000000	4.508200
273.000000	4.543500
272.000000	4.516600
271.000000	4.530800
270.000000	4.540600
269.000000	4.568200
268.000000	4.573300
267.000000	4.600400
266.000000	4.610500
265.000000	4.616400
264.000000	4.653500
263.000000	4.676100
262.000000	4.670800
261.000000	4.681600
260.000000	4.722800
259.000000	4.748000
258.000000	4.740300
257.000000	4.771200
256.000000	4.783300
255.000000	4.768900
254.000000	4.780800
253.000000	4.776500
252.000000	4.772700
251.000000	4.779900
250.000000	4.801700
