PE UV       SUBTECH     SPECTRUM    ASCII       PEDS        4.00        
   -1
INBUCR0145-2.Sample.ASC
24/04/29
15:04:26.00
24/04/29
15:04:26.00
Vinicio Soto Monge
C. kalinini
250,000000
1
Lambda 1050
1050L1511233
PerkinElmer UV WinLab 6.3.2.0749 / 2.02.05 Lambda 900 UV/VIS/NIR, Aug  7 2015 09:38:08

0
0
3350/servo 860,8/2
0
0
UV/VIS
1
1
1
DoubleDePol,CommonBeamDepol,RBeamAtt,SBeamAtt,60mm sphere, WB InGaAs Detector
0
0
0
0
Program
Program
3350/servo 860,8/2
3350/0,2 860,8/0,2
3350/0,2 860,8/0,2
0
15.00
 
 
 
0
 
860,8
319,2
860,8
Front
100
on
S:100 R:100
0
0
0
0
 
0
 
 
 
0
 
 
0
0
0
0
0
 
 
 
 
0
0


0
0
#HDR
-1
-1
#GR
nm
%R
1.0
0.0
2500,000000
-1,000000
2251
8
86,290300
5,575000
#DATA
2482.000000	14.211576
2481.000000	14.217076
2480.000000	14.236094
2479.000000	14.237240
2478.000000	14.228991
2477.000000	14.342987
2476.000000	14.366244
2475.000000	14.347799
2474.000000	14.373233
2473.000000	14.394199
2472.000000	14.397063
2471.000000	14.499259
2470.000000	14.536265
2469.000000	14.595497
2468.000000	14.680965
2467.000000	14.655302
2466.000000	14.749019
2465.000000	14.846173
2464.000000	14.906322
2463.000000	14.882721
2462.000000	14.979760
2461.000000	15.090663
2460.000000	15.163414
2459.000000	15.232614
2458.000000	15.271911
2457.000000	15.389688
2456.000000	15.412143
2455.000000	15.532555
2454.000000	15.647468
2453.000000	15.732134
2452.000000	15.837766
2451.000000	15.913267
2450.000000	16.010193
2449.000000	16.128428
2448.000000	16.225467
2447.000000	16.334193
2446.000000	16.446356
2445.000000	16.546031
2444.000000	16.662433
2443.000000	16.746756
2442.000000	16.869115
2441.000000	16.997890
2440.000000	17.102034
2439.000000	17.210530
2438.000000	17.319485
2437.000000	17.419962
2436.000000	17.525022
2435.000000	17.628592
2434.000000	17.754503
2433.000000	17.842721
2432.000000	17.947093
2431.000000	18.053413
2430.000000	18.162483
2429.000000	18.251159
2428.000000	18.360114
2427.000000	18.453144
2426.000000	18.540331
2425.000000	18.638287
2424.000000	18.707257
2423.000000	18.788945
2422.000000	18.885985
2421.000000	18.960798
2420.000000	19.040195
2419.000000	19.120622
2418.000000	19.160606
2417.000000	19.202653
2416.000000	19.263260
2415.000000	19.316076
2414.000000	19.390317
2413.000000	19.455736
2412.000000	19.497782
2411.000000	19.538684
2410.000000	19.582334
2409.000000	19.622204
2408.000000	19.644087
2407.000000	19.680176
2406.000000	19.723139
2405.000000	19.751323
2404.000000	19.806316
2403.000000	19.840572
2402.000000	19.861195
2401.000000	19.910803
2400.000000	19.973129
2399.000000	20.054358
2398.000000	20.123557
2397.000000	20.158157
2396.000000	20.183248
2395.000000	20.189893
2394.000000	20.195277
2393.000000	20.208109
2392.000000	20.244428
2391.000000	20.315231
2390.000000	20.334135
2389.000000	20.334822
2388.000000	20.350518
2387.000000	20.369193
2386.000000	20.384316
2385.000000	20.391763
2384.000000	20.392450
2383.000000	20.399095
2382.000000	20.404824
2381.000000	20.401960
2380.000000	20.407574
2379.000000	20.388784
2378.000000	20.379848
2377.000000	20.379275
2376.000000	20.371484
2375.000000	20.367016
2374.000000	20.364610
2373.000000	20.344790
2372.000000	20.338603
2371.000000	20.338374
2370.000000	20.320272
2369.000000	20.312596
2368.000000	20.318668
2367.000000	20.343530
2366.000000	20.343873
2365.000000	20.335051
2364.000000	20.334020
2363.000000	20.311336
2362.000000	20.323824
2361.000000	20.329094
2360.000000	20.308128
2359.000000	20.309617
2358.000000	20.317752
2357.000000	20.316950
2356.000000	20.330125
2355.000000	20.318554
2354.000000	20.287849
2353.000000	20.266425
2352.000000	20.250271
2351.000000	20.232512
2350.000000	20.261040
2349.000000	20.260353
2348.000000	20.222201
2347.000000	20.211890
2346.000000	20.204901
2345.000000	20.192986
2344.000000	20.205360
2343.000000	20.186570
2342.000000	20.175457
2341.000000	20.184852
2340.000000	20.182102
2339.000000	20.182560
2338.000000	20.195507
2337.000000	20.203297
2336.000000	20.199631
2335.000000	20.213150
2334.000000	20.238928
2333.000000	20.248094
2332.000000	20.264477
2331.000000	20.278798
2330.000000	20.309961
2329.000000	20.353268
2328.000000	20.361288
2327.000000	20.379390
2326.000000	20.431862
2325.000000	20.487772
2324.000000	20.495906
2323.000000	20.533485
2322.000000	20.553534
2321.000000	20.568657
2320.000000	20.583437
2319.000000	20.608298
2318.000000	20.618495
2317.000000	20.601997
2316.000000	20.600851
2315.000000	20.597300
2314.000000	20.571865
2313.000000	20.576448
2312.000000	20.571063
2311.000000	20.526152
2310.000000	20.525350
2309.000000	20.487657
2308.000000	20.449047
2307.000000	20.421780
2306.000000	20.414791
2305.000000	20.397033
2304.000000	20.372974
2303.000000	20.357965
2302.000000	20.342842
2301.000000	20.323136
2300.000000	20.331729
2299.000000	20.338718
2298.000000	20.331500
2297.000000	20.347769
2296.000000	20.349831
2295.000000	20.348571
2294.000000	20.368964
2293.000000	20.414791
2292.000000	20.417426
2291.000000	20.428654
2290.000000	20.478263
2289.000000	20.497854
2288.000000	20.534172
2287.000000	20.586072
2286.000000	20.624452
2285.000000	20.657792
2284.000000	20.709462
2283.000000	20.754144
2282.000000	20.799170
2281.000000	20.838925
2280.000000	20.878222
2279.000000	20.943297
2278.000000	20.974689
2277.000000	20.992104
2276.000000	21.025902
2275.000000	21.072416
2274.000000	21.118817
2273.000000	21.140470
2272.000000	21.187558
2271.000000	21.268673
2270.000000	21.287691
2269.000000	21.311063
2268.000000	21.390803
2267.000000	21.451066
2266.000000	21.519808
2265.000000	21.590955
2264.000000	21.662561
2263.000000	21.768308
2262.000000	21.869243
2261.000000	21.974875
2260.000000	22.099068
2259.000000	22.218105
2258.000000	22.399467
2257.000000	22.514609
2256.000000	22.666756
2255.000000	22.809280
2254.000000	22.976207
2253.000000	23.167537
2252.000000	23.329079
2251.000000	23.488100
2250.000000	23.626385
2249.000000	23.809122
2248.000000	23.946605
2247.000000	24.095430
2246.000000	24.216071
2245.000000	24.342326
2244.000000	24.485193
2243.000000	24.599876
2242.000000	24.683855
2241.000000	24.770355
2240.000000	24.832680
2239.000000	24.922731
2238.000000	24.961456
2237.000000	25.038904
2236.000000	25.065942
2235.000000	25.085992
2234.000000	25.166419
2233.000000	25.142818
2232.000000	25.155535
2231.000000	25.126778
2230.000000	25.118529
2229.000000	25.092522
2228.000000	25.069609
2227.000000	25.016219
2226.000000	24.994337
2225.000000	24.951603
2224.000000	24.889392
2223.000000	24.829129
2222.000000	24.754888
2221.000000	24.685116
2220.000000	24.610188
2219.000000	24.541904
2218.000000	24.474080
2217.000000	24.389299
2216.000000	24.318954
2215.000000	24.254795
2214.000000	24.163484
2213.000000	24.108949
2212.000000	24.049029
2211.000000	23.942709
2210.000000	23.907422
2209.000000	23.838566
2208.000000	23.811414
2207.000000	23.726289
2206.000000	23.663276
2205.000000	23.630853
2204.000000	23.579068
2203.000000	23.553748
2202.000000	23.518461
2201.000000	23.468853
2200.000000	23.424515
2199.000000	23.406184
2198.000000	23.358752
2197.000000	23.327131
2196.000000	23.291386
2195.000000	23.274315
2194.000000	23.251974
2193.000000	23.257244
2192.000000	23.238455
2191.000000	23.220009
2190.000000	23.177275
2189.000000	23.170401
2188.000000	23.147029
2187.000000	23.139353
2186.000000	23.104409
2185.000000	23.073361
2184.000000	23.077715
2183.000000	23.062019
2182.000000	23.021920
2181.000000	22.997746
2180.000000	23.000495
2179.000000	22.955928
2178.000000	22.951918
2177.000000	22.968416
2176.000000	22.950543
2175.000000	22.968531
2174.000000	22.978727
2173.000000	22.947679
2172.000000	22.949169
2171.000000	22.984799
2170.000000	23.012067
2169.000000	23.033606
2168.000000	23.059269
2167.000000	23.083672
2166.000000	23.126750
2165.000000	23.164558
2164.000000	23.219666
2163.000000	23.266181
2162.000000	23.338473
2161.000000	23.402288
2160.000000	23.451897
2159.000000	23.546416
2158.000000	23.617678
2157.000000	23.716551
2156.000000	23.802592
2155.000000	23.895622
2154.000000	23.989110
2153.000000	24.106887
2152.000000	24.211259
2151.000000	24.316204
2150.000000	24.449677
2149.000000	24.569401
2148.000000	24.680304
2147.000000	24.815037
2146.000000	24.908525
2145.000000	25.014386
2144.000000	25.134913
2143.000000	25.240774
2142.000000	25.340335
2141.000000	25.451008
2140.000000	25.562942
2139.000000	25.679458
2138.000000	25.785664
2137.000000	25.898056
2136.000000	25.999678
2135.000000	26.072430
2134.000000	26.169584
2133.000000	26.281976
2132.000000	26.341208
2131.000000	26.428509
2130.000000	26.521768
2129.000000	26.591541
2128.000000	26.652492
2127.000000	26.731544
2126.000000	26.794328
2125.000000	26.849894
2124.000000	26.916916
2123.000000	26.941778
2122.000000	26.977982
2121.000000	27.025986
2120.000000	27.095529
2119.000000	27.139065
2118.000000	27.143877
2117.000000	27.162208
2116.000000	27.197266
2115.000000	27.241604
2114.000000	27.265206
2113.000000	27.267726
2112.000000	27.279985
2111.000000	27.296712
2110.000000	27.309888
2109.000000	27.328791
2108.000000	27.332343
2107.000000	27.311950
2106.000000	27.311721
2105.000000	27.342654
2104.000000	27.359381
2103.000000	27.351476
2102.000000	27.337384
2101.000000	27.342769
2100.000000	27.340592
2099.000000	27.344602
2098.000000	27.358121
2097.000000	27.373244
2096.000000	27.404636
2095.000000	27.415405
2094.000000	27.406584
2093.000000	27.429383
2092.000000	27.466961
2091.000000	27.479908
2090.000000	27.486667
2089.000000	27.505686
2088.000000	27.530433
2087.000000	27.552201
2086.000000	27.538452
2085.000000	27.524819
2084.000000	27.520236
2083.000000	27.508321
2082.000000	27.492625
2081.000000	27.468336
2080.000000	27.415749
2079.000000	27.365797
2078.000000	27.310231
2077.000000	27.251916
2076.000000	27.192684
2075.000000	27.121422
2074.000000	27.037672
2073.000000	26.937310
2072.000000	26.847946
2071.000000	26.743574
2070.000000	26.647680
2069.000000	26.541933
2068.000000	26.425416
2067.000000	26.293662
2066.000000	26.171761
2065.000000	26.061545
2064.000000	25.942852
2063.000000	25.820836
2062.000000	25.712454
2061.000000	25.625611
2060.000000	25.526738
2059.000000	25.447915
2058.000000	25.366456
2057.000000	25.299892
2056.000000	25.266323
2055.000000	25.249482
2054.000000	25.241920
2053.000000	25.263344
2052.000000	25.290956
2051.000000	25.358666
2050.000000	25.447571
2049.000000	25.542090
2048.000000	25.671782
2047.000000	25.806401
2046.000000	25.942508
2045.000000	26.119288
2044.000000	26.253677
2043.000000	26.420833
2042.000000	26.601394
2041.000000	26.761561
2040.000000	26.937424
2039.000000	27.068606
2038.000000	27.218003
2037.000000	27.401657
2036.000000	27.537307
2035.000000	27.660124
2034.000000	27.793139
2033.000000	27.931423
2032.000000	28.079217
2031.000000	28.177059
2030.000000	28.283493
2029.000000	28.398177
2028.000000	28.471501
2027.000000	28.593860
2026.000000	28.671194
2025.000000	28.755517
2024.000000	28.828039
2023.000000	28.894833
2022.000000	28.989123
2021.000000	29.046178
2020.000000	29.099796
2019.000000	29.148832
2018.000000	29.202565
2017.000000	29.228686
2016.000000	29.273368
2015.000000	29.291241
2014.000000	29.321258
2013.000000	29.344057
2012.000000	29.321602
2011.000000	29.335694
2010.000000	29.340047
2009.000000	29.340506
2008.000000	29.336610
2007.000000	29.303500
2006.000000	29.272337
2005.000000	29.253548
2004.000000	29.209324
2003.000000	29.156737
2002.000000	29.105525
2001.000000	29.056948
2000.000000	28.991529
1999.000000	28.919694
1998.000000	28.831247
1997.000000	28.778545
1996.000000	28.710606
1995.000000	28.629033
1994.000000	28.555365
1993.000000	28.452712
1992.000000	28.374690
1991.000000	28.288076
1990.000000	28.202608
1989.000000	28.094684
1988.000000	27.986989
1987.000000	27.897740
1986.000000	27.783515
1985.000000	27.682580
1984.000000	27.594247
1983.000000	27.476471
1982.000000	27.365797
1981.000000	27.280558
1980.000000	27.164041
1979.000000	27.065168
1978.000000	26.951172
1977.000000	26.860892
1976.000000	26.773476
1975.000000	26.687664
1974.000000	26.552358
1973.000000	26.474795
1972.000000	26.385088
1971.000000	26.276820
1970.000000	26.185280
1969.000000	26.098208
1968.000000	26.020301
1967.000000	25.927844
1966.000000	25.801703
1965.000000	25.738118
1964.000000	25.656201
1963.000000	25.551943
1962.000000	25.435083
1961.000000	25.344115
1960.000000	25.251200
1959.000000	25.154733
1958.000000	25.063193
1957.000000	24.970850
1956.000000	24.862812
1955.000000	24.752367
1954.000000	24.659338
1953.000000	24.547404
1952.000000	24.475798
1951.000000	24.365468
1950.000000	24.303601
1949.000000	24.225809
1948.000000	24.131175
1947.000000	24.052466
1946.000000	23.970550
1945.000000	23.924035
1944.000000	23.835702
1943.000000	23.806258
1942.000000	23.777501
1941.000000	23.753671
1940.000000	23.688481
1939.000000	23.688940
1938.000000	23.655256
1937.000000	23.644258
1936.000000	23.645518
1935.000000	23.664651
1934.000000	23.678972
1933.000000	23.728122
1932.000000	23.799155
1931.000000	23.881071
1930.000000	23.919567
1929.000000	24.002973
1928.000000	24.105054
1927.000000	24.190866
1926.000000	24.332587
1925.000000	24.458384
1924.000000	24.610073
1923.000000	24.775281
1922.000000	24.952519
1921.000000	25.138464
1920.000000	25.356947
1919.000000	25.565119
1918.000000	25.815566
1917.000000	26.063837
1916.000000	26.324596
1915.000000	26.597957
1914.000000	26.924134
1913.000000	27.267268
1912.000000	27.616130
1911.000000	27.945057
1910.000000	28.319354
1909.000000	28.682651
1908.000000	29.090058
1907.000000	29.527826
1906.000000	30.036397
1905.000000	30.554821
1904.000000	31.064881
1903.000000	31.568067
1902.000000	32.076295
1901.000000	32.649941
1900.000000	33.241689
1899.000000	33.859100
1898.000000	34.443058
1897.000000	35.011090
1896.000000	35.560104
1895.000000	36.115763
1894.000000	36.679212
1893.000000	37.262826
1892.000000	37.890434
1891.000000	38.516209
1890.000000	39.058463
1889.000000	39.560618
1888.000000	40.104247
1887.000000	40.602049
1886.000000	41.096986
1885.000000	41.547586
1884.000000	42.013537
1883.000000	42.404446
1882.000000	42.796157
1881.000000	43.178244
1880.000000	43.524471
1879.000000	43.868521
1878.000000	44.205926
1877.000000	44.495785
1876.000000	44.784613
1875.000000	45.063016
1874.000000	45.327555
1873.000000	45.557495
1872.000000	45.759251
1871.000000	45.931906
1870.000000	46.075575
1869.000000	46.216380
1868.000000	46.309754
1867.000000	46.404044
1866.000000	46.508874
1865.000000	46.612674
1864.000000	46.721972
1863.000000	46.831959
1862.000000	46.941372
1861.000000	47.034631
1860.000000	47.128119
1859.000000	47.191590
1858.000000	47.253228
1857.000000	47.297337
1856.000000	47.339155
1855.000000	47.385670
1854.000000	47.398501
1853.000000	47.399189
1852.000000	47.442610
1851.000000	47.516736
1850.000000	47.577802
1849.000000	47.595674
1848.000000	47.579291
1847.000000	47.487636
1846.000000	47.423363
1845.000000	47.449370
1844.000000	47.483053
1843.000000	47.526475
1842.000000	47.533463
1841.000000	47.490729
1840.000000	47.447308
1839.000000	47.416603
1838.000000	47.369630
1837.000000	47.310742
1836.000000	47.262966
1835.000000	47.192048
1834.000000	47.149772
1833.000000	47.132473
1832.000000	47.115287
1831.000000	47.089280
1830.000000	47.064533
1829.000000	47.031652
1828.000000	46.971503
1827.000000	46.932435
1826.000000	46.903449
1825.000000	46.887868
1824.000000	46.907459
1823.000000	46.979638
1822.000000	47.014008
1821.000000	46.978950
1820.000000	46.943205
1819.000000	46.888097
1818.000000	46.874005
1817.000000	46.900356
1816.000000	46.894513
1815.000000	46.877442
1814.000000	46.884431
1813.000000	46.867131
1812.000000	46.845707
1811.000000	46.807097
1810.000000	46.773185
1809.000000	46.753823
1808.000000	46.733200
1807.000000	46.715557
1806.000000	46.687831
1805.000000	46.655866
1804.000000	46.639368
1803.000000	46.640399
1802.000000	46.616111
1801.000000	46.582313
1800.000000	46.550348
1799.000000	46.518727
1798.000000	46.501771
1797.000000	46.477024
1796.000000	46.463620
1795.000000	46.448497
1794.000000	46.437498
1793.000000	46.412980
1792.000000	46.407366
1791.000000	46.396253
1790.000000	46.377349
1789.000000	46.383651
1788.000000	46.408398
1787.000000	46.403242
1786.000000	46.402440
1785.000000	46.402440
1784.000000	46.402325
1783.000000	46.388463
1782.000000	46.383192
1781.000000	46.373110
1780.000000	46.353175
1779.000000	46.322471
1778.000000	46.308150
1777.000000	46.271946
1776.000000	46.220505
1775.000000	46.187280
1774.000000	46.146608
1773.000000	46.105707
1772.000000	46.062858
1771.000000	46.026310
1770.000000	45.988846
1769.000000	45.935343
1768.000000	45.906471
1767.000000	45.858123
1766.000000	45.828450
1765.000000	45.797631
1764.000000	45.751002
1763.000000	45.751002
1762.000000	45.728088
1761.000000	45.720641
1760.000000	45.727286
1759.000000	45.717662
1758.000000	45.721672
1757.000000	45.699216
1756.000000	45.694863
1755.000000	45.693946
1754.000000	45.686270
1753.000000	45.685697
1752.000000	45.660950
1751.000000	45.623486
1750.000000	45.607791
1749.000000	45.563911
1748.000000	45.491961
1747.000000	45.473974
1746.000000	45.394807
1745.000000	45.322400
1744.000000	45.250679
1743.000000	45.188125
1742.000000	45.129466
1741.000000	45.048236
1740.000000	44.961508
1739.000000	44.883830
1738.000000	44.830556
1737.000000	44.777625
1736.000000	44.717132
1735.000000	44.671076
1734.000000	44.637736
1733.000000	44.596950
1732.000000	44.556736
1731.000000	44.515491
1730.000000	44.462560
1729.000000	44.447094
1728.000000	44.408026
1727.000000	44.382706
1726.000000	44.349825
1725.000000	44.352116
1724.000000	44.366094
1723.000000	44.403558
1722.000000	44.495327
1721.000000	44.629831
1720.000000	44.801111
1719.000000	45.021427
1718.000000	45.236244
1717.000000	45.451633
1716.000000	45.672636
1715.000000	45.900972
1714.000000	46.092646
1713.000000	46.262895
1712.000000	46.442997
1711.000000	46.564326
1710.000000	46.701465
1709.000000	46.814888
1708.000000	46.908949
1707.000000	47.022372
1706.000000	47.075188
1705.000000	47.136941
1704.000000	47.185976
1703.000000	47.234439
1702.000000	47.239022
1701.000000	47.266518
1700.000000	47.311429
1699.000000	47.304784
1698.000000	47.302149
1697.000000	47.304784
1696.000000	47.276027
1695.000000	47.241313
1694.000000	47.204766
1693.000000	47.145419
1692.000000	47.072897
1691.000000	46.992813
1690.000000	46.994532
1689.000000	47.000948
1688.000000	47.067741
1687.000000	47.145533
1686.000000	47.281412
1685.000000	47.438371
1684.000000	47.632222
1683.000000	47.845091
1682.000000	48.071364
1681.000000	48.326967
1680.000000	48.518755
1679.000000	48.743081
1678.000000	48.930974
1677.000000	49.122419
1676.000000	49.299084
1675.000000	49.470479
1674.000000	49.644623
1673.000000	49.836755
1672.000000	50.002422
1671.000000	50.193637
1670.000000	50.354606
1669.000000	50.509389
1668.000000	50.689949
1667.000000	50.823422
1666.000000	50.960676
1665.000000	51.109386
1664.000000	51.234266
1663.000000	51.371405
1662.000000	51.507971
1661.000000	51.626893
1660.000000	51.702165
1659.000000	51.792904
1658.000000	51.901400
1657.000000	51.964413
1656.000000	52.021354
1655.000000	52.072910
1654.000000	52.109114
1653.000000	52.153681
1652.000000	52.171897
1651.000000	52.183812
1650.000000	52.216235
1649.000000	52.200769
1648.000000	52.209705
1647.000000	52.196186
1646.000000	52.200196
1645.000000	52.185531
1644.000000	52.180490
1643.000000	52.175907
1642.000000	52.157691
1641.000000	52.151962
1640.000000	52.136610
1639.000000	52.137412
1638.000000	52.130653
1637.000000	52.127674
1636.000000	52.093991
1635.000000	52.067869
1634.000000	52.055381
1633.000000	52.012647
1632.000000	51.982057
1631.000000	51.960403
1630.000000	51.924199
1629.000000	51.876883
1628.000000	51.839189
1627.000000	51.811349
1626.000000	51.762657
1625.000000	51.731953
1624.000000	51.699645
1623.000000	51.651067
1622.000000	51.616582
1621.000000	51.588284
1620.000000	51.563193
1619.000000	51.544748
1618.000000	51.506482
1617.000000	51.469934
1616.000000	51.436824
1615.000000	51.405432
1614.000000	51.370947
1613.000000	51.333483
1612.000000	51.305299
1611.000000	51.266804
1610.000000	51.224528
1609.000000	51.169993
1608.000000	51.111448
1607.000000	51.055882
1606.000000	50.995505
1605.000000	50.908776
1604.000000	50.844961
1603.000000	50.792947
1602.000000	50.709884
1601.000000	50.641831
1600.000000	50.596118
1599.000000	50.522106
1598.000000	50.451990
1597.000000	50.397341
1596.000000	50.347274
1595.000000	50.283459
1594.000000	50.224571
1593.000000	50.174275
1592.000000	50.139217
1591.000000	50.105076
1590.000000	50.044698
1589.000000	49.999672
1588.000000	49.963927
1587.000000	49.924859
1586.000000	49.874792
1585.000000	49.823580
1584.000000	49.787262
1583.000000	49.751172
1582.000000	49.714740
1581.000000	49.689649
1580.000000	49.650810
1579.000000	49.630417
1578.000000	49.625605
1577.000000	49.610138
1576.000000	49.593640
1575.000000	49.585506
1574.000000	49.581152
1573.000000	49.586422
1572.000000	49.598910
1571.000000	49.609909
1570.000000	49.622168
1569.000000	49.641301
1568.000000	49.668110
1567.000000	49.682202
1566.000000	49.694346
1565.000000	49.712104
1564.000000	49.733185
1563.000000	49.740288
1562.000000	49.736278
1561.000000	49.737882
1560.000000	49.724363
1559.000000	49.698585
1558.000000	49.670745
1557.000000	49.637176
1556.000000	49.591578
1555.000000	49.541168
1554.000000	49.480103
1553.000000	49.405518
1552.000000	49.337121
1551.000000	49.255548
1550.000000	49.170423
1549.000000	49.093662
1548.000000	49.020338
1547.000000	48.949305
1546.000000	48.873919
1545.000000	48.803001
1544.000000	48.746404
1543.000000	48.703555
1542.000000	48.658873
1541.000000	48.614077
1540.000000	48.586237
1539.000000	48.548773
1538.000000	48.489311
1537.000000	48.458721
1536.000000	48.425153
1535.000000	48.377034
1534.000000	48.323988
1533.000000	48.284577
1532.000000	48.230959
1531.000000	48.160155
1530.000000	48.104475
1529.000000	48.044097
1528.000000	47.982917
1527.000000	47.930330
1526.000000	47.876712
1525.000000	47.828822
1524.000000	47.766840
1523.000000	47.697984
1522.000000	47.631534
1521.000000	47.569438
1520.000000	47.513070
1519.000000	47.449026
1518.000000	47.380743
1517.000000	47.300774
1516.000000	47.239480
1515.000000	47.166385
1514.000000	47.111621
1513.000000	47.041505
1512.000000	46.976659
1511.000000	46.898981
1510.000000	46.820731
1509.000000	46.759322
1508.000000	46.701923
1507.000000	46.634098
1506.000000	46.578876
1505.000000	46.509333
1504.000000	46.464193
1503.000000	46.413439
1502.000000	46.340458
1501.000000	46.311243
1500.000000	46.268853
1499.000000	46.254532
1498.000000	46.245022
1497.000000	46.227722
1496.000000	46.215807
1495.000000	46.223483
1494.000000	46.235399
1493.000000	46.250293
1492.000000	46.297266
1491.000000	46.310327
1490.000000	46.347791
1489.000000	46.362455
1488.000000	46.403471
1487.000000	46.432457
1486.000000	46.479430
1485.000000	46.506812
1484.000000	46.562378
1483.000000	46.600988
1482.000000	46.636046
1481.000000	46.668927
1480.000000	46.701694
1479.000000	46.749927
1478.000000	46.818325
1477.000000	46.850290
1476.000000	46.906314
1475.000000	46.974711
1474.000000	47.056170
1473.000000	47.156417
1472.000000	47.226992
1471.000000	47.313606
1470.000000	47.366193
1469.000000	47.448224
1468.000000	47.519830
1467.000000	47.631305
1466.000000	47.713795
1465.000000	47.794795
1464.000000	47.894584
1463.000000	47.962180
1462.000000	48.057387
1461.000000	48.155572
1460.000000	48.274151
1459.000000	48.367754
1458.000000	48.465481
1457.000000	48.556907
1456.000000	48.690494
1455.000000	48.768630
1454.000000	48.860514
1453.000000	48.992956
1452.000000	49.093776
1451.000000	49.188639
1450.000000	49.248788
1449.000000	49.308249
1448.000000	49.443097
1447.000000	49.576913
1446.000000	49.692857
1445.000000	49.777752
1444.000000	49.834235
1443.000000	49.951897
1442.000000	50.067841
1441.000000	50.150903
1440.000000	50.309695
1439.000000	50.389779
1438.000000	50.514888
1437.000000	50.658328
1436.000000	50.746088
1435.000000	50.903849
1434.000000	51.066079
1433.000000	51.207915
1432.000000	51.356625
1431.000000	51.508315
1430.000000	51.669055
1429.000000	51.876768
1428.000000	52.046444
1427.000000	52.239607
1426.000000	52.471380
1425.000000	52.675886
1424.000000	52.950049
1423.000000	53.137713
1422.000000	53.389535
1421.000000	53.679279
1420.000000	54.001791
1419.000000	54.250061
1418.000000	54.446662
1417.000000	54.751300
1416.000000	55.111046
1415.000000	55.488894
1414.000000	55.787117
1413.000000	56.062769
1412.000000	56.413236
1411.000000	56.789365
1410.000000	57.201240
1409.000000	57.572787
1408.000000	57.949031
1407.000000	58.269594
1406.000000	58.647901
1405.000000	59.014750
1404.000000	59.320305
1403.000000	59.702048
1402.000000	60.115757
1401.000000	60.499677
1400.000000	60.739240
1399.000000	60.985678
1398.000000	61.280807
1397.000000	61.651666
1396.000000	61.983687
1395.000000	62.221303
1394.000000	62.424433
1393.000000	62.662049
1392.000000	62.912725
1391.000000	63.145415
1390.000000	63.414537
1389.000000	63.707948
1388.000000	63.965728
1387.000000	64.196240
1386.000000	64.420451
1385.000000	64.692094
1384.000000	64.944947
1383.000000	65.131122
1382.000000	65.245118
1381.000000	65.336773
1380.000000	65.390849
1379.000000	65.516531
1378.000000	65.588939
1377.000000	65.695259
1376.000000	65.798829
1375.000000	65.887047
1374.000000	66.007001
1373.000000	66.154107
1372.000000	66.285059
1371.000000	66.357467
1370.000000	66.471692
1369.000000	66.604935
1368.000000	66.699340
1367.000000	66.774841
1366.000000	66.871766
1365.000000	67.006499
1364.000000	67.056566
1363.000000	67.156011
1362.000000	67.245146
1361.000000	67.240334
1360.000000	67.218451
1359.000000	67.316522
1358.000000	67.392367
1357.000000	67.470274
1356.000000	67.569834
1355.000000	67.654042
1354.000000	67.722325
1353.000000	67.796337
1352.000000	67.982396
1351.000000	68.130763
1350.000000	68.288295
1349.000000	68.449952
1348.000000	68.596600
1347.000000	68.719647
1346.000000	68.853692
1345.000000	69.011339
1344.000000	69.153175
1343.000000	69.285617
1342.000000	69.403623
1341.000000	69.524951
1340.000000	69.651435
1339.000000	69.749850
1338.000000	69.837953
1337.000000	69.950804
1336.000000	70.049447
1335.000000	70.132281
1334.000000	70.220499
1333.000000	70.309862
1332.000000	70.382957
1331.000000	70.443450
1330.000000	70.511503
1329.000000	70.565236
1328.000000	70.633634
1327.000000	70.690002
1326.000000	70.736975
1325.000000	70.795634
1324.000000	70.837795
1323.000000	70.872968
1322.000000	70.916733
1321.000000	70.953739
1320.000000	70.995098
1319.000000	71.035198
1318.000000	71.071974
1317.000000	71.115510
1316.000000	71.149423
1315.000000	71.173597
1314.000000	71.193188
1313.000000	71.237755
1312.000000	71.273157
1311.000000	71.293894
1310.000000	71.317724
1309.000000	71.342013
1308.000000	71.354272
1307.000000	71.368822
1306.000000	71.393454
1305.000000	71.410869
1304.000000	71.409150
1303.000000	71.409723
1302.000000	71.415451
1301.000000	71.434814
1300.000000	71.450051
1299.000000	71.446385
1298.000000	71.443177
1297.000000	71.434584
1296.000000	71.425877
1295.000000	71.424617
1294.000000	71.429543
1293.000000	71.421180
1292.000000	71.395631
1291.000000	71.373634
1290.000000	71.343273
1289.000000	71.326775
1288.000000	71.318183
1287.000000	71.292175
1286.000000	71.268460
1285.000000	71.233172
1284.000000	71.200177
1283.000000	71.169358
1282.000000	71.142892
1281.000000	71.120666
1280.000000	71.093399
1279.000000	71.079192
1278.000000	71.061434
1277.000000	71.031875
1276.000000	71.020991
1275.000000	71.015721
1274.000000	71.018929
1273.000000	71.018929
1272.000000	71.017554
1271.000000	71.008388
1270.000000	71.013888
1269.000000	71.014461
1268.000000	71.012742
1267.000000	71.028323
1266.000000	71.024199
1265.000000	71.017783
1264.000000	71.019502
1263.000000	71.026261
1262.000000	71.027980
1261.000000	71.013429
1260.000000	71.009878
1259.000000	71.009305
1258.000000	71.009190
1257.000000	71.007014
1256.000000	71.005181
1255.000000	70.985475
1254.000000	70.984100
1253.000000	70.974476
1252.000000	70.955572
1251.000000	70.917306
1250.000000	70.896455
1249.000000	70.856928
1248.000000	70.825193
1247.000000	70.802165
1246.000000	70.747973
1245.000000	70.695043
1244.000000	70.649903
1243.000000	70.604762
1242.000000	70.568902
1241.000000	70.515742
1240.000000	70.482632
1239.000000	70.453875
1238.000000	70.394299
1237.000000	70.361647
1236.000000	70.321777
1235.000000	70.272971
1234.000000	70.251088
1233.000000	70.218665
1232.000000	70.185555
1231.000000	70.139842
1230.000000	70.122313
1229.000000	70.073048
1228.000000	70.026763
1227.000000	70.005338
1226.000000	69.980591
1225.000000	69.940607
1224.000000	69.912881
1223.000000	69.875646
1222.000000	69.831767
1221.000000	69.804270
1220.000000	69.771274
1219.000000	69.745725
1218.000000	69.694284
1217.000000	69.641009
1216.000000	69.612482
1215.000000	69.589453
1214.000000	69.540876
1213.000000	69.504558
1212.000000	69.452085
1211.000000	69.415767
1210.000000	69.348057
1209.000000	69.296959
1208.000000	69.257318
1207.000000	69.190639
1206.000000	69.151800
1205.000000	69.084892
1204.000000	69.041700
1203.000000	68.969980
1202.000000	68.920142
1201.000000	68.861254
1200.000000	68.796523
1199.000000	68.740498
1198.000000	68.677715
1197.000000	68.611952
1196.000000	68.553064
1195.000000	68.498414
1194.000000	68.419247
1193.000000	68.345350
1192.000000	68.293794
1191.000000	68.247394
1190.000000	68.197442
1189.000000	68.153906
1188.000000	68.123889
1187.000000	68.155281
1186.000000	68.156083
1185.000000	68.166165
1184.000000	68.159864
1183.000000	68.201452
1182.000000	68.233760
1181.000000	68.266069
1180.000000	68.313615
1179.000000	68.362536
1178.000000	68.404583
1177.000000	68.451327
1176.000000	68.509642
1175.000000	68.549627
1174.000000	68.612754
1173.000000	68.674278
1172.000000	68.739696
1171.000000	68.787242
1170.000000	68.871680
1169.000000	68.948212
1168.000000	69.037346
1167.000000	69.130834
1166.000000	69.242195
1165.000000	69.304979
1164.000000	69.404768
1163.000000	69.504558
1162.000000	69.617408
1161.000000	69.707230
1160.000000	69.810342
1159.000000	69.910246
1158.000000	70.010036
1157.000000	70.081870
1156.000000	70.136978
1155.000000	70.190940
1154.000000	70.256931
1153.000000	70.313872
1152.000000	70.369323
1151.000000	70.406444
1150.000000	70.445168
1149.000000	70.478622
1148.000000	70.514368
1147.000000	70.550915
1146.000000	70.587119
1145.000000	70.619313
1144.000000	70.625499
1143.000000	70.651850
1142.000000	70.713717
1141.000000	70.772377
1140.000000	70.821985
1139.000000	70.861282
1138.000000	70.956832
1137.000000	71.043790
1136.000000	71.104512
1135.000000	71.154807
1134.000000	71.179554
1133.000000	71.199146
1132.000000	71.268689
1131.000000	71.316808
1130.000000	71.395173
1129.000000	71.405828
1128.000000	71.430345
1127.000000	71.459446
1126.000000	71.474913
1125.000000	71.494046
1124.000000	71.503784
1123.000000	71.491296
1122.000000	71.490609
1121.000000	71.468268
1120.000000	71.455436
1119.000000	71.437792
1118.000000	71.431377
1117.000000	71.431491
1116.000000	71.384632
1115.000000	71.370655
1114.000000	71.372488
1113.000000	71.343502
1112.000000	71.324598
1111.000000	71.307757
1110.000000	71.297675
1109.000000	71.273959
1108.000000	71.243369
1107.000000	71.231225
1106.000000	71.207280
1105.000000	71.191584
1104.000000	71.154120
1103.000000	71.147131
1102.000000	71.122155
1101.000000	71.085722
1100.000000	71.062236
1099.000000	71.042759
1098.000000	71.031302
1097.000000	71.022022
1096.000000	70.987537
1095.000000	70.971841
1094.000000	70.935294
1093.000000	70.916733
1092.000000	70.867812
1091.000000	70.836879
1090.000000	70.818548
1089.000000	70.787041
1088.000000	70.756795
1087.000000	70.731476
1086.000000	70.704896
1085.000000	70.678659
1084.000000	70.640279
1083.000000	70.594795
1082.000000	70.540833
1081.000000	70.518721
1080.000000	70.501536
1079.000000	70.459145
1078.000000	70.422713
1077.000000	70.400944
1076.000000	70.359929
1075.000000	70.311008
1074.000000	70.272513
1073.000000	70.241121
1072.000000	70.190596
1071.000000	70.157371
1070.000000	70.130333
1069.000000	70.097222
1068.000000	70.056780
1067.000000	70.015649
1066.000000	69.992736
1065.000000	69.967072
1064.000000	69.928463
1063.000000	69.892030
1062.000000	69.865679
1061.000000	69.839786
1060.000000	69.801406
1059.000000	69.775513
1058.000000	69.753058
1057.000000	69.707803
1056.000000	69.688899
1055.000000	69.679046
1054.000000	69.651550
1053.000000	69.628063
1052.000000	69.603545
1051.000000	69.591287
1050.000000	69.583840
1049.000000	69.570550
1048.000000	69.544199
1047.000000	69.539845
1046.000000	69.527586
1045.000000	69.509828
1044.000000	69.519223
1043.000000	69.520941
1042.000000	69.502954
1041.000000	69.493559
1040.000000	69.490924
1039.000000	69.483706
1038.000000	69.491382
1037.000000	69.498142
1036.000000	69.512692
1035.000000	69.527472
1034.000000	69.523003
1033.000000	69.526097
1032.000000	69.544084
1031.000000	69.560468
1030.000000	69.565509
1029.000000	69.561384
1028.000000	69.584412
1027.000000	69.614773
1026.000000	69.627376
1025.000000	69.656476
1024.000000	69.672630
1023.000000	69.687410
1022.000000	69.698867
1021.000000	69.748360
1020.000000	69.803124
1019.000000	69.837610
1018.000000	69.876219
1017.000000	69.903601
1016.000000	69.931671
1015.000000	69.967760
1014.000000	70.025502
1013.000000	70.067893
1012.000000	70.113491
1011.000000	70.167224
1010.000000	70.205948
1009.000000	70.251203
1008.000000	70.306883
1007.000000	70.341598
1006.000000	70.379864
1005.000000	70.428670
1004.000000	70.471748
1003.000000	70.517690
1002.000000	70.552977
1001.000000	70.599721
1000.000000	70.645320
999.000000	70.703177
998.000000	70.738235
997.000000	70.781771
996.000000	70.842149
995.000000	70.904131
994.000000	70.967144
993.000000	71.019387
992.000000	71.081483
991.000000	71.138539
990.000000	71.224122
989.000000	71.297789
988.000000	71.377300
987.000000	71.471819
986.000000	71.575619
985.000000	71.666586
984.000000	71.777947
983.000000	71.878768
982.000000	71.968590
981.000000	72.091064
980.000000	72.216860
979.000000	72.339105
978.000000	72.438895
977.000000	72.552433
976.000000	72.673646
975.000000	72.797724
974.000000	72.935436
973.000000	73.056879
972.000000	73.162512
971.000000	73.301255
970.000000	73.441143
969.000000	73.546203
968.000000	73.684029
967.000000	73.816929
966.000000	73.924051
965.000000	74.068980
964.000000	74.158459
963.000000	74.261685
962.000000	74.393095
961.000000	74.479824
960.000000	74.572052
959.000000	74.684100
958.000000	74.783432
957.000000	74.873368
956.000000	74.953681
955.000000	75.049346
954.000000	75.136876
953.000000	75.255226
952.000000	75.355130
951.000000	75.423986
950.000000	75.531108
949.000000	75.624710
948.000000	75.738592
947.000000	75.875616
946.000000	75.989841
945.000000	76.115065
944.000000	76.253235
943.000000	76.368720
942.000000	76.505287
941.000000	76.621345
940.000000	76.787240
939.000000	76.924723
938.000000	77.048572
937.000000	77.165661
936.000000	77.314715
935.000000	77.462165
934.000000	77.579713
933.000000	77.682596
932.000000	77.815496
931.000000	77.971538
930.000000	78.090003
929.000000	78.235849
928.000000	78.365541
927.000000	78.525479
926.000000	78.631340
925.000000	78.764126
924.000000	78.915013
923.000000	79.041840
922.000000	79.141286
921.000000	79.335480
920.000000	79.456809
919.000000	79.582376
918.000000	79.676896
917.000000	79.803380
916.000000	79.944643
915.000000	80.052108
914.000000	80.159230
913.000000	80.286058
912.000000	80.399137
911.000000	80.492053
910.000000	80.641336
909.000000	80.725200
908.000000	80.844123
907.000000	80.963389
906.000000	81.073260
905.000000	81.142116
904.000000	81.262184
903.000000	81.282463
902.000000	81.357620
901.000000	81.431746
900.000000	81.502321
899.000000	81.585727
898.000000	81.615400
897.000000	81.682538
896.000000	81.624337
895.000000	81.650229
894.000000	81.659967
893.000000	81.642324
892.000000	81.536233
891.000000	81.498884
890.000000	81.475283
889.000000	81.320500
888.000000	81.296555
887.000000	81.201348
886.000000	81.017007
885.000000	80.880556
884.000000	80.643055
883.000000	80.512331
882.000000	80.251802
881.000000	80.106643
880.000000	79.847030
879.000000	79.655586
878.000000	79.344073
877.000000	78.933344
876.000000	78.666742
875.000000	78.180512
874.000000	77.673430
873.000000	77.151111
872.000000	76.803738
871.000000	76.767764
870.000000	76.879239
869.000000	77.016836
868.000000	77.110668
867.000000	77.219279
866.000000	77.308987
865.000000	77.409464
864.000000	77.481642
863.000000	77.576276
862.000000	77.659338
861.000000	77.725101
860.000000	77.803237
859.000000	77.872207
858.000000	79.921500
857.000000	79.808900
856.000000	79.808800
855.000000	80.146800
854.000000	79.944700
853.000000	80.403500
852.000000	80.472500
851.000000	80.637400
850.000000	80.916500
849.000000	80.777100
848.000000	81.187300
847.000000	81.447000
846.000000	81.472500
845.000000	82.160900
844.000000	82.106100
843.000000	82.603800
842.000000	82.798400
841.000000	83.078400
840.000000	83.277300
839.000000	83.844200
838.000000	84.049500
837.000000	84.147400
836.000000	84.594300
835.000000	84.829000
834.000000	84.957500
833.000000	84.990400
832.000000	85.166800
831.000000	85.488200
830.000000	86.038400
829.000000	86.093500
828.000000	85.961700
827.000000	86.065800
826.000000	86.290300
825.000000	86.137400
824.000000	85.981900
823.000000	86.177000
822.000000	85.844100
821.000000	85.795200
820.000000	85.805500
819.000000	85.740400
818.000000	85.673300
817.000000	85.277600
816.000000	85.213300
815.000000	85.187700
814.000000	84.873500
813.000000	84.808300
812.000000	84.564700
811.000000	84.543300
810.000000	84.446300
809.000000	84.337500
808.000000	84.187200
807.000000	83.966000
806.000000	83.779500
805.000000	83.887600
804.000000	83.795600
803.000000	83.565700
802.000000	83.314200
801.000000	83.482800
800.000000	83.432500
799.000000	83.409200
798.000000	83.545800
797.000000	83.522600
796.000000	83.467700
795.000000	83.531200
794.000000	83.407800
793.000000	83.355700
792.000000	83.408400
791.000000	83.458900
790.000000	83.394200
789.000000	83.397800
788.000000	83.284800
787.000000	83.130900
786.000000	83.055400
785.000000	82.980800
784.000000	82.751000
783.000000	82.672000
782.000000	82.608700
781.000000	82.458700
780.000000	82.342700
779.000000	82.160400
778.000000	82.031100
777.000000	81.800300
776.000000	81.667900
775.000000	81.558900
774.000000	81.282900
773.000000	81.098700
772.000000	81.011400
771.000000	80.938700
770.000000	80.822100
769.000000	80.659600
768.000000	80.474300
767.000000	80.276600
766.000000	80.114600
765.000000	80.008600
764.000000	79.951600
763.000000	80.019900
762.000000	79.901600
761.000000	79.682600
760.000000	79.366700
759.000000	79.195000
758.000000	79.102000
757.000000	78.992600
756.000000	78.857600
755.000000	78.780800
754.000000	78.725900
753.000000	78.625900
752.000000	78.342300
751.000000	78.174900
750.000000	78.142800
749.000000	77.966500
748.000000	77.737500
747.000000	77.637200
746.000000	77.529000
745.000000	77.324100
744.000000	77.246600
743.000000	77.143700
742.000000	76.983100
741.000000	76.839400
740.000000	76.752500
739.000000	76.729800
738.000000	76.603000
737.000000	76.510400
736.000000	76.434900
735.000000	76.336900
734.000000	76.285400
733.000000	76.330800
732.000000	76.299800
731.000000	76.183700
730.000000	76.211200
729.000000	76.172600
728.000000	76.017600
727.000000	75.932900
726.000000	75.841400
725.000000	75.753600
724.000000	75.685700
723.000000	75.607000
722.000000	75.427300
721.000000	75.269100
720.000000	75.125100
719.000000	74.956300
718.000000	74.801300
717.000000	74.585500
716.000000	74.314300
715.000000	74.011000
714.000000	73.746900
713.000000	73.413800
712.000000	73.104800
711.000000	72.764700
710.000000	72.368200
709.000000	71.974500
708.000000	71.536200
707.000000	71.121100
706.000000	70.745100
705.000000	70.291000
704.000000	69.812900
703.000000	69.339300
702.000000	68.785500
701.000000	68.291500
700.000000	67.842900
699.000000	67.328000
698.000000	66.821400
697.000000	66.325700
696.000000	65.835100
695.000000	65.281700
694.000000	64.840500
693.000000	64.335300
692.000000	63.882600
691.000000	63.382200
690.000000	62.861400
689.000000	62.369500
688.000000	61.955900
687.000000	61.489900
686.000000	60.978400
685.000000	60.498700
684.000000	60.059100
683.000000	59.597800
682.000000	59.217100
681.000000	58.789700
680.000000	58.359700
679.000000	58.004900
678.000000	57.677800
677.000000	57.309100
676.000000	56.933700
675.000000	56.600300
674.000000	56.354800
673.000000	56.059500
672.000000	55.820500
671.000000	55.576400
670.000000	55.324100
669.000000	55.128400
668.000000	54.934700
667.000000	54.711200
666.000000	54.571400
665.000000	54.476400
664.000000	54.364300
663.000000	54.250400
662.000000	54.134400
661.000000	54.094800
660.000000	54.096500
659.000000	54.169600
658.000000	54.192200
657.000000	54.229800
656.000000	54.300300
655.000000	54.421700
654.000000	54.512700
653.000000	54.656700
652.000000	54.807400
651.000000	54.887900
650.000000	55.081900
649.000000	55.253500
648.000000	55.468700
647.000000	55.654200
646.000000	55.858100
645.000000	56.081300
644.000000	56.263100
643.000000	56.498600
642.000000	56.714000
641.000000	56.944500
640.000000	57.143700
639.000000	57.351600
638.000000	57.536000
637.000000	57.779700
636.000000	57.972600
635.000000	58.195200
634.000000	58.419000
633.000000	58.632200
632.000000	58.891900
631.000000	59.130100
630.000000	59.332900
629.000000	59.543200
628.000000	59.808400
627.000000	59.948800
626.000000	60.170200
625.000000	60.353400
624.000000	60.532200
623.000000	60.697000
622.000000	60.867100
621.000000	61.013700
620.000000	61.182000
619.000000	61.355400
618.000000	61.526300
617.000000	61.742600
616.000000	62.040000
615.000000	62.233600
614.000000	62.499500
613.000000	62.679600
612.000000	62.923600
611.000000	63.198500
610.000000	63.459600
609.000000	63.687100
608.000000	63.975700
607.000000	64.248200
606.000000	64.495600
605.000000	64.719100
604.000000	64.939000
603.000000	65.164100
602.000000	65.344600
601.000000	65.504500
600.000000	65.719600
599.000000	65.893700
598.000000	66.060100
597.000000	66.245900
596.000000	66.391200
595.000000	66.532400
594.000000	66.682400
593.000000	66.803900
592.000000	67.003500
591.000000	67.120200
590.000000	67.224600
589.000000	67.355100
588.000000	67.482000
587.000000	67.616600
586.000000	67.647300
585.000000	67.726500
584.000000	67.778200
583.000000	67.826900
582.000000	67.832700
581.000000	67.816600
580.000000	67.833500
579.000000	67.800100
578.000000	67.822700
577.000000	67.789300
576.000000	67.706300
575.000000	67.686200
574.000000	67.579000
573.000000	67.554100
572.000000	67.449100
571.000000	67.355900
570.000000	67.246900
569.000000	67.139600
568.000000	67.037100
567.000000	66.911400
566.000000	66.821500
565.000000	66.639000
564.000000	66.526500
563.000000	66.400000
562.000000	66.245500
561.000000	66.052500
560.000000	65.898100
559.000000	65.572200
558.000000	65.346000
557.000000	65.098200
556.000000	64.845900
555.000000	64.568100
554.000000	64.306300
553.000000	63.997000
552.000000	63.700900
551.000000	63.390000
550.000000	63.099200
549.000000	62.802200
548.000000	62.440600
547.000000	62.107500
546.000000	61.795600
545.000000	61.459400
544.000000	61.130600
543.000000	60.779800
542.000000	60.382100
541.000000	60.034400
540.000000	59.633000
539.000000	59.187800
538.000000	58.767300
537.000000	58.327800
536.000000	57.815800
535.000000	57.324700
534.000000	56.792500
533.000000	56.254600
532.000000	55.697000
531.000000	55.124900
530.000000	54.551200
529.000000	53.975900
528.000000	53.396100
527.000000	52.800000
526.000000	52.190300
525.000000	51.607000
524.000000	50.970700
523.000000	50.356400
522.000000	49.717000
521.000000	49.082000
520.000000	48.453300
519.000000	47.824800
518.000000	47.196300
517.000000	46.577200
516.000000	45.965600
515.000000	45.344100
514.000000	44.762600
513.000000	44.146200
512.000000	43.531100
511.000000	42.947100
510.000000	42.316200
509.000000	41.733000
508.000000	41.132600
507.000000	40.533200
506.000000	39.923300
505.000000	39.278000
504.000000	38.622800
503.000000	37.962700
502.000000	37.303800
501.000000	36.646000
500.000000	35.983800
499.000000	35.348200
498.000000	34.718600
497.000000	34.085800
496.000000	33.474300
495.000000	32.853800
494.000000	32.280700
493.000000	31.735100
492.000000	31.214200
491.000000	30.733600
490.000000	30.234900
489.000000	29.801800
488.000000	29.392300
487.000000	29.006700
486.000000	28.677600
485.000000	28.372900
484.000000	28.089300
483.000000	27.812000
482.000000	27.541500
481.000000	27.294900
480.000000	27.029800
479.000000	26.757100
478.000000	26.479000
477.000000	26.196100
476.000000	25.924300
475.000000	25.649700
474.000000	25.361300
473.000000	25.035500
472.000000	24.717700
471.000000	24.415200
470.000000	24.074900
469.000000	23.729400
468.000000	23.401800
467.000000	23.053900
466.000000	22.696900
465.000000	22.336500
464.000000	21.974600
463.000000	21.624400
462.000000	21.275500
461.000000	20.933000
460.000000	20.607400
459.000000	20.301400
458.000000	20.012100
457.000000	19.753600
456.000000	19.517200
455.000000	19.310200
454.000000	19.120400
453.000000	18.932800
452.000000	18.801200
451.000000	18.706000
450.000000	18.602400
449.000000	18.523800
448.000000	18.502300
447.000000	18.508700
446.000000	18.473200
445.000000	18.418200
444.000000	18.409800
443.000000	18.409300
442.000000	18.408100
441.000000	18.414600
440.000000	18.395500
439.000000	18.376700
438.000000	18.330600
437.000000	18.269000
436.000000	18.259200
435.000000	18.217600
434.000000	18.117500
433.000000	18.029000
432.000000	17.937200
431.000000	17.846300
430.000000	17.724800
429.000000	17.581500
428.000000	17.446300
427.000000	17.298700
426.000000	17.140400
425.000000	16.957900
424.000000	16.794600
423.000000	16.621100
422.000000	16.446600
421.000000	16.251900
420.000000	16.012400
419.000000	15.804700
418.000000	15.592100
417.000000	15.369600
416.000000	15.134500
415.000000	14.872700
414.000000	14.621600
413.000000	14.382000
412.000000	14.126500
411.000000	13.839500
410.000000	13.576100
409.000000	13.320800
408.000000	13.057700
407.000000	12.796300
406.000000	12.560000
405.000000	12.302700
404.000000	12.018600
403.000000	11.704100
402.000000	11.403700
401.000000	11.139400
400.000000	10.888200
399.000000	10.610600
398.000000	10.338000
397.000000	10.105800
396.000000	9.874200
395.000000	9.606800
394.000000	9.373600
393.000000	9.142400
392.000000	8.917400
391.000000	8.711300
390.000000	8.506500
389.000000	8.321900
388.000000	8.133500
387.000000	7.974200
386.000000	7.838200
385.000000	7.673800
384.000000	7.542000
383.000000	7.400000
382.000000	7.284200
381.000000	7.186600
380.000000	7.102400
379.000000	7.011200
378.000000	6.920700
377.000000	6.815800
376.000000	6.359400
375.000000	6.116700
374.000000	5.819600
373.000000	5.575000
372.000000	5.708100
371.000000	5.986400
370.000000	5.980900
369.000000	6.082300
368.000000	6.161700
367.000000	6.299800
366.000000	6.109000
365.000000	6.193600
364.000000	5.984500
363.000000	6.117400
362.000000	6.246500
361.000000	6.021900
360.000000	6.060800
359.000000	5.856800
358.000000	6.044500
357.000000	6.354500
356.000000	6.317100
355.000000	5.943400
354.000000	6.053400
353.000000	6.289400
352.000000	6.238600
351.000000	6.398000
350.000000	6.205800
349.000000	6.056600
348.000000	5.957900
347.000000	6.045000
346.000000	6.006000
345.000000	5.943900
344.000000	6.198200
343.000000	6.451700
342.000000	6.385500
341.000000	6.504000
340.000000	6.153900
339.000000	6.289500
338.000000	6.324900
337.000000	6.684000
336.000000	6.504100
335.000000	6.726800
334.000000	6.363800
333.000000	6.527700
332.000000	6.384900
331.000000	6.955600
330.000000	7.010600
329.000000	6.362000
328.000000	6.923000
327.000000	6.944300
326.000000	6.828200
325.000000	7.242600
324.000000	7.314300
323.000000	7.434500
322.000000	7.119600
321.000000	7.330500
320.000000	7.995800
319.000000	6.699500
318.000000	6.704700
317.000000	8.144600
316.000000	6.094800
315.000000	5.845600
314.000000	5.824700
313.000000	5.885400
312.000000	5.890000
311.000000	5.793700
310.000000	5.865200
309.000000	5.880600
308.000000	5.842100
307.000000	5.821200
306.000000	5.871300
305.000000	5.954600
304.000000	5.918200
303.000000	5.950400
302.000000	5.890400
301.000000	5.948600
300.000000	5.923500
299.000000	5.900400
298.000000	5.862700
297.000000	5.949700
296.000000	5.969700
295.000000	5.907400
294.000000	6.024700
293.000000	6.024800
292.000000	5.876200
291.000000	5.977600
290.000000	6.051300
289.000000	5.942900
288.000000	6.016200
287.000000	6.063600
286.000000	6.009800
285.000000	6.029600
284.000000	5.978400
283.000000	6.044700
282.000000	6.081900
281.000000	5.982600
280.000000	6.013200
279.000000	6.080000
278.000000	6.034500
277.000000	6.032000
276.000000	6.037800
275.000000	6.007300
274.000000	6.046600
273.000000	6.118200
272.000000	6.036300
271.000000	6.131400
270.000000	6.148600
269.000000	6.142800
268.000000	6.160400
267.000000	6.174200
266.000000	6.250200
265.000000	6.259100
264.000000	6.242400
263.000000	6.293100
262.000000	6.390200
261.000000	6.419100
260.000000	6.460400
259.000000	6.546500
258.000000	6.489500
257.000000	6.563100
256.000000	6.513000
255.000000	6.629400
254.000000	6.580000
253.000000	6.563600
252.000000	6.591800
251.000000	6.671900
250.000000	6.747500
