PE UV       SUBTECH     SPECTRUM    ASCII       PEDS        4.00        
   -1
CICIMAUCR0104-1.Sample.ASC
24/04/19
14:56:09.00
24/04/19
14:56:09.00
Vinicio Soto Monge
C. resplendens
250,000000
1
Lambda 1050
1050L1511233
PerkinElmer UV WinLab 6.3.2.0749 / 2.02.05 Lambda 900 UV/VIS/NIR, Aug  7 2015 09:38:08

0
0
3350/servo 860,8/2
0
0
UV/VIS
1
1
1
DoubleDePol,CommonBeamDepol,RBeamAtt,SBeamAtt,60mm sphere, WB InGaAs Detector
0
0
0
0
Program
Program
3350/servo 860,8/2
3350/0,2 860,8/0,2
3350/0,2 860,8/0,2
0
15.00
 
 
 
0
 
860,8
319,2
860,8
Front
100
on
S:100 R:100
0
0
0
0
 
0
 
 
 
0
 
 
0
0
0
0
0
 
 
 
 
0
0


0
0
#HDR
-1
-1
#GR
nm
%R
1.0
0.0
2500,000000
-1,000000
2251
8
97,476600
6,046400
#DATA
2482.000000	7.843092
2481.000000	7.757150
2480.000000	7.690545
2479.000000	7.756935
2478.000000	7.761662
2477.000000	7.751349
2476.000000	7.724599
2475.000000	7.702899
2474.000000	7.721269
2473.000000	7.729111
2472.000000	7.694519
2471.000000	7.756290
2470.000000	7.754572
2469.000000	7.733731
2468.000000	7.721806
2467.000000	7.726103
2466.000000	7.699354
2465.000000	7.764885
2464.000000	7.776917
2463.000000	7.798080
2462.000000	7.793998
2461.000000	7.865115
2460.000000	7.872635
2459.000000	7.926456
2458.000000	7.934298
2457.000000	7.952024
2456.000000	7.985004
2455.000000	8.060741
2454.000000	8.119934
2453.000000	8.129280
2452.000000	8.190406
2451.000000	8.248310
2450.000000	8.288810
2449.000000	8.379479
2448.000000	8.406659
2447.000000	8.442754
2446.000000	8.496039
2445.000000	8.554372
2444.000000	8.596376
2443.000000	8.658792
2442.000000	8.725505
2441.000000	8.755155
2440.000000	8.801563
2439.000000	8.845824
2438.000000	8.891266
2437.000000	8.932625
2436.000000	8.996545
2435.000000	9.035756
2434.000000	9.060250
2433.000000	9.112245
2432.000000	9.156290
2431.000000	9.181321
2430.000000	9.213334
2429.000000	9.229878
2428.000000	9.255339
2427.000000	9.286600
2426.000000	9.301210
2425.000000	9.332579
2424.000000	9.392309
2423.000000	9.438718
2422.000000	9.500167
2421.000000	9.540345
2420.000000	9.561078
2419.000000	9.575688
2418.000000	9.598463
2417.000000	9.604049
2416.000000	9.635418
2415.000000	9.666465
2414.000000	9.681612
2413.000000	9.702990
2412.000000	9.714056
2411.000000	9.733930
2410.000000	9.772604
2409.000000	9.774967
2408.000000	9.783991
2407.000000	9.820194
2406.000000	9.842002
2405.000000	9.865207
2404.000000	9.884758
2403.000000	9.902484
2402.000000	9.933960
2401.000000	9.948141
2400.000000	9.968767
2399.000000	10.008086
2398.000000	10.033009
2397.000000	10.064593
2396.000000	10.088334
2395.000000	10.105630
2394.000000	10.131305
2393.000000	10.162782
2392.000000	10.193613
2391.000000	10.194151
2390.000000	10.216925
2389.000000	10.237337
2388.000000	10.240667
2387.000000	10.251839
2386.000000	10.258607
2385.000000	10.254310
2384.000000	10.266020
2383.000000	10.283638
2382.000000	10.280200
2381.000000	10.269458
2380.000000	10.254203
2379.000000	10.248294
2378.000000	10.233469
2377.000000	10.219181
2376.000000	10.200489
2375.000000	10.188887
2374.000000	10.172772
2373.000000	10.142478
2372.000000	10.113902
2371.000000	10.087690
2370.000000	10.070716
2369.000000	10.036661
2368.000000	10.000028
2367.000000	9.964577
2366.000000	9.903451
2365.000000	9.838672
2364.000000	9.779372
2363.000000	9.713733
2362.000000	9.637674
2361.000000	9.569995
2360.000000	9.526916
2359.000000	9.477177
2358.000000	9.420992
2357.000000	9.368245
2356.000000	9.329894
2355.000000	9.300029
2354.000000	9.280047
2353.000000	9.280906
2352.000000	9.285741
2351.000000	9.283162
2350.000000	9.307226
2349.000000	9.359544
2348.000000	9.397251
2347.000000	9.436462
2346.000000	9.495332
2345.000000	9.546683
2344.000000	9.586539
2343.000000	9.652714
2342.000000	9.709436
2341.000000	9.741772
2340.000000	9.767877
2339.000000	9.798172
2338.000000	9.806229
2337.000000	9.820409
2336.000000	9.804510
2335.000000	9.792478
2334.000000	9.784528
2333.000000	9.769381
2332.000000	9.741342
2331.000000	9.700627
2330.000000	9.652714
2329.000000	9.602868
2328.000000	9.549798
2327.000000	9.474169
2326.000000	9.406382
2325.000000	9.337414
2324.000000	9.273924
2323.000000	9.197542
2322.000000	9.101287
2321.000000	9.020931
2320.000000	8.932303
2319.000000	8.841956
2318.000000	8.757948
2317.000000	8.659329
2316.000000	8.554265
2315.000000	8.462414
2314.000000	8.374860
2313.000000	8.302239
2312.000000	8.230692
2311.000000	8.154740
2310.000000	8.103390
2309.000000	8.073740
2308.000000	8.063427
2307.000000	8.046990
2306.000000	8.055584
2305.000000	8.080937
2304.000000	8.128206
2303.000000	8.187076
2302.000000	8.233700
2301.000000	8.326195
2300.000000	8.409452
2299.000000	8.506996
2298.000000	8.590038
2297.000000	8.676303
2296.000000	8.749998
2295.000000	8.840023
2294.000000	8.913611
2293.000000	8.981075
2292.000000	9.016419
2291.000000	9.063473
2290.000000	9.075934
2289.000000	9.084314
2288.000000	9.078620
2287.000000	9.086892
2286.000000	9.063902
2285.000000	9.045962
2284.000000	9.017601
2283.000000	8.967862
2282.000000	8.941542
2281.000000	8.897389
2280.000000	8.850873
2279.000000	8.817892
2278.000000	8.772021
2277.000000	8.756981
2276.000000	8.735495
2275.000000	8.710894
2274.000000	8.689731
2273.000000	8.700366
2272.000000	8.700904
2271.000000	8.720670
2270.000000	8.738503
2269.000000	8.774277
2268.000000	8.832503
2267.000000	8.919197
2266.000000	9.009544
2265.000000	9.138242
2264.000000	9.283055
2263.000000	9.412076
2262.000000	9.565268
2261.000000	9.737045
2260.000000	9.952116
2259.000000	10.153328
2258.000000	10.363242
2257.000000	10.593567
2256.000000	10.856228
2255.000000	11.040575
2254.000000	11.257257
2253.000000	11.479632
2252.000000	11.674399
2251.000000	11.890973
2250.000000	12.074030
2249.000000	12.260310
2248.000000	12.438318
2247.000000	12.609881
2246.000000	12.767585
2245.000000	12.893490
2244.000000	13.046467
2243.000000	13.164423
2242.000000	13.318582
2241.000000	13.402591
2240.000000	13.515605
2239.000000	13.612934
2238.000000	13.714561
2237.000000	13.812858
2236.000000	13.892784
2235.000000	13.980552
2234.000000	14.079601
2233.000000	14.123754
2232.000000	14.169088
2231.000000	14.237842
2230.000000	14.291771
2229.000000	14.334635
2228.000000	14.370730
2227.000000	14.416602
2226.000000	14.425733
2225.000000	14.456350
2224.000000	14.450979
2223.000000	14.476332
2222.000000	14.485463
2221.000000	14.472035
2220.000000	14.480737
2219.000000	14.494058
2218.000000	14.462474
2217.000000	14.456350
2216.000000	14.447434
2215.000000	14.428419
2214.000000	14.439807
2213.000000	14.413916
2212.000000	14.403174
2211.000000	14.417676
2210.000000	14.396083
2209.000000	14.367293
2208.000000	14.365789
2207.000000	14.360632
2206.000000	14.349030
2205.000000	14.351823
2204.000000	14.333775
2203.000000	14.320347
2202.000000	14.327759
2201.000000	14.300258
2200.000000	14.307993
2199.000000	14.298217
2198.000000	14.297250
2197.000000	14.302406
2196.000000	14.289408
2195.000000	14.262873
2194.000000	14.265666
2193.000000	14.269104
2192.000000	14.252452
2191.000000	14.236338
2190.000000	14.245470
2189.000000	14.217431
2188.000000	14.210770
2187.000000	14.201209
2186.000000	14.173493
2185.000000	14.155015
2184.000000	14.144165
2183.000000	14.138257
2182.000000	14.103450
2181.000000	14.102376
2180.000000	14.089914
2179.000000	14.094319
2178.000000	14.058653
2177.000000	14.049306
2176.000000	14.048769
2175.000000	14.040390
2174.000000	14.053174
2173.000000	14.046513
2172.000000	14.052314
2171.000000	14.045331
2170.000000	14.038456
2169.000000	14.058545
2168.000000	14.074874
2167.000000	14.085939
2166.000000	14.078312
2165.000000	14.100227
2164.000000	14.118812
2163.000000	14.136430
2162.000000	14.126869
2161.000000	14.153404
2160.000000	14.178542
2159.000000	14.192722
2158.000000	14.209803
2157.000000	14.213563
2156.000000	14.243106
2155.000000	14.279417
2154.000000	14.286077
2153.000000	14.307885
2152.000000	14.316802
2151.000000	14.343229
2150.000000	14.358269
2149.000000	14.369119
2148.000000	14.401777
2147.000000	14.419073
2146.000000	14.453987
2145.000000	14.462366
2144.000000	14.457640
2143.000000	14.473002
2142.000000	14.490835
2141.000000	14.509312
2140.000000	14.517799
2139.000000	14.527575
2138.000000	14.533484
2137.000000	14.538962
2136.000000	14.548738
2135.000000	14.560878
2134.000000	14.572480
2133.000000	14.565819
2132.000000	14.560985
2131.000000	14.555936
2130.000000	14.559481
2129.000000	14.557440
2128.000000	14.541004
2127.000000	14.528005
2126.000000	14.508345
2125.000000	14.498032
2124.000000	14.497603
2123.000000	14.484067
2122.000000	14.460003
2121.000000	14.434113
2120.000000	14.407363
2119.000000	14.372557
2118.000000	14.351179
2117.000000	14.335494
2116.000000	14.312290
2115.000000	14.282317
2114.000000	14.250948
2113.000000	14.220546
2112.000000	14.196160
2111.000000	14.178435
2110.000000	14.154371
2109.000000	14.123217
2108.000000	14.101301
2107.000000	14.078097
2106.000000	14.045224
2105.000000	14.017400
2104.000000	13.996881
2103.000000	13.980123
2102.000000	13.954340
2101.000000	13.924153
2100.000000	13.907609
2099.000000	13.894180
2098.000000	13.877314
2097.000000	13.848416
2096.000000	13.824352
2095.000000	13.803834
2094.000000	13.777621
2093.000000	13.770853
2092.000000	13.770531
2091.000000	13.753772
2090.000000	13.734220
2089.000000	13.736799
2088.000000	13.731212
2087.000000	13.708223
2086.000000	13.704678
2085.000000	13.708115
2084.000000	13.696621
2083.000000	13.682118
2082.000000	13.663318
2081.000000	13.654402
2080.000000	13.660632
2079.000000	13.671053
2078.000000	13.659021
2077.000000	13.644411
2076.000000	13.630982
2075.000000	13.633883
2074.000000	13.638395
2073.000000	13.633023
2072.000000	13.621529
2071.000000	13.624537
2070.000000	13.622710
2069.000000	13.616157
2068.000000	13.619810
2067.000000	13.627759
2066.000000	13.637858
2065.000000	13.645270
2064.000000	13.654939
2063.000000	13.663640
2062.000000	13.659665
2061.000000	13.679003
2060.000000	13.686737
2059.000000	13.705107
2058.000000	13.740559
2057.000000	13.792339
2056.000000	13.842508
2055.000000	13.876455
2054.000000	13.928450
2053.000000	13.986676
2052.000000	14.054785
2051.000000	14.151255
2050.000000	14.236660
2049.000000	14.309711
2048.000000	14.398769
2047.000000	14.501470
2046.000000	14.612228
2045.000000	14.707302
2044.000000	14.816986
2043.000000	14.922695
2042.000000	15.048385
2041.000000	15.173216
2040.000000	15.289024
2039.000000	15.406120
2038.000000	15.519456
2037.000000	15.618075
2036.000000	15.710141
2035.000000	15.805752
2034.000000	15.897495
2033.000000	15.986660
2032.000000	16.067446
2031.000000	16.151347
2030.000000	16.231166
2029.000000	16.313456
2028.000000	16.382317
2027.000000	16.438394
2026.000000	16.512519
2025.000000	16.568274
2024.000000	16.640359
2023.000000	16.687197
2022.000000	16.748538
2021.000000	16.802682
2020.000000	16.838348
2019.000000	16.881856
2018.000000	16.938256
2017.000000	16.983053
2016.000000	17.003357
2015.000000	17.053096
2014.000000	17.061905
2013.000000	17.093274
2012.000000	17.121743
2011.000000	17.143551
2010.000000	17.160094
2009.000000	17.175564
2008.000000	17.171589
2007.000000	17.162780
2006.000000	17.170945
2005.000000	17.149781
2004.000000	17.146236
2003.000000	17.128725
2002.000000	17.088118
2001.000000	17.089514
2000.000000	17.083928
1999.000000	17.029462
1998.000000	16.993796
1997.000000	16.950932
1996.000000	16.919134
1995.000000	16.876915
1994.000000	16.840497
1993.000000	16.794088
1992.000000	16.727590
1991.000000	16.676132
1990.000000	16.631872
1989.000000	16.553235
1988.000000	16.489852
1987.000000	16.417016
1986.000000	16.361691
1985.000000	16.288532
1984.000000	16.236430
1983.000000	16.177022
1982.000000	16.089254
1981.000000	16.022648
1980.000000	15.954754
1979.000000	15.870423
1978.000000	15.811982
1977.000000	15.741617
1976.000000	15.671359
1975.000000	15.606151
1974.000000	15.530844
1973.000000	15.472510
1972.000000	15.402575
1971.000000	15.322971
1970.000000	15.256258
1969.000000	15.226178
1968.000000	15.135509
1967.000000	15.080291
1966.000000	15.032808
1965.000000	14.937520
1964.000000	14.887351
1963.000000	14.832885
1962.000000	14.769395
1961.000000	14.707302
1960.000000	14.647357
1959.000000	14.589131
1958.000000	14.553143
1957.000000	14.475258
1956.000000	14.435832
1955.000000	14.372449
1954.000000	14.312505
1953.000000	14.238057
1952.000000	14.220869
1951.000000	14.147173
1950.000000	14.120638
1949.000000	14.066280
1948.000000	14.033729
1947.000000	13.999030
1946.000000	13.970562
1945.000000	13.931136
1944.000000	13.928557
1943.000000	13.896329
1942.000000	13.891817
1941.000000	13.898478
1940.000000	13.884405
1939.000000	13.912443
1938.000000	13.897940
1937.000000	13.902345
1936.000000	13.920178
1935.000000	13.971958
1934.000000	14.016863
1933.000000	14.048877
1932.000000	14.109144
1931.000000	14.195730
1930.000000	14.237842
1929.000000	14.317016
1928.000000	14.415528
1927.000000	14.498784
1926.000000	14.604708
1925.000000	14.725779
1924.000000	14.833315
1923.000000	14.948048
1922.000000	15.096620
1921.000000	15.251102
1920.000000	15.385601
1919.000000	15.523109
1918.000000	15.699183
1917.000000	15.852912
1916.000000	16.028020
1915.000000	16.209680
1914.000000	16.405736
1913.000000	16.607915
1912.000000	16.808161
1911.000000	16.984772
1910.000000	17.200058
1909.000000	17.393320
1908.000000	17.623431
1907.000000	17.867077
1906.000000	18.111905
1905.000000	18.343520
1904.000000	18.582439
1903.000000	18.815128
1902.000000	19.082838
1901.000000	19.370422
1900.000000	19.649950
1899.000000	19.890158
1898.000000	20.154431
1897.000000	20.419563
1896.000000	20.674167
1895.000000	20.958528
1894.000000	21.235799
1893.000000	21.538961
1892.000000	21.830090
1891.000000	22.101775
1890.000000	22.369163
1889.000000	22.642782
1888.000000	22.976453
1887.000000	23.309694
1886.000000	23.712226
1885.000000	24.145698
1884.000000	24.631486
1883.000000	25.137364
1882.000000	25.640986
1881.000000	26.184678
1880.000000	26.727833
1879.000000	27.254552
1878.000000	27.759570
1877.000000	28.241384
1876.000000	28.693226
1875.000000	29.118103
1874.000000	29.490985
1873.000000	29.829490
1872.000000	30.144254
1871.000000	30.405196
1870.000000	30.602541
1869.000000	30.808695
1868.000000	30.960276
1867.000000	31.048904
1866.000000	31.149241
1865.000000	31.245496
1864.000000	31.325638
1863.000000	31.404597
1862.000000	31.482482
1861.000000	31.533081
1860.000000	31.550269
1859.000000	31.543179
1858.000000	31.516322
1857.000000	31.505257
1856.000000	31.478722
1855.000000	31.410935
1854.000000	31.320589
1853.000000	31.214450
1852.000000	31.124425
1851.000000	31.100361
1850.000000	31.098213
1849.000000	31.055886
1848.000000	30.900761
1847.000000	30.736718
1846.000000	30.609309
1845.000000	30.527126
1844.000000	30.517028
1843.000000	30.533357
1842.000000	30.497799
1841.000000	30.413575
1840.000000	30.338268
1839.000000	30.279828
1838.000000	30.236212
1837.000000	30.156930
1836.000000	30.050254
1835.000000	29.936166
1834.000000	29.826804
1833.000000	29.730656
1832.000000	29.643747
1831.000000	29.554260
1830.000000	29.427602
1829.000000	29.304168
1828.000000	29.188576
1827.000000	29.075024
1826.000000	28.963084
1825.000000	28.864573
1824.000000	28.807207
1823.000000	28.808711
1822.000000	28.799902
1821.000000	28.722124
1820.000000	28.637148
1819.000000	28.575485
1818.000000	28.547016
1817.000000	28.544223
1816.000000	28.521019
1815.000000	28.486857
1814.000000	28.474073
1813.000000	28.473858
1812.000000	28.437870
1811.000000	28.367827
1810.000000	28.301221
1809.000000	28.259539
1808.000000	28.219791
1807.000000	28.158020
1806.000000	28.072293
1805.000000	27.990755
1804.000000	27.937363
1803.000000	27.882145
1802.000000	27.816937
1801.000000	27.733895
1800.000000	27.631301
1799.000000	27.564804
1798.000000	27.517750
1797.000000	27.461351
1796.000000	27.392274
1795.000000	27.317934
1794.000000	27.256378
1793.000000	27.180856
1792.000000	27.110706
1791.000000	27.045068
1790.000000	26.948490
1789.000000	26.868993
1788.000000	26.775746
1787.000000	26.674764
1786.000000	26.583450
1785.000000	26.481609
1784.000000	26.376759
1783.000000	26.275347
1782.000000	26.175869
1781.000000	26.072953
1780.000000	25.974764
1779.000000	25.857023
1778.000000	25.741860
1777.000000	25.618104
1776.000000	25.472646
1775.000000	25.323107
1774.000000	25.175501
1773.000000	25.017904
1772.000000	24.847094
1771.000000	24.703463
1770.000000	24.546726
1769.000000	24.389881
1768.000000	24.269777
1767.000000	24.137103
1766.000000	24.034510
1765.000000	23.969086
1764.000000	23.932883
1763.000000	23.945559
1762.000000	23.972631
1761.000000	24.023230
1760.000000	24.102082
1759.000000	24.205965
1758.000000	24.310277
1757.000000	24.404062
1756.000000	24.466047
1755.000000	24.520191
1754.000000	24.549089
1753.000000	24.554675
1752.000000	24.542966
1751.000000	24.502573
1750.000000	24.445206
1749.000000	24.386766
1748.000000	24.299534
1747.000000	24.191032
1746.000000	24.045145
1745.000000	23.904629
1744.000000	23.715879
1743.000000	23.461919
1742.000000	23.225041
1741.000000	22.956901
1740.000000	22.696496
1739.000000	22.424811
1738.000000	22.185891
1737.000000	22.005627
1736.000000	21.837073
1735.000000	21.755535
1734.000000	21.735554
1733.000000	21.785830
1732.000000	21.855766
1731.000000	21.976622
1730.000000	22.139053
1729.000000	22.298368
1728.000000	22.456824
1727.000000	22.599918
1726.000000	22.740434
1725.000000	22.850977
1724.000000	22.908129
1723.000000	22.949596
1722.000000	22.970329
1721.000000	22.986551
1720.000000	22.981395
1719.000000	22.976775
1718.000000	22.981287
1717.000000	23.015342
1716.000000	23.086781
1715.000000	23.135446
1714.000000	23.207100
1713.000000	23.233957
1712.000000	23.278003
1711.000000	23.299059
1710.000000	23.311091
1709.000000	23.290679
1708.000000	23.268549
1707.000000	23.251576
1706.000000	23.166922
1705.000000	23.105044
1704.000000	23.051223
1703.000000	22.948092
1702.000000	22.793181
1701.000000	22.621082
1700.000000	22.444578
1699.000000	22.221128
1698.000000	22.056011
1697.000000	21.920545
1696.000000	21.845990
1695.000000	21.849642
1694.000000	21.913562
1693.000000	22.070729
1692.000000	22.255397
1691.000000	22.483252
1690.000000	22.669746
1689.000000	22.785768
1688.000000	22.828095
1687.000000	22.838730
1686.000000	22.818641
1685.000000	22.830673
1684.000000	22.911137
1683.000000	23.148337
1682.000000	23.561827
1681.000000	24.094347
1680.000000	24.728494
1679.000000	25.415387
1678.000000	26.072201
1677.000000	26.707207
1676.000000	27.264006
1675.000000	27.725301
1674.000000	28.159309
1673.000000	28.482023
1672.000000	28.777771
1671.000000	29.018732
1670.000000	29.205334
1669.000000	29.401605
1668.000000	29.558450
1667.000000	29.691338
1666.000000	29.783941
1665.000000	29.877403
1664.000000	29.954214
1663.000000	30.005135
1662.000000	30.056592
1661.000000	30.092903
1660.000000	30.116967
1659.000000	30.122446
1658.000000	30.157575
1657.000000	30.163376
1656.000000	30.139742
1655.000000	30.110306
1654.000000	30.095696
1653.000000	30.079260
1652.000000	30.051221
1651.000000	30.000300
1650.000000	29.959693
1649.000000	29.913713
1648.000000	29.853769
1647.000000	29.771479
1646.000000	29.708526
1645.000000	29.643962
1644.000000	29.582943
1643.000000	29.491844
1642.000000	29.430288
1641.000000	29.335967
1640.000000	29.260122
1639.000000	29.196310
1638.000000	29.116599
1637.000000	29.031623
1636.000000	28.935905
1635.000000	28.853723
1634.000000	28.782176
1633.000000	28.693870
1632.000000	28.591492
1631.000000	28.513714
1630.000000	28.443778
1629.000000	28.346449
1628.000000	28.249334
1627.000000	28.152541
1626.000000	28.061980
1625.000000	27.967228
1624.000000	27.890417
1623.000000	27.799856
1622.000000	27.711980
1621.000000	27.624104
1620.000000	27.550193
1619.000000	27.467581
1618.000000	27.381961
1617.000000	27.299564
1616.000000	27.239512
1615.000000	27.157115
1614.000000	27.083527
1613.000000	27.024656
1612.000000	26.953539
1611.000000	26.889082
1610.000000	26.809156
1609.000000	26.736427
1608.000000	26.680887
1607.000000	26.626744
1606.000000	26.568625
1605.000000	26.491922
1604.000000	26.436596
1603.000000	26.384924
1602.000000	26.316922
1601.000000	26.261596
1600.000000	26.205519
1599.000000	26.152557
1598.000000	26.110983
1597.000000	26.047278
1596.000000	25.992705
1595.000000	25.964558
1594.000000	25.909878
1593.000000	25.864436
1592.000000	25.822754
1591.000000	25.789344
1590.000000	25.756578
1589.000000	25.717260
1588.000000	25.688576
1587.000000	25.668058
1586.000000	25.640019
1585.000000	25.607898
1584.000000	25.589635
1583.000000	25.585768
1582.000000	25.599304
1581.000000	25.588561
1580.000000	25.583727
1579.000000	25.563745
1578.000000	25.555151
1577.000000	25.559018
1576.000000	25.555903
1575.000000	25.557192
1574.000000	25.579107
1573.000000	25.601023
1572.000000	25.602956
1571.000000	25.617566
1570.000000	25.648828
1569.000000	25.665264
1568.000000	25.679015
1567.000000	25.690940
1566.000000	25.712425
1565.000000	25.734341
1564.000000	25.764635
1563.000000	25.794822
1562.000000	25.815019
1561.000000	25.828877
1560.000000	25.827051
1559.000000	25.849288
1558.000000	25.868088
1557.000000	25.869914
1556.000000	25.868625
1555.000000	25.867229
1554.000000	25.853478
1553.000000	25.844024
1552.000000	25.847247
1551.000000	25.832959
1550.000000	25.809325
1549.000000	25.811474
1548.000000	25.810077
1547.000000	25.797508
1546.000000	25.786443
1545.000000	25.787732
1544.000000	25.784294
1543.000000	25.771403
1542.000000	25.773874
1541.000000	25.772692
1540.000000	25.775163
1539.000000	25.771081
1538.000000	25.772585
1537.000000	25.780427
1536.000000	25.776452
1535.000000	25.770114
1534.000000	25.777419
1533.000000	25.782361
1532.000000	25.783650
1531.000000	25.755826
1530.000000	25.730688
1529.000000	25.725854
1528.000000	25.726713
1527.000000	25.705228
1526.000000	25.677941
1525.000000	25.661075
1524.000000	25.650869
1523.000000	25.637441
1522.000000	25.628632
1521.000000	25.606501
1520.000000	25.594792
1519.000000	25.583297
1518.000000	25.576422
1517.000000	25.571695
1516.000000	25.576314
1515.000000	25.550209
1514.000000	25.537640
1513.000000	25.531517
1512.000000	25.513254
1511.000000	25.502296
1510.000000	25.495421
1509.000000	25.483174
1508.000000	25.477481
1507.000000	25.484786
1506.000000	25.470927
1505.000000	25.458681
1504.000000	25.441707
1503.000000	25.447723
1502.000000	25.459110
1501.000000	25.446326
1500.000000	25.456532
1499.000000	25.464697
1498.000000	25.463193
1497.000000	25.467919
1496.000000	25.490050
1495.000000	25.510246
1494.000000	25.512072
1493.000000	25.535492
1492.000000	25.554829
1491.000000	25.588024
1490.000000	25.604138
1489.000000	25.621971
1488.000000	25.651943
1487.000000	25.679015
1486.000000	25.707376
1485.000000	25.724350
1484.000000	25.754967
1483.000000	25.799657
1482.000000	25.844024
1481.000000	25.872278
1480.000000	25.899994
1479.000000	25.935016
1478.000000	25.985185
1477.000000	26.010860
1476.000000	26.050823
1475.000000	26.101636
1474.000000	26.158895
1473.000000	26.198107
1472.000000	26.246664
1471.000000	26.262671
1470.000000	26.297800
1469.000000	26.323582
1468.000000	26.344960
1467.000000	26.410062
1466.000000	26.449595
1465.000000	26.460660
1464.000000	26.518994
1463.000000	26.594300
1462.000000	26.636734
1461.000000	26.713653
1460.000000	26.781977
1459.000000	26.865019
1458.000000	26.939574
1457.000000	27.048720
1456.000000	27.106624
1455.000000	27.231670
1454.000000	27.310200
1453.000000	27.438683
1452.000000	27.568134
1451.000000	27.681900
1450.000000	27.773858
1449.000000	27.866891
1448.000000	28.029429
1447.000000	28.142765
1446.000000	28.306056
1445.000000	28.423689
1444.000000	28.542075
1443.000000	28.671310
1442.000000	28.835997
1441.000000	29.001651
1440.000000	29.119070
1439.000000	29.282360
1438.000000	29.424702
1437.000000	29.549211
1436.000000	29.664051
1435.000000	29.830242
1434.000000	29.979244
1433.000000	30.138990
1432.000000	30.292504
1431.000000	30.464389
1430.000000	30.636703
1429.000000	30.854029
1428.000000	31.066629
1427.000000	31.291690
1426.000000	31.537378
1425.000000	31.811212
1424.000000	32.104275
1423.000000	32.317197
1422.000000	32.579213
1421.000000	32.863145
1420.000000	33.176834
1419.000000	33.464633
1418.000000	33.708495
1417.000000	33.926896
1416.000000	34.229305
1415.000000	34.548043
1414.000000	34.803614
1413.000000	35.024916
1412.000000	35.253415
1411.000000	35.611579
1410.000000	36.011748
1409.000000	36.358203
1408.000000	36.788666
1407.000000	37.193347
1406.000000	37.665492
1405.000000	38.140108
1404.000000	38.561440
1403.000000	39.050667
1402.000000	39.516689
1401.000000	40.078429
1400.000000	40.425421
1399.000000	40.719988
1398.000000	40.975344
1397.000000	41.302462
1396.000000	41.608739
1395.000000	41.801571
1394.000000	41.938327
1393.000000	42.126111
1392.000000	42.355899
1391.000000	42.550451
1390.000000	42.787329
1389.000000	43.111224
1388.000000	43.474116
1387.000000	43.802737
1386.000000	44.231267
1385.000000	44.716519
1384.000000	45.232602
1383.000000	45.664892
1382.000000	46.011561
1381.000000	46.211807
1380.000000	46.244572
1379.000000	46.427092
1378.000000	46.477583
1377.000000	46.565244
1376.000000	46.727461
1375.000000	46.954241
1374.000000	47.325189
1373.000000	47.772841
1372.000000	48.223716
1371.000000	48.661269
1370.000000	49.064661
1369.000000	49.448500
1368.000000	49.809780
1367.000000	50.100587
1366.000000	50.345738
1365.000000	50.574559
1364.000000	50.771904
1363.000000	50.986760
1362.000000	51.168850
1361.000000	51.251462
1360.000000	51.269832
1359.000000	51.338371
1358.000000	51.458368
1357.000000	51.684611
1356.000000	52.082953
1355.000000	52.635347
1354.000000	53.312143
1353.000000	53.979162
1352.000000	54.681955
1351.000000	55.360792
1350.000000	55.970230
1349.000000	56.530037
1348.000000	57.043542
1347.000000	57.493664
1346.000000	57.899742
1345.000000	58.349757
1344.000000	58.739075
1343.000000	59.095091
1342.000000	59.428655
1341.000000	59.766945
1340.000000	60.092022
1339.000000	60.393894
1338.000000	60.679759
1337.000000	60.966807
1336.000000	61.226889
1335.000000	61.461942
1334.000000	61.724388
1333.000000	61.961803
1332.000000	62.174511
1331.000000	62.384962
1330.000000	62.580051
1329.000000	62.759670
1328.000000	62.942405
1327.000000	63.111818
1326.000000	63.271027
1325.000000	63.425723
1324.000000	63.557537
1323.000000	63.686665
1322.000000	63.828040
1321.000000	63.965118
1320.000000	64.075231
1319.000000	64.178255
1318.000000	64.287724
1317.000000	64.401167
1316.000000	64.510744
1315.000000	64.602165
1314.000000	64.687140
1313.000000	64.763092
1312.000000	64.841299
1311.000000	64.920581
1310.000000	64.971717
1309.000000	65.028331
1308.000000	65.077318
1307.000000	65.108365
1306.000000	65.141023
1305.000000	65.169491
1304.000000	65.177226
1303.000000	65.183887
1302.000000	65.186358
1301.000000	65.181631
1300.000000	65.185606
1299.000000	65.171962
1298.000000	65.144783
1297.000000	65.131140
1296.000000	65.113629
1295.000000	65.095259
1294.000000	65.062816
1293.000000	65.025001
1292.000000	64.980956
1291.000000	64.935299
1290.000000	64.888890
1289.000000	64.823466
1288.000000	64.744399
1287.000000	64.656201
1286.000000	64.572945
1285.000000	64.492266
1284.000000	64.384624
1283.000000	64.294277
1282.000000	64.200277
1281.000000	64.098221
1280.000000	64.008519
1279.000000	63.905603
1278.000000	63.799894
1277.000000	63.720290
1276.000000	63.628869
1275.000000	63.554636
1274.000000	63.488246
1273.000000	63.405634
1272.000000	63.338599
1271.000000	63.265333
1270.000000	63.196472
1269.000000	63.124817
1268.000000	63.050907
1267.000000	62.976137
1266.000000	62.909424
1265.000000	62.837018
1264.000000	62.770735
1263.000000	62.704667
1262.000000	62.641284
1261.000000	62.568986
1260.000000	62.494323
1259.000000	62.426536
1258.000000	62.347684
1257.000000	62.288491
1256.000000	62.201475
1255.000000	62.112310
1254.000000	62.039366
1253.000000	61.957077
1252.000000	61.857813
1251.000000	61.769078
1250.000000	61.679376
1249.000000	61.572592
1248.000000	61.431325
1247.000000	61.308964
1246.000000	61.176613
1245.000000	61.022239
1244.000000	60.875815
1243.000000	60.714244
1242.000000	60.534947
1241.000000	60.345981
1240.000000	60.154652
1239.000000	59.979545
1238.000000	59.761251
1237.000000	59.579806
1236.000000	59.381279
1235.000000	59.157399
1234.000000	58.952857
1233.000000	58.730051
1232.000000	58.515196
1231.000000	58.277780
1230.000000	58.048637
1229.000000	57.817237
1228.000000	57.593572
1227.000000	57.335853
1226.000000	57.109288
1225.000000	56.876599
1224.000000	56.654760
1223.000000	56.420675
1222.000000	56.196903
1221.000000	55.964644
1220.000000	55.766654
1219.000000	55.565764
1218.000000	55.360470
1217.000000	55.177520
1216.000000	54.989414
1215.000000	54.835255
1214.000000	54.684963
1213.000000	54.521566
1212.000000	54.387281
1211.000000	54.239245
1210.000000	54.096903
1209.000000	53.982385
1208.000000	53.886130
1207.000000	53.785792
1206.000000	53.733690
1205.000000	53.678902
1204.000000	53.649574
1203.000000	53.621857
1202.000000	53.582861
1201.000000	53.537097
1200.000000	53.462005
1199.000000	53.346520
1198.000000	53.192468
1197.000000	52.972778
1196.000000	52.731710
1195.000000	52.378058
1194.000000	51.970262
1193.000000	51.455897
1192.000000	50.863218
1191.000000	50.261085
1190.000000	49.693436
1189.000000	49.244602
1188.000000	48.904271
1187.000000	48.748501
1186.000000	48.750542
1185.000000	48.910394
1184.000000	49.245569
1183.000000	49.735333
1182.000000	50.357125
1181.000000	50.991594
1180.000000	51.669893
1179.000000	52.258920
1178.000000	52.798101
1177.000000	53.275832
1176.000000	53.665581
1175.000000	54.061882
1174.000000	54.462588
1173.000000	54.864046
1172.000000	55.276354
1171.000000	55.738293
1170.000000	56.159948
1169.000000	56.620813
1168.000000	57.059119
1167.000000	57.509349
1166.000000	57.933152
1165.000000	58.429361
1164.000000	58.917728
1163.000000	59.347869
1162.000000	59.801000
1161.000000	60.231570
1160.000000	60.644523
1159.000000	61.021917
1158.000000	61.426598
1157.000000	61.742651
1156.000000	62.033887
1155.000000	62.229406
1154.000000	62.351122
1153.000000	62.424388
1152.000000	62.428148
1151.000000	62.411389
1150.000000	62.367881
1149.000000	62.327488
1148.000000	62.313844
1147.000000	62.365947
1146.000000	62.498943
1145.000000	62.704667
1144.000000	62.992144
1143.000000	63.358688
1142.000000	63.731462
1141.000000	64.092098
1140.000000	64.471425
1139.000000	64.880511
1138.000000	65.286373
1137.000000	65.716729
1136.000000	66.146548
1135.000000	66.543816
1134.000000	66.889304
1133.000000	67.138966
1132.000000	67.426228
1131.000000	67.681799
1130.000000	67.934254
1129.000000	68.113229
1128.000000	68.248481
1127.000000	68.347207
1126.000000	68.427993
1125.000000	68.509745
1124.000000	68.560451
1123.000000	68.601811
1122.000000	68.620933
1121.000000	68.646716
1120.000000	68.664227
1119.000000	68.678622
1118.000000	68.656384
1117.000000	68.642526
1116.000000	68.622330
1115.000000	68.601274
1114.000000	68.574310
1113.000000	68.534024
1112.000000	68.490408
1111.000000	68.474079
1110.000000	68.446900
1109.000000	68.408978
1108.000000	68.400491
1107.000000	68.377179
1106.000000	68.364610
1105.000000	68.337001
1104.000000	68.324003
1103.000000	68.291022
1102.000000	68.250307
1101.000000	68.227962
1100.000000	68.192726
1099.000000	68.158134
1098.000000	68.118708
1097.000000	68.081968
1096.000000	68.057367
1095.000000	68.011280
1094.000000	67.949724
1093.000000	67.900522
1092.000000	67.864964
1091.000000	67.808134
1090.000000	67.766452
1089.000000	67.716928
1088.000000	67.658917
1087.000000	67.593601
1086.000000	67.553745
1085.000000	67.494875
1084.000000	67.432996
1083.000000	67.357367
1082.000000	67.311066
1081.000000	67.263260
1080.000000	67.208042
1079.000000	67.144230
1078.000000	67.101259
1077.000000	67.050016
1076.000000	66.996409
1075.000000	66.934209
1074.000000	66.877272
1073.000000	66.820228
1072.000000	66.764795
1071.000000	66.710651
1070.000000	66.646947
1069.000000	66.584531
1068.000000	66.519322
1067.000000	66.457229
1066.000000	66.389764
1065.000000	66.324448
1064.000000	66.263107
1063.000000	66.190808
1062.000000	66.108411
1061.000000	66.023758
1060.000000	65.941468
1059.000000	65.866161
1058.000000	65.792358
1057.000000	65.708135
1056.000000	65.627456
1055.000000	65.554620
1054.000000	65.483933
1053.000000	65.404329
1052.000000	65.331385
1051.000000	65.265854
1050.000000	65.205050
1049.000000	65.144890
1048.000000	65.074525
1047.000000	65.015332
1046.000000	64.958503
1045.000000	64.908442
1044.000000	64.867512
1043.000000	64.821533
1042.000000	64.775446
1041.000000	64.749019
1040.000000	64.720228
1039.000000	64.683595
1038.000000	64.654590
1037.000000	64.627303
1036.000000	64.606462
1035.000000	64.575415
1034.000000	64.548988
1033.000000	64.520950
1032.000000	64.498282
1031.000000	64.478623
1030.000000	64.443494
1029.000000	64.404068
1028.000000	64.390425
1027.000000	64.366468
1026.000000	64.330695
1025.000000	64.305664
1024.000000	64.286649
1023.000000	64.269461
1022.000000	64.259900
1021.000000	64.270750
1020.000000	64.254528
1019.000000	64.246257
1018.000000	64.255710
1017.000000	64.251413
1016.000000	64.270535
1015.000000	64.292773
1014.000000	64.315547
1013.000000	64.362601
1012.000000	64.402886
1011.000000	64.463261
1010.000000	64.529866
1009.000000	64.603454
1008.000000	64.666514
1007.000000	64.734194
1006.000000	64.824970
1005.000000	64.900385
1004.000000	64.965486
1003.000000	65.022208
1002.000000	65.082582
1001.000000	65.146824
1000.000000	65.208380
999.000000	65.274663
998.000000	65.331707
997.000000	65.389933
996.000000	65.459224
995.000000	65.538828
994.000000	65.603930
993.000000	65.665916
992.000000	65.724893
991.000000	65.796011
990.000000	65.872822
989.000000	65.934378
988.000000	65.993678
987.000000	66.062861
986.000000	66.127640
985.000000	66.200799
984.000000	66.283733
983.000000	66.339810
982.000000	66.397284
981.000000	66.482689
980.000000	66.549402
979.000000	66.620412
978.000000	66.693678
977.000000	66.768555
976.000000	66.848159
975.000000	66.940010
974.000000	67.008978
973.000000	67.082889
972.000000	67.171624
971.000000	67.264227
970.000000	67.346946
969.000000	67.452978
968.000000	67.550844
967.000000	67.638506
966.000000	67.744967
965.000000	67.859270
964.000000	67.970028
963.000000	68.077993
962.000000	68.198527
961.000000	68.346885
960.000000	68.505556
959.000000	68.637907
958.000000	68.778422
957.000000	68.936879
956.000000	69.106077
955.000000	69.251964
954.000000	69.375292
953.000000	69.524939
952.000000	69.657719
951.000000	69.804358
950.000000	69.929834
949.000000	70.070887
948.000000	70.215055
947.000000	70.369214
946.000000	70.503284
945.000000	70.632949
944.000000	70.762400
943.000000	70.907213
942.000000	71.056645
941.000000	71.203606
940.000000	71.344874
939.000000	71.518262
938.000000	71.630739
937.000000	71.782320
936.000000	71.930893
935.000000	72.061095
934.000000	72.207197
933.000000	72.360067
932.000000	72.471470
931.000000	72.612200
930.000000	72.753360
929.000000	72.840914
928.000000	72.949094
927.000000	73.074140
926.000000	73.153959
925.000000	73.263105
924.000000	73.373004
923.000000	73.478391
922.000000	73.562936
921.000000	73.696899
920.000000	73.770487
919.000000	73.858685
918.000000	73.955478
917.000000	74.038412
916.000000	74.125858
915.000000	74.198372
914.000000	74.304618
913.000000	74.381537
912.000000	74.445671
911.000000	74.582104
910.000000	74.667832
909.000000	74.759360
908.000000	74.869689
907.000000	74.999999
906.000000	75.179833
905.000000	75.305846
904.000000	75.461724
903.000000	75.617494
902.000000	75.769504
901.000000	75.951165
900.000000	76.184820
899.000000	76.368630
898.000000	76.542877
897.000000	76.722604
896.000000	76.878375
895.000000	77.099998
894.000000	77.296376
893.000000	77.452362
892.000000	77.634989
891.000000	77.822343
890.000000	77.966941
889.000000	78.099937
888.000000	78.255277
887.000000	78.418568
886.000000	78.561554
885.000000	78.715391
884.000000	78.828727
883.000000	78.911447
882.000000	78.995133
881.000000	79.095471
880.000000	79.112766
879.000000	79.187107
878.000000	79.270041
877.000000	79.279387
876.000000	79.261124
875.000000	79.233730
874.000000	79.176149
873.000000	79.202684
872.000000	79.135219
871.000000	79.015437
870.000000	78.964194
869.000000	78.818736
868.000000	78.733009
867.000000	78.540069
866.000000	78.407073
865.000000	78.192647
864.000000	78.002392
863.000000	77.720394
862.000000	77.502638
861.000000	77.097098
860.000000	76.629894
859.000000	76.160327
858.000000	76.933700
857.000000	77.028500
856.000000	76.820100
855.000000	76.952500
854.000000	76.967700
853.000000	77.443500
852.000000	77.422700
851.000000	77.674400
850.000000	78.025000
849.000000	78.581200
848.000000	78.545100
847.000000	78.700700
846.000000	78.994800
845.000000	79.619500
844.000000	79.955900
843.000000	80.179400
842.000000	80.621300
841.000000	81.040500
840.000000	81.587700
839.000000	81.847900
838.000000	82.238900
837.000000	82.662600
836.000000	83.105100
835.000000	83.379200
834.000000	83.714000
833.000000	84.026800
832.000000	84.584100
831.000000	84.868100
830.000000	84.975400
829.000000	85.217600
828.000000	85.656800
827.000000	85.932600
826.000000	86.175600
825.000000	86.368000
824.000000	86.739900
823.000000	86.895900
822.000000	87.022400
821.000000	87.220600
820.000000	87.386400
819.000000	87.619100
818.000000	87.903900
817.000000	88.064400
816.000000	88.081900
815.000000	88.244200
814.000000	88.636000
813.000000	88.865500
812.000000	89.148000
811.000000	89.275500
810.000000	89.202500
809.000000	89.392600
808.000000	89.725700
807.000000	89.775300
806.000000	89.864700
805.000000	90.253400
804.000000	90.374500
803.000000	90.513300
802.000000	90.721000
801.000000	90.843900
800.000000	91.090200
799.000000	91.128600
798.000000	91.390000
797.000000	91.349600
796.000000	91.361200
795.000000	91.491300
794.000000	91.613700
793.000000	91.666900
792.000000	91.681400
791.000000	91.680000
790.000000	91.700700
789.000000	91.808200
788.000000	91.885900
787.000000	91.904600
786.000000	92.128100
785.000000	92.236000
784.000000	92.168500
783.000000	92.252500
782.000000	92.472600
781.000000	92.609800
780.000000	92.754000
779.000000	92.835600
778.000000	92.794600
777.000000	92.898500
776.000000	93.078300
775.000000	93.157000
774.000000	93.231300
773.000000	93.352600
772.000000	93.637800
771.000000	93.782000
770.000000	93.863300
769.000000	93.950200
768.000000	94.026500
767.000000	94.081000
766.000000	94.231300
765.000000	94.453900
764.000000	94.598900
763.000000	94.706900
762.000000	94.838500
761.000000	94.910800
760.000000	94.825300
759.000000	94.795700
758.000000	94.842600
757.000000	94.855600
756.000000	94.875700
755.000000	94.788000
754.000000	94.695400
753.000000	94.640400
752.000000	94.519300
751.000000	94.400500
750.000000	94.251700
749.000000	94.125500
748.000000	94.024300
747.000000	93.804000
746.000000	93.632600
745.000000	93.396200
744.000000	93.157100
743.000000	92.966300
742.000000	92.695600
741.000000	92.431500
740.000000	92.207700
739.000000	91.939600
738.000000	91.670600
737.000000	91.389800
736.000000	91.043000
735.000000	90.697700
734.000000	90.348300
733.000000	89.978500
732.000000	89.649900
731.000000	89.261900
730.000000	88.815700
729.000000	88.469100
728.000000	88.066600
727.000000	87.651700
726.000000	87.275700
725.000000	86.928100
724.000000	86.539700
723.000000	86.093500
722.000000	85.642700
721.000000	85.389200
720.000000	85.075200
719.000000	84.756300
718.000000	84.498600
717.000000	84.229300
716.000000	83.951100
715.000000	83.729600
714.000000	83.526200
713.000000	83.325100
712.000000	83.164900
711.000000	83.028700
710.000000	82.913900
709.000000	82.728400
708.000000	82.616500
707.000000	82.518000
706.000000	82.452600
705.000000	82.333900
704.000000	82.245800
703.000000	82.228000
702.000000	82.239600
701.000000	82.226900
700.000000	82.166900
699.000000	82.113300
698.000000	82.066200
697.000000	82.051100
696.000000	81.999100
695.000000	81.963200
694.000000	81.903500
693.000000	81.888500
692.000000	81.802500
691.000000	81.714300
690.000000	81.589300
689.000000	81.539700
688.000000	81.439000
687.000000	81.322500
686.000000	81.196500
685.000000	81.116900
684.000000	80.938700
683.000000	80.806400
682.000000	80.593600
681.000000	80.415700
680.000000	80.196000
679.000000	79.969900
678.000000	79.683300
677.000000	79.316100
676.000000	78.875700
675.000000	78.450700
674.000000	77.958400
673.000000	77.371900
672.000000	76.772200
671.000000	76.132100
670.000000	75.444700
669.000000	74.587600
668.000000	73.717200
667.000000	72.899400
666.000000	71.949600
665.000000	71.016500
664.000000	70.009700
663.000000	68.956900
662.000000	67.914700
661.000000	66.820200
660.000000	65.775100
659.000000	64.758600
658.000000	63.764100
657.000000	62.853500
656.000000	61.967100
655.000000	61.143600
654.000000	60.430600
653.000000	59.789800
652.000000	59.226500
651.000000	58.838800
650.000000	58.570200
649.000000	58.490200
648.000000	58.554000
647.000000	58.768900
646.000000	59.063100
645.000000	59.595000
644.000000	60.215600
643.000000	60.991400
642.000000	61.918100
641.000000	62.884000
640.000000	63.937100
639.000000	65.036900
638.000000	66.215300
637.000000	67.320900
636.000000	68.558900
635.000000	69.742900
634.000000	70.935200
633.000000	72.138700
632.000000	73.305200
631.000000	74.444400
630.000000	75.542900
629.000000	76.631400
628.000000	77.630500
627.000000	78.647100
626.000000	79.583300
625.000000	80.559200
624.000000	81.412200
623.000000	82.320000
622.000000	83.205300
621.000000	84.081200
620.000000	84.902500
619.000000	85.707600
618.000000	86.568200
617.000000	87.320700
616.000000	88.140000
615.000000	88.911500
614.000000	89.696000
613.000000	90.312800
612.000000	90.936500
611.000000	91.576900
610.000000	92.161900
609.000000	92.627000
608.000000	93.137800
607.000000	93.522200
606.000000	93.942500
605.000000	94.291700
604.000000	94.616900
603.000000	95.013200
602.000000	95.333000
601.000000	95.589500
600.000000	95.881200
599.000000	96.115400
598.000000	96.379800
597.000000	96.560600
596.000000	96.749700
595.000000	96.916600
594.000000	97.060600
593.000000	97.180200
592.000000	97.296400
591.000000	97.336700
590.000000	97.394200
589.000000	97.476600
588.000000	97.423300
587.000000	97.437900
586.000000	97.371200
585.000000	97.297600
584.000000	97.285700
583.000000	97.202400
582.000000	97.124900
581.000000	97.040100
580.000000	96.895700
579.000000	96.775000
578.000000	96.613100
577.000000	96.505600
576.000000	96.314000
575.000000	96.151900
574.000000	95.973400
573.000000	95.740000
572.000000	95.530700
571.000000	95.346900
570.000000	95.128200
569.000000	94.870900
568.000000	94.628300
567.000000	94.339400
566.000000	94.075800
565.000000	93.790100
564.000000	93.486400
563.000000	93.174400
562.000000	92.821500
561.000000	92.491900
560.000000	92.120300
559.000000	91.755200
558.000000	91.366300
557.000000	90.868000
556.000000	90.456000
555.000000	89.922700
554.000000	89.370400
553.000000	88.756100
552.000000	88.081800
551.000000	87.379100
550.000000	86.663600
549.000000	85.894900
548.000000	85.098000
547.000000	84.318300
546.000000	83.418500
545.000000	82.528400
544.000000	81.640600
543.000000	80.714200
542.000000	79.756200
541.000000	78.760200
540.000000	77.722800
539.000000	76.634300
538.000000	75.515300
537.000000	74.366300
536.000000	73.148900
535.000000	71.868700
534.000000	70.568300
533.000000	69.191300
532.000000	67.761600
531.000000	66.314700
530.000000	64.834700
529.000000	63.332200
528.000000	61.812500
527.000000	60.270200
526.000000	58.724800
525.000000	57.166000
524.000000	55.637600
523.000000	54.113700
522.000000	52.600000
521.000000	51.136000
520.000000	49.710500
519.000000	48.325000
518.000000	46.995700
517.000000	45.764100
516.000000	44.602100
515.000000	43.480900
514.000000	42.450200
513.000000	41.529100
512.000000	40.732700
511.000000	40.024200
510.000000	39.400700
509.000000	38.907600
508.000000	38.511000
507.000000	38.224000
506.000000	38.051900
505.000000	37.939900
504.000000	37.933900
503.000000	37.998500
502.000000	38.073900
501.000000	38.228700
500.000000	38.402700
499.000000	38.584200
498.000000	38.792300
497.000000	38.992500
496.000000	39.181000
495.000000	39.315900
494.000000	39.397000
493.000000	39.469700
492.000000	39.465800
491.000000	39.392100
490.000000	39.266600
489.000000	39.062100
488.000000	38.821200
487.000000	38.502600
486.000000	38.133100
485.000000	37.686500
484.000000	37.159000
483.000000	36.595500
482.000000	35.970800
481.000000	35.292400
480.000000	34.576000
479.000000	33.829700
478.000000	33.072000
477.000000	32.302900
476.000000	31.493800
475.000000	30.681700
474.000000	29.897000
473.000000	29.147200
472.000000	28.430200
471.000000	27.755500
470.000000	27.182500
469.000000	26.690000
468.000000	26.249800
467.000000	25.917100
466.000000	25.664300
465.000000	25.506600
464.000000	25.432400
463.000000	25.455200
462.000000	25.545100
461.000000	25.688500
460.000000	25.894900
459.000000	26.172600
458.000000	26.472100
457.000000	26.764900
456.000000	27.096800
455.000000	27.463300
454.000000	27.809900
453.000000	28.129600
452.000000	28.448300
451.000000	28.730000
450.000000	29.001900
449.000000	29.252600
448.000000	29.466000
447.000000	29.637600
446.000000	29.785100
445.000000	29.937500
444.000000	30.043900
443.000000	30.080100
442.000000	30.090300
441.000000	30.074900
440.000000	30.048000
439.000000	29.985500
438.000000	29.879500
437.000000	29.779300
436.000000	29.636500
435.000000	29.444100
434.000000	29.266100
433.000000	29.079800
432.000000	28.862900
431.000000	28.625000
430.000000	28.367800
429.000000	28.084200
428.000000	27.799600
427.000000	27.500600
426.000000	27.176100
425.000000	26.831200
424.000000	26.487000
423.000000	26.110400
422.000000	25.703300
421.000000	25.297800
420.000000	24.880900
419.000000	24.430400
418.000000	23.955800
417.000000	23.493500
416.000000	23.036400
415.000000	22.524200
414.000000	21.998600
413.000000	21.467900
412.000000	20.923500
411.000000	20.349500
410.000000	19.802100
409.000000	19.245500
408.000000	18.681200
407.000000	18.146400
406.000000	17.602600
405.000000	17.036700
404.000000	16.478100
403.000000	15.947400
402.000000	15.413800
401.000000	14.905900
400.000000	14.417900
399.000000	13.926000
398.000000	13.460500
397.000000	13.012900
396.000000	12.594400
395.000000	12.185400
394.000000	11.776200
393.000000	11.412600
392.000000	11.061300
391.000000	10.726600
390.000000	10.420000
389.000000	10.133900
388.000000	9.869300
387.000000	9.609000
386.000000	9.385800
385.000000	9.184800
384.000000	8.982000
383.000000	8.776400
382.000000	8.584900
381.000000	8.432100
380.000000	8.301500
379.000000	8.153400
378.000000	8.027600
377.000000	7.917700
376.000000	7.714800
375.000000	7.532200
374.000000	7.433400
373.000000	7.362100
372.000000	7.366700
371.000000	7.326400
370.000000	7.198400
369.000000	7.188300
368.000000	7.250100
367.000000	7.191500
366.000000	7.099100
365.000000	7.067800
364.000000	6.967500
363.000000	6.990400
362.000000	7.002700
361.000000	6.883800
360.000000	6.828300
359.000000	6.846900
358.000000	6.778400
357.000000	6.738400
356.000000	6.623800
355.000000	6.625700
354.000000	6.667100
353.000000	6.591100
352.000000	6.515900
351.000000	6.518200
350.000000	6.453300
349.000000	6.455700
348.000000	6.375700
347.000000	6.517200
346.000000	6.412600
345.000000	6.451700
344.000000	6.371500
343.000000	6.424400
342.000000	6.385200
341.000000	6.438700
340.000000	6.375400
339.000000	6.295300
338.000000	6.237600
337.000000	6.327600
336.000000	6.325800
335.000000	6.248400
334.000000	6.139200
333.000000	6.271800
332.000000	6.391100
331.000000	6.308100
330.000000	6.187100
329.000000	6.286500
328.000000	6.306500
327.000000	6.266400
326.000000	6.340600
325.000000	6.178900
324.000000	6.176200
323.000000	6.286000
322.000000	6.552700
321.000000	6.362100
320.000000	6.508100
319.000000	6.429300
318.000000	6.151100
317.000000	6.264100
316.000000	6.118700
315.000000	6.069600
314.000000	6.091900
313.000000	6.093200
312.000000	6.089700
311.000000	6.131800
310.000000	6.171500
309.000000	6.107500
308.000000	6.135100
307.000000	6.046400
306.000000	6.133700
305.000000	6.133100
304.000000	6.163600
303.000000	6.230200
302.000000	6.171600
301.000000	6.174200
300.000000	6.198000
299.000000	6.197900
298.000000	6.185500
297.000000	6.213100
296.000000	6.229700
295.000000	6.261100
294.000000	6.214200
293.000000	6.237600
292.000000	6.271200
291.000000	6.259300
290.000000	6.302100
289.000000	6.268700
288.000000	6.283000
287.000000	6.242600
286.000000	6.310100
285.000000	6.327200
284.000000	6.340400
283.000000	6.366100
282.000000	6.374500
281.000000	6.387700
280.000000	6.350000
279.000000	6.338100
278.000000	6.400900
277.000000	6.375700
276.000000	6.387400
275.000000	6.418900
274.000000	6.379600
273.000000	6.393200
272.000000	6.397900
271.000000	6.441800
270.000000	6.415200
269.000000	6.475400
268.000000	6.528100
267.000000	6.510400
266.000000	6.538800
265.000000	6.558900
264.000000	6.549400
263.000000	6.599300
262.000000	6.618600
261.000000	6.689300
260.000000	6.742500
259.000000	6.705200
258.000000	6.695500
257.000000	6.754200
256.000000	6.752800
255.000000	6.695900
254.000000	6.752500
253.000000	6.774200
252.000000	6.795400
251.000000	6.819400
250.000000	6.856000
