PE UV       SUBTECH     SPECTRUM    ASCII       PEDS        4.00        
   -1
INBUCR0225-4.Sample.ASC
24/02/08
11:12:46.00
24/02/08
11:12:46.00
Vinicio Soto Monge
C. chrysopedila Det: A. Solís COSTA RICA  Prov Puntarenas Coto Brus. Z. P  Las Tablas Estación Biol. Las Alturas. 1500 m. 15-24 Mar 1999. R. barton de luz L_S_322700_591400 #52438 INB0003120139 INBIOCRI Costa Rica. Sin élitros
250,000000
1
Lambda 1050
1050L1511233
PerkinElmer UV WinLab 6.3.2.0749 / 2.02.05 Lambda 900 UV/VIS/NIR, Aug  7 2015 09:38:08

0
0
3350/servo 860,8/2
0
0
UV/VIS
1
1
1
DoubleDePol,CommonBeamDepol,RBeamAtt,SBeamAtt,60mm sphere, WB InGaAs Detector
0
0
0
0
Program
Program
3350/servo 860,8/2
3350/0,2 860,8/0,2
3350/0,2 860,8/0,2
0
15.00
 
 
 
0
 
860,8
319,2
860,8
Front
100
on
S:100 R:100
0
0
0
0
 
0
 
 
 
0
 
 
0
0
0
0
0
 
 
 
 
0
0


0
0
#HDR
-1
-1
#GR
nm
%R
1.0
0.0
2500,000000
-1,000000
2251
8
13,302700
0,951000
#DATA

250.000000	3.226546
251.000000	3.221590
252.000000	3.237374
253.000000	3.237825
254.000000	3.188782
255.000000	3.184877
256.000000	3.144556
257.000000	3.125043
258.000000	3.140178
259.000000	3.098058
260.000000	3.056425
261.000000	3.025348
262.000000	3.008660
263.000000	2.988912
264.000000	2.922771
265.000000	2.888804
266.000000	2.863085
267.000000	2.854438
268.000000	2.814832
269.000000	2.810722
270.000000	2.792934
271.000000	2.756689
272.000000	2.732148
273.000000	2.735303
274.000000	2.709455
275.000000	2.694704
276.000000	2.689200
277.000000	2.685221
278.000000	2.645944
279.000000	2.683431
280.000000	2.633567
281.000000	2.626502
282.000000	2.660622
283.000000	2.629498
284.000000	2.616853
285.000000	2.653278
286.000000	2.624982
287.000000	2.634697
288.000000	2.641525
289.000000	2.643270
290.000000	2.656200
291.000000	2.705495
292.000000	2.715942
293.000000	2.703054
294.000000	2.717792
295.000000	2.712212
296.000000	2.727127
297.000000	2.751312
298.000000	2.778820
299.000000	2.802733
300.000000	2.791095
301.000000	2.769398
302.000000	2.814958
303.000000	2.803633
304.000000	2.825793
305.000000	2.796664
306.000000	2.810418
307.000000	2.801860
308.000000	2.837674
309.000000	2.814326
310.000000	2.877372
311.000000	2.849134
312.000000	2.842861
313.000000	2.897039
314.000000	2.842806
315.000000	2.884287
316.000000	2.856602
317.000000	3.252898
318.000000	3.262896
319.000000	3.178646
320.000000	3.042336
321.000000	3.114356
322.000000	3.185838
323.000000	3.158752
324.000000	3.154313
325.000000	3.086861
326.000000	3.038144
327.000000	2.988827
328.000000	3.155262
329.000000	3.169909
330.000000	3.066243
331.000000	3.138004
332.000000	3.076962
333.000000	3.040152
334.000000	3.082230
335.000000	3.004272
336.000000	3.057802
337.000000	3.016756
338.000000	3.104288
339.000000	3.150851
340.000000	3.112618
341.000000	3.122938
342.000000	3.123254
343.000000	3.070964
344.000000	3.023930
345.000000	3.067537
346.000000	3.099733
347.000000	3.099509
348.000000	3.135142
349.000000	3.113049
350.000000	3.111277
351.000000	3.117776
352.000000	3.161061
353.000000	3.130130
354.000000	3.174106
355.000000	3.139537
356.000000	3.174085
357.000000	3.181147
358.000000	3.188199
359.000000	3.228972
360.000000	3.191848
361.000000	3.195726
362.000000	3.254610
363.000000	3.246190
364.000000	3.283944
365.000000	3.280536
366.000000	3.252290
367.000000	3.255956
368.000000	3.267934
369.000000	3.277477
370.000000	3.291656
371.000000	3.272721
372.000000	3.238324
373.000000	3.250177
374.000000	3.263892
375.000000	3.320512
376.000000	3.433223
377.000000	3.335403
378.000000	3.331387
379.000000	3.343811
380.000000	3.350181
381.000000	3.347167
382.000000	3.353240
383.000000	3.352790
384.000000	3.364722
385.000000	3.367699
386.000000	3.372910
387.000000	3.376177
388.000000	3.374836
389.000000	3.384128
390.000000	3.395773
391.000000	3.388303
392.000000	3.397426
393.000000	3.399178
394.000000	3.403924
395.000000	3.405190
396.000000	3.408342
397.000000	3.418584
398.000000	3.418930
399.000000	3.417035
400.000000	3.419379
401.000000	3.427330
402.000000	3.429871
403.000000	3.437915
404.000000	3.435933
405.000000	3.438217
406.000000	3.445919
407.000000	3.449167
408.000000	3.450641
409.000000	3.458240
410.000000	3.462741
411.000000	3.470038
412.000000	3.479381
413.000000	3.473118
414.000000	3.482258
415.000000	3.485702
416.000000	3.494651
417.000000	3.500505
418.000000	3.497581
419.000000	3.506717
420.000000	3.517589
421.000000	3.514628
422.000000	3.517552
423.000000	3.528689
424.000000	3.536099
425.000000	3.532026
426.000000	3.536320
427.000000	3.549991
428.000000	3.559548
429.000000	3.561329
430.000000	3.562483
431.000000	3.572699
432.000000	3.577237
433.000000	3.578649
434.000000	3.589499
435.000000	3.595721
436.000000	3.598859
437.000000	3.609875
438.000000	3.615454
439.000000	3.617293
440.000000	3.622866
441.000000	3.633979
442.000000	3.643554
443.000000	3.655567
444.000000	3.665547
445.000000	3.666837
446.000000	3.671436
447.000000	3.671350
448.000000	3.671004
449.000000	3.678501
450.000000	3.686647
451.000000	3.690808
452.000000	3.691909
453.000000	3.697545
454.000000	3.704397
455.000000	3.712648
456.000000	3.719321
457.000000	3.722180
458.000000	3.728039
459.000000	3.731820
460.000000	3.741489
461.000000	3.746365
462.000000	3.750569
463.000000	3.762225
464.000000	3.765730
465.000000	3.773366
466.000000	3.779974
467.000000	3.782708
468.000000	3.789922
469.000000	3.795390
470.000000	3.804625
471.000000	3.817735
472.000000	3.828613
473.000000	3.840028
474.000000	3.851307
475.000000	3.861800
476.000000	3.871124
477.000000	3.880452
478.000000	3.894064
479.000000	3.913194
480.000000	3.935966
481.000000	3.956800
482.000000	3.976783
483.000000	3.995482
484.000000	4.006232
485.000000	4.013222
486.000000	4.015985
487.000000	4.022033
488.000000	4.031148
489.000000	4.035187
490.000000	4.033868
491.000000	4.034337
492.000000	4.042156
493.000000	4.048997
494.000000	4.058133
495.000000	4.060442
496.000000	4.064532
497.000000	4.072723
498.000000	4.079470
499.000000	4.083961
500.000000	4.091816
501.000000	4.098952
502.000000	4.105007
503.000000	4.117235
504.000000	4.125289
505.000000	4.135534
506.000000	4.147769
507.000000	4.159478
508.000000	4.172484
509.000000	4.185960
510.000000	4.200744
511.000000	4.214263
512.000000	4.232695
513.000000	4.251643
514.000000	4.272368
515.000000	4.294801
516.000000	4.318032
517.000000	4.337204
518.000000	4.360925
519.000000	4.386075
520.000000	4.411391
521.000000	4.435528
522.000000	4.458543
523.000000	4.484056
524.000000	4.507111
525.000000	4.532093
526.000000	4.557595
527.000000	4.578576
528.000000	4.598993
529.000000	4.623130
530.000000	4.644329
531.000000	4.670504
532.000000	4.691678
533.000000	4.710428
534.000000	4.734156
535.000000	4.754923
536.000000	4.770233
537.000000	4.788967
538.000000	4.812439
539.000000	4.832082
540.000000	4.849566
541.000000	4.872719
542.000000	4.892156
543.000000	4.912322
544.000000	4.936407
545.000000	4.944811
546.000000	4.964232
547.000000	4.983479
548.000000	5.007389
549.000000	5.019110
550.000000	5.044995
551.000000	5.057376
552.000000	5.078729
553.000000	5.094106
554.000000	5.111777
555.000000	5.131212
556.000000	5.151291
557.000000	5.168838
558.000000	5.188670
559.000000	5.199012
560.000000	5.246788
561.000000	5.273427
562.000000	5.292929
563.000000	5.309922
564.000000	5.329164
565.000000	5.350288
566.000000	5.373510
567.000000	5.396221
568.000000	5.412076
569.000000	5.428790
570.000000	5.458376
571.000000	5.474766
572.000000	5.494590
573.000000	5.512000
574.000000	5.532851
575.000000	5.551057
576.000000	5.573599
577.000000	5.588890
578.000000	5.612305
579.000000	5.632900
580.000000	5.649317
581.000000	5.671619
582.000000	5.691868
583.000000	5.707253
584.000000	5.727936
585.000000	5.745435
586.000000	5.771123
587.000000	5.794055
588.000000	5.817380
589.000000	5.835800
590.000000	5.843885
591.000000	5.878569
592.000000	5.894143
593.000000	5.907245
594.000000	5.940159
595.000000	5.968469
596.000000	5.974485
597.000000	6.000420
598.000000	6.022241
599.000000	6.046527
600.000000	6.074571
601.000000	6.083642
602.000000	6.103520
603.000000	6.124688
604.000000	6.155643
605.000000	6.168499
606.000000	6.195121
607.000000	6.214133
608.000000	6.244579
609.000000	6.261482
610.000000	6.285092
611.000000	6.302132
612.000000	6.331777
613.000000	6.355947
614.000000	6.362897
615.000000	6.391427
616.000000	6.417243
617.000000	6.435020
618.000000	6.462908
619.000000	6.487344
620.000000	6.501626
621.000000	6.526738
622.000000	6.548924
623.000000	6.563941
624.000000	6.591507
625.000000	6.628155
626.000000	6.655824
627.000000	6.668282
628.000000	6.702707
629.000000	6.731826
630.000000	6.766960
631.000000	6.785923
632.000000	6.821483
633.000000	6.840063
634.000000	6.883583
635.000000	6.909858
636.000000	6.952307
637.000000	6.977450
638.000000	7.009770
639.000000	7.042056
640.000000	7.073239
641.000000	7.116640
642.000000	7.153437
643.000000	7.192721
644.000000	7.225370
645.000000	7.266269
646.000000	7.306749
647.000000	7.345578
648.000000	7.381197
649.000000	7.424845
650.000000	7.467629
651.000000	7.494413
652.000000	7.547309
653.000000	7.581380
654.000000	7.628343
655.000000	7.673225
656.000000	7.697622
657.000000	7.743622
658.000000	7.781396
659.000000	7.824397
660.000000	7.858977
661.000000	7.905497
662.000000	7.941242
663.000000	7.989061
664.000000	8.022499
665.000000	8.065754
666.000000	8.104011
667.000000	8.139447
668.000000	8.178385
669.000000	8.229962
670.000000	8.264103
671.000000	8.301963
672.000000	8.342787
673.000000	8.376726
674.000000	8.413902
675.000000	8.449231
676.000000	8.481442
677.000000	8.528734
678.000000	8.565947
679.000000	8.595345
680.000000	8.627231
681.000000	8.675264
682.000000	8.703010
683.000000	8.751792
684.000000	8.799252
685.000000	8.832057
686.000000	8.876282
687.000000	8.902652
688.000000	8.932765
689.000000	8.975763
690.000000	9.017724
691.000000	9.050272
692.000000	9.086612
693.000000	9.124488
694.000000	9.155369
695.000000	9.218767
696.000000	9.259248
697.000000	9.306716
698.000000	9.336197
699.000000	9.375927
700.000000	9.412815
701.000000	9.450933
702.000000	9.490730
703.000000	9.532425
704.000000	9.578646
705.000000	9.616666
706.000000	9.641897
707.000000	9.690027
708.000000	9.738702
709.000000	9.787823
710.000000	9.832748
711.000000	9.866529
712.000000	9.903727
713.000000	9.945230
714.000000	9.989452
715.000000	10.029604
716.000000	10.095196
717.000000	10.122754
718.000000	10.136394
719.000000	10.190296
720.000000	10.231997
721.000000	10.291459
722.000000	10.338538
723.000000	10.383961
724.000000	10.432776
725.000000	10.479013
726.000000	10.506583
727.000000	10.559392
728.000000	10.609544
729.000000	10.658196
730.000000	10.705266
731.000000	10.761197
732.000000	10.819874
733.000000	10.854084
734.000000	10.891726
735.000000	10.930056
736.000000	10.988596
737.000000	11.025806
738.000000	11.048435
739.000000	11.116725
740.000000	11.187103
741.000000	11.213917
742.000000	11.254930
743.000000	11.306779
744.000000	11.360231
745.000000	11.403721
746.000000	11.437068
747.000000	11.502070
748.000000	11.553284
749.000000	11.591531
750.000000	11.653327
751.000000	11.724125
752.000000	11.762546
753.000000	11.800451
754.000000	11.847153
755.000000	11.891258
756.000000	11.957524
757.000000	12.027305
758.000000	12.068193
759.000000	12.119428
760.000000	12.176574
761.000000	12.191346
762.000000	12.230092
763.000000	12.273457
764.000000	12.348301
765.000000	12.416377
766.000000	12.458523
767.000000	12.519247
768.000000	12.557695
769.000000	12.563048
770.000000	12.625306
771.000000	12.708563
772.000000	12.760112
773.000000	12.809103
774.000000	12.871876
775.000000	12.918571
776.000000	12.963536
777.000000	13.002858
778.000000	13.052417
779.000000	13.078272
780.000000	13.119951
781.000000	13.182113
782.000000	13.233232
783.000000	13.286163
784.000000	13.360216
785.000000	13.413795
786.000000	13.449971
787.000000	13.484360
788.000000	13.547574
789.000000	13.624987
790.000000	13.678835
791.000000	13.749289
792.000000	13.797281
793.000000	13.836188
794.000000	13.877236
795.000000	13.943245
796.000000	13.960151
797.000000	14.000481
798.000000	14.060551
799.000000	14.113789
800.000000	14.210159
801.000000	14.228912
802.000000	14.270494
803.000000	14.336556
804.000000	14.375670
805.000000	14.467917
806.000000	14.491278
807.000000	14.525238
808.000000	14.578322
809.000000	14.635489
810.000000	14.693659
811.000000	14.722376
812.000000	14.798872
813.000000	14.826720
814.000000	14.845046
815.000000	14.923100
816.000000	14.984466
817.000000	15.022141
818.000000	15.119317
819.000000	15.149678
820.000000	15.259319
821.000000	15.292469
822.000000	15.334196
823.000000	15.377263
824.000000	15.402465
825.000000	15.465655
826.000000	15.544736
827.000000	15.570452
828.000000	15.635547
829.000000	15.729972
830.000000	15.751107
831.000000	15.775030
832.000000	15.925603
833.000000	15.883083
834.000000	15.908900
835.000000	15.914825
836.000000	16.003073
837.000000	16.060519
838.000000	16.097071
839.000000	16.144945
840.000000	16.084979
841.000000	16.269819
842.000000	16.315310
843.000000	16.372060
844.000000	16.374894
845.000000	16.425378
846.000000	16.527236
847.000000	16.482266
848.000000	16.448881
849.000000	16.448333
850.000000	16.509008
851.000000	16.598579
852.000000	16.742551
853.000000	16.624354
854.000000	17.015048
855.000000	16.713857
856.000000	16.926890
857.000000	17.147888
858.000000	16.900874
859.000000	17.474906
860.000000	17.509933
861.000000	17.541843
862.000000	17.571635
863.000000	17.581087
864.000000	17.613321
865.000000	17.631298
866.000000	17.655720
867.000000	17.703499
868.000000	17.720005
869.000000	17.742019
870.000000	17.754180
871.000000	17.781648
872.000000	17.818559
873.000000	17.842242
874.000000	17.844650
875.000000	17.880779
876.000000	17.911317
877.000000	17.907660
878.000000	17.924317
879.000000	17.952523
880.000000	17.984605
881.000000	17.991663
882.000000	18.020606
883.000000	18.028048
884.000000	18.037247
885.000000	18.045702
886.000000	18.064537
887.000000	18.078999
888.000000	18.093368
889.000000	18.119143
890.000000	18.122799
891.000000	18.130363
892.000000	18.158852
893.000000	18.163035
894.000000	18.166129
895.000000	18.169271
896.000000	18.190997
897.000000	18.196557
898.000000	18.211605
899.000000	18.207642
900.000000	18.212508
901.000000	18.227301
902.000000	18.247335
903.000000	18.256328
904.000000	18.252285
905.000000	18.255975
906.000000	18.269061
907.000000	18.271501
908.000000	18.286840
909.000000	18.286205
910.000000	18.293332
911.000000	18.298781
912.000000	18.319382
913.000000	18.315519
914.000000	18.320926
915.000000	18.327343
916.000000	18.339217
917.000000	18.360660
918.000000	18.358654
919.000000	18.371044
920.000000	18.378421
921.000000	18.369482
922.000000	18.380107
923.000000	18.389247
924.000000	18.394878
925.000000	18.399391
926.000000	18.428525
927.000000	18.449118
928.000000	18.450931
929.000000	18.452723
930.000000	18.468979
931.000000	18.480080
932.000000	18.487453
933.000000	18.484476
934.000000	18.472260
935.000000	18.479527
936.000000	18.467815
937.000000	18.477489
938.000000	18.480515
939.000000	18.483681
940.000000	18.496637
941.000000	18.517806
942.000000	18.512732
943.000000	18.513013
944.000000	18.521150
945.000000	18.525647
946.000000	18.530993
947.000000	18.551747
948.000000	18.557146
949.000000	18.562478
950.000000	18.570737
951.000000	18.583651
952.000000	18.586922
953.000000	18.600550
954.000000	18.617817
955.000000	18.620486
956.000000	18.631250
957.000000	18.622424
958.000000	18.638054
959.000000	18.644942
960.000000	18.647804
961.000000	18.658700
962.000000	18.657011
963.000000	18.647858
964.000000	18.659801
965.000000	18.683652
966.000000	18.693572
967.000000	18.692295
968.000000	18.701200
969.000000	18.726787
970.000000	18.739793
971.000000	18.737260
972.000000	18.743557
973.000000	18.750458
974.000000	18.753260
975.000000	18.768015
976.000000	18.776350
977.000000	18.777169
978.000000	18.782836
979.000000	18.800743
980.000000	18.802107
981.000000	18.807551
982.000000	18.817509
983.000000	18.809072
984.000000	18.816874
985.000000	18.824619
986.000000	18.836642
987.000000	18.853862
988.000000	18.873985
989.000000	18.871053
990.000000	18.868921
991.000000	18.871071
992.000000	18.878132
993.000000	18.895058
994.000000	18.903833
995.000000	18.916301
996.000000	18.927108
997.000000	18.950847
998.000000	18.966231
999.000000	18.969042
1000.000000	18.977998
1001.000000	18.978487
1002.000000	18.980666
1003.000000	19.002366
1004.000000	19.020860
1005.000000	19.023792
1006.000000	19.022321
1007.000000	19.030954
1008.000000	19.040167
1009.000000	19.043346
1010.000000	19.049761
1011.000000	19.063944
1012.000000	19.073901
1013.000000	19.085339
1014.000000	19.097844
1015.000000	19.108851
1016.000000	19.122260
1017.000000	19.134460
1018.000000	19.145550
1019.000000	19.159557
1020.000000	19.177397
1021.000000	19.192923
1022.000000	19.204786
1023.000000	19.220575
1024.000000	19.233180
1025.000000	19.242339
1026.000000	19.258284
1027.000000	19.275140
1028.000000	19.288780
1029.000000	19.295364
1030.000000	19.305527
1031.000000	19.317825
1032.000000	19.326550
1033.000000	19.341473
1034.000000	19.356770
1035.000000	19.375430
1036.000000	19.390885
1037.000000	19.403237
1038.000000	19.416494
1039.000000	19.435274
1040.000000	19.454499
1041.000000	19.464303
1042.000000	19.483267
1043.000000	19.495544
1044.000000	19.500013
1045.000000	19.512757
1046.000000	19.524837
1047.000000	19.537764
1048.000000	19.559390
1049.000000	19.581119
1050.000000	19.596617
1051.000000	19.607001
1052.000000	19.619308
1053.000000	19.639671
1054.000000	19.660507
1055.000000	19.673778
1056.000000	19.686188
1057.000000	19.698225
1058.000000	19.718359
1059.000000	19.738981
1060.000000	19.754613
1061.000000	19.776281
1062.000000	19.793766
1063.000000	19.810831
1064.000000	19.831136
1065.000000	19.840099
1066.000000	19.845347
1067.000000	19.861661
1068.000000	19.881544
1069.000000	19.901732
1070.000000	19.907617
1071.000000	19.919468
1072.000000	19.944062
1073.000000	19.962253
1074.000000	19.975954
1075.000000	19.993838
1076.000000	19.999104
1077.000000	20.009336
1078.000000	20.040319
1079.000000	20.054477
1080.000000	20.072836
1081.000000	20.082845
1082.000000	20.090063
1083.000000	20.107771
1084.000000	20.120642
1085.000000	20.142597
1086.000000	20.154453
1087.000000	20.160095
1088.000000	20.173066
1089.000000	20.189562
1090.000000	20.118274
1091.000000	20.089376
1092.000000	20.102584
1093.000000	20.113701
1094.000000	20.128252
1095.000000	20.148930
1096.000000	20.160543
1097.000000	20.159343
1098.000000	20.177788
1099.000000	20.206872
1100.000000	20.217172
1101.000000	20.221605
1102.000000	20.234542
1103.000000	20.251085
1104.000000	20.253398
1105.000000	20.273603
1106.000000	20.294040
1107.000000	20.297521
1108.000000	20.310865
1109.000000	20.319131
1110.000000	20.329578
1111.000000	20.349440
1112.000000	20.364613
1113.000000	20.370633
1114.000000	20.397424
1115.000000	20.395887
1116.000000	20.415714
1117.000000	20.417691
1118.000000	20.436005
1119.000000	20.447203
1120.000000	20.454953
1121.000000	20.463735
1122.000000	20.453142
1123.000000	20.450908
1124.000000	20.461988
1125.000000	20.458842
1126.000000	20.465135
1127.000000	20.458402
1128.000000	20.455047
1129.000000	20.432494
1130.000000	20.437657
1131.000000	20.450032
1132.000000	20.468827
1133.000000	20.462443
1134.000000	20.412205
1135.000000	20.389005
1136.000000	20.373724
1137.000000	20.363988
1138.000000	20.348474
1139.000000	20.355511
1140.000000	20.322046
1141.000000	20.332061
1142.000000	20.327245
1143.000000	20.314476
1144.000000	20.307243
1145.000000	20.295373
1146.000000	20.283867
1147.000000	20.283344
1148.000000	20.260692
1149.000000	20.263470
1150.000000	20.269313
1151.000000	20.256046
1152.000000	20.249672
1153.000000	20.229022
1154.000000	20.226889
1155.000000	20.227710
1156.000000	20.181459
1157.000000	20.189959
1158.000000	20.188500
1159.000000	20.157343
1160.000000	20.131175
1161.000000	20.117312
1162.000000	20.100587
1163.000000	20.093372
1164.000000	20.063585
1165.000000	20.036723
1166.000000	20.036625
1167.000000	19.987551
1168.000000	19.987602
1169.000000	19.958242
1170.000000	19.939189
1171.000000	19.921726
1172.000000	19.910506
1173.000000	19.909971
1174.000000	19.886496
1175.000000	19.877586
1176.000000	19.868901
1177.000000	19.858557
1178.000000	19.836812
1179.000000	19.814458
1180.000000	19.800097
1181.000000	19.802593
1182.000000	19.784927
1183.000000	19.768425
1184.000000	19.769966
1185.000000	19.775492
1186.000000	19.771971
1187.000000	19.784699
1188.000000	19.791845
1189.000000	19.815633
1190.000000	19.835482
1191.000000	19.862090
1192.000000	19.879772
1193.000000	19.902255
1194.000000	19.920690
1195.000000	19.943974
1196.000000	19.956286
1197.000000	19.994111
1198.000000	20.019035
1199.000000	20.038723
1200.000000	20.049687
1201.000000	20.065713
1202.000000	20.089127
1203.000000	20.111739
1204.000000	20.133032
1205.000000	20.140146
1206.000000	20.160936
1207.000000	20.191816
1208.000000	20.196769
1209.000000	20.210622
1210.000000	20.228473
1211.000000	20.243906
1212.000000	20.255675
1213.000000	20.262401
1214.000000	20.282826
1215.000000	20.296399
1216.000000	20.311707
1217.000000	20.327200
1218.000000	20.355961
1219.000000	20.364511
1220.000000	20.384322
1221.000000	20.396612
1222.000000	20.409371
1223.000000	20.425943
1224.000000	20.445456
1225.000000	20.458863
1226.000000	20.470585
1227.000000	20.474662
1228.000000	20.495907
1229.000000	20.517683
1230.000000	20.527709
1231.000000	20.532292
1232.000000	20.539426
1233.000000	20.547030
1234.000000	20.563841
1235.000000	20.573723
1236.000000	20.577458
1237.000000	20.574291
1238.000000	20.562947
1239.000000	20.571063
1240.000000	20.580554
1241.000000	20.593427
1242.000000	20.597222
1243.000000	20.601976
1244.000000	20.608968
1245.000000	20.637731
1246.000000	20.655159
1247.000000	20.657491
1248.000000	20.673719
1249.000000	20.679341
1250.000000	20.675854
1251.000000	20.686354
1252.000000	20.692976
1253.000000	20.703601
1254.000000	20.713471
1255.000000	20.715679
1256.000000	20.719727
1257.000000	20.719370
1258.000000	20.731855
1259.000000	20.737129
1260.000000	20.739612
1261.000000	20.735492
1262.000000	20.726829
1263.000000	20.738558
1264.000000	20.740467
1265.000000	20.741332
1266.000000	20.749797
1267.000000	20.753338
1268.000000	20.744746
1269.000000	20.743762
1270.000000	20.744389
1271.000000	20.745144
1272.000000	20.745371
1273.000000	20.751649
1274.000000	20.754725
1275.000000	20.754921
1276.000000	20.766217
1277.000000	20.771792
1278.000000	20.765305
1279.000000	20.772526
1280.000000	20.778622
1281.000000	20.780183
1282.000000	20.795937
1283.000000	20.806504
1284.000000	20.807911
1285.000000	20.808876
1286.000000	20.813055
1287.000000	20.820438
1288.000000	20.832250
1289.000000	20.835123
1290.000000	20.840596
1291.000000	20.838953
1292.000000	20.833473
1293.000000	20.839154
1294.000000	20.844016
1295.000000	20.841288
1296.000000	20.842009
1297.000000	20.847392
1298.000000	20.847048
1299.000000	20.832191
1300.000000	20.829583
1301.000000	20.835243
1302.000000	20.827903
1303.000000	20.824253
1304.000000	20.821634
1305.000000	20.818366
1306.000000	20.820969
1307.000000	20.816297
1308.000000	20.806871
1309.000000	20.810846
1310.000000	20.801847
1311.000000	20.790597
1312.000000	20.789135
1313.000000	20.784165
1314.000000	20.771520
1315.000000	20.752043
1316.000000	20.746444
1317.000000	20.748038
1318.000000	20.744872
1319.000000	20.746301
1320.000000	20.727726
1321.000000	20.713193
1322.000000	20.703531
1323.000000	20.694619
1324.000000	20.694093
1325.000000	20.675022
1326.000000	20.660603
1327.000000	20.649338
1328.000000	20.640506
1329.000000	20.620610
1330.000000	20.603344
1331.000000	20.580298
1332.000000	20.562119
1333.000000	20.543246
1334.000000	20.521003
1335.000000	20.486944
1336.000000	20.458126
1337.000000	20.426202
1338.000000	20.390863
1339.000000	20.365811
1340.000000	20.339402
1341.000000	20.304973
1342.000000	20.264216
1343.000000	20.239176
1344.000000	20.208646
1345.000000	20.164150
1346.000000	20.139956
1347.000000	20.096671
1348.000000	20.040228
1349.000000	20.015961
1350.000000	19.977636
1351.000000	19.942838
1352.000000	19.918959
1353.000000	19.905430
1354.000000	19.835090
1355.000000	19.781448
1356.000000	19.777376
1357.000000	19.774683
1358.000000	19.777364
1359.000000	19.817023
1360.000000	19.796563
1361.000000	19.691986
1362.000000	19.637904
1363.000000	19.638680
1364.000000	19.579884
1365.000000	19.514847
1366.000000	19.510871
1367.000000	19.448990
1368.000000	19.358665
1369.000000	19.301812
1370.000000	19.200618
1371.000000	19.022976
1372.000000	18.860774
1373.000000	18.721865
1374.000000	18.552997
1375.000000	18.360367
1376.000000	18.194646
1377.000000	18.023872
1378.000000	17.925601
1379.000000	17.763173
1380.000000	17.703045
1381.000000	17.560148
1382.000000	17.433621
1383.000000	17.339444
1384.000000	17.325842
1385.000000	17.296932
1386.000000	17.297153
1387.000000	17.285944
1388.000000	17.249998
1389.000000	17.277681
1390.000000	17.339546
1391.000000	17.360033
1392.000000	17.357442
1393.000000	17.406618
1394.000000	17.461472
1395.000000	17.368133
1396.000000	17.309894
1397.000000	17.349617
1398.000000	17.442124
1399.000000	17.430453
1400.000000	17.301450
1401.000000	17.236117
1402.000000	17.288817
1403.000000	17.269394
1404.000000	17.218934
1405.000000	17.160439
1406.000000	17.098559
1407.000000	17.051218
1408.000000	16.999850
1409.000000	16.912939
1410.000000	16.848741
1411.000000	16.811690
1412.000000	16.815647
1413.000000	16.763549
1414.000000	16.637321
1415.000000	16.592182
1416.000000	16.569254
1417.000000	16.556605
1418.000000	16.504877
1419.000000	16.429262
1420.000000	16.367046
1421.000000	16.352387
1422.000000	16.320180
1423.000000	16.286513
1424.000000	16.231322
1425.000000	16.203207
1426.000000	16.170195
1427.000000	16.163623
1428.000000	16.114459
1429.000000	16.080009
1430.000000	16.086821
1431.000000	16.053153
1432.000000	16.019310
1433.000000	16.003725
1434.000000	15.994224
1435.000000	15.956853
1436.000000	15.937775
1437.000000	15.925711
1438.000000	15.917851
1439.000000	15.885247
1440.000000	15.866314
1441.000000	15.850164
1442.000000	15.845000
1443.000000	15.842527
1444.000000	15.832447
1445.000000	15.823638
1446.000000	15.765368
1447.000000	15.765417
1448.000000	15.761351
1449.000000	15.771284
1450.000000	15.737159
1451.000000	15.717607
1452.000000	15.693254
1453.000000	15.678543
1454.000000	15.664824
1455.000000	15.654926
1456.000000	15.625500
1457.000000	15.601682
1458.000000	15.595927
1459.000000	15.588927
1460.000000	15.575794
1461.000000	15.557704
1462.000000	15.540321
1463.000000	15.535908
1464.000000	15.534436
1465.000000	15.514881
1466.000000	15.497587
1467.000000	15.487652
1468.000000	15.486497
1469.000000	15.478046
1470.000000	15.465894
1471.000000	15.441495
1472.000000	15.436056
1473.000000	15.421396
1474.000000	15.410795
1475.000000	15.414283
1476.000000	15.407744
1477.000000	15.392847
1478.000000	15.389632
1479.000000	15.371149
1480.000000	15.366661
1481.000000	15.344076
1482.000000	15.342261
1483.000000	15.328028
1484.000000	15.312027
1485.000000	15.295039
1486.000000	15.273690
1487.000000	15.263744
1488.000000	15.239659
1489.000000	15.230771
1490.000000	15.225479
1491.000000	15.218184
1492.000000	15.208028
1493.000000	15.204999
1494.000000	15.203722
1495.000000	15.211377
1496.000000	15.201753
1497.000000	15.209002
1498.000000	15.215827
1499.000000	15.210274
1500.000000	15.227812
1501.000000	15.243918
1502.000000	15.260502
1503.000000	15.272712
1504.000000	15.285875
1505.000000	15.307535
1506.000000	15.313975
1507.000000	15.330234
1508.000000	15.336336
1509.000000	15.348131
1510.000000	15.372757
1511.000000	15.374770
1512.000000	15.387372
1513.000000	15.412426
1514.000000	15.433597
1515.000000	15.453878
1516.000000	15.479419
1517.000000	15.499209
1518.000000	15.518313
1519.000000	15.537568
1520.000000	15.555179
1521.000000	15.562369
1522.000000	15.577860
1523.000000	15.599028
1524.000000	15.625357
1525.000000	15.640630
1526.000000	15.653633
1527.000000	15.679022
1528.000000	15.700666
1529.000000	15.705902
1530.000000	15.716936
1531.000000	15.746559
1532.000000	15.768657
1533.000000	15.780775
1534.000000	15.792675
1535.000000	15.815358
1536.000000	15.826614
1537.000000	15.842551
1538.000000	15.858170
1539.000000	15.872023
1540.000000	15.893529
1541.000000	15.909060
1542.000000	15.915845
1543.000000	15.928633
1544.000000	15.958456
1545.000000	15.984210
1546.000000	16.005220
1547.000000	16.025974
1548.000000	16.055823
1549.000000	16.086278
1550.000000	16.105705
1551.000000	16.134809
1552.000000	16.149559
1553.000000	16.166992
1554.000000	16.189075
1555.000000	16.206800
1556.000000	16.227079
1557.000000	16.239395
1558.000000	16.243779
1559.000000	16.244847
1560.000000	16.253045
1561.000000	16.261648
1562.000000	16.270308
1563.000000	16.276059
1564.000000	16.275842
1565.000000	16.271505
1566.000000	16.266128
1567.000000	16.271120
1568.000000	16.273570
1569.000000	16.265026
1570.000000	16.258074
1571.000000	16.261565
1572.000000	16.257697
1573.000000	16.261517
1574.000000	16.267259
1575.000000	16.270608
1576.000000	16.282833
1577.000000	16.297661
1578.000000	16.310137
1579.000000	16.316284
1580.000000	16.320804
1581.000000	16.331512
1582.000000	16.347339
1583.000000	16.358172
1584.000000	16.368320
1585.000000	16.389158
1586.000000	16.400882
1587.000000	16.401715
1588.000000	16.409393
1589.000000	16.428279
1590.000000	16.449963
1591.000000	16.475475
1592.000000	16.491149
1593.000000	16.499344
1594.000000	16.508177
1595.000000	16.536987
1596.000000	16.552546
1597.000000	16.561582
1598.000000	16.581788
1599.000000	16.604363
1600.000000	16.617988
1601.000000	16.635280
1602.000000	16.655577
1603.000000	16.677716
1604.000000	16.693622
1605.000000	16.701278
1606.000000	16.732073
1607.000000	16.749999
1608.000000	16.768508
1609.000000	16.785481
1610.000000	16.801591
1611.000000	16.814003
1612.000000	16.826647
1613.000000	16.835335
1614.000000	16.846562
1615.000000	16.859927
1616.000000	16.871590
1617.000000	16.877634
1618.000000	16.897703
1619.000000	16.904287
1620.000000	16.909081
1621.000000	16.925373
1622.000000	16.930658
1623.000000	16.944755
1624.000000	16.963978
1625.000000	16.969745
1626.000000	16.978402
1627.000000	16.989034
1628.000000	16.994360
1629.000000	17.011889
1630.000000	17.025961
1631.000000	17.041171
1632.000000	17.052923
1633.000000	17.060573
1634.000000	17.065540
1635.000000	17.079296
1636.000000	17.071654
1637.000000	17.069990
1638.000000	17.080499
1639.000000	17.080315
1640.000000	17.073367
1641.000000	17.082416
1642.000000	17.078566
1643.000000	17.080450
1644.000000	17.090719
1645.000000	17.095428
1646.000000	17.092134
1647.000000	17.098333
1648.000000	17.089083
1649.000000	17.092918
1650.000000	17.088790
1651.000000	17.086447
1652.000000	17.068725
1653.000000	17.064237
1654.000000	17.056776
1655.000000	17.037538
1656.000000	17.015556
1657.000000	16.996794
1658.000000	16.972243
1659.000000	16.948526
1660.000000	16.923169
1661.000000	16.891328
1662.000000	16.859224
1663.000000	16.833580
1664.000000	16.785847
1665.000000	16.755087
1666.000000	16.713515
1667.000000	16.672718
1668.000000	16.654289
1669.000000	16.623172
1670.000000	16.571846
1671.000000	16.519409
1672.000000	16.479840
1673.000000	16.421877
1674.000000	16.391731
1675.000000	16.329313
1676.000000	16.270109
1677.000000	16.208589
1678.000000	16.153313
1679.000000	16.095870
1680.000000	16.040024
1681.000000	15.980577
1682.000000	15.915685
1683.000000	15.863566
1684.000000	15.812378
1685.000000	15.740694
1686.000000	15.696544
1687.000000	15.667845
1688.000000	15.661115
1689.000000	15.634043
1690.000000	15.625081
1691.000000	15.642646
1692.000000	15.651160
1693.000000	15.669359
1694.000000	15.662136
1695.000000	15.673552
1696.000000	15.662243
1697.000000	15.666048
1698.000000	15.657947
1699.000000	15.671322
1700.000000	15.663752
1701.000000	15.664256
1702.000000	15.655405
1703.000000	15.661960
1704.000000	15.650728
1705.000000	15.643404
1706.000000	15.628138
1707.000000	15.614395
1708.000000	15.593883
1709.000000	15.575585
1710.000000	15.546201
1711.000000	15.518920
1712.000000	15.493164
1713.000000	15.437852
1714.000000	15.392796
1715.000000	15.351258
1716.000000	15.296551
1717.000000	15.250787
1718.000000	15.199735
1719.000000	15.145115
1720.000000	15.122026
1721.000000	15.092726
1722.000000	15.068503
1723.000000	15.051491
1724.000000	15.031754
1725.000000	15.028349
1726.000000	15.022915
1727.000000	15.016111
1728.000000	15.017305
1729.000000	15.015092
1730.000000	15.023148
1731.000000	15.029029
1732.000000	15.025808
1733.000000	15.045172
1734.000000	15.057418
1735.000000	15.075326
1736.000000	15.086661
1737.000000	15.100331
1738.000000	15.105789
1739.000000	15.121176
1740.000000	15.132363
1741.000000	15.173291
1742.000000	15.211761
1743.000000	15.229214
1744.000000	15.233542
1745.000000	15.267609
1746.000000	15.288768
1747.000000	15.304444
1748.000000	15.314884
1749.000000	15.331673
1750.000000	15.349027
1751.000000	15.356275
1752.000000	15.362631
1753.000000	15.370859
1754.000000	15.385012
1755.000000	15.393219
1756.000000	15.406645
1757.000000	15.423136
1758.000000	15.423455
1759.000000	15.427403
1760.000000	15.441445
1761.000000	15.453978
1762.000000	15.472225
1763.000000	15.486060
1764.000000	15.489430
1765.000000	15.498095
1766.000000	15.511662
1767.000000	15.529990
1768.000000	15.544459
1769.000000	15.563431
1770.000000	15.589242
1771.000000	15.597792
1772.000000	15.603790
1773.000000	15.625091
1774.000000	15.625725
1775.000000	15.632567
1776.000000	15.645761
1777.000000	15.663946
1778.000000	15.667554
1779.000000	15.652141
1780.000000	15.654276
1781.000000	15.667757
1782.000000	15.667958
1783.000000	15.677024
1784.000000	15.681065
1785.000000	15.665592
1786.000000	15.662938
1787.000000	15.649802
1788.000000	15.647953
1789.000000	15.665909
1790.000000	15.677571
1791.000000	15.670961
1792.000000	15.662099
1793.000000	15.670822
1794.000000	15.675850
1795.000000	15.680550
1796.000000	15.685658
1797.000000	15.705607
1798.000000	15.721230
1799.000000	15.736531
1800.000000	15.730777
1801.000000	15.708749
1802.000000	15.705958
1803.000000	15.724655
1804.000000	15.742933
1805.000000	15.733203
1806.000000	15.720213
1807.000000	15.731092
1808.000000	15.765096
1809.000000	15.794112
1810.000000	15.797270
1811.000000	15.780790
1812.000000	15.782451
1813.000000	15.799905
1814.000000	15.809493
1815.000000	15.805816
1816.000000	15.816854
1817.000000	15.879998
1818.000000	15.944540
1819.000000	15.939804
1820.000000	15.830836
1821.000000	15.716804
1822.000000	15.731438
1823.000000	15.825062
1824.000000	15.893657
1825.000000	15.925611
1826.000000	15.914322
1827.000000	15.903373
1828.000000	15.925040
1829.000000	15.921659
1830.000000	15.880807
1831.000000	15.891727
1832.000000	15.972587
1833.000000	16.083436
1834.000000	16.148701
1835.000000	16.145842
1836.000000	16.102060
1837.000000	16.086128
1838.000000	16.108531
1839.000000	16.114498
1840.000000	16.060685
1841.000000	15.952298
1842.000000	15.912744
1843.000000	16.001367
1844.000000	16.183693
1845.000000	16.309565
1846.000000	16.260396
1847.000000	16.092678
1848.000000	15.952932
1849.000000	15.938396
1850.000000	16.031877
1851.000000	16.099895
1852.000000	16.101092
1853.000000	16.088019
1854.000000	16.044628
1855.000000	16.025451
1856.000000	16.074546
1857.000000	16.085367
1858.000000	16.015610
1859.000000	15.930664
1860.000000	15.866815
1861.000000	15.834872
1862.000000	15.835824
1863.000000	15.892828
1864.000000	15.957776
1865.000000	16.000920
1866.000000	16.057447
1867.000000	16.073447
1868.000000	16.049635
1869.000000	15.944391
1870.000000	15.802970
1871.000000	15.694630
1872.000000	15.561197
1873.000000	15.435173
1874.000000	15.325478
1875.000000	15.205013
1876.000000	15.119797
1877.000000	15.039838
1878.000000	14.958193
1879.000000	14.900491
1880.000000	14.870335
1881.000000	14.793511
1882.000000	14.679131
1883.000000	14.533957
1884.000000	14.375798
1885.000000	14.225054
1886.000000	14.108813
1887.000000	14.027491
1888.000000	13.917019
1889.000000	13.773473
1890.000000	13.588139
1891.000000	13.344908
1892.000000	13.120318
1893.000000	12.983019
1894.000000	12.876925
1895.000000	12.839372
1896.000000	12.790419
1897.000000	12.637985
1898.000000	12.440803
1899.000000	12.211745
1900.000000	12.032010
1901.000000	11.942897
1902.000000	11.845579
1903.000000	11.745315
1904.000000	11.555590
1905.000000	11.325752
1906.000000	11.146503
1907.000000	11.037306
1908.000000	10.996513
1909.000000	11.009625
1910.000000	10.965287
1911.000000	10.866814
1912.000000	10.716409
1913.000000	10.539337
1914.000000	10.422514
1915.000000	10.366400
1916.000000	10.354610
1917.000000	10.377724
1918.000000	10.340780
1919.000000	10.245647
1920.000000	10.135402
1921.000000	10.005609
1922.000000	9.940917
1923.000000	9.926532
1924.000000	9.928092
1925.000000	9.882678
1926.000000	9.835613
1927.000000	9.778087
1928.000000	9.736435
1929.000000	9.676852
1930.000000	9.645543
1931.000000	9.619096
1932.000000	9.623204
1933.000000	9.623152
1934.000000	9.610633
1935.000000	9.617446
1936.000000	9.612993
1937.000000	9.602158
1938.000000	9.565828
1939.000000	9.553972
1940.000000	9.549423
1941.000000	9.565257
1942.000000	9.575328
1943.000000	9.583502
1944.000000	9.592541
1945.000000	9.608018
1946.000000	9.621881
1947.000000	9.624988
1948.000000	9.655996
1949.000000	9.676767
1950.000000	9.710185
1951.000000	9.734956
1952.000000	9.763057
1953.000000	9.779454
1954.000000	9.788947
1955.000000	9.816467
1956.000000	9.847661
1957.000000	9.858421
1958.000000	9.903554
1959.000000	9.944953
1960.000000	9.961436
1961.000000	9.987626
1962.000000	10.006240
1963.000000	10.029800
1964.000000	10.052578
1965.000000	10.073387
1966.000000	10.098615
1967.000000	10.122529
1968.000000	10.163326
1969.000000	10.185326
1970.000000	10.197708
1971.000000	10.231121
1972.000000	10.239367
1973.000000	10.264012
1974.000000	10.294982
1975.000000	10.328867
1976.000000	10.348612
1977.000000	10.372544
1978.000000	10.403599
1979.000000	10.453822
1980.000000	10.475678
1981.000000	10.494571
1982.000000	10.544179
1983.000000	10.563854
1984.000000	10.596835
1985.000000	10.645685
1986.000000	10.677953
1987.000000	10.707704
1988.000000	10.731363
1989.000000	10.743286
1990.000000	10.786873
1991.000000	10.809047
1992.000000	10.846463
1993.000000	10.880141
1994.000000	10.910750
1995.000000	10.928936
1996.000000	10.960350
1997.000000	10.993812
1998.000000	11.005901
1999.000000	11.036435
2000.000000	11.068361
2001.000000	11.088518
2002.000000	11.113738
2003.000000	11.124734
2004.000000	11.120094
2005.000000	11.144994
2006.000000	11.164053
2007.000000	11.168178
2008.000000	11.184564
2009.000000	11.195855
2010.000000	11.198353
2011.000000	11.201593
2012.000000	11.207285
2013.000000	11.208827
2014.000000	11.209689
2015.000000	11.202466
2016.000000	11.207765
2017.000000	11.206685
2018.000000	11.178487
2019.000000	11.174497
2020.000000	11.162292
2021.000000	11.153609
2022.000000	11.135059
2023.000000	11.118663
2024.000000	11.098754
2025.000000	11.070923
2026.000000	11.068399
2027.000000	11.052402
2028.000000	11.013591
2029.000000	10.993454
2030.000000	10.962756
2031.000000	10.938690
2032.000000	10.907507
2033.000000	10.877587
2034.000000	10.845721
2035.000000	10.811274
2036.000000	10.777773
2037.000000	10.739249
2038.000000	10.708424
2039.000000	10.671086
2040.000000	10.629745
2041.000000	10.598447
2042.000000	10.564612
2043.000000	10.524468
2044.000000	10.485654
2045.000000	10.432626
2046.000000	10.412608
2047.000000	10.397975
2048.000000	10.366916
2049.000000	10.344463
2050.000000	10.316711
2051.000000	10.299441
2052.000000	10.308092
2053.000000	10.300016
2054.000000	10.307597
2055.000000	10.315964
2056.000000	10.322672
2057.000000	10.348233
2058.000000	10.374711
2059.000000	10.404092
2060.000000	10.437405
2061.000000	10.477425
2062.000000	10.508835
2063.000000	10.553778
2064.000000	10.605692
2065.000000	10.645003
2066.000000	10.693778
2067.000000	10.748396
2068.000000	10.788414
2069.000000	10.836473
2070.000000	10.884375
2071.000000	10.935284
2072.000000	10.994236
2073.000000	11.028247
2074.000000	11.061537
2075.000000	11.105720
2076.000000	11.145962
2077.000000	11.177090
2078.000000	11.213895
2079.000000	11.244993
2080.000000	11.266789
2081.000000	11.297947
2082.000000	11.321655
2083.000000	11.339168
2084.000000	11.359867
2085.000000	11.381663
2086.000000	11.392679
2087.000000	11.412076
2088.000000	11.433506
2089.000000	11.444238
2090.000000	11.442941
2091.000000	11.454221
2092.000000	11.467005
2093.000000	11.474099
2094.000000	11.475120
2095.000000	11.480237
2096.000000	11.492195
2097.000000	11.491407
2098.000000	11.506268
2099.000000	11.518554
2100.000000	11.512122
2101.000000	11.514724
2102.000000	11.525914
2103.000000	11.535374
2104.000000	11.533106
2105.000000	11.534290
2106.000000	11.537832
2107.000000	11.541668
2108.000000	11.545781
2109.000000	11.558559
2110.000000	11.562828
2111.000000	11.563438
2112.000000	11.563439
2113.000000	11.558025
2114.000000	11.553493
2115.000000	11.541543
2116.000000	11.538951
2117.000000	11.541254
2118.000000	11.537444
2119.000000	11.530362
2120.000000	11.515747
2121.000000	11.504801
2122.000000	11.496134
2123.000000	11.478386
2124.000000	11.455062
2125.000000	11.437829
2126.000000	11.425847
2127.000000	11.405356
2128.000000	11.372611
2129.000000	11.348943
2130.000000	11.330010
2131.000000	11.287932
2132.000000	11.256406
2133.000000	11.230894
2134.000000	11.199545
2135.000000	11.158366
2136.000000	11.120342
2137.000000	11.079020
2138.000000	11.034755
2139.000000	10.987365
2140.000000	10.956509
2141.000000	10.911027
2142.000000	10.856368
2143.000000	10.808109
2144.000000	10.762798
2145.000000	10.719403
2146.000000	10.672294
2147.000000	10.623512
2148.000000	10.579567
2149.000000	10.547084
2150.000000	10.488224
2151.000000	10.425487
2152.000000	10.367079
2153.000000	10.328283
2154.000000	10.264480
2155.000000	10.219817
2156.000000	10.179066
2157.000000	10.132110
2158.000000	10.090003
2159.000000	10.046896
2160.000000	10.003368
2161.000000	9.975596
2162.000000	9.941547
2163.000000	9.903989
2164.000000	9.877201
2165.000000	9.853187
2166.000000	9.813869
2167.000000	9.796691
2168.000000	9.755328
2169.000000	9.734760
2170.000000	9.710154
2171.000000	9.688890
2172.000000	9.672005
2173.000000	9.658222
2174.000000	9.629339
2175.000000	9.600460
2176.000000	9.582081
2177.000000	9.555490
2178.000000	9.538980
2179.000000	9.510427
2180.000000	9.479534
2181.000000	9.444925
2182.000000	9.419848
2183.000000	9.385159
2184.000000	9.356276
2185.000000	9.311987
2186.000000	9.257941
2187.000000	9.205047
2188.000000	9.147209
2189.000000	9.078064
2190.000000	9.008223
2191.000000	8.927665
2192.000000	8.855612
2193.000000	8.747181
2194.000000	8.646691
2195.000000	8.539441
2196.000000	8.424827
2197.000000	8.320079
2198.000000	8.208599
2199.000000	8.093376
2200.000000	7.996843
2201.000000	7.895173
2202.000000	7.793555
2203.000000	7.700343
2204.000000	7.612310
2205.000000	7.528543
2206.000000	7.474032
2207.000000	7.450039
2208.000000	7.412330
2209.000000	7.393099
2210.000000	7.374601
2211.000000	7.373628
2212.000000	7.394381
2213.000000	7.421729
2214.000000	7.460823
2215.000000	7.494625
2216.000000	7.544976
2217.000000	7.603508
2218.000000	7.645851
2219.000000	7.721550
2220.000000	7.772183
2221.000000	7.825487
2222.000000	7.893714
2223.000000	7.956673
2224.000000	8.015362
2225.000000	8.066698
2226.000000	8.108068
2227.000000	8.153660
2228.000000	8.189254
2229.000000	8.229800
2230.000000	8.271339
2231.000000	8.312249
2232.000000	8.332771
2233.000000	8.343809
2234.000000	8.378233
2235.000000	8.375945
2236.000000	8.384632
2237.000000	8.394168
2238.000000	8.392357
2239.000000	8.395350
2240.000000	8.385596
2241.000000	8.375050
2242.000000	8.382751
2243.000000	8.374161
2244.000000	8.355431
2245.000000	8.337472
2246.000000	8.337496
2247.000000	8.302043
2248.000000	8.301102
2249.000000	8.283477
2250.000000	8.280472
2251.000000	8.250546
2252.000000	8.227786
2253.000000	8.215049
2254.000000	8.216683
2255.000000	8.199357
2256.000000	8.196518
2257.000000	8.191517
2258.000000	8.184661
2259.000000	8.177186
2260.000000	8.185246
2261.000000	8.192726
2262.000000	8.202901
2263.000000	8.218452
2264.000000	8.226000
2265.000000	8.241865
2266.000000	8.262492
2267.000000	8.287700
2268.000000	8.300022
2269.000000	8.334372
2270.000000	8.360694
2271.000000	8.381390
2272.000000	8.418632
2273.000000	8.442332
2274.000000	8.460564
2275.000000	8.476915
2276.000000	8.503162
2277.000000	8.536835
2278.000000	8.572014
2279.000000	8.592555
2280.000000	8.597769
2281.000000	8.637671
2282.000000	8.638114
2283.000000	8.669050
2284.000000	8.689374
2285.000000	8.710794
2286.000000	8.725825
2287.000000	8.740571
2288.000000	8.764656
2289.000000	8.788856
2290.000000	8.818150
2291.000000	8.836420
2292.000000	8.851331
2293.000000	8.873575
2294.000000	8.892429
2295.000000	8.928131
2296.000000	8.954919
2297.000000	8.970387
2298.000000	8.994676
2299.000000	9.032543
2300.000000	9.057622
2301.000000	9.084432
2302.000000	9.105577
2303.000000	9.132902
2304.000000	9.173113
2305.000000	9.201404
2306.000000	9.222890
2307.000000	9.242825
2308.000000	9.279980
2309.000000	9.323557
2310.000000	9.347678
2311.000000	9.375468
2312.000000	9.403866
2313.000000	9.430935
2314.000000	9.470895
2315.000000	9.497473
2316.000000	9.520235
2317.000000	9.539988
2318.000000	9.567053
2319.000000	9.589855
2320.000000	9.619051
2321.000000	9.635868
2322.000000	9.647999
2323.000000	9.672883
2324.000000	9.677542
2325.000000	9.689906
2326.000000	9.708597
2327.000000	9.707278
2328.000000	9.714826
2329.000000	9.721428
2330.000000	9.729241
2331.000000	9.740005
2332.000000	9.746517
2333.000000	9.751977
2334.000000	9.748856
2335.000000	9.753708
2336.000000	9.768056
2337.000000	9.773817
2338.000000	9.767661
2339.000000	9.774477
2340.000000	9.785708
2341.000000	9.795399
2342.000000	9.807323
2343.000000	9.806350
2344.000000	9.812631
2345.000000	9.815599
2346.000000	9.815144
2347.000000	9.834619
2348.000000	9.844031
2349.000000	9.836931
2350.000000	9.852465
2351.000000	9.867518
2352.000000	9.866760
2353.000000	9.861648
2354.000000	9.890940
2355.000000	9.908894
2356.000000	9.907706
2357.000000	9.920623
2358.000000	9.943100
2359.000000	9.947939
2360.000000	9.945617
2361.000000	9.953552
2362.000000	9.972766
2363.000000	9.985720
2364.000000	9.979691
2365.000000	9.983301
2366.000000	10.007102
2367.000000	10.009445
2368.000000	10.007831
2369.000000	10.022200
2370.000000	10.037331
2371.000000	10.037527
2372.000000	10.031701
2373.000000	10.042400
2374.000000	10.052471
2375.000000	10.055411
2376.000000	10.061972
2377.000000	10.074973
2378.000000	10.083694
2379.000000	10.079619
2380.000000	10.074625
2381.000000	10.087098
2382.000000	10.087372
2383.000000	10.079680
2384.000000	10.090532
2385.000000	10.082822
2386.000000	10.072504
2387.000000	10.075335
2388.000000	10.082157
2389.000000	10.081624
2390.000000	10.077489
2391.000000	10.072686
2392.000000	10.059854
2393.000000	10.047895
2394.000000	10.045473
2395.000000	10.039597
2396.000000	10.038794
2397.000000	10.036674
2398.000000	10.025247
2399.000000	10.015656
2400.000000	10.006256
2401.000000	9.993199
2402.000000	9.968741
2403.000000	9.951585
2404.000000	9.942139
2405.000000	9.923622
2406.000000	9.916374
2407.000000	9.893857
2408.000000	9.866818
2409.000000	9.854027
2410.000000	9.840882
2411.000000	9.806934
2412.000000	9.790994
2413.000000	9.765737
2414.000000	9.747848
2415.000000	9.723185
2416.000000	9.706309
2417.000000	9.668161
2418.000000	9.640811
2419.000000	9.609516
2420.000000	9.581999
2421.000000	9.560588
2422.000000	9.514893
2423.000000	9.480986
2424.000000	9.437136
2425.000000	9.395297
2426.000000	9.360654
2427.000000	9.336077
2428.000000	9.315872
2429.000000	9.279791
2430.000000	9.255231
2431.000000	9.207832
2432.000000	9.165138
2433.000000	9.139510
2434.000000	9.104516
2435.000000	9.065543
2436.000000	9.038606
2437.000000	9.009265
2438.000000	8.966850
2439.000000	8.930200
2440.000000	8.898201
2441.000000	8.870291
2442.000000	8.819843
2443.000000	8.775728
2444.000000	8.744572
2445.000000	8.712251
2446.000000	8.684633
2447.000000	8.643276
2448.000000	8.603426
2449.000000	8.569872
2450.000000	8.545154
2451.000000	8.513631
2452.000000	8.474824
2453.000000	8.433146
2454.000000	8.402215
2455.000000	8.381114
2456.000000	8.359168
2457.000000	8.329618
2458.000000	8.324976
2459.000000	8.309704
2460.000000	8.264029
2461.000000	8.228858
2462.000000	8.213014
2463.000000	8.216768
2464.000000	8.222277
2465.000000	8.177145
2466.000000	8.133002
2467.000000	8.129370
2468.000000	8.103490
2469.000000	8.118704
2470.000000	8.106618
2471.000000	8.030220
2472.000000	8.079097
2473.000000	8.057619
2474.000000	8.039721
2475.000000	8.020397
2476.000000	8.016265
2477.000000	7.976918
2478.000000	7.976674
2479.000000	7.955248
2480.000000	7.956382
2481.000000	7.977692
2482.000000	7.929529
2483.000000	7.904307
2484.000000	7.921828
2485.000000	7.897678
2486.000000	7.916546
2487.000000	7.877490
2488.000000	7.876558
2489.000000	7.844563
2490.000000	7.860010
2491.000000	7.805524
2492.000000	7.862172
2493.000000	7.805097
2494.000000	7.801687
2495.000000	7.810249
2496.000000	7.753688
2497.000000	7.746270
2498.000000	7.707804
2499.000000	7.698584
2500.000000	7.704083
