PE UV       SUBTECH     SPECTRUM    ASCII       PEDS        4.00        
   -1
INBUCR0224-4.Sample.ASC
24/02/08
10:57:45.00
24/02/08
10:57:45.00
Vinicio Soto Monge
Sin élitros ni cabeza. C. Aurigans (M.H.)
250,000000
1
Lambda 1050
1050L1511233
PerkinElmer UV WinLab 6.3.2.0749 / 2.02.05 Lambda 900 UV/VIS/NIR, Aug  7 2015 09:38:08

0
0
3350/servo 860,8/2
0
0
UV/VIS
1
1
1
DoubleDePol,CommonBeamDepol,RBeamAtt,SBeamAtt,60mm sphere, WB InGaAs Detector
0
0
0
0
Program
Program
3350/servo 860,8/2
3350/0,2 860,8/0,2
3350/0,2 860,8/0,2
0
15.00
 
 
 
0
 
860,8
319,2
860,8
Front
100
on
S:100 R:100
0
0
0
0
 
0
 
 
 
0
 
 
0
0
0
0
0
 
 
 
 
0
0


0
0
#HDR
-1
-1
#GR
nm
%R
1.0
0.0
2500,000000
-1,000000
2251
8
12,227400
0,892200
#DATA

250.000000	1.047707
251.000000	1.077155
252.000000	1.091333
253.000000	1.067559
254.000000	1.080414
255.000000	1.056723
256.000000	1.060828
257.000000	1.069070
258.000000	1.050584
259.000000	1.078980
260.000000	1.057116
261.000000	1.068133
262.000000	1.042836
263.000000	1.032140
264.000000	1.032477
265.000000	1.030005
266.000000	1.017782
267.000000	1.028745
268.000000	1.006664
269.000000	1.012530
270.000000	0.998006
271.000000	1.009615
272.000000	0.983457
273.000000	1.009206
274.000000	1.013359
275.000000	0.997028
276.000000	0.983153
277.000000	1.005867
278.000000	0.964009
279.000000	0.973319
280.000000	0.994459
281.000000	1.017044
282.000000	0.988800
283.000000	0.988488
284.000000	0.986930
285.000000	0.983840
286.000000	0.961629
287.000000	0.966606
288.000000	0.989021
289.000000	0.997941
290.000000	0.991572
291.000000	1.001641
292.000000	0.996420
293.000000	1.002472
294.000000	1.030673
295.000000	1.008021
296.000000	1.024056
297.000000	1.026228
298.000000	1.047029
299.000000	1.035126
300.000000	1.016556
301.000000	1.023386
302.000000	1.050810
303.000000	1.020902
304.000000	1.045166
305.000000	1.036934
306.000000	1.067252
307.000000	1.121692
308.000000	1.086201
309.000000	1.088382
310.000000	1.055358
311.000000	1.037622
312.000000	1.080378
313.000000	1.079791
314.000000	1.084713
315.000000	1.056276
316.000000	1.130887
317.000000	1.351344
318.000000	1.397423
319.000000	1.375457
320.000000	1.327454
321.000000	1.388485
322.000000	1.468468
323.000000	1.404642
324.000000	1.422398
325.000000	1.322156
326.000000	1.389427
327.000000	1.351495
328.000000	1.326354
329.000000	1.378205
330.000000	1.353000
331.000000	1.316169
332.000000	1.363469
333.000000	1.316160
334.000000	1.379881
335.000000	1.350704
336.000000	1.364783
337.000000	1.393369
338.000000	1.343935
339.000000	1.317061
340.000000	1.358897
341.000000	1.314662
342.000000	1.354787
343.000000	1.360792
344.000000	1.348666
345.000000	1.333622
346.000000	1.333213
347.000000	1.336023
348.000000	1.295388
349.000000	1.320608
350.000000	1.361751
351.000000	1.354808
352.000000	1.329214
353.000000	1.356836
354.000000	1.396568
355.000000	1.398932
356.000000	1.377286
357.000000	1.407118
358.000000	1.380567
359.000000	1.434215
360.000000	1.406376
361.000000	1.477926
362.000000	1.439633
363.000000	1.448472
364.000000	1.461287
365.000000	1.437500
366.000000	1.451270
367.000000	1.495520
368.000000	1.504295
369.000000	1.544288
370.000000	1.529970
371.000000	1.512930
372.000000	1.531732
373.000000	1.544518
374.000000	1.538295
375.000000	1.586778
376.000000	1.675510
377.000000	1.626526
378.000000	1.643201
379.000000	1.658152
380.000000	1.668191
381.000000	1.687844
382.000000	1.694268
383.000000	1.703281
384.000000	1.718169
385.000000	1.730929
386.000000	1.735366
387.000000	1.749612
388.000000	1.756686
389.000000	1.772189
390.000000	1.782841
391.000000	1.792751
392.000000	1.804234
393.000000	1.810118
394.000000	1.823057
395.000000	1.836314
396.000000	1.846212
397.000000	1.856822
398.000000	1.857171
399.000000	1.866059
400.000000	1.883078
401.000000	1.887739
402.000000	1.899266
403.000000	1.911814
404.000000	1.920526
405.000000	1.931813
406.000000	1.937469
407.000000	1.943864
408.000000	1.952654
409.000000	1.963734
410.000000	1.973171
411.000000	1.985103
412.000000	1.996297
413.000000	2.012696
414.000000	2.018680
415.000000	2.025852
416.000000	2.034196
417.000000	2.042744
418.000000	2.056840
419.000000	2.066922
420.000000	2.077966
421.000000	2.094373
422.000000	2.100760
423.000000	2.112732
424.000000	2.121646
425.000000	2.135571
426.000000	2.149419
427.000000	2.156374
428.000000	2.170213
429.000000	2.186667
430.000000	2.200225
431.000000	2.209454
432.000000	2.219563
433.000000	2.236129
434.000000	2.247969
435.000000	2.263606
436.000000	2.281693
437.000000	2.293003
438.000000	2.308935
439.000000	2.321528
440.000000	2.334512
441.000000	2.348851
442.000000	2.364771
443.000000	2.380520
444.000000	2.397838
445.000000	2.411594
446.000000	2.419219
447.000000	2.435986
448.000000	2.451829
449.000000	2.463385
450.000000	2.476418
451.000000	2.490639
452.000000	2.507814
453.000000	2.519686
454.000000	2.531286
455.000000	2.547243
456.000000	2.560167
457.000000	2.571051
458.000000	2.584689
459.000000	2.597871
460.000000	2.612495
461.000000	2.628503
462.000000	2.646133
463.000000	2.662779
464.000000	2.675691
465.000000	2.687671
466.000000	2.697290
467.000000	2.712175
468.000000	2.732335
469.000000	2.745867
470.000000	2.758844
471.000000	2.778482
472.000000	2.796656
473.000000	2.811727
474.000000	2.830386
475.000000	2.848525
476.000000	2.868792
477.000000	2.887391
478.000000	2.902832
479.000000	2.922383
480.000000	2.941111
481.000000	2.959529
482.000000	2.975731
483.000000	2.995784
484.000000	3.011861
485.000000	3.024084
486.000000	3.040436
487.000000	3.053872
488.000000	3.064349
489.000000	3.078526
490.000000	3.091068
491.000000	3.106493
492.000000	3.124510
493.000000	3.140420
494.000000	3.152651
495.000000	3.167774
496.000000	3.183317
497.000000	3.197204
498.000000	3.211328
499.000000	3.229606
500.000000	3.246000
501.000000	3.260376
502.000000	3.274927
503.000000	3.296430
504.000000	3.311799
505.000000	3.324513
506.000000	3.338203
507.000000	3.357497
508.000000	3.372073
509.000000	3.391460
510.000000	3.413470
511.000000	3.437511
512.000000	3.457795
513.000000	3.478649
514.000000	3.497186
515.000000	3.522705
516.000000	3.544080
517.000000	3.566400
518.000000	3.593071
519.000000	3.616213
520.000000	3.643986
521.000000	3.669826
522.000000	3.693797
523.000000	3.717807
524.000000	3.746941
525.000000	3.770470
526.000000	3.791468
527.000000	3.820016
528.000000	3.844751
529.000000	3.873086
530.000000	3.898980
531.000000	3.919438
532.000000	3.941002
533.000000	3.963774
534.000000	3.989843
535.000000	4.013093
536.000000	4.039872
537.000000	4.066594
538.000000	4.085683
539.000000	4.106041
540.000000	4.131395
541.000000	4.155430
542.000000	4.176287
543.000000	4.197610
544.000000	4.219093
545.000000	4.243828
546.000000	4.270407
547.000000	4.287497
548.000000	4.315228
549.000000	4.334542
550.000000	4.356153
551.000000	4.383858
552.000000	4.406793
553.000000	4.427226
554.000000	4.453662
555.000000	4.474926
556.000000	4.495723
557.000000	4.521253
558.000000	4.548101
559.000000	4.566732
560.000000	4.601116
561.000000	4.626704
562.000000	4.646879
563.000000	4.674907
564.000000	4.697492
565.000000	4.721498
566.000000	4.743078
567.000000	4.772069
568.000000	4.792206
569.000000	4.813587
570.000000	4.839840
571.000000	4.871141
572.000000	4.891062
573.000000	4.916039
574.000000	4.934979
575.000000	4.971505
576.000000	4.989097
577.000000	5.012416
578.000000	5.036993
579.000000	5.062891
580.000000	5.093260
581.000000	5.124017
582.000000	5.149196
583.000000	5.173368
584.000000	5.199319
585.000000	5.226749
586.000000	5.252849
587.000000	5.283054
588.000000	5.309898
589.000000	5.329728
590.000000	5.363426
591.000000	5.390757
592.000000	5.415083
593.000000	5.451928
594.000000	5.473478
595.000000	5.498696
596.000000	5.527185
597.000000	5.559953
598.000000	5.587922
599.000000	5.612223
600.000000	5.643718
601.000000	5.674346
602.000000	5.701495
603.000000	5.732630
604.000000	5.760362
605.000000	5.799760
606.000000	5.824187
607.000000	5.845448
608.000000	5.881204
609.000000	5.912929
610.000000	5.944438
611.000000	5.975876
612.000000	6.012571
613.000000	6.036266
614.000000	6.067027
615.000000	6.107752
616.000000	6.125595
617.000000	6.160846
618.000000	6.191660
619.000000	6.225197
620.000000	6.251963
621.000000	6.289387
622.000000	6.321493
623.000000	6.352496
624.000000	6.393553
625.000000	6.422005
626.000000	6.447370
627.000000	6.480649
628.000000	6.521889
629.000000	6.553052
630.000000	6.593609
631.000000	6.622264
632.000000	6.666973
633.000000	6.690703
634.000000	6.736707
635.000000	6.767533
636.000000	6.798297
637.000000	6.839098
638.000000	6.878215
639.000000	6.922600
640.000000	6.968190
641.000000	7.010702
642.000000	7.037234
643.000000	7.082204
644.000000	7.126491
645.000000	7.159383
646.000000	7.201267
647.000000	7.250858
648.000000	7.289562
649.000000	7.330727
650.000000	7.369731
651.000000	7.423482
652.000000	7.459524
653.000000	7.504153
654.000000	7.543152
655.000000	7.591326
656.000000	7.632699
657.000000	7.675506
658.000000	7.714488
659.000000	7.760763
660.000000	7.808733
661.000000	7.860420
662.000000	7.904873
663.000000	7.945251
664.000000	7.993330
665.000000	8.026231
666.000000	8.076618
667.000000	8.116222
668.000000	8.160588
669.000000	8.208858
670.000000	8.258596
671.000000	8.294228
672.000000	8.340215
673.000000	8.389580
674.000000	8.435375
675.000000	8.472202
676.000000	8.518606
677.000000	8.565796
678.000000	8.620683
679.000000	8.673906
680.000000	8.717144
681.000000	8.754973
682.000000	8.792488
683.000000	8.849010
684.000000	8.892256
685.000000	8.930069
686.000000	8.985580
687.000000	9.050056
688.000000	9.104919
689.000000	9.132239
690.000000	9.177663
691.000000	9.239597
692.000000	9.293997
693.000000	9.343262
694.000000	9.402084
695.000000	9.440557
696.000000	9.480780
697.000000	9.523447
698.000000	9.569847
699.000000	9.621860
700.000000	9.677599
701.000000	9.737888
702.000000	9.778938
703.000000	9.842431
704.000000	9.884542
705.000000	9.940767
706.000000	10.002346
707.000000	10.034993
708.000000	10.066000
709.000000	10.134801
710.000000	10.183296
711.000000	10.244470
712.000000	10.298658
713.000000	10.328083
714.000000	10.398598
715.000000	10.450703
716.000000	10.502010
717.000000	10.551292
718.000000	10.592777
719.000000	10.651554
720.000000	10.710986
721.000000	10.750514
722.000000	10.804949
723.000000	10.861090
724.000000	10.924547
725.000000	10.974118
726.000000	11.019203
727.000000	11.075544
728.000000	11.139056
729.000000	11.186145
730.000000	11.233015
731.000000	11.299549
732.000000	11.361121
733.000000	11.403206
734.000000	11.455599
735.000000	11.514843
736.000000	11.566170
737.000000	11.622231
738.000000	11.676943
739.000000	11.736696
740.000000	11.809501
741.000000	11.872987
742.000000	11.933971
743.000000	11.976720
744.000000	12.027650
745.000000	12.097290
746.000000	12.142545
747.000000	12.198199
748.000000	12.252374
749.000000	12.295170
750.000000	12.358803
751.000000	12.416914
752.000000	12.476128
753.000000	12.544092
754.000000	12.596391
755.000000	12.648600
756.000000	12.705950
757.000000	12.763974
758.000000	12.826106
759.000000	12.889126
760.000000	12.956391
761.000000	13.027174
762.000000	13.080543
763.000000	13.115794
764.000000	13.197782
765.000000	13.272685
766.000000	13.320420
767.000000	13.376038
768.000000	13.438960
769.000000	13.490926
770.000000	13.534641
771.000000	13.586860
772.000000	13.673309
773.000000	13.754704
774.000000	13.812673
775.000000	13.891285
776.000000	13.928957
777.000000	13.969947
778.000000	14.046236
779.000000	14.107569
780.000000	14.168256
781.000000	14.223903
782.000000	14.294145
783.000000	14.356263
784.000000	14.404843
785.000000	14.473469
786.000000	14.527556
787.000000	14.555668
788.000000	14.621199
789.000000	14.708475
790.000000	14.772831
791.000000	14.845161
792.000000	14.904916
793.000000	14.978758
794.000000	15.028552
795.000000	15.082736
796.000000	15.139610
797.000000	15.208700
798.000000	15.266076
799.000000	15.305903
800.000000	15.398789
801.000000	15.476914
802.000000	15.564305
803.000000	15.607704
804.000000	15.624509
805.000000	15.647495
806.000000	15.743149
807.000000	15.809050
808.000000	15.892418
809.000000	15.934340
810.000000	15.981839
811.000000	16.033544
812.000000	16.101047
813.000000	16.153769
814.000000	16.229851
815.000000	16.304720
816.000000	16.347127
817.000000	16.339586
818.000000	16.396102
819.000000	16.507257
820.000000	16.569543
821.000000	16.624628
822.000000	16.679560
823.000000	16.706540
824.000000	16.754525
825.000000	16.821328
826.000000	16.859892
827.000000	16.850606
828.000000	16.958944
829.000000	17.007434
830.000000	17.070539
831.000000	17.132884
832.000000	17.198201
833.000000	17.259530
834.000000	17.311798
835.000000	17.340124
836.000000	17.424499
837.000000	17.452545
838.000000	17.491905
839.000000	17.546156
840.000000	17.482819
841.000000	17.557113
842.000000	17.589492
843.000000	17.697559
844.000000	17.749333
845.000000	17.731657
846.000000	17.785793
847.000000	17.999277
848.000000	17.904588
849.000000	17.845406
850.000000	17.976790
851.000000	18.065573
852.000000	18.063619
853.000000	18.212459
854.000000	18.129947
855.000000	18.189129
856.000000	18.133332
857.000000	18.149368
858.000000	18.610746
859.000000	18.534874
860.000000	18.549791
861.000000	18.570118
862.000000	18.598506
863.000000	18.609989
864.000000	18.641840
865.000000	18.677357
866.000000	18.688861
867.000000	18.731415
868.000000	18.760044
869.000000	18.777005
870.000000	18.815848
871.000000	18.845603
872.000000	18.869683
873.000000	18.906983
874.000000	18.940490
875.000000	18.974043
876.000000	19.014137
877.000000	19.043127
878.000000	19.067227
879.000000	19.100440
880.000000	19.124913
881.000000	19.158527
882.000000	19.185171
883.000000	19.206608
884.000000	19.230105
885.000000	19.265697
886.000000	19.295825
887.000000	19.335160
888.000000	19.343742
889.000000	19.385249
890.000000	19.390109
891.000000	19.414162
892.000000	19.453690
893.000000	19.466375
894.000000	19.485979
895.000000	19.519618
896.000000	19.519364
897.000000	19.565807
898.000000	19.576480
899.000000	19.588727
900.000000	19.623447
901.000000	19.649131
902.000000	19.645816
903.000000	19.678768
904.000000	19.704035
905.000000	19.720426
906.000000	19.740739
907.000000	19.755239
908.000000	19.800981
909.000000	19.774982
910.000000	19.807929
911.000000	19.829994
912.000000	19.850954
913.000000	19.858737
914.000000	19.852251
915.000000	19.895387
916.000000	19.908061
917.000000	19.924437
918.000000	19.949946
919.000000	19.951579
920.000000	19.971273
921.000000	19.984629
922.000000	19.985865
923.000000	20.001434
924.000000	20.021758
925.000000	20.025554
926.000000	20.054017
927.000000	20.064027
928.000000	20.082084
929.000000	20.107132
930.000000	20.135504
931.000000	20.132858
932.000000	20.145711
933.000000	20.154431
934.000000	20.164104
935.000000	20.166229
936.000000	20.179241
937.000000	20.190512
938.000000	20.171896
939.000000	20.185941
940.000000	20.200089
941.000000	20.214547
942.000000	20.217378
943.000000	20.234501
944.000000	20.238355
945.000000	20.245829
946.000000	20.261672
947.000000	20.279933
948.000000	20.306900
949.000000	20.310798
950.000000	20.327806
951.000000	20.338659
952.000000	20.359116
953.000000	20.359329
954.000000	20.364351
955.000000	20.374572
956.000000	20.399824
957.000000	20.400040
958.000000	20.415031
959.000000	20.433226
960.000000	20.433921
961.000000	20.431786
962.000000	20.446266
963.000000	20.463389
964.000000	20.477268
965.000000	20.495579
966.000000	20.494327
967.000000	20.512281
968.000000	20.516645
969.000000	20.522457
970.000000	20.546028
971.000000	20.551491
972.000000	20.553684
973.000000	20.553777
974.000000	20.570622
975.000000	20.589718
976.000000	20.594460
977.000000	20.601804
978.000000	20.617145
979.000000	20.613595
980.000000	20.613411
981.000000	20.637830
982.000000	20.647253
983.000000	20.650217
984.000000	20.667030
985.000000	20.677457
986.000000	20.682992
987.000000	20.683613
988.000000	20.691860
989.000000	20.700925
990.000000	20.724817
991.000000	20.730867
992.000000	20.743321
993.000000	20.744601
994.000000	20.741693
995.000000	20.749188
996.000000	20.772651
997.000000	20.765329
998.000000	20.782839
999.000000	20.797630
1000.000000	20.802606
1001.000000	20.809035
1002.000000	20.831343
1003.000000	20.838106
1004.000000	20.836917
1005.000000	20.841313
1006.000000	20.860975
1007.000000	20.863258
1008.000000	20.864310
1009.000000	20.876996
1010.000000	20.876636
1011.000000	20.884431
1012.000000	20.901071
1013.000000	20.910967
1014.000000	20.925976
1015.000000	20.932412
1016.000000	20.934619
1017.000000	20.945136
1018.000000	20.958741
1019.000000	20.969807
1020.000000	20.990419
1021.000000	21.001526
1022.000000	21.003922
1023.000000	21.017725
1024.000000	21.037732
1025.000000	21.051593
1026.000000	21.069705
1027.000000	21.084280
1028.000000	21.095788
1029.000000	21.111015
1030.000000	21.126005
1031.000000	21.133117
1032.000000	21.139831
1033.000000	21.143551
1034.000000	21.158110
1035.000000	21.177879
1036.000000	21.188031
1037.000000	21.200515
1038.000000	21.210464
1039.000000	21.222462
1040.000000	21.237396
1041.000000	21.249175
1042.000000	21.261054
1043.000000	21.263812
1044.000000	21.263130
1045.000000	21.279913
1046.000000	21.297693
1047.000000	21.307966
1048.000000	21.315848
1049.000000	21.327773
1050.000000	21.338863
1051.000000	21.336558
1052.000000	21.348509
1053.000000	21.373048
1054.000000	21.384690
1055.000000	21.395616
1056.000000	21.403192
1057.000000	21.418954
1058.000000	21.437210
1059.000000	21.447523
1060.000000	21.453558
1061.000000	21.463906
1062.000000	21.474199
1063.000000	21.489099
1064.000000	21.505818
1065.000000	21.516164
1066.000000	21.518370
1067.000000	21.535430
1068.000000	21.544242
1069.000000	21.557132
1070.000000	21.563210
1071.000000	21.565407
1072.000000	21.570931
1073.000000	21.579070
1074.000000	21.584159
1075.000000	21.600155
1076.000000	21.613750
1077.000000	21.621523
1078.000000	21.638322
1079.000000	21.649600
1080.000000	21.662837
1081.000000	21.670122
1082.000000	21.680540
1083.000000	21.688561
1084.000000	21.698548
1085.000000	21.702024
1086.000000	21.711614
1087.000000	21.725536
1088.000000	21.720174
1089.000000	21.729202
1090.000000	21.724396
1091.000000	21.734333
1092.000000	21.754651
1093.000000	21.761734
1094.000000	21.767835
1095.000000	21.772285
1096.000000	21.773405
1097.000000	21.779426
1098.000000	21.790777
1099.000000	21.794808
1100.000000	21.805398
1101.000000	21.818055
1102.000000	21.809466
1103.000000	21.811560
1104.000000	21.823949
1105.000000	21.827631
1106.000000	21.836971
1107.000000	21.838260
1108.000000	21.838540
1109.000000	21.840853
1110.000000	21.838524
1111.000000	21.837947
1112.000000	21.843000
1113.000000	21.831525
1114.000000	21.829312
1115.000000	21.834395
1116.000000	21.847973
1117.000000	21.852115
1118.000000	21.859369
1119.000000	21.852447
1120.000000	21.847182
1121.000000	21.860089
1122.000000	21.859594
1123.000000	21.855950
1124.000000	21.847330
1125.000000	21.835873
1126.000000	21.821239
1127.000000	21.812373
1128.000000	21.802555
1129.000000	21.788877
1130.000000	21.758936
1131.000000	21.755174
1132.000000	21.737178
1133.000000	21.735485
1134.000000	21.706452
1135.000000	21.688103
1136.000000	21.655680
1137.000000	21.626654
1138.000000	21.607223
1139.000000	21.603510
1140.000000	21.586898
1141.000000	21.576063
1142.000000	21.558069
1143.000000	21.559163
1144.000000	21.554404
1145.000000	21.533627
1146.000000	21.530132
1147.000000	21.510289
1148.000000	21.507975
1149.000000	21.478531
1150.000000	21.470375
1151.000000	21.474302
1152.000000	21.459132
1153.000000	21.436979
1154.000000	21.398625
1155.000000	21.388519
1156.000000	21.349642
1157.000000	21.309049
1158.000000	21.277702
1159.000000	21.276120
1160.000000	21.246704
1161.000000	21.200483
1162.000000	21.173789
1163.000000	21.140926
1164.000000	21.111842
1165.000000	21.080198
1166.000000	21.041679
1167.000000	21.019513
1168.000000	20.998202
1169.000000	20.968867
1170.000000	20.955509
1171.000000	20.923171
1172.000000	20.917585
1173.000000	20.892723
1174.000000	20.883601
1175.000000	20.881353
1176.000000	20.867036
1177.000000	20.856657
1178.000000	20.844213
1179.000000	20.836866
1180.000000	20.844845
1181.000000	20.814665
1182.000000	20.818502
1183.000000	20.818928
1184.000000	20.811180
1185.000000	20.813196
1186.000000	20.828827
1187.000000	20.844292
1188.000000	20.859218
1189.000000	20.871355
1190.000000	20.896276
1191.000000	20.914503
1192.000000	20.931035
1193.000000	20.956676
1194.000000	20.978423
1195.000000	20.996824
1196.000000	21.007835
1197.000000	21.036606
1198.000000	21.057509
1199.000000	21.070095
1200.000000	21.080876
1201.000000	21.084202
1202.000000	21.095005
1203.000000	21.114213
1204.000000	21.130036
1205.000000	21.140468
1206.000000	21.131140
1207.000000	21.144741
1208.000000	21.156037
1209.000000	21.183657
1210.000000	21.180273
1211.000000	21.175399
1212.000000	21.178027
1213.000000	21.193750
1214.000000	21.207988
1215.000000	21.201040
1216.000000	21.207408
1217.000000	21.209751
1218.000000	21.222774
1219.000000	21.209138
1220.000000	21.212461
1221.000000	21.214388
1222.000000	21.230381
1223.000000	21.241675
1224.000000	21.230552
1225.000000	21.241815
1226.000000	21.244870
1227.000000	21.260770
1228.000000	21.261747
1229.000000	21.267269
1230.000000	21.271019
1231.000000	21.271866
1232.000000	21.275930
1233.000000	21.279129
1234.000000	21.293969
1235.000000	21.299545
1236.000000	21.307600
1237.000000	21.310335
1238.000000	21.307584
1239.000000	21.315824
1240.000000	21.319727
1241.000000	21.319284
1242.000000	21.337426
1243.000000	21.348434
1244.000000	21.359199
1245.000000	21.364953
1246.000000	21.380456
1247.000000	21.383302
1248.000000	21.400483
1249.000000	21.406406
1250.000000	21.415771
1251.000000	21.430488
1252.000000	21.439102
1253.000000	21.450585
1254.000000	21.443892
1255.000000	21.436329
1256.000000	21.435269
1257.000000	21.441263
1258.000000	21.457353
1259.000000	21.458614
1260.000000	21.455381
1261.000000	21.459925
1262.000000	21.466155
1263.000000	21.474790
1264.000000	21.472841
1265.000000	21.476712
1266.000000	21.483760
1267.000000	21.492979
1268.000000	21.489980
1269.000000	21.494860
1270.000000	21.504916
1271.000000	21.499759
1272.000000	21.502812
1273.000000	21.506907
1274.000000	21.514149
1275.000000	21.517522
1276.000000	21.524653
1277.000000	21.535688
1278.000000	21.554535
1279.000000	21.564513
1280.000000	21.567744
1281.000000	21.579811
1282.000000	21.589705
1283.000000	21.596658
1284.000000	21.609144
1285.000000	21.621337
1286.000000	21.624003
1287.000000	21.626160
1288.000000	21.634043
1289.000000	21.638665
1290.000000	21.656300
1291.000000	21.672394
1292.000000	21.671460
1293.000000	21.670833
1294.000000	21.677012
1295.000000	21.677102
1296.000000	21.680711
1297.000000	21.685833
1298.000000	21.686859
1299.000000	21.684651
1300.000000	21.686715
1301.000000	21.688735
1302.000000	21.692656
1303.000000	21.684989
1304.000000	21.681374
1305.000000	21.684194
1306.000000	21.669116
1307.000000	21.666796
1308.000000	21.664929
1309.000000	21.658221
1310.000000	21.656017
1311.000000	21.647701
1312.000000	21.640328
1313.000000	21.630864
1314.000000	21.624414
1315.000000	21.613204
1316.000000	21.599126
1317.000000	21.594710
1318.000000	21.593300
1319.000000	21.590214
1320.000000	21.585680
1321.000000	21.577112
1322.000000	21.552965
1323.000000	21.536882
1324.000000	21.531222
1325.000000	21.527797
1326.000000	21.508878
1327.000000	21.482514
1328.000000	21.463409
1329.000000	21.455154
1330.000000	21.435765
1331.000000	21.409161
1332.000000	21.377681
1333.000000	21.347996
1334.000000	21.321823
1335.000000	21.295560
1336.000000	21.258372
1337.000000	21.222083
1338.000000	21.184694
1339.000000	21.145384
1340.000000	21.104082
1341.000000	21.068704
1342.000000	21.032115
1343.000000	20.979127
1344.000000	20.924195
1345.000000	20.878424
1346.000000	20.837645
1347.000000	20.781356
1348.000000	20.723348
1349.000000	20.689203
1350.000000	20.624325
1351.000000	20.567982
1352.000000	20.529361
1353.000000	20.514312
1354.000000	20.479369
1355.000000	20.444682
1356.000000	20.423059
1357.000000	20.415970
1358.000000	20.405157
1359.000000	20.408342
1360.000000	20.408612
1361.000000	20.355894
1362.000000	20.307415
1363.000000	20.295961
1364.000000	20.255281
1365.000000	20.210508
1366.000000	20.196483
1367.000000	20.129021
1368.000000	20.036152
1369.000000	19.956673
1370.000000	19.867805
1371.000000	19.724478
1372.000000	19.555792
1373.000000	19.374671
1374.000000	19.182093
1375.000000	18.992503
1376.000000	18.825872
1377.000000	18.639990
1378.000000	18.507580
1379.000000	18.398565
1380.000000	18.296446
1381.000000	18.158471
1382.000000	18.066317
1383.000000	17.985306
1384.000000	17.939419
1385.000000	17.905918
1386.000000	17.892486
1387.000000	17.920172
1388.000000	17.876927
1389.000000	17.863564
1390.000000	17.876260
1391.000000	17.902047
1392.000000	17.899538
1393.000000	17.919505
1394.000000	17.934112
1395.000000	17.918652
1396.000000	17.857743
1397.000000	17.846292
1398.000000	17.851957
1399.000000	17.844347
1400.000000	17.820727
1401.000000	17.710932
1402.000000	17.656076
1403.000000	17.595346
1404.000000	17.541297
1405.000000	17.473849
1406.000000	17.395182
1407.000000	17.318989
1408.000000	17.260844
1409.000000	17.150577
1410.000000	17.050182
1411.000000	16.969345
1412.000000	16.938857
1413.000000	16.863069
1414.000000	16.776207
1415.000000	16.678569
1416.000000	16.603805
1417.000000	16.572795
1418.000000	16.537529
1419.000000	16.458699
1420.000000	16.385668
1421.000000	16.320587
1422.000000	16.269025
1423.000000	16.226567
1424.000000	16.169757
1425.000000	16.109909
1426.000000	16.076930
1427.000000	16.023894
1428.000000	15.975341
1429.000000	15.935477
1430.000000	15.904237
1431.000000	15.863889
1432.000000	15.848784
1433.000000	15.816815
1434.000000	15.774126
1435.000000	15.739684
1436.000000	15.701867
1437.000000	15.679279
1438.000000	15.647956
1439.000000	15.620790
1440.000000	15.600569
1441.000000	15.571640
1442.000000	15.535274
1443.000000	15.521997
1444.000000	15.506369
1445.000000	15.483069
1446.000000	15.451924
1447.000000	15.410056
1448.000000	15.370325
1449.000000	15.371266
1450.000000	15.357818
1451.000000	15.329832
1452.000000	15.287478
1453.000000	15.254575
1454.000000	15.218997
1455.000000	15.204468
1456.000000	15.151861
1457.000000	15.133245
1458.000000	15.102349
1459.000000	15.072710
1460.000000	15.039567
1461.000000	15.006430
1462.000000	14.972207
1463.000000	14.948888
1464.000000	14.926972
1465.000000	14.899991
1466.000000	14.875923
1467.000000	14.847856
1468.000000	14.823568
1469.000000	14.804595
1470.000000	14.786847
1471.000000	14.743260
1472.000000	14.738009
1473.000000	14.700744
1474.000000	14.683718
1475.000000	14.664177
1476.000000	14.654014
1477.000000	14.637677
1478.000000	14.616602
1479.000000	14.607775
1480.000000	14.590434
1481.000000	14.576168
1482.000000	14.563523
1483.000000	14.566550
1484.000000	14.570786
1485.000000	14.549534
1486.000000	14.547646
1487.000000	14.531719
1488.000000	14.532952
1489.000000	14.525023
1490.000000	14.520203
1491.000000	14.512732
1492.000000	14.505130
1493.000000	14.509756
1494.000000	14.521546
1495.000000	14.525160
1496.000000	14.521508
1497.000000	14.521846
1498.000000	14.541596
1499.000000	14.566899
1500.000000	14.577502
1501.000000	14.591348
1502.000000	14.618747
1503.000000	14.620878
1504.000000	14.657183
1505.000000	14.678783
1506.000000	14.700858
1507.000000	14.721166
1508.000000	14.744815
1509.000000	14.770826
1510.000000	14.808862
1511.000000	14.834398
1512.000000	14.854937
1513.000000	14.894955
1514.000000	14.917684
1515.000000	14.937145
1516.000000	14.966736
1517.000000	14.992053
1518.000000	15.017299
1519.000000	15.040825
1520.000000	15.058831
1521.000000	15.070255
1522.000000	15.098383
1523.000000	15.121518
1524.000000	15.155257
1525.000000	15.177884
1526.000000	15.197513
1527.000000	15.220510
1528.000000	15.233594
1529.000000	15.255402
1530.000000	15.283510
1531.000000	15.308102
1532.000000	15.326016
1533.000000	15.345744
1534.000000	15.362335
1535.000000	15.365027
1536.000000	15.373811
1537.000000	15.398511
1538.000000	15.411593
1539.000000	15.422153
1540.000000	15.431678
1541.000000	15.444168
1542.000000	15.462864
1543.000000	15.468719
1544.000000	15.485888
1545.000000	15.507041
1546.000000	15.527314
1547.000000	15.544021
1548.000000	15.564626
1549.000000	15.590587
1550.000000	15.611356
1551.000000	15.630405
1552.000000	15.658110
1553.000000	15.672826
1554.000000	15.685836
1555.000000	15.704323
1556.000000	15.712654
1557.000000	15.719670
1558.000000	15.721641
1559.000000	15.734234
1560.000000	15.747923
1561.000000	15.749619
1562.000000	15.748871
1563.000000	15.745708
1564.000000	15.738034
1565.000000	15.735370
1566.000000	15.734451
1567.000000	15.710812
1568.000000	15.695803
1569.000000	15.693999
1570.000000	15.687924
1571.000000	15.683109
1572.000000	15.676266
1573.000000	15.681796
1574.000000	15.689756
1575.000000	15.688954
1576.000000	15.686394
1577.000000	15.689037
1578.000000	15.691462
1579.000000	15.699106
1580.000000	15.709129
1581.000000	15.713220
1582.000000	15.722363
1583.000000	15.737176
1584.000000	15.756686
1585.000000	15.767931
1586.000000	15.770385
1587.000000	15.783483
1588.000000	15.788418
1589.000000	15.795611
1590.000000	15.810251
1591.000000	15.819061
1592.000000	15.833681
1593.000000	15.847530
1594.000000	15.858583
1595.000000	15.884092
1596.000000	15.903585
1597.000000	15.918793
1598.000000	15.940709
1599.000000	15.953600
1600.000000	15.975214
1601.000000	15.995451
1602.000000	16.020955
1603.000000	16.050173
1604.000000	16.074180
1605.000000	16.101722
1606.000000	16.121999
1607.000000	16.144924
1608.000000	16.164139
1609.000000	16.186127
1610.000000	16.207515
1611.000000	16.228310
1612.000000	16.244789
1613.000000	16.248780
1614.000000	16.263065
1615.000000	16.275038
1616.000000	16.291482
1617.000000	16.299047
1618.000000	16.298752
1619.000000	16.309599
1620.000000	16.330142
1621.000000	16.348231
1622.000000	16.349081
1623.000000	16.354888
1624.000000	16.365276
1625.000000	16.363855
1626.000000	16.381998
1627.000000	16.396800
1628.000000	16.415051
1629.000000	16.431594
1630.000000	16.435362
1631.000000	16.455245
1632.000000	16.462157
1633.000000	16.479636
1634.000000	16.478841
1635.000000	16.489146
1636.000000	16.492846
1637.000000	16.492317
1638.000000	16.504543
1639.000000	16.503490
1640.000000	16.505820
1641.000000	16.516839
1642.000000	16.524820
1643.000000	16.517901
1644.000000	16.522750
1645.000000	16.540659
1646.000000	16.536194
1647.000000	16.546269
1648.000000	16.539552
1649.000000	16.536391
1650.000000	16.527058
1651.000000	16.515742
1652.000000	16.503655
1653.000000	16.485401
1654.000000	16.463852
1655.000000	16.424598
1656.000000	16.385496
1657.000000	16.356247
1658.000000	16.323132
1659.000000	16.303743
1660.000000	16.263791
1661.000000	16.213104
1662.000000	16.187044
1663.000000	16.141903
1664.000000	16.097004
1665.000000	16.043018
1666.000000	15.985023
1667.000000	15.937587
1668.000000	15.915296
1669.000000	15.855811
1670.000000	15.801096
1671.000000	15.754835
1672.000000	15.693062
1673.000000	15.663342
1674.000000	15.604063
1675.000000	15.579058
1676.000000	15.510048
1677.000000	15.455934
1678.000000	15.404512
1679.000000	15.331450
1680.000000	15.270384
1681.000000	15.181384
1682.000000	15.115008
1683.000000	15.059107
1684.000000	14.991940
1685.000000	14.920862
1686.000000	14.905404
1687.000000	14.886640
1688.000000	14.891924
1689.000000	14.914027
1690.000000	14.963843
1691.000000	14.997816
1692.000000	15.047075
1693.000000	15.091228
1694.000000	15.114047
1695.000000	15.141261
1696.000000	15.172187
1697.000000	15.183148
1698.000000	15.187557
1699.000000	15.187165
1700.000000	15.183996
1701.000000	15.187356
1702.000000	15.173933
1703.000000	15.189162
1704.000000	15.160280
1705.000000	15.128793
1706.000000	15.093483
1707.000000	15.067920
1708.000000	15.028592
1709.000000	15.003576
1710.000000	14.939867
1711.000000	14.886481
1712.000000	14.816128
1713.000000	14.763363
1714.000000	14.675172
1715.000000	14.612000
1716.000000	14.524347
1717.000000	14.442352
1718.000000	14.350301
1719.000000	14.281458
1720.000000	14.217547
1721.000000	14.169117
1722.000000	14.140929
1723.000000	14.132269
1724.000000	14.135284
1725.000000	14.137799
1726.000000	14.167699
1727.000000	14.182053
1728.000000	14.193755
1729.000000	14.223918
1730.000000	14.240762
1731.000000	14.277009
1732.000000	14.302753
1733.000000	14.322126
1734.000000	14.354241
1735.000000	14.371593
1736.000000	14.398735
1737.000000	14.420959
1738.000000	14.478108
1739.000000	14.501995
1740.000000	14.540234
1741.000000	14.590382
1742.000000	14.620193
1743.000000	14.658105
1744.000000	14.686688
1745.000000	14.714430
1746.000000	14.755036
1747.000000	14.766728
1748.000000	14.777255
1749.000000	14.806046
1750.000000	14.810665
1751.000000	14.813579
1752.000000	14.819779
1753.000000	14.830428
1754.000000	14.830691
1755.000000	14.818836
1756.000000	14.823055
1757.000000	14.822306
1758.000000	14.823015
1759.000000	14.824337
1760.000000	14.834209
1761.000000	14.832998
1762.000000	14.837002
1763.000000	14.845085
1764.000000	14.854237
1765.000000	14.862190
1766.000000	14.867197
1767.000000	14.875789
1768.000000	14.894112
1769.000000	14.915005
1770.000000	14.932968
1771.000000	14.947372
1772.000000	14.957892
1773.000000	14.986974
1774.000000	14.990289
1775.000000	15.008547
1776.000000	15.029925
1777.000000	15.025141
1778.000000	15.033044
1779.000000	15.043660
1780.000000	15.053274
1781.000000	15.059075
1782.000000	15.064147
1783.000000	15.069198
1784.000000	15.066629
1785.000000	15.063639
1786.000000	15.062857
1787.000000	15.063557
1788.000000	15.068423
1789.000000	15.072104
1790.000000	15.071804
1791.000000	15.067001
1792.000000	15.074492
1793.000000	15.087969
1794.000000	15.096373
1795.000000	15.102175
1796.000000	15.113139
1797.000000	15.123776
1798.000000	15.130901
1799.000000	15.149592
1800.000000	15.160702
1801.000000	15.165643
1802.000000	15.162762
1803.000000	15.163213
1804.000000	15.183571
1805.000000	15.190224
1806.000000	15.187880
1807.000000	15.186762
1808.000000	15.200371
1809.000000	15.220345
1810.000000	15.237039
1811.000000	15.252661
1812.000000	15.248519
1813.000000	15.252505
1814.000000	15.256686
1815.000000	15.257777
1816.000000	15.270647
1817.000000	15.293222
1818.000000	15.319831
1819.000000	15.325888
1820.000000	15.297629
1821.000000	15.254282
1822.000000	15.240122
1823.000000	15.260297
1824.000000	15.290718
1825.000000	15.308211
1826.000000	15.307813
1827.000000	15.307694
1828.000000	15.333677
1829.000000	15.340531
1830.000000	15.334687
1831.000000	15.356219
1832.000000	15.399920
1833.000000	15.441103
1834.000000	15.473630
1835.000000	15.495626
1836.000000	15.499243
1837.000000	15.511131
1838.000000	15.530660
1839.000000	15.543407
1840.000000	15.543549
1841.000000	15.518716
1842.000000	15.498744
1843.000000	15.520536
1844.000000	15.587573
1845.000000	15.645480
1846.000000	15.655179
1847.000000	15.609432
1848.000000	15.576356
1849.000000	15.567359
1850.000000	15.577079
1851.000000	15.586388
1852.000000	15.580342
1853.000000	15.580486
1854.000000	15.567811
1855.000000	15.567809
1856.000000	15.568729
1857.000000	15.559063
1858.000000	15.536018
1859.000000	15.506617
1860.000000	15.459967
1861.000000	15.417600
1862.000000	15.400132
1863.000000	15.388162
1864.000000	15.407613
1865.000000	15.418606
1866.000000	15.431255
1867.000000	15.421040
1868.000000	15.400465
1869.000000	15.338608
1870.000000	15.259566
1871.000000	15.193361
1872.000000	15.101437
1873.000000	15.006639
1874.000000	14.919447
1875.000000	14.826636
1876.000000	14.726978
1877.000000	14.627391
1878.000000	14.544808
1879.000000	14.454946
1880.000000	14.371767
1881.000000	14.266458
1882.000000	14.152639
1883.000000	14.016876
1884.000000	13.866178
1885.000000	13.713785
1886.000000	13.570853
1887.000000	13.455064
1888.000000	13.297837
1889.000000	13.143894
1890.000000	12.967910
1891.000000	12.770849
1892.000000	12.569843
1893.000000	12.384560
1894.000000	12.228925
1895.000000	12.114398
1896.000000	11.979343
1897.000000	11.809717
1898.000000	11.644219
1899.000000	11.453867
1900.000000	11.278618
1901.000000	11.146274
1902.000000	11.023046
1903.000000	10.891581
1904.000000	10.744462
1905.000000	10.575908
1906.000000	10.433685
1907.000000	10.318248
1908.000000	10.226417
1909.000000	10.168792
1910.000000	10.110467
1911.000000	10.035401
1912.000000	9.932045
1913.000000	9.830361
1914.000000	9.742094
1915.000000	9.670454
1916.000000	9.627018
1917.000000	9.594204
1918.000000	9.538257
1919.000000	9.493115
1920.000000	9.430996
1921.000000	9.377141
1922.000000	9.328796
1923.000000	9.294618
1924.000000	9.258704
1925.000000	9.220151
1926.000000	9.213874
1927.000000	9.191543
1928.000000	9.155801
1929.000000	9.144213
1930.000000	9.126604
1931.000000	9.095016
1932.000000	9.069798
1933.000000	9.086638
1934.000000	9.086212
1935.000000	9.079718
1936.000000	9.083070
1937.000000	9.082611
1938.000000	9.092377
1939.000000	9.092473
1940.000000	9.073067
1941.000000	9.107932
1942.000000	9.128007
1943.000000	9.131341
1944.000000	9.163612
1945.000000	9.174155
1946.000000	9.200636
1947.000000	9.202112
1948.000000	9.238830
1949.000000	9.256365
1950.000000	9.274482
1951.000000	9.302228
1952.000000	9.327066
1953.000000	9.355150
1954.000000	9.375216
1955.000000	9.411910
1956.000000	9.422982
1957.000000	9.450923
1958.000000	9.485331
1959.000000	9.509702
1960.000000	9.535470
1961.000000	9.552996
1962.000000	9.587405
1963.000000	9.610832
1964.000000	9.641310
1965.000000	9.667968
1966.000000	9.680355
1967.000000	9.708185
1968.000000	9.734728
1969.000000	9.757484
1970.000000	9.767786
1971.000000	9.785419
1972.000000	9.823535
1973.000000	9.840401
1974.000000	9.886020
1975.000000	9.902726
1976.000000	9.934919
1977.000000	9.949344
1978.000000	9.989964
1979.000000	10.003690
1980.000000	10.044028
1981.000000	10.061796
1982.000000	10.083621
1983.000000	10.121710
1984.000000	10.159188
1985.000000	10.170863
1986.000000	10.204128
1987.000000	10.218228
1988.000000	10.255710
1989.000000	10.270863
1990.000000	10.287870
1991.000000	10.306682
1992.000000	10.322571
1993.000000	10.359500
1994.000000	10.383846
1995.000000	10.396022
1996.000000	10.441168
1997.000000	10.437109
1998.000000	10.467750
1999.000000	10.499296
2000.000000	10.513710
2001.000000	10.534895
2002.000000	10.574058
2003.000000	10.590749
2004.000000	10.598730
2005.000000	10.601496
2006.000000	10.606868
2007.000000	10.626556
2008.000000	10.640072
2009.000000	10.651685
2010.000000	10.663245
2011.000000	10.663752
2012.000000	10.660312
2013.000000	10.653852
2014.000000	10.651228
2015.000000	10.645694
2016.000000	10.646119
2017.000000	10.626065
2018.000000	10.623660
2019.000000	10.616964
2020.000000	10.593125
2021.000000	10.579773
2022.000000	10.558483
2023.000000	10.544031
2024.000000	10.517419
2025.000000	10.501534
2026.000000	10.475579
2027.000000	10.441390
2028.000000	10.411830
2029.000000	10.388752
2030.000000	10.355979
2031.000000	10.342053
2032.000000	10.291855
2033.000000	10.253180
2034.000000	10.217143
2035.000000	10.184840
2036.000000	10.140180
2037.000000	10.095624
2038.000000	10.054124
2039.000000	10.007363
2040.000000	9.949431
2041.000000	9.917262
2042.000000	9.875632
2043.000000	9.847216
2044.000000	9.807450
2045.000000	9.759713
2046.000000	9.715164
2047.000000	9.672894
2048.000000	9.656533
2049.000000	9.631584
2050.000000	9.609566
2051.000000	9.598725
2052.000000	9.590947
2053.000000	9.594729
2054.000000	9.602449
2055.000000	9.605355
2056.000000	9.621592
2057.000000	9.646949
2058.000000	9.669252
2059.000000	9.695653
2060.000000	9.725059
2061.000000	9.754179
2062.000000	9.787846
2063.000000	9.829343
2064.000000	9.863574
2065.000000	9.901004
2066.000000	9.940895
2067.000000	9.976306
2068.000000	10.010542
2069.000000	10.053098
2070.000000	10.087150
2071.000000	10.122927
2072.000000	10.152934
2073.000000	10.183529
2074.000000	10.204872
2075.000000	10.226867
2076.000000	10.254909
2077.000000	10.280406
2078.000000	10.300052
2079.000000	10.322736
2080.000000	10.337590
2081.000000	10.356871
2082.000000	10.381893
2083.000000	10.391875
2084.000000	10.395457
2085.000000	10.401497
2086.000000	10.406055
2087.000000	10.412126
2088.000000	10.415362
2089.000000	10.423526
2090.000000	10.425910
2091.000000	10.430637
2092.000000	10.437938
2093.000000	10.434104
2094.000000	10.426665
2095.000000	10.433836
2096.000000	10.438118
2097.000000	10.434765
2098.000000	10.436762
2099.000000	10.439619
2100.000000	10.439917
2101.000000	10.445996
2102.000000	10.449980
2103.000000	10.451544
2104.000000	10.460038
2105.000000	10.468233
2106.000000	10.464713
2107.000000	10.465633
2108.000000	10.469571
2109.000000	10.470176
2110.000000	10.474142
2111.000000	10.462845
2112.000000	10.453470
2113.000000	10.455916
2114.000000	10.462469
2115.000000	10.459263
2116.000000	10.447198
2117.000000	10.433696
2118.000000	10.427208
2119.000000	10.435322
2120.000000	10.434667
2121.000000	10.417647
2122.000000	10.395290
2123.000000	10.385994
2124.000000	10.362008
2125.000000	10.356093
2126.000000	10.339457
2127.000000	10.315602
2128.000000	10.295705
2129.000000	10.274991
2130.000000	10.255581
2131.000000	10.218887
2132.000000	10.191835
2133.000000	10.171716
2134.000000	10.140230
2135.000000	10.100862
2136.000000	10.061325
2137.000000	10.026627
2138.000000	9.986380
2139.000000	9.946249
2140.000000	9.896811
2141.000000	9.861343
2142.000000	9.812294
2143.000000	9.769067
2144.000000	9.720453
2145.000000	9.669992
2146.000000	9.616858
2147.000000	9.566293
2148.000000	9.526966
2149.000000	9.482491
2150.000000	9.430775
2151.000000	9.388386
2152.000000	9.343950
2153.000000	9.296098
2154.000000	9.259954
2155.000000	9.217909
2156.000000	9.178646
2157.000000	9.135528
2158.000000	9.085149
2159.000000	9.048474
2160.000000	9.017406
2161.000000	8.991696
2162.000000	8.956640
2163.000000	8.925092
2164.000000	8.907831
2165.000000	8.864866
2166.000000	8.826017
2167.000000	8.805007
2168.000000	8.777750
2169.000000	8.761636
2170.000000	8.733437
2171.000000	8.706559
2172.000000	8.683967
2173.000000	8.666600
2174.000000	8.640860
2175.000000	8.625394
2176.000000	8.594817
2177.000000	8.569943
2178.000000	8.544571
2179.000000	8.518178
2180.000000	8.485151
2181.000000	8.460827
2182.000000	8.423550
2183.000000	8.396680
2184.000000	8.351601
2185.000000	8.307337
2186.000000	8.252593
2187.000000	8.196086
2188.000000	8.145977
2189.000000	8.082651
2190.000000	7.999610
2191.000000	7.926116
2192.000000	7.848473
2193.000000	7.758668
2194.000000	7.656911
2195.000000	7.554469
2196.000000	7.474463
2197.000000	7.358175
2198.000000	7.258452
2199.000000	7.150692
2200.000000	7.060164
2201.000000	6.962362
2202.000000	6.861225
2203.000000	6.782642
2204.000000	6.716623
2205.000000	6.635327
2206.000000	6.586700
2207.000000	6.553006
2208.000000	6.521718
2209.000000	6.503074
2210.000000	6.508959
2211.000000	6.502389
2212.000000	6.518676
2213.000000	6.552012
2214.000000	6.568023
2215.000000	6.617610
2216.000000	6.655826
2217.000000	6.690848
2218.000000	6.738343
2219.000000	6.788922
2220.000000	6.843294
2221.000000	6.889569
2222.000000	6.934915
2223.000000	6.979804
2224.000000	7.047413
2225.000000	7.083104
2226.000000	7.121804
2227.000000	7.178968
2228.000000	7.204318
2229.000000	7.230293
2230.000000	7.268665
2231.000000	7.281270
2232.000000	7.301050
2233.000000	7.313636
2234.000000	7.336769
2235.000000	7.346250
2236.000000	7.345175
2237.000000	7.349510
2238.000000	7.350890
2239.000000	7.351679
2240.000000	7.335436
2241.000000	7.335358
2242.000000	7.327951
2243.000000	7.321012
2244.000000	7.313746
2245.000000	7.288073
2246.000000	7.270205
2247.000000	7.265117
2248.000000	7.257242
2249.000000	7.222863
2250.000000	7.209415
2251.000000	7.204842
2252.000000	7.205182
2253.000000	7.175748
2254.000000	7.154532
2255.000000	7.148828
2256.000000	7.146166
2257.000000	7.134096
2258.000000	7.133918
2259.000000	7.137367
2260.000000	7.137603
2261.000000	7.144534
2262.000000	7.152295
2263.000000	7.159672
2264.000000	7.169469
2265.000000	7.192914
2266.000000	7.210522
2267.000000	7.230394
2268.000000	7.243925
2269.000000	7.267640
2270.000000	7.294042
2271.000000	7.316298
2272.000000	7.348114
2273.000000	7.380569
2274.000000	7.396626
2275.000000	7.428336
2276.000000	7.431666
2277.000000	7.463362
2278.000000	7.493411
2279.000000	7.497118
2280.000000	7.517008
2281.000000	7.547443
2282.000000	7.548574
2283.000000	7.572476
2284.000000	7.586085
2285.000000	7.607399
2286.000000	7.631874
2287.000000	7.626976
2288.000000	7.655959
2289.000000	7.667759
2290.000000	7.691123
2291.000000	7.706490
2292.000000	7.739147
2293.000000	7.752047
2294.000000	7.758874
2295.000000	7.769863
2296.000000	7.798861
2297.000000	7.813446
2298.000000	7.833717
2299.000000	7.855113
2300.000000	7.865315
2301.000000	7.895174
2302.000000	7.914484
2303.000000	7.942587
2304.000000	7.967454
2305.000000	7.997079
2306.000000	8.023158
2307.000000	8.051129
2308.000000	8.066788
2309.000000	8.094439
2310.000000	8.114017
2311.000000	8.146841
2312.000000	8.165413
2313.000000	8.199098
2314.000000	8.215121
2315.000000	8.235019
2316.000000	8.256850
2317.000000	8.271297
2318.000000	8.292953
2319.000000	8.322381
2320.000000	8.322115
2321.000000	8.333022
2322.000000	8.333246
2323.000000	8.351809
2324.000000	8.355891
2325.000000	8.371307
2326.000000	8.378186
2327.000000	8.377808
2328.000000	8.386294
2329.000000	8.374678
2330.000000	8.383818
2331.000000	8.392436
2332.000000	8.400979
2333.000000	8.415831
2334.000000	8.420378
2335.000000	8.430989
2336.000000	8.444120
2337.000000	8.443895
2338.000000	8.451377
2339.000000	8.471124
2340.000000	8.487503
2341.000000	8.490316
2342.000000	8.508080
2343.000000	8.515805
2344.000000	8.529170
2345.000000	8.547748
2346.000000	8.564004
2347.000000	8.587914
2348.000000	8.593250
2349.000000	8.598555
2350.000000	8.624483
2351.000000	8.637254
2352.000000	8.645392
2353.000000	8.659579
2354.000000	8.669726
2355.000000	8.685803
2356.000000	8.708168
2357.000000	8.716560
2358.000000	8.722619
2359.000000	8.738744
2360.000000	8.751943
2361.000000	8.753247
2362.000000	8.758837
2363.000000	8.781893
2364.000000	8.793627
2365.000000	8.800047
2366.000000	8.807038
2367.000000	8.806445
2368.000000	8.810814
2369.000000	8.827835
2370.000000	8.840126
2371.000000	8.839045
2372.000000	8.851186
2373.000000	8.868487
2374.000000	8.874511
2375.000000	8.881200
2376.000000	8.890686
2377.000000	8.896470
2378.000000	8.907555
2379.000000	8.920245
2380.000000	8.917814
2381.000000	8.919209
2382.000000	8.931751
2383.000000	8.935929
2384.000000	8.938240
2385.000000	8.936886
2386.000000	8.948979
2387.000000	8.952678
2388.000000	8.938296
2389.000000	8.929559
2390.000000	8.940693
2391.000000	8.940182
2392.000000	8.932320
2393.000000	8.930021
2394.000000	8.932864
2395.000000	8.924632
2396.000000	8.913987
2397.000000	8.914351
2398.000000	8.914611
2399.000000	8.909016
2400.000000	8.911983
2401.000000	8.909647
2402.000000	8.891734
2403.000000	8.887018
2404.000000	8.878154
2405.000000	8.867202
2406.000000	8.863809
2407.000000	8.854972
2408.000000	8.841914
2409.000000	8.838442
2410.000000	8.826265
2411.000000	8.807587
2412.000000	8.794032
2413.000000	8.781913
2414.000000	8.763266
2415.000000	8.755617
2416.000000	8.739599
2417.000000	8.718107
2418.000000	8.703039
2419.000000	8.691614
2420.000000	8.680134
2421.000000	8.644560
2422.000000	8.626591
2423.000000	8.613801
2424.000000	8.586814
2425.000000	8.559600
2426.000000	8.540808
2427.000000	8.510036
2428.000000	8.477572
2429.000000	8.446114
2430.000000	8.419476
2431.000000	8.377332
2432.000000	8.348608
2433.000000	8.319190
2434.000000	8.274769
2435.000000	8.254656
2436.000000	8.214418
2437.000000	8.176454
2438.000000	8.146820
2439.000000	8.108225
2440.000000	8.080243
2441.000000	8.048316
2442.000000	8.001490
2443.000000	7.974895
2444.000000	7.940665
2445.000000	7.888607
2446.000000	7.869104
2447.000000	7.823675
2448.000000	7.794485
2449.000000	7.756053
2450.000000	7.732678
2451.000000	7.698454
2452.000000	7.662578
2453.000000	7.634597
2454.000000	7.624392
2455.000000	7.580355
2456.000000	7.541053
2457.000000	7.508352
2458.000000	7.491595
2459.000000	7.449377
2460.000000	7.449312
2461.000000	7.438412
2462.000000	7.392882
2463.000000	7.386225
2464.000000	7.363541
2465.000000	7.349591
2466.000000	7.327915
2467.000000	7.308223
2468.000000	7.292817
2469.000000	7.312866
2470.000000	7.235140
2471.000000	7.236837
2472.000000	7.219977
2473.000000	7.222376
2474.000000	7.199698
2475.000000	7.167829
2476.000000	7.175234
2477.000000	7.167570
2478.000000	7.158220
2479.000000	7.120880
2480.000000	7.126161
2481.000000	7.118262
2482.000000	7.113948
2483.000000	7.074493
2484.000000	7.124330
2485.000000	7.108852
2486.000000	7.036735
2487.000000	7.001471
2488.000000	7.075345
2489.000000	7.051494
2490.000000	6.967902
2491.000000	6.982597
2492.000000	6.980548
2493.000000	6.975735
2494.000000	6.969171
2495.000000	6.978152
2496.000000	7.008216
2497.000000	7.003294
2498.000000	6.949849
2499.000000	6.956722
2500.000000	6.860786
