PE UV       SUBTECH     SPECTRUM    ASCII       PEDS        4.00        
   -1
CICIMAUCR0251-2.Sample.ASC
24/05/27
16:17:18.00
24/05/27
16:17:18.00
Vinicio Soto Monge
C. resplendens, F
250,000000
1
Lambda 1050
1050L1511233
PerkinElmer UV WinLab 6.3.2.0749 / 2.02.05 Lambda 900 UV/VIS/NIR, Aug  7 2015 09:38:08

0
0
3350/servo 860,8/2
0
0
UV/VIS
1
1
1
DoubleDePol,CommonBeamDepol,RBeamAtt,SBeamAtt,60mm sphere, WB InGaAs Detector
0
0
0
0
Program
Program
3350/servo 860,8/2
3350/0,2 860,8/0,2
3350/0,2 860,8/0,2
0
15.00
 
 
 
0
 
860,8
319,2
860,8
Front
100
on
S:100 R:100
0
0
0
0
 
0
 
 
 
0
 
 
0
0
0
0
0
 
 
 
 
0
0


0
0
#HDR
-1
-1
#GR
nm
%R
1.0
0.0
2500,000000
-1,000000
2251
8
92,106900
5,126500
#DATA
2500.000000	5.354600
2499.000000	5.426400
2498.000000	5.439800
2497.000000	5.508400
2496.000000	5.351400
2495.000000	5.509100
2494.000000	5.386700
2493.000000	5.407600
2492.000000	5.306500
2491.000000	5.267300
2490.000000	5.383900
2489.000000	5.419700
2488.000000	5.316800
2487.000000	5.328200
2486.000000	5.266600
2485.000000	5.341000
2484.000000	5.244100
2483.000000	5.249700
2482.000000	5.344900
2481.000000	5.220600
2480.000000	5.292900
2479.000000	5.270400
2478.000000	5.185400
2477.000000	5.234300
2476.000000	5.177200
2475.000000	5.188700
2474.000000	5.221300
2473.000000	5.247500
2472.000000	5.250600
2471.000000	5.179900
2470.000000	5.166000
2469.000000	5.168900
2468.000000	5.143700
2467.000000	5.179000
2466.000000	5.163000
2465.000000	5.126500
2464.000000	5.180800
2463.000000	5.155600
2462.000000	5.208200
2461.000000	5.209800
2460.000000	5.215100
2459.000000	5.178500
2458.000000	5.171700
2457.000000	5.198400
2456.000000	5.191200
2455.000000	5.197700
2454.000000	5.228700
2453.000000	5.225900
2452.000000	5.247800
2451.000000	5.290400
2450.000000	5.287200
2449.000000	5.259000
2448.000000	5.304200
2447.000000	5.333300
2446.000000	5.353600
2445.000000	5.361600
2444.000000	5.384700
2443.000000	5.402500
2442.000000	5.401900
2441.000000	5.430500
2440.000000	5.439200
2439.000000	5.467100
2438.000000	5.469200
2437.000000	5.498500
2436.000000	5.506900
2435.000000	5.509400
2434.000000	5.532600
2433.000000	5.572000
2432.000000	5.589700
2431.000000	5.593500
2430.000000	5.613500
2429.000000	5.619600
2428.000000	5.626100
2427.000000	5.645200
2426.000000	5.659500
2425.000000	5.667200
2424.000000	5.680500
2423.000000	5.681800
2422.000000	5.698300
2421.000000	5.702900
2420.000000	5.706700
2419.000000	5.742500
2418.000000	5.750700
2417.000000	5.751600
2416.000000	5.772300
2415.000000	5.790000
2414.000000	5.796100
2413.000000	5.796000
2412.000000	5.814700
2411.000000	5.823400
2410.000000	5.841400
2409.000000	5.855300
2408.000000	5.863200
2407.000000	5.880700
2406.000000	5.885000
2405.000000	5.893000
2404.000000	5.912000
2403.000000	5.916400
2402.000000	5.930700
2401.000000	5.948000
2400.000000	5.956600
2399.000000	5.963100
2398.000000	5.969200
2397.000000	5.972800
2396.000000	5.991500
2395.000000	6.004000
2394.000000	6.014500
2393.000000	6.013900
2392.000000	6.028600
2391.000000	6.055300
2390.000000	6.063300
2389.000000	6.066700
2388.000000	6.080200
2387.000000	6.094100
2386.000000	6.103600
2385.000000	6.091100
2384.000000	6.094400
2383.000000	6.108400
2382.000000	6.105900
2381.000000	6.111100
2380.000000	6.122300
2379.000000	6.122100
2378.000000	6.112900
2377.000000	6.115000
2376.000000	6.108400
2375.000000	6.107400
2374.000000	6.112800
2373.000000	6.110800
2372.000000	6.107500
2371.000000	6.109000
2370.000000	6.090600
2369.000000	6.065200
2368.000000	6.061500
2367.000000	6.056900
2366.000000	6.030600
2365.000000	6.010700
2364.000000	6.005200
2363.000000	5.996200
2362.000000	5.977100
2361.000000	5.968800
2360.000000	5.957900
2359.000000	5.925400
2358.000000	5.899500
2357.000000	5.887500
2356.000000	5.879600
2355.000000	5.867900
2354.000000	5.856800
2353.000000	5.864700
2352.000000	5.869100
2351.000000	5.863100
2350.000000	5.861600
2349.000000	5.875400
2348.000000	5.878000
2347.000000	5.875100
2346.000000	5.895800
2345.000000	5.921200
2344.000000	5.940500
2343.000000	5.955000
2342.000000	5.973400
2341.000000	5.996500
2340.000000	5.991300
2339.000000	6.007300
2338.000000	6.039600
2337.000000	6.030200
2336.000000	6.024700
2335.000000	6.029500
2334.000000	6.023600
2333.000000	6.033600
2332.000000	6.026800
2331.000000	6.013700
2330.000000	5.999400
2329.000000	5.981400
2328.000000	5.952300
2327.000000	5.926000
2326.000000	5.916100
2325.000000	5.887600
2324.000000	5.859600
2323.000000	5.840300
2322.000000	5.810800
2321.000000	5.786300
2320.000000	5.749800
2319.000000	5.697500
2318.000000	5.666300
2317.000000	5.640500
2316.000000	5.601300
2315.000000	5.544300
2314.000000	5.533400
2313.000000	5.514300
2312.000000	5.479100
2311.000000	5.463600
2310.000000	5.434200
2309.000000	5.395900
2308.000000	5.382100
2307.000000	5.369100
2306.000000	5.366400
2305.000000	5.364300
2304.000000	5.372300
2303.000000	5.365600
2302.000000	5.373600
2301.000000	5.395800
2300.000000	5.416900
2299.000000	5.450200
2298.000000	5.460200
2297.000000	5.471700
2296.000000	5.505800
2295.000000	5.517800
2294.000000	5.556300
2293.000000	5.575600
2292.000000	5.589000
2291.000000	5.594900
2290.000000	5.598100
2289.000000	5.604800
2288.000000	5.598700
2287.000000	5.603400
2286.000000	5.593400
2285.000000	5.591100
2284.000000	5.583600
2283.000000	5.553500
2282.000000	5.523600
2281.000000	5.515100
2280.000000	5.495100
2279.000000	5.471000
2278.000000	5.441900
2277.000000	5.444100
2276.000000	5.405100
2275.000000	5.395800
2274.000000	5.372300
2273.000000	5.367800
2272.000000	5.358900
2271.000000	5.341200
2270.000000	5.346300
2269.000000	5.347800
2268.000000	5.338100
2267.000000	5.358700
2266.000000	5.375400
2265.000000	5.414800
2264.000000	5.443300
2263.000000	5.467700
2262.000000	5.507900
2261.000000	5.565900
2260.000000	5.651300
2259.000000	5.686800
2258.000000	5.757500
2257.000000	5.861100
2256.000000	5.952700
2255.000000	6.016700
2254.000000	6.120900
2253.000000	6.199000
2252.000000	6.304900
2251.000000	6.375700
2250.000000	6.487400
2249.000000	6.567700
2248.000000	6.658700
2247.000000	6.754300
2246.000000	6.812500
2245.000000	6.881300
2244.000000	6.952000
2243.000000	7.020900
2242.000000	7.072200
2241.000000	7.131100
2240.000000	7.191200
2239.000000	7.223200
2238.000000	7.289900
2237.000000	7.328400
2236.000000	7.356600
2235.000000	7.399400
2234.000000	7.430700
2233.000000	7.451000
2232.000000	7.481400
2231.000000	7.531700
2230.000000	7.539300
2229.000000	7.559500
2228.000000	7.582300
2227.000000	7.581200
2226.000000	7.586400
2225.000000	7.606500
2224.000000	7.591700
2223.000000	7.602100
2222.000000	7.605500
2221.000000	7.610600
2220.000000	7.581400
2219.000000	7.580900
2218.000000	7.586500
2217.000000	7.559800
2216.000000	7.546800
2215.000000	7.545700
2214.000000	7.536100
2213.000000	7.505100
2212.000000	7.512700
2211.000000	7.470500
2210.000000	7.496700
2209.000000	7.459400
2208.000000	7.446100
2207.000000	7.466800
2206.000000	7.457400
2205.000000	7.440200
2204.000000	7.418700
2203.000000	7.423500
2202.000000	7.430800
2201.000000	7.426000
2200.000000	7.405500
2199.000000	7.384600
2198.000000	7.397800
2197.000000	7.386800
2196.000000	7.375000
2195.000000	7.387400
2194.000000	7.381900
2193.000000	7.373300
2192.000000	7.381600
2191.000000	7.361900
2190.000000	7.353800
2189.000000	7.356400
2188.000000	7.348800
2187.000000	7.347400
2186.000000	7.346300
2185.000000	7.351000
2184.000000	7.340700
2183.000000	7.332300
2182.000000	7.323400
2181.000000	7.322200
2180.000000	7.323700
2179.000000	7.318600
2178.000000	7.305100
2177.000000	7.324100
2176.000000	7.316000
2175.000000	7.316500
2174.000000	7.322300
2173.000000	7.314700
2172.000000	7.320700
2171.000000	7.326600
2170.000000	7.342600
2169.000000	7.368300
2168.000000	7.368300
2167.000000	7.381400
2166.000000	7.379000
2165.000000	7.404400
2164.000000	7.395100
2163.000000	7.411800
2162.000000	7.420300
2161.000000	7.435300
2160.000000	7.464000
2159.000000	7.484300
2158.000000	7.503100
2157.000000	7.510800
2156.000000	7.527300
2155.000000	7.558200
2154.000000	7.572300
2153.000000	7.600700
2152.000000	7.620600
2151.000000	7.643600
2150.000000	7.670300
2149.000000	7.675000
2148.000000	7.701000
2147.000000	7.711700
2146.000000	7.737000
2145.000000	7.756000
2144.000000	7.754400
2143.000000	7.774100
2142.000000	7.795700
2141.000000	7.807100
2140.000000	7.824200
2139.000000	7.843600
2138.000000	7.838400
2137.000000	7.858600
2136.000000	7.866900
2135.000000	7.876000
2134.000000	7.869800
2133.000000	7.884100
2132.000000	7.904200
2131.000000	7.908000
2130.000000	7.902900
2129.000000	7.910100
2128.000000	7.902700
2127.000000	7.905800
2126.000000	7.899800
2125.000000	7.891700
2124.000000	7.894200
2123.000000	7.907600
2122.000000	7.885100
2121.000000	7.866500
2120.000000	7.857700
2119.000000	7.851400
2118.000000	7.841500
2117.000000	7.822400
2116.000000	7.806900
2115.000000	7.793400
2114.000000	7.773000
2113.000000	7.742500
2112.000000	7.739200
2111.000000	7.729800
2110.000000	7.711400
2109.000000	7.697400
2108.000000	7.670100
2107.000000	7.642400
2106.000000	7.625500
2105.000000	7.613700
2104.000000	7.596000
2103.000000	7.589900
2102.000000	7.561400
2101.000000	7.537500
2100.000000	7.529200
2099.000000	7.510200
2098.000000	7.501600
2097.000000	7.479700
2096.000000	7.470300
2095.000000	7.462800
2094.000000	7.435500
2093.000000	7.423000
2092.000000	7.409700
2091.000000	7.388200
2090.000000	7.374600
2089.000000	7.366900
2088.000000	7.349000
2087.000000	7.339400
2086.000000	7.341800
2085.000000	7.324000
2084.000000	7.304000
2083.000000	7.290800
2082.000000	7.272700
2081.000000	7.251800
2080.000000	7.239200
2079.000000	7.226900
2078.000000	7.206900
2077.000000	7.190100
2076.000000	7.166100
2075.000000	7.150300
2074.000000	7.142700
2073.000000	7.112400
2072.000000	7.086100
2071.000000	7.072100
2070.000000	7.062900
2069.000000	7.033700
2068.000000	7.000800
2067.000000	6.982200
2066.000000	6.960700
2065.000000	6.945900
2064.000000	6.932300
2063.000000	6.920200
2062.000000	6.898200
2061.000000	6.878000
2060.000000	6.857800
2059.000000	6.849900
2058.000000	6.836600
2057.000000	6.831700
2056.000000	6.827500
2055.000000	6.821700
2054.000000	6.811400
2053.000000	6.826200
2052.000000	6.836700
2051.000000	6.835700
2050.000000	6.843000
2049.000000	6.862200
2048.000000	6.873400
2047.000000	6.903800
2046.000000	6.932000
2045.000000	6.952000
2044.000000	6.986000
2043.000000	7.014600
2042.000000	7.056600
2041.000000	7.079000
2040.000000	7.111100
2039.000000	7.137000
2038.000000	7.183000
2037.000000	7.213500
2036.000000	7.232900
2035.000000	7.237500
2034.000000	7.268700
2033.000000	7.290400
2032.000000	7.314900
2031.000000	7.335200
2030.000000	7.341500
2029.000000	7.353700
2028.000000	7.375300
2027.000000	7.381500
2026.000000	7.393100
2025.000000	7.401000
2024.000000	7.415400
2023.000000	7.413600
2022.000000	7.429900
2021.000000	7.446800
2020.000000	7.436600
2019.000000	7.431300
2018.000000	7.438300
2017.000000	7.444100
2016.000000	7.447400
2015.000000	7.435000
2014.000000	7.425900
2013.000000	7.426600
2012.000000	7.406100
2011.000000	7.402600
2010.000000	7.388000
2009.000000	7.361600
2008.000000	7.346800
2007.000000	7.336500
2006.000000	7.332900
2005.000000	7.315700
2004.000000	7.300100
2003.000000	7.273100
2002.000000	7.258900
2001.000000	7.233900
2000.000000	7.218600
1999.000000	7.184600
1998.000000	7.145800
1997.000000	7.115400
1996.000000	7.106800
1995.000000	7.093200
1994.000000	7.057600
1993.000000	7.014600
1992.000000	6.992600
1991.000000	6.960500
1990.000000	6.921900
1989.000000	6.901800
1988.000000	6.859800
1987.000000	6.828700
1986.000000	6.806100
1985.000000	6.770500
1984.000000	6.741100
1983.000000	6.696400
1982.000000	6.664400
1981.000000	6.643400
1980.000000	6.616400
1979.000000	6.586600
1978.000000	6.564000
1977.000000	6.530700
1976.000000	6.491600
1975.000000	6.459800
1974.000000	6.437200
1973.000000	6.425100
1972.000000	6.386300
1971.000000	6.344900
1970.000000	6.351900
1969.000000	6.318800
1968.000000	6.307100
1967.000000	6.269600
1966.000000	6.260600
1965.000000	6.245800
1964.000000	6.200100
1963.000000	6.198900
1962.000000	6.163400
1961.000000	6.165200
1960.000000	6.142800
1959.000000	6.136200
1958.000000	6.102200
1957.000000	6.086500
1956.000000	6.079500
1955.000000	6.065500
1954.000000	6.037500
1953.000000	6.040500
1952.000000	6.030100
1951.000000	6.026700
1950.000000	5.987600
1949.000000	5.999700
1948.000000	5.975800
1947.000000	5.950100
1946.000000	5.971900
1945.000000	5.954200
1944.000000	5.939200
1943.000000	5.962000
1942.000000	5.925500
1941.000000	5.913600
1940.000000	5.931600
1939.000000	5.936100
1938.000000	5.943600
1937.000000	5.934600
1936.000000	5.953800
1935.000000	5.950800
1934.000000	5.985800
1933.000000	5.994400
1932.000000	5.979000
1931.000000	5.997800
1930.000000	6.021200
1929.000000	6.020300
1928.000000	6.089900
1927.000000	6.108500
1926.000000	6.131500
1925.000000	6.181500
1924.000000	6.182500
1923.000000	6.211200
1922.000000	6.255200
1921.000000	6.290100
1920.000000	6.346400
1919.000000	6.405600
1918.000000	6.445000
1917.000000	6.498700
1916.000000	6.544300
1915.000000	6.598700
1914.000000	6.663600
1913.000000	6.731900
1912.000000	6.817600
1911.000000	6.885200
1910.000000	6.970800
1909.000000	7.037300
1908.000000	7.098000
1907.000000	7.175900
1906.000000	7.275200
1905.000000	7.390200
1904.000000	7.505000
1903.000000	7.607800
1902.000000	7.731000
1901.000000	7.840200
1900.000000	7.981200
1899.000000	8.118200
1898.000000	8.265700
1897.000000	8.410700
1896.000000	8.556000
1895.000000	8.705700
1894.000000	8.850600
1893.000000	9.025300
1892.000000	9.201500
1891.000000	9.406200
1890.000000	9.651700
1889.000000	9.882100
1888.000000	10.090500
1887.000000	10.339600
1886.000000	10.599000
1885.000000	10.926000
1884.000000	11.245000
1883.000000	11.613100
1882.000000	11.982800
1881.000000	12.402300
1880.000000	12.794300
1879.000000	13.196900
1878.000000	13.592700
1877.000000	13.988300
1876.000000	14.391800
1875.000000	14.780100
1874.000000	15.141400
1873.000000	15.503500
1872.000000	15.862000
1871.000000	16.197600
1870.000000	16.521600
1869.000000	16.816500
1868.000000	17.092400
1867.000000	17.326500
1866.000000	17.530000
1865.000000	17.699800
1864.000000	17.860800
1863.000000	17.989300
1862.000000	18.134100
1861.000000	18.277700
1860.000000	18.407100
1859.000000	18.540400
1858.000000	18.634600
1857.000000	18.684200
1856.000000	18.763600
1855.000000	18.829700
1854.000000	18.847000
1853.000000	18.864400
1852.000000	18.862500
1851.000000	18.885600
1850.000000	18.899300
1849.000000	18.910000
1848.000000	18.920100
1847.000000	18.884400
1846.000000	18.848800
1845.000000	18.811100
1844.000000	18.780300
1843.000000	18.745700
1842.000000	18.742900
1841.000000	18.759900
1840.000000	18.749800
1839.000000	18.737300
1838.000000	18.705300
1837.000000	18.680000
1836.000000	18.655600
1835.000000	18.597700
1834.000000	18.551700
1833.000000	18.501400
1832.000000	18.453500
1831.000000	18.406900
1830.000000	18.351100
1829.000000	18.294400
1828.000000	18.253200
1827.000000	18.186200
1826.000000	18.114700
1825.000000	18.055400
1824.000000	17.997700
1823.000000	17.972300
1822.000000	17.954900
1821.000000	17.939900
1820.000000	17.921800
1819.000000	17.900600
1818.000000	17.873300
1817.000000	17.848500
1816.000000	17.837200
1815.000000	17.845200
1814.000000	17.838800
1813.000000	17.826700
1812.000000	17.819800
1811.000000	17.807100
1810.000000	17.790800
1809.000000	17.764600
1808.000000	17.727400
1807.000000	17.690300
1806.000000	17.663300
1805.000000	17.631700
1804.000000	17.587900
1803.000000	17.550500
1802.000000	17.503400
1801.000000	17.473400
1800.000000	17.449600
1799.000000	17.393700
1798.000000	17.342600
1797.000000	17.300900
1796.000000	17.267200
1795.000000	17.237900
1794.000000	17.200500
1793.000000	17.160100
1792.000000	17.119900
1791.000000	17.068700
1790.000000	17.008100
1789.000000	16.966000
1788.000000	16.932400
1787.000000	16.887900
1786.000000	16.835700
1785.000000	16.783000
1784.000000	16.731300
1783.000000	16.678000
1782.000000	16.608100
1781.000000	16.539100
1780.000000	16.484300
1779.000000	16.430400
1778.000000	16.367400
1777.000000	16.285800
1776.000000	16.219500
1775.000000	16.150400
1774.000000	16.060500
1773.000000	15.974400
1772.000000	15.879300
1771.000000	15.790400
1770.000000	15.701000
1769.000000	15.589200
1768.000000	15.503100
1767.000000	15.422600
1766.000000	15.330800
1765.000000	15.255100
1764.000000	15.210400
1763.000000	15.187300
1762.000000	15.171700
1761.000000	15.170300
1760.000000	15.215700
1759.000000	15.265700
1758.000000	15.324100
1757.000000	15.387500
1756.000000	15.440100
1755.000000	15.486400
1754.000000	15.540800
1753.000000	15.581200
1752.000000	15.587300
1751.000000	15.604700
1750.000000	15.605700
1749.000000	15.584000
1748.000000	15.571700
1747.000000	15.517200
1746.000000	15.441700
1745.000000	15.371200
1744.000000	15.295400
1743.000000	15.164600
1742.000000	15.034900
1741.000000	14.866700
1740.000000	14.689500
1739.000000	14.530000
1738.000000	14.337900
1737.000000	14.150600
1736.000000	13.992600
1735.000000	13.863300
1734.000000	13.762100
1733.000000	13.717500
1732.000000	13.682000
1731.000000	13.689400
1730.000000	13.731600
1729.000000	13.797000
1728.000000	13.869300
1727.000000	13.935600
1726.000000	14.016900
1725.000000	14.093200
1724.000000	14.138600
1723.000000	14.200100
1722.000000	14.251900
1721.000000	14.269000
1720.000000	14.274000
1719.000000	14.297900
1718.000000	14.322100
1717.000000	14.353900
1716.000000	14.387600
1715.000000	14.433800
1714.000000	14.494300
1713.000000	14.551200
1712.000000	14.614300
1711.000000	14.656300
1710.000000	14.678000
1709.000000	14.693300
1708.000000	14.705000
1707.000000	14.683500
1706.000000	14.651800
1705.000000	14.616800
1704.000000	14.564400
1703.000000	14.519900
1702.000000	14.450300
1701.000000	14.364000
1700.000000	14.241900
1699.000000	14.130500
1698.000000	14.006800
1697.000000	13.879600
1696.000000	13.788900
1695.000000	13.731900
1694.000000	13.683700
1693.000000	13.717600
1692.000000	13.793700
1691.000000	13.895700
1690.000000	14.026800
1689.000000	14.143000
1688.000000	14.241500
1687.000000	14.317000
1686.000000	14.403900
1685.000000	14.407200
1684.000000	14.434000
1683.000000	14.521300
1682.000000	14.671400
1681.000000	14.903900
1680.000000	15.235400
1679.000000	15.634400
1678.000000	16.095500
1677.000000	16.566200
1676.000000	16.994600
1675.000000	17.411800
1674.000000	17.765100
1673.000000	18.082800
1672.000000	18.371100
1671.000000	18.616200
1670.000000	18.806900
1669.000000	19.015800
1668.000000	19.162200
1667.000000	19.297900
1666.000000	19.401900
1665.000000	19.517200
1664.000000	19.593300
1663.000000	19.700100
1662.000000	19.765100
1661.000000	19.814900
1660.000000	19.876800
1659.000000	19.907500
1658.000000	19.973500
1657.000000	19.976200
1656.000000	20.008700
1655.000000	20.021100
1654.000000	20.006300
1653.000000	20.032500
1652.000000	20.006800
1651.000000	19.989700
1650.000000	19.990800
1649.000000	19.953300
1648.000000	19.919100
1647.000000	19.879100
1646.000000	19.839200
1645.000000	19.801600
1644.000000	19.760900
1643.000000	19.683400
1642.000000	19.650200
1641.000000	19.604900
1640.000000	19.547700
1639.000000	19.470400
1638.000000	19.422200
1637.000000	19.364500
1636.000000	19.275100
1635.000000	19.214300
1634.000000	19.167300
1633.000000	19.092400
1632.000000	19.013700
1631.000000	18.943000
1630.000000	18.871200
1629.000000	18.765300
1628.000000	18.694400
1627.000000	18.620100
1626.000000	18.532000
1625.000000	18.463600
1624.000000	18.375500
1623.000000	18.312800
1622.000000	18.215000
1621.000000	18.125300
1620.000000	18.062000
1619.000000	17.980800
1618.000000	17.901200
1617.000000	17.819000
1616.000000	17.757900
1615.000000	17.677400
1614.000000	17.585800
1613.000000	17.518900
1612.000000	17.439300
1611.000000	17.350700
1610.000000	17.291600
1609.000000	17.215400
1608.000000	17.162600
1607.000000	17.087900
1606.000000	17.012300
1605.000000	16.947000
1604.000000	16.868000
1603.000000	16.794700
1602.000000	16.721200
1601.000000	16.644400
1600.000000	16.586000
1599.000000	16.518600
1598.000000	16.444000
1597.000000	16.373700
1596.000000	16.309500
1595.000000	16.258000
1594.000000	16.198400
1593.000000	16.136100
1592.000000	16.076500
1591.000000	16.019100
1590.000000	15.947800
1589.000000	15.917700
1588.000000	15.843000
1587.000000	15.799300
1586.000000	15.764300
1585.000000	15.716100
1584.000000	15.677700
1583.000000	15.640400
1582.000000	15.603700
1581.000000	15.563500
1580.000000	15.515100
1579.000000	15.493400
1578.000000	15.481900
1577.000000	15.452000
1576.000000	15.435400
1575.000000	15.410100
1574.000000	15.397700
1573.000000	15.390300
1572.000000	15.383000
1571.000000	15.371400
1570.000000	15.371500
1569.000000	15.351900
1568.000000	15.353500
1567.000000	15.356300
1566.000000	15.357100
1565.000000	15.369300
1564.000000	15.374600
1563.000000	15.384900
1562.000000	15.382900
1561.000000	15.376900
1560.000000	15.382300
1559.000000	15.390700
1558.000000	15.390200
1557.000000	15.390400
1556.000000	15.395300
1555.000000	15.400900
1554.000000	15.387000
1553.000000	15.383800
1552.000000	15.378300
1551.000000	15.359400
1550.000000	15.338400
1549.000000	15.332200
1548.000000	15.323400
1547.000000	15.295200
1546.000000	15.282700
1545.000000	15.276200
1544.000000	15.259700
1543.000000	15.251400
1542.000000	15.238000
1541.000000	15.217300
1540.000000	15.204900
1539.000000	15.188300
1538.000000	15.176000
1537.000000	15.171500
1536.000000	15.154700
1535.000000	15.141700
1534.000000	15.120500
1533.000000	15.092700
1532.000000	15.064700
1531.000000	15.036500
1530.000000	15.008000
1529.000000	14.977900
1528.000000	14.940900
1527.000000	14.910800
1526.000000	14.873800
1525.000000	14.832400
1524.000000	14.787300
1523.000000	14.739100
1522.000000	14.705200
1521.000000	14.667600
1520.000000	14.631000
1519.000000	14.584900
1518.000000	14.526900
1517.000000	14.471100
1516.000000	14.417600
1515.000000	14.370300
1514.000000	14.319500
1513.000000	14.267500
1512.000000	14.215400
1511.000000	14.155300
1510.000000	14.094500
1509.000000	14.041100
1508.000000	13.988400
1507.000000	13.919100
1506.000000	13.854800
1505.000000	13.808500
1504.000000	13.752300
1503.000000	13.683700
1502.000000	13.610300
1501.000000	13.558800
1500.000000	13.512100
1499.000000	13.454500
1498.000000	13.399900
1497.000000	13.345000
1496.000000	13.295500
1495.000000	13.250200
1494.000000	13.201700
1493.000000	13.172700
1492.000000	13.136900
1491.000000	13.088300
1490.000000	13.046100
1489.000000	13.006100
1488.000000	12.965900
1487.000000	12.930600
1486.000000	12.901200
1485.000000	12.867500
1484.000000	12.833900
1483.000000	12.805000
1482.000000	12.792100
1481.000000	12.762300
1480.000000	12.735000
1479.000000	12.712200
1478.000000	12.705100
1477.000000	12.695400
1476.000000	12.693800
1475.000000	12.683600
1474.000000	12.673800
1473.000000	12.656900
1472.000000	12.674500
1471.000000	12.705000
1470.000000	12.682800
1469.000000	12.674900
1468.000000	12.697700
1467.000000	12.712300
1466.000000	12.727000
1465.000000	12.724300
1464.000000	12.742100
1463.000000	12.761000
1462.000000	12.788000
1461.000000	12.810000
1460.000000	12.850800
1459.000000	12.895000
1458.000000	12.941200
1457.000000	12.983500
1456.000000	13.022600
1455.000000	13.074900
1454.000000	13.136900
1453.000000	13.200000
1452.000000	13.270700
1451.000000	13.328200
1450.000000	13.391000
1449.000000	13.463200
1448.000000	13.541000
1447.000000	13.619400
1446.000000	13.688600
1445.000000	13.782500
1444.000000	13.854800
1443.000000	13.916600
1442.000000	14.006800
1441.000000	14.091400
1440.000000	14.192300
1439.000000	14.276700
1438.000000	14.372700
1437.000000	14.476400
1436.000000	14.545700
1435.000000	14.644500
1434.000000	14.751700
1433.000000	14.854800
1432.000000	14.959700
1431.000000	15.066400
1430.000000	15.189200
1429.000000	15.298100
1428.000000	15.439700
1427.000000	15.572200
1426.000000	15.716900
1425.000000	15.851400
1424.000000	16.036200
1423.000000	16.199200
1422.000000	16.370800
1421.000000	16.545900
1420.000000	16.722200
1419.000000	16.920700
1418.000000	17.139200
1417.000000	17.360300
1416.000000	17.518500
1415.000000	17.736300
1414.000000	17.982800
1413.000000	18.246600
1412.000000	18.471200
1411.000000	18.681900
1410.000000	18.973700
1409.000000	19.288700
1408.000000	19.610400
1407.000000	19.958200
1406.000000	20.312700
1405.000000	20.656300
1404.000000	21.059700
1403.000000	21.424600
1402.000000	21.806800
1401.000000	22.189300
1400.000000	22.603500
1399.000000	23.003500
1398.000000	23.331800
1397.000000	23.619000
1396.000000	23.949400
1395.000000	24.289800
1394.000000	24.628600
1393.000000	24.910100
1392.000000	25.180300
1391.000000	25.526700
1390.000000	25.860400
1389.000000	26.188500
1388.000000	26.581500
1387.000000	27.056300
1386.000000	27.519000
1385.000000	28.025200
1384.000000	28.574700
1383.000000	29.132200
1382.000000	29.731800
1381.000000	30.282000
1380.000000	30.726300
1379.000000	31.025700
1378.000000	31.326000
1377.000000	31.548200
1376.000000	31.788700
1375.000000	31.968500
1374.000000	32.247300
1373.000000	32.541000
1372.000000	32.899400
1371.000000	33.262400
1370.000000	33.666900
1369.000000	34.028600
1368.000000	34.359400
1367.000000	34.702600
1366.000000	34.975200
1365.000000	35.207000
1364.000000	35.483100
1363.000000	35.678900
1362.000000	35.912300
1361.000000	36.082900
1360.000000	36.253600
1359.000000	36.346400
1358.000000	36.441400
1357.000000	36.580300
1356.000000	36.759200
1355.000000	37.043800
1354.000000	37.423600
1353.000000	37.823800
1352.000000	38.269200
1351.000000	38.849600
1350.000000	39.404400
1349.000000	39.889500
1348.000000	40.396300
1347.000000	40.802100
1346.000000	41.266400
1345.000000	41.602000
1344.000000	41.997900
1343.000000	42.387800
1342.000000	42.760000
1341.000000	43.087400
1340.000000	43.464400
1339.000000	43.792300
1338.000000	44.165300
1337.000000	44.491600
1336.000000	44.813500
1335.000000	45.123700
1334.000000	45.433000
1333.000000	45.744100
1332.000000	46.060600
1331.000000	46.338200
1330.000000	46.631600
1329.000000	46.903100
1328.000000	47.178800
1327.000000	47.420400
1326.000000	47.669700
1325.000000	47.903500
1324.000000	48.132800
1323.000000	48.356100
1322.000000	48.580400
1321.000000	48.780200
1320.000000	48.955900
1319.000000	49.155500
1318.000000	49.328400
1317.000000	49.506700
1316.000000	49.674100
1315.000000	49.844400
1314.000000	49.993900
1313.000000	50.144700
1312.000000	50.306000
1311.000000	50.440100
1310.000000	50.568000
1309.000000	50.699600
1308.000000	50.803600
1307.000000	50.901600
1306.000000	51.001200
1305.000000	51.079900
1304.000000	51.168100
1303.000000	51.240500
1302.000000	51.323000
1301.000000	51.375000
1300.000000	51.417000
1299.000000	51.468500
1298.000000	51.508700
1297.000000	51.556100
1296.000000	51.585800
1295.000000	51.612900
1294.000000	51.627900
1293.000000	51.643300
1292.000000	51.673200
1291.000000	51.656500
1290.000000	51.658700
1289.000000	51.648000
1288.000000	51.640100
1287.000000	51.628500
1286.000000	51.588700
1285.000000	51.554100
1284.000000	51.501900
1283.000000	51.455200
1282.000000	51.397400
1281.000000	51.357000
1280.000000	51.296000
1279.000000	51.242500
1278.000000	51.188100
1277.000000	51.131200
1276.000000	51.078200
1275.000000	51.030400
1274.000000	50.978600
1273.000000	50.928600
1272.000000	50.877400
1271.000000	50.839200
1270.000000	50.801200
1269.000000	50.756000
1268.000000	50.714500
1267.000000	50.677900
1266.000000	50.627400
1265.000000	50.568900
1264.000000	50.510400
1263.000000	50.461700
1262.000000	50.398500
1261.000000	50.346500
1260.000000	50.298100
1259.000000	50.241300
1258.000000	50.177200
1257.000000	50.129300
1256.000000	50.073700
1255.000000	49.997700
1254.000000	49.918100
1253.000000	49.855500
1252.000000	49.782300
1251.000000	49.681800
1250.000000	49.594400
1249.000000	49.493100
1248.000000	49.399100
1247.000000	49.305500
1246.000000	49.178700
1245.000000	49.058500
1244.000000	48.933700
1243.000000	48.785500
1242.000000	48.646000
1241.000000	48.488300
1240.000000	48.347100
1239.000000	48.199900
1238.000000	48.023600
1237.000000	47.853700
1236.000000	47.682500
1235.000000	47.497700
1234.000000	47.309300
1233.000000	47.135800
1232.000000	46.956800
1231.000000	46.759900
1230.000000	46.564000
1229.000000	46.368500
1228.000000	46.171100
1227.000000	45.973700
1226.000000	45.778400
1225.000000	45.552200
1224.000000	45.333800
1223.000000	45.133100
1222.000000	44.935200
1221.000000	44.746900
1220.000000	44.552300
1219.000000	44.347700
1218.000000	44.154100
1217.000000	43.983300
1216.000000	43.810400
1215.000000	43.654300
1214.000000	43.494700
1213.000000	43.331300
1212.000000	43.192100
1211.000000	43.042200
1210.000000	42.901700
1209.000000	42.774700
1208.000000	42.649300
1207.000000	42.539700
1206.000000	42.441600
1205.000000	42.360400
1204.000000	42.306700
1203.000000	42.251600
1202.000000	42.200300
1201.000000	42.157800
1200.000000	42.110600
1199.000000	42.045900
1198.000000	41.980500
1197.000000	41.894300
1196.000000	41.750900
1195.000000	41.560000
1194.000000	41.323400
1193.000000	41.014900
1192.000000	40.649000
1191.000000	40.232800
1190.000000	39.748800
1189.000000	39.293600
1188.000000	38.892400
1187.000000	38.556100
1186.000000	38.354100
1185.000000	38.270400
1184.000000	38.317900
1183.000000	38.496100
1182.000000	38.814500
1181.000000	39.243100
1180.000000	39.741200
1179.000000	40.268000
1178.000000	40.820500
1177.000000	41.290900
1176.000000	41.722300
1175.000000	42.097900
1174.000000	42.444400
1173.000000	42.767700
1172.000000	43.108300
1171.000000	43.469000
1170.000000	43.811000
1169.000000	44.160300
1168.000000	44.542200
1167.000000	44.917400
1166.000000	45.283500
1165.000000	45.693000
1164.000000	46.103900
1163.000000	46.516900
1162.000000	46.941300
1161.000000	47.377300
1160.000000	47.787600
1159.000000	48.202800
1158.000000	48.608000
1157.000000	49.014700
1156.000000	49.374000
1155.000000	49.722600
1154.000000	50.010700
1153.000000	50.266800
1152.000000	50.445700
1151.000000	50.596700
1150.000000	50.713900
1149.000000	50.825900
1148.000000	50.907900
1147.000000	51.022600
1146.000000	51.155400
1145.000000	51.350000
1144.000000	51.619200
1143.000000	51.946800
1142.000000	52.319400
1141.000000	52.745300
1140.000000	53.194900
1139.000000	53.634200
1138.000000	54.095800
1137.000000	54.594600
1136.000000	55.117700
1135.000000	55.653000
1134.000000	56.191300
1133.000000	56.680200
1132.000000	57.144800
1131.000000	57.576800
1130.000000	58.010800
1129.000000	58.375000
1128.000000	58.674800
1127.000000	58.954100
1126.000000	59.156700
1125.000000	59.319700
1124.000000	59.472700
1123.000000	59.594900
1122.000000	59.714500
1121.000000	59.797000
1120.000000	59.870600
1119.000000	59.944400
1118.000000	59.999800
1117.000000	60.034800
1116.000000	60.064800
1115.000000	60.078100
1114.000000	60.099000
1113.000000	60.102800
1112.000000	60.102800
1111.000000	60.118500
1110.000000	60.115300
1109.000000	60.122400
1108.000000	60.121800
1107.000000	60.131900
1106.000000	60.143600
1105.000000	60.163200
1104.000000	60.148800
1103.000000	60.161000
1102.000000	60.176400
1101.000000	60.175000
1100.000000	60.185600
1099.000000	60.175400
1098.000000	60.171700
1097.000000	60.185800
1096.000000	60.191800
1095.000000	60.157100
1094.000000	60.136200
1093.000000	60.157200
1092.000000	60.132900
1091.000000	60.128300
1090.000000	60.110500
1089.000000	60.100700
1088.000000	60.073800
1087.000000	60.062400
1086.000000	60.022900
1085.000000	60.015900
1084.000000	59.992700
1083.000000	59.954200
1082.000000	59.938900
1081.000000	59.907000
1080.000000	59.900500
1079.000000	59.886700
1078.000000	59.844900
1077.000000	59.828000
1076.000000	59.796500
1075.000000	59.774900
1074.000000	59.763500
1073.000000	59.751800
1072.000000	59.733500
1071.000000	59.712600
1070.000000	59.692000
1069.000000	59.676300
1068.000000	59.650800
1067.000000	59.646700
1066.000000	59.634200
1065.000000	59.608500
1064.000000	59.606300
1063.000000	59.598700
1062.000000	59.567400
1061.000000	59.556900
1060.000000	59.534100
1059.000000	59.540900
1058.000000	59.535900
1057.000000	59.527400
1056.000000	59.507300
1055.000000	59.485300
1054.000000	59.475400
1053.000000	59.462200
1052.000000	59.459200
1051.000000	59.452000
1050.000000	59.452700
1049.000000	59.460700
1048.000000	59.456300
1047.000000	59.484400
1046.000000	59.504400
1045.000000	59.514000
1044.000000	59.531400
1043.000000	59.566200
1042.000000	59.592500
1041.000000	59.609900
1040.000000	59.634800
1039.000000	59.675800
1038.000000	59.695300
1037.000000	59.718600
1036.000000	59.750700
1035.000000	59.768400
1034.000000	59.787000
1033.000000	59.816700
1032.000000	59.833700
1031.000000	59.860000
1030.000000	59.877500
1029.000000	59.894800
1028.000000	59.924900
1027.000000	59.934300
1026.000000	59.935400
1025.000000	59.938500
1024.000000	59.963700
1023.000000	59.970600
1022.000000	59.988300
1021.000000	60.014500
1020.000000	60.029900
1019.000000	60.042400
1018.000000	60.076100
1017.000000	60.111100
1016.000000	60.160300
1015.000000	60.195100
1014.000000	60.249100
1013.000000	60.311200
1012.000000	60.367300
1011.000000	60.442200
1010.000000	60.530900
1009.000000	60.629700
1008.000000	60.735300
1007.000000	60.844000
1006.000000	60.934700
1005.000000	61.043600
1004.000000	61.149500
1003.000000	61.229600
1002.000000	61.329200
1001.000000	61.449100
1000.000000	61.557700
999.000000	61.671100
998.000000	61.779100
997.000000	61.886200
996.000000	61.995500
995.000000	62.117800
994.000000	62.229700
993.000000	62.331800
992.000000	62.445800
991.000000	62.569000
990.000000	62.690300
989.000000	62.801600
988.000000	62.917400
987.000000	63.030600
986.000000	63.155500
985.000000	63.266700
984.000000	63.392000
983.000000	63.517200
982.000000	63.642800
981.000000	63.744000
980.000000	63.840000
979.000000	63.951300
978.000000	64.057400
977.000000	64.156700
976.000000	64.261900
975.000000	64.353600
974.000000	64.481100
973.000000	64.588600
972.000000	64.680400
971.000000	64.784900
970.000000	64.895000
969.000000	65.006600
968.000000	65.098600
967.000000	65.174800
966.000000	65.269900
965.000000	65.388200
964.000000	65.500400
963.000000	65.579500
962.000000	65.661000
961.000000	65.756300
960.000000	65.857300
959.000000	65.976400
958.000000	66.076100
957.000000	66.146400
956.000000	66.233900
955.000000	66.346800
954.000000	66.453600
953.000000	66.555900
952.000000	66.645000
951.000000	66.712400
950.000000	66.793400
949.000000	66.884400
948.000000	66.961400
947.000000	67.040500
946.000000	67.119800
945.000000	67.180500
944.000000	67.238800
943.000000	67.293900
942.000000	67.348500
941.000000	67.390700
940.000000	67.430000
939.000000	67.488100
938.000000	67.524200
937.000000	67.544400
936.000000	67.581600
935.000000	67.614700
934.000000	67.664200
933.000000	67.706400
932.000000	67.731600
931.000000	67.752900
930.000000	67.763500
929.000000	67.798800
928.000000	67.819500
927.000000	67.808400
926.000000	67.823900
925.000000	67.831700
924.000000	67.820000
923.000000	67.824100
922.000000	67.819000
921.000000	67.815300
920.000000	67.815600
919.000000	67.845000
918.000000	67.850300
917.000000	67.838200
916.000000	67.836100
915.000000	67.834600
914.000000	67.871000
913.000000	67.875200
912.000000	67.870600
911.000000	67.872400
910.000000	67.878900
909.000000	67.907600
908.000000	67.955900
907.000000	67.982600
906.000000	68.019400
905.000000	68.047200
904.000000	68.091100
903.000000	68.142800
902.000000	68.201200
901.000000	68.263000
900.000000	68.341200
899.000000	68.406200
898.000000	68.447000
897.000000	68.502400
896.000000	68.552400
895.000000	68.595300
894.000000	68.650100
893.000000	68.692000
892.000000	68.706600
891.000000	68.718700
890.000000	68.749900
889.000000	68.745700
888.000000	68.757700
887.000000	68.762400
886.000000	68.754300
885.000000	68.733300
884.000000	68.734300
883.000000	68.716400
882.000000	68.693900
881.000000	68.695900
880.000000	68.687000
879.000000	68.681800
878.000000	68.677400
877.000000	68.662500
876.000000	68.660100
875.000000	68.661400
874.000000	68.653000
873.000000	68.622000
872.000000	68.596900
871.000000	68.570900
870.000000	68.589800
869.000000	68.655800
868.000000	68.755600
867.000000	68.876100
866.000000	68.997300
865.000000	69.109500
864.000000	69.239000
863.000000	69.365900
862.000000	69.517700
861.000000	69.633900
860.000000	69.788400
859.000000	69.957800
858.000000	70.112500
857.000000	69.887100
856.000000	70.987796
855.000000	70.515084
854.000000	71.002954
853.000000	71.253059
852.000000	71.621512
851.000000	72.033010
850.000000	71.827115
849.000000	71.794954
848.000000	72.334516
847.000000	72.660897
846.000000	72.844443
845.000000	72.822775
844.000000	72.823650
843.000000	73.382451
842.000000	73.736038
841.000000	73.907341
840.000000	74.244313
839.000000	74.537949
838.000000	74.958386
837.000000	74.926904
836.000000	75.379794
835.000000	76.018855
834.000000	76.164118
833.000000	76.377397
832.000000	76.918417
831.000000	77.252085
830.000000	77.672425
829.000000	78.120749
828.000000	78.374060
827.000000	78.696263
826.000000	78.977753
825.000000	79.230578
824.000000	79.278676
823.000000	79.730983
822.000000	79.804149
821.000000	79.871388
820.000000	80.059987
819.000000	79.916279
818.000000	79.922497
817.000000	79.983906
816.000000	79.645283
815.000000	79.643728
814.000000	79.574254
813.000000	79.062093
812.000000	79.339307
811.000000	79.257493
810.000000	79.324538
809.000000	79.500797
808.000000	79.297429
807.000000	79.238546
806.000000	79.447064
805.000000	79.413639
804.000000	79.717477
803.000000	79.700473
802.000000	79.968165
801.000000	80.198643
800.000000	80.521525
799.000000	80.557088
798.000000	80.913979
797.000000	81.313525
796.000000	81.351323
795.000000	81.800424
794.000000	82.087549
793.000000	82.243598
792.000000	82.576294
791.000000	82.692116
790.000000	83.241298
789.000000	83.407937
788.000000	83.522010
787.000000	83.605767
786.000000	83.933411
785.000000	83.956730
784.000000	84.028245
783.000000	83.986560
782.000000	83.941864
781.000000	84.042528
780.000000	83.806998
779.000000	83.817783
778.000000	83.477508
777.000000	83.298042
776.000000	83.213897
775.000000	83.025686
774.000000	82.696488
773.000000	82.537913
772.000000	82.371954
771.000000	82.220764
770.000000	82.059079
769.000000	81.893023
768.000000	81.744067
767.000000	81.732213
766.000000	81.471614
765.000000	81.469768
764.000000	81.454027
763.000000	81.428084
762.000000	81.593169
761.000000	81.512618
760.000000	81.536812
759.000000	81.438869
758.000000	81.505719
757.000000	81.606578
756.000000	81.445185
755.000000	81.487161
754.000000	81.427209
753.000000	81.441104
752.000000	81.322950
751.000000	81.236472
750.000000	81.082756
749.000000	80.976748
748.000000	80.831679
747.000000	80.716440
746.000000	80.470222
745.000000	80.149185
744.000000	79.868084
743.000000	79.566190
742.000000	79.088425
741.000000	78.769526
740.000000	78.404959
739.000000	77.915437
738.000000	77.613640
737.000000	77.201170
736.000000	76.831940
735.000000	76.435114
734.000000	76.130401
733.000000	75.807616
732.000000	75.383195
731.000000	75.123762
730.000000	74.872588
729.000000	74.607811
728.000000	74.416880
727.000000	74.234694
726.000000	74.045123
725.000000	73.805997
724.000000	73.755665
723.000000	73.528977
722.000000	73.350581
721.000000	73.292670
720.000000	73.201431
719.000000	73.065204
718.000000	72.910905
717.000000	72.736395
716.000000	72.634176
715.000000	72.514565
714.000000	72.399714
713.000000	72.315860
712.000000	72.246387
711.000000	72.134840
710.000000	72.081010
709.000000	72.070128
708.000000	71.987828
707.000000	72.036897
706.000000	72.140573
705.000000	72.269512
704.000000	72.416816
703.000000	72.529042
702.000000	72.679650
701.000000	72.822775
700.000000	72.923147
699.000000	73.013415
698.000000	73.046257
697.000000	73.056945
696.000000	73.131277
695.000000	73.175099
694.000000	73.073560
693.000000	72.899925
692.000000	72.818597
691.000000	72.715309
690.000000	72.507374
689.000000	72.241625
688.000000	72.030095
687.000000	71.829836
686.000000	71.618986
685.000000	71.295132
684.000000	70.904622
683.000000	70.516833
682.000000	70.126323
681.000000	69.654971
680.000000	69.117837
679.000000	68.519683
678.000000	67.893255
677.000000	67.238745
676.000000	66.478421
675.000000	65.721595
674.000000	64.951652
673.000000	64.117094
672.000000	63.232106
671.000000	62.387929
670.000000	61.548318
669.000000	60.729403
668.000000	59.916707
667.000000	59.138893
666.000000	58.395282
665.000000	57.636513
664.000000	56.906020
663.000000	56.182814
662.000000	55.442117
661.000000	54.715802
660.000000	54.067705
659.000000	53.464110
658.000000	52.870815
657.000000	52.327657
656.000000	51.872435
655.000000	51.456370
654.000000	51.189941
653.000000	51.077811
652.000000	51.103560
651.000000	51.272046
650.000000	51.606977
649.000000	52.096111
648.000000	52.708353
647.000000	53.457697
646.000000	54.259413
645.000000	55.134781
644.000000	56.114020
643.000000	57.106473
642.000000	58.124092
641.000000	59.092351
640.000000	59.992399
639.000000	60.895362
638.000000	61.761791
637.000000	62.631815
636.000000	63.522536
635.000000	64.395377
634.000000	65.283766
633.000000	66.255911
632.000000	67.236413
631.000000	68.241303
630.000000	69.277189
629.000000	70.283148
628.000000	71.280557
627.000000	72.316443
626.000000	73.276346
625.000000	74.173382
624.000000	75.070418
623.000000	75.934029
622.000000	76.753138
621.000000	77.535907
620.000000	78.238417
619.000000	78.917218
618.000000	79.586303
617.000000	80.222254
616.000000	80.828473
615.000000	81.424003
614.000000	82.029930
613.000000	82.573379
612.000000	83.090593
611.000000	83.563597
610.000000	84.075662
609.000000	84.574414
608.000000	85.004957
607.000000	85.367775
606.000000	85.724179
605.000000	86.110511
604.000000	86.441653
603.000000	86.730430
602.000000	86.986851
601.000000	87.273879
600.000000	87.566154
599.000000	87.746494
598.000000	87.945587
597.000000	88.158381
596.000000	88.287417
595.000000	88.440745
594.000000	88.624680
593.000000	88.787336
592.000000	88.900146
591.000000	89.012664
590.000000	89.111870
589.000000	89.200680
588.000000	89.272194
587.000000	89.356146
586.000000	89.425036
585.000000	89.447190
584.000000	89.449814
583.000000	89.454186
582.000000	89.480032
581.000000	89.496550
580.000000	89.429214
579.000000	89.378688
578.000000	89.295125
577.000000	89.234882
576.000000	89.144810
575.000000	89.007708
574.000000	88.881781
573.000000	88.738947
572.000000	88.565603
571.000000	88.378753
570.000000	88.244275
569.000000	87.993879
568.000000	87.756114
567.000000	87.531175
566.000000	87.276891
565.000000	87.033976
564.000000	86.719353
563.000000	86.443887
562.000000	86.135191
561.000000	85.751580
560.000000	85.399742
559.000000	85.005540
558.000000	84.580244
557.000000	84.126382
556.000000	83.643467
555.000000	83.165411
554.000000	82.619144
553.000000	82.049266
552.000000	81.384262
551.000000	80.724019
550.000000	80.014513
549.000000	79.249914
548.000000	78.438773
547.000000	77.575356
546.000000	76.609332
545.000000	75.716863
544.000000	74.729365
543.000000	73.676184
542.000000	72.593755
541.000000	71.424557
540.000000	70.247974
539.000000	69.018728
538.000000	67.753919
537.000000	66.459377
536.000000	65.055814
535.000000	63.626212
534.000000	62.125289
533.000000	60.552367
532.000000	58.953015
531.000000	57.326262
530.000000	55.685615
529.000000	54.013875
528.000000	52.350005
527.000000	50.727237
526.000000	49.158201
525.000000	47.582752
524.000000	46.125748
523.000000	44.676129
522.000000	43.348648
521.000000	42.090641
520.000000	40.907548
519.000000	39.861362
518.000000	38.913022
517.000000	38.011031
516.000000	37.259743
515.000000	36.518270
514.000000	35.905736
513.000000	35.414853
512.000000	34.941655
511.000000	34.591761
510.000000	34.288700
509.000000	34.005947
508.000000	33.780425
507.000000	33.610579
506.000000	33.449478
505.000000	33.325300
504.000000	33.187713
503.000000	33.082190
502.000000	32.981041
501.000000	32.871340
500.000000	32.745705
499.000000	32.618903
498.000000	32.420199
497.000000	32.269591
496.000000	32.024442
495.000000	31.753640
494.000000	31.460782
493.000000	31.068037
492.000000	30.731649
491.000000	30.294013
490.000000	29.855212
489.000000	29.371908
488.000000	28.935730
487.000000	28.434645
486.000000	27.990986
485.000000	27.511666
484.000000	27.062662
483.000000	26.636104
482.000000	26.199440
481.000000	25.841189
480.000000	25.490517
479.000000	25.146064
478.000000	24.881286
477.000000	24.646145
476.000000	24.437432
475.000000	24.278760
474.000000	24.167505
473.000000	24.097643
472.000000	24.064024
471.000000	24.038080
470.000000	24.062760
469.000000	24.086469
468.000000	24.185190
467.000000	24.251943
466.000000	24.345999
465.000000	24.468817
464.000000	24.580363
463.000000	24.695019
462.000000	24.817837
461.000000	24.924039
460.000000	25.072801
459.000000	25.181821
458.000000	25.314355
457.000000	25.428914
456.000000	25.517043
455.000000	25.622760
454.000000	25.683003
453.000000	25.735278
452.000000	25.794938
451.000000	25.830889
450.000000	25.841383
449.000000	25.855570
448.000000	25.801837
447.000000	25.756655
446.000000	25.703699
445.000000	25.693205
444.000000	25.575634
443.000000	25.461076
442.000000	25.332137
441.000000	25.247602
440.000000	25.067456
439.000000	24.904023
438.000000	24.709303
437.000000	24.550825
436.000000	24.320736
435.000000	24.057805
434.000000	23.806339
433.000000	23.579651
432.000000	23.321481
431.000000	23.016186
430.000000	22.725854
429.000000	22.390146
428.000000	22.059198
427.000000	21.691717
426.000000	21.374081
425.000000	21.018162
424.000000	20.628333
423.000000	20.231993
422.000000	19.794551
421.000000	19.392576
420.000000	18.952803
419.000000	18.503799
418.000000	18.070342
417.000000	17.621435
416.000000	17.158633
415.000000	16.734115
414.000000	16.288124
413.000000	15.820172
412.000000	15.368739
411.000000	14.962586
410.000000	14.511153
409.000000	14.072157
408.000000	13.691072
407.000000	13.280837
406.000000	12.884303
405.000000	12.518765
404.000000	12.149340
403.000000	11.802263
402.000000	11.476854
401.000000	11.148336
400.000000	10.837308
399.000000	10.533178
398.000000	10.266361
397.000000	10.002069
396.000000	9.767413
395.000000	9.543252
394.000000	9.307624
393.000000	9.082005
392.000000	8.874070
391.000000	8.694215
390.000000	8.522815
389.000000	8.327511
388.000000	8.181859
387.000000	8.058750
386.000000	7.954102
385.000000	7.798540
384.000000	7.644143
383.000000	7.535414
382.000000	7.448451
381.000000	7.345358
380.000000	7.232742
379.000000	7.158605
378.000000	7.109925
377.000000	7.011398
376.000000	7.026653
375.000000	6.901309
374.000000	6.473196
373.000000	6.443658
372.000000	6.512354
371.000000	6.492726
370.000000	6.489520
369.000000	6.480775
368.000000	6.571139
367.000000	6.495156
366.000000	6.434621
365.000000	6.361164
364.000000	6.364759
363.000000	6.431609
362.000000	6.404305
361.000000	6.346394
360.000000	6.241844
359.000000	6.109990
358.000000	6.222799
357.000000	6.149828
356.000000	6.049261
355.000000	6.028662
354.000000	5.992516
353.000000	5.988241
352.000000	5.933925
351.000000	5.786524
350.000000	5.728905
349.000000	5.772824
348.000000	5.818395
347.000000	5.965795
346.000000	6.016710
345.000000	5.992225
344.000000	6.010589
343.000000	6.010006
342.000000	5.910119
341.000000	5.883884
340.000000	5.941990
339.000000	6.076273
338.000000	6.084532
337.000000	5.928872
336.000000	5.795658
335.000000	5.888063
334.000000	5.833067
333.000000	5.776808
332.000000	5.961326
331.000000	5.947140
330.000000	6.235431
329.000000	6.242524
328.000000	5.772435
327.000000	6.056354
326.000000	6.157309
325.000000	6.057423
324.000000	6.506524
323.000000	6.338330
322.000000	6.000289
321.000000	6.551803
320.000000	6.651204
319.000000	6.426459
318.000000	6.447933
317.000000	6.816289
316.000000	6.378459
315.000000	5.804403
314.000000	5.780694
313.000000	5.758249
312.000000	5.781569
311.000000	5.799544
310.000000	5.799059
309.000000	5.788176
308.000000	5.841909
307.000000	5.884662
306.000000	5.882427
305.000000	5.891075
304.000000	5.866686
303.000000	5.875528
302.000000	5.913520
301.000000	5.923237
300.000000	5.956856
299.000000	5.932079
298.000000	5.902929
297.000000	5.927221
296.000000	5.929552
295.000000	5.923625
294.000000	5.928289
293.000000	5.982994
292.000000	6.006799
291.000000	6.013018
290.000000	6.002233
289.000000	6.011075
288.000000	6.026913
287.000000	6.018459
286.000000	6.046929
285.000000	6.037212
284.000000	6.038087
283.000000	6.067625
282.000000	6.106006
281.000000	6.134475
280.000000	6.111933
279.000000	6.100467
278.000000	6.139431
277.000000	6.128548
276.000000	6.110670
275.000000	6.118249
274.000000	6.155755
273.000000	6.182767
272.000000	6.189569
271.000000	6.193067
270.000000	6.197439
269.000000	6.190249
268.000000	6.225228
267.000000	6.207641
266.000000	6.274103
265.000000	6.295479
264.000000	6.331528
263.000000	6.325115
262.000000	6.346880
261.000000	6.415285
260.000000	6.456969
259.000000	6.481164
258.000000	6.463965
257.000000	6.519447
256.000000	6.526151
255.000000	6.564629
254.000000	6.557925
253.000000	6.552969
252.000000	6.567933
251.000000	6.574054
250.000000	6.663836
