PE UV       SUBTECH     SPECTRUM    ASCII       PEDS        4.00        
   -1
CICIMAUCR0205-1.Sample.ASC
24/05/31
12:07:00.00
24/05/31
12:07:00.00
Vinicio Soto Monge
C. cupreomarginata. Sex F. Dorsal
250,000000
1
Lambda 1050
1050L1511233
PerkinElmer UV WinLab 6.3.2.0749 / 2.02.05 Lambda 900 UV/VIS/NIR, Aug  7 2015 09:38:08

0
0
3350/servo 860,8/2
0
0
UV/VIS
1
1
1
DoubleDePol,CommonBeamDepol,RBeamAtt,SBeamAtt,60mm sphere, WB InGaAs Detector
0
0
0
0
Program
Program
3350/servo 860,8/2
3350/0,2 860,8/0,2
3350/0,2 860,8/0,2
0
15.00
 
 
 
0
 
860,8
319,2
860,8
Front
100
on
S:100 R:100
0
0
0
0
 
0
 
 
 
0
 
 
0
0
0
0
0
 
 
 
 
0
0


0
0
#HDR
-1
-1
#GR
nm
%R
1.0
0.0
2500,000000
-1,000000
2251
8
67,318600
5,349800
#DATA
2500.000000	6.440100
2499.000000	6.359500
2498.000000	6.496400
2497.000000	6.303100
2496.000000	6.364200
2495.000000	6.399800
2494.000000	6.331500
2493.000000	6.279700
2492.000000	6.362800
2491.000000	6.376100
2490.000000	6.342000
2489.000000	6.256200
2488.000000	6.250300
2487.000000	6.284500
2486.000000	6.283200
2485.000000	6.275300
2484.000000	6.201700
2483.000000	6.251100
2482.000000	6.269900
2481.000000	6.210800
2480.000000	6.194100
2479.000000	6.226900
2478.000000	6.268400
2477.000000	6.228900
2476.000000	6.216000
2475.000000	6.205600
2474.000000	6.198800
2473.000000	6.238700
2472.000000	6.169300
2471.000000	6.189000
2470.000000	6.230800
2469.000000	6.226500
2468.000000	6.240600
2467.000000	6.224800
2466.000000	6.205000
2465.000000	6.240000
2464.000000	6.229100
2463.000000	6.265500
2462.000000	6.256200
2461.000000	6.321500
2460.000000	6.306000
2459.000000	6.311100
2458.000000	6.377600
2457.000000	6.374200
2456.000000	6.409400
2455.000000	6.439200
2454.000000	6.453800
2453.000000	6.517200
2452.000000	6.552000
2451.000000	6.566200
2450.000000	6.593000
2449.000000	6.628200
2448.000000	6.674900
2447.000000	6.692100
2446.000000	6.753500
2445.000000	6.786000
2444.000000	6.826400
2443.000000	6.879000
2442.000000	6.913500
2441.000000	6.940800
2440.000000	6.969000
2439.000000	7.013400
2438.000000	7.059200
2437.000000	7.103200
2436.000000	7.117000
2435.000000	7.138900
2434.000000	7.185000
2433.000000	7.227900
2432.000000	7.263100
2431.000000	7.289400
2430.000000	7.320200
2429.000000	7.322500
2428.000000	7.336000
2427.000000	7.363000
2426.000000	7.408700
2425.000000	7.447700
2424.000000	7.451100
2423.000000	7.476800
2422.000000	7.490800
2421.000000	7.505800
2420.000000	7.533000
2419.000000	7.569000
2418.000000	7.574700
2417.000000	7.584100
2416.000000	7.612700
2415.000000	7.628300
2414.000000	7.640800
2413.000000	7.669300
2412.000000	7.683700
2411.000000	7.694900
2410.000000	7.716100
2409.000000	7.725800
2408.000000	7.737100
2407.000000	7.753800
2406.000000	7.781600
2405.000000	7.790500
2404.000000	7.813800
2403.000000	7.831500
2402.000000	7.851600
2401.000000	7.866000
2400.000000	7.888600
2399.000000	7.904000
2398.000000	7.921200
2397.000000	7.937100
2396.000000	7.960100
2395.000000	7.978900
2394.000000	7.994000
2393.000000	8.009000
2392.000000	8.029300
2391.000000	8.046300
2390.000000	8.045700
2389.000000	8.054700
2388.000000	8.076400
2387.000000	8.080700
2386.000000	8.083700
2385.000000	8.084200
2384.000000	8.087800
2383.000000	8.096400
2382.000000	8.094100
2381.000000	8.092300
2380.000000	8.084600
2379.000000	8.078600
2378.000000	8.077300
2377.000000	8.065700
2376.000000	8.051900
2375.000000	8.067000
2374.000000	8.055900
2373.000000	8.032900
2372.000000	8.013100
2371.000000	7.997300
2370.000000	7.980100
2369.000000	7.959500
2368.000000	7.917900
2367.000000	7.896000
2366.000000	7.882300
2365.000000	7.852800
2364.000000	7.808500
2363.000000	7.762200
2362.000000	7.720300
2361.000000	7.674600
2360.000000	7.646500
2359.000000	7.624900
2358.000000	7.584000
2357.000000	7.537400
2356.000000	7.518400
2355.000000	7.510800
2354.000000	7.479900
2353.000000	7.452400
2352.000000	7.446700
2351.000000	7.457400
2350.000000	7.455300
2349.000000	7.466700
2348.000000	7.484800
2347.000000	7.492100
2346.000000	7.527600
2345.000000	7.559100
2344.000000	7.574100
2343.000000	7.598100
2342.000000	7.631200
2341.000000	7.654000
2340.000000	7.669800
2339.000000	7.677100
2338.000000	7.684600
2337.000000	7.701300
2336.000000	7.701400
2335.000000	7.704600
2334.000000	7.699400
2333.000000	7.680500
2332.000000	7.648300
2331.000000	7.620600
2330.000000	7.600200
2329.000000	7.578900
2328.000000	7.535800
2327.000000	7.486000
2326.000000	7.451800
2325.000000	7.409000
2324.000000	7.354600
2323.000000	7.285700
2322.000000	7.231500
2321.000000	7.179400
2320.000000	7.110900
2319.000000	7.051200
2318.000000	6.965400
2317.000000	6.895900
2316.000000	6.840200
2315.000000	6.778400
2314.000000	6.717800
2313.000000	6.649200
2312.000000	6.571200
2311.000000	6.516200
2310.000000	6.476700
2309.000000	6.439500
2308.000000	6.405600
2307.000000	6.367500
2306.000000	6.365300
2305.000000	6.360800
2304.000000	6.363100
2303.000000	6.385400
2302.000000	6.389900
2301.000000	6.441200
2300.000000	6.476800
2299.000000	6.532800
2298.000000	6.562100
2297.000000	6.608900
2296.000000	6.659100
2295.000000	6.698300
2294.000000	6.761400
2293.000000	6.800800
2292.000000	6.846800
2291.000000	6.874900
2290.000000	6.876000
2289.000000	6.904900
2288.000000	6.918200
2287.000000	6.921300
2286.000000	6.920100
2285.000000	6.912800
2284.000000	6.887400
2283.000000	6.872800
2282.000000	6.839400
2281.000000	6.802800
2280.000000	6.784800
2279.000000	6.742500
2278.000000	6.713200
2277.000000	6.690600
2276.000000	6.645900
2275.000000	6.620000
2274.000000	6.605500
2273.000000	6.601700
2272.000000	6.569000
2271.000000	6.570100
2270.000000	6.586500
2269.000000	6.604100
2268.000000	6.612300
2267.000000	6.652000
2266.000000	6.706800
2265.000000	6.771200
2264.000000	6.835000
2263.000000	6.930900
2262.000000	7.028300
2261.000000	7.109800
2260.000000	7.231100
2259.000000	7.392500
2258.000000	7.516600
2257.000000	7.661900
2256.000000	7.816000
2255.000000	7.979100
2254.000000	8.109400
2253.000000	8.289000
2252.000000	8.451200
2251.000000	8.598300
2250.000000	8.765700
2249.000000	8.902600
2248.000000	9.008000
2247.000000	9.144000
2246.000000	9.263000
2245.000000	9.345500
2244.000000	9.469500
2243.000000	9.587500
2242.000000	9.661400
2241.000000	9.749100
2240.000000	9.826500
2239.000000	9.894800
2238.000000	10.003900
2237.000000	10.033100
2236.000000	10.108500
2235.000000	10.158900
2234.000000	10.213100
2233.000000	10.255000
2232.000000	10.310900
2231.000000	10.330800
2230.000000	10.356900
2229.000000	10.389400
2228.000000	10.419600
2227.000000	10.431800
2226.000000	10.463600
2225.000000	10.447600
2224.000000	10.451300
2223.000000	10.462100
2222.000000	10.462600
2221.000000	10.467600
2220.000000	10.470300
2219.000000	10.470600
2218.000000	10.457700
2217.000000	10.431300
2216.000000	10.418000
2215.000000	10.422400
2214.000000	10.405700
2213.000000	10.378300
2212.000000	10.394600
2211.000000	10.376100
2210.000000	10.344300
2209.000000	10.359600
2208.000000	10.348300
2207.000000	10.321000
2206.000000	10.290200
2205.000000	10.295700
2204.000000	10.296600
2203.000000	10.291400
2202.000000	10.280200
2201.000000	10.281800
2200.000000	10.269300
2199.000000	10.257000
2198.000000	10.256700
2197.000000	10.244700
2196.000000	10.249600
2195.000000	10.240500
2194.000000	10.237100
2193.000000	10.224300
2192.000000	10.217100
2191.000000	10.231200
2190.000000	10.218600
2189.000000	10.209600
2188.000000	10.220200
2187.000000	10.211900
2186.000000	10.207600
2185.000000	10.198000
2184.000000	10.177700
2183.000000	10.167400
2182.000000	10.162700
2181.000000	10.149600
2180.000000	10.156400
2179.000000	10.149300
2178.000000	10.137100
2177.000000	10.139600
2176.000000	10.151700
2175.000000	10.178800
2174.000000	10.182700
2173.000000	10.164000
2172.000000	10.156100
2171.000000	10.175400
2170.000000	10.217800
2169.000000	10.216600
2168.000000	10.226900
2167.000000	10.234200
2166.000000	10.259200
2165.000000	10.264000
2164.000000	10.301500
2163.000000	10.294400
2162.000000	10.333300
2161.000000	10.363400
2160.000000	10.374200
2159.000000	10.381700
2158.000000	10.405700
2157.000000	10.437600
2156.000000	10.471000
2155.000000	10.493100
2154.000000	10.503900
2153.000000	10.529900
2152.000000	10.562900
2151.000000	10.586000
2150.000000	10.631800
2149.000000	10.643900
2148.000000	10.677300
2147.000000	10.718700
2146.000000	10.729300
2145.000000	10.731100
2144.000000	10.758900
2143.000000	10.791700
2142.000000	10.800500
2141.000000	10.824300
2140.000000	10.832400
2139.000000	10.847100
2138.000000	10.856700
2137.000000	10.854000
2136.000000	10.858900
2135.000000	10.866100
2134.000000	10.891200
2133.000000	10.883800
2132.000000	10.874900
2131.000000	10.875100
2130.000000	10.868000
2129.000000	10.868400
2128.000000	10.861100
2127.000000	10.849100
2126.000000	10.827700
2125.000000	10.830700
2124.000000	10.809600
2123.000000	10.799400
2122.000000	10.773000
2121.000000	10.737600
2120.000000	10.708400
2119.000000	10.691400
2118.000000	10.674000
2117.000000	10.639400
2116.000000	10.617200
2115.000000	10.583400
2114.000000	10.554100
2113.000000	10.544200
2112.000000	10.497700
2111.000000	10.456700
2110.000000	10.428800
2109.000000	10.406700
2108.000000	10.381100
2107.000000	10.348800
2106.000000	10.309700
2105.000000	10.277600
2104.000000	10.254600
2103.000000	10.236800
2102.000000	10.218900
2101.000000	10.179200
2100.000000	10.147600
2099.000000	10.121500
2098.000000	10.095600
2097.000000	10.061900
2096.000000	10.022200
2095.000000	10.008900
2094.000000	9.987100
2093.000000	9.968400
2092.000000	9.950100
2091.000000	9.920100
2090.000000	9.894400
2089.000000	9.872800
2088.000000	9.855500
2087.000000	9.844600
2086.000000	9.813300
2085.000000	9.778900
2084.000000	9.761700
2083.000000	9.740300
2082.000000	9.716600
2081.000000	9.687400
2080.000000	9.657100
2079.000000	9.625700
2078.000000	9.600300
2077.000000	9.581700
2076.000000	9.556700
2075.000000	9.527700
2074.000000	9.486800
2073.000000	9.458900
2072.000000	9.439800
2071.000000	9.407100
2070.000000	9.376800
2069.000000	9.356700
2068.000000	9.322700
2067.000000	9.285700
2066.000000	9.251100
2065.000000	9.215700
2064.000000	9.198100
2063.000000	9.187200
2062.000000	9.155500
2061.000000	9.134000
2060.000000	9.110600
2059.000000	9.088400
2058.000000	9.071200
2057.000000	9.047200
2056.000000	9.051700
2055.000000	9.077900
2054.000000	9.078900
2053.000000	9.074200
2052.000000	9.076100
2051.000000	9.089100
2050.000000	9.133700
2049.000000	9.178500
2048.000000	9.210700
2047.000000	9.250300
2046.000000	9.298500
2045.000000	9.346900
2044.000000	9.390500
2043.000000	9.432400
2042.000000	9.491600
2041.000000	9.539600
2040.000000	9.583300
2039.000000	9.632700
2038.000000	9.686900
2037.000000	9.718200
2036.000000	9.763700
2035.000000	9.816800
2034.000000	9.848000
2033.000000	9.869600
2032.000000	9.911400
2031.000000	9.933400
2030.000000	9.972500
2029.000000	9.987000
2028.000000	10.005000
2027.000000	10.035400
2026.000000	10.050600
2025.000000	10.070600
2024.000000	10.083300
2023.000000	10.086800
2022.000000	10.089600
2021.000000	10.105300
2020.000000	10.107700
2019.000000	10.122100
2018.000000	10.133200
2017.000000	10.130800
2016.000000	10.123400
2015.000000	10.125600
2014.000000	10.115900
2013.000000	10.104700
2012.000000	10.090900
2011.000000	10.081900
2010.000000	10.059400
2009.000000	10.060200
2008.000000	10.038600
2007.000000	10.005800
2006.000000	9.991600
2005.000000	9.967200
2004.000000	9.929300
2003.000000	9.907000
2002.000000	9.881500
2001.000000	9.826100
2000.000000	9.811100
1999.000000	9.766400
1998.000000	9.727600
1997.000000	9.682700
1996.000000	9.641300
1995.000000	9.608700
1994.000000	9.558400
1993.000000	9.509800
1992.000000	9.471500
1991.000000	9.417200
1990.000000	9.351800
1989.000000	9.302200
1988.000000	9.264000
1987.000000	9.213600
1986.000000	9.183900
1985.000000	9.084300
1984.000000	9.040000
1983.000000	8.992300
1982.000000	8.945000
1981.000000	8.886300
1980.000000	8.822200
1979.000000	8.767900
1978.000000	8.723100
1977.000000	8.678600
1976.000000	8.616400
1975.000000	8.566700
1974.000000	8.520300
1973.000000	8.476300
1972.000000	8.408000
1971.000000	8.354100
1970.000000	8.323600
1969.000000	8.274200
1968.000000	8.234400
1967.000000	8.194600
1966.000000	8.139200
1965.000000	8.103700
1964.000000	8.069000
1963.000000	8.020900
1962.000000	7.981100
1961.000000	7.920100
1960.000000	7.886200
1959.000000	7.870100
1958.000000	7.819100
1957.000000	7.783900
1956.000000	7.738600
1955.000000	7.706800
1954.000000	7.675900
1953.000000	7.630500
1952.000000	7.585000
1951.000000	7.543200
1950.000000	7.524400
1949.000000	7.508600
1948.000000	7.469100
1947.000000	7.442200
1946.000000	7.439100
1945.000000	7.388700
1944.000000	7.369500
1943.000000	7.374800
1942.000000	7.369100
1941.000000	7.362200
1940.000000	7.347300
1939.000000	7.330700
1938.000000	7.345400
1937.000000	7.352000
1936.000000	7.341900
1935.000000	7.370100
1934.000000	7.363100
1933.000000	7.398500
1932.000000	7.423000
1931.000000	7.443200
1930.000000	7.493000
1929.000000	7.518300
1928.000000	7.564200
1927.000000	7.619600
1926.000000	7.666600
1925.000000	7.727800
1924.000000	7.779900
1923.000000	7.855800
1922.000000	7.923500
1921.000000	8.013600
1920.000000	8.074200
1919.000000	8.154900
1918.000000	8.252400
1917.000000	8.360400
1916.000000	8.429700
1915.000000	8.532800
1914.000000	8.653800
1913.000000	8.788800
1912.000000	8.928200
1911.000000	9.019800
1910.000000	9.146400
1909.000000	9.276400
1908.000000	9.376700
1907.000000	9.538300
1906.000000	9.714500
1905.000000	9.883100
1904.000000	10.065800
1903.000000	10.239200
1902.000000	10.394200
1901.000000	10.583300
1900.000000	10.774500
1899.000000	10.983300
1898.000000	11.192100
1897.000000	11.427600
1896.000000	11.624900
1895.000000	11.805400
1894.000000	12.028300
1893.000000	12.247700
1892.000000	12.501700
1891.000000	12.793900
1890.000000	13.066900
1889.000000	13.360700
1888.000000	13.660400
1887.000000	13.925600
1886.000000	14.253800
1885.000000	14.609000
1884.000000	15.024400
1883.000000	15.469700
1882.000000	15.898500
1881.000000	16.344200
1880.000000	16.767200
1879.000000	17.172700
1878.000000	17.624200
1877.000000	18.050700
1876.000000	18.445400
1875.000000	18.839200
1874.000000	19.215300
1873.000000	19.598600
1872.000000	19.947800
1871.000000	20.279400
1870.000000	20.570500
1869.000000	20.846300
1868.000000	21.094500
1867.000000	21.281500
1866.000000	21.453800
1865.000000	21.581300
1864.000000	21.717600
1863.000000	21.839000
1862.000000	21.967000
1861.000000	22.106200
1860.000000	22.225800
1859.000000	22.302700
1858.000000	22.372300
1857.000000	22.438400
1856.000000	22.491500
1855.000000	22.515300
1854.000000	22.550800
1853.000000	22.549700
1852.000000	22.542500
1851.000000	22.546700
1850.000000	22.543600
1849.000000	22.535700
1848.000000	22.519700
1847.000000	22.500500
1846.000000	22.454500
1845.000000	22.403900
1844.000000	22.373300
1843.000000	22.354600
1842.000000	22.356200
1841.000000	22.371000
1840.000000	22.340700
1839.000000	22.316800
1838.000000	22.281000
1837.000000	22.252700
1836.000000	22.210800
1835.000000	22.146600
1834.000000	22.083800
1833.000000	22.031800
1832.000000	21.988100
1831.000000	21.929600
1830.000000	21.870900
1829.000000	21.816400
1828.000000	21.738300
1827.000000	21.668200
1826.000000	21.608900
1825.000000	21.545200
1824.000000	21.486200
1823.000000	21.448800
1822.000000	21.430300
1821.000000	21.418100
1820.000000	21.383100
1819.000000	21.337900
1818.000000	21.304700
1817.000000	21.284600
1816.000000	21.273100
1815.000000	21.253200
1814.000000	21.233800
1813.000000	21.220000
1812.000000	21.210400
1811.000000	21.187800
1810.000000	21.145300
1809.000000	21.101800
1808.000000	21.068500
1807.000000	21.037600
1806.000000	20.991700
1805.000000	20.935100
1804.000000	20.893000
1803.000000	20.855100
1802.000000	20.812500
1801.000000	20.767000
1800.000000	20.702400
1799.000000	20.642300
1798.000000	20.592600
1797.000000	20.549500
1796.000000	20.505500
1795.000000	20.450700
1794.000000	20.403200
1793.000000	20.358100
1792.000000	20.302700
1791.000000	20.240600
1790.000000	20.189900
1789.000000	20.130400
1788.000000	20.070500
1787.000000	20.014500
1786.000000	19.951600
1785.000000	19.883800
1784.000000	19.821900
1783.000000	19.770200
1782.000000	19.691300
1781.000000	19.605800
1780.000000	19.538500
1779.000000	19.479200
1778.000000	19.402300
1777.000000	19.316100
1776.000000	19.237700
1775.000000	19.153400
1774.000000	19.054200
1773.000000	18.950100
1772.000000	18.852900
1771.000000	18.742900
1770.000000	18.628800
1769.000000	18.531000
1768.000000	18.441600
1767.000000	18.350400
1766.000000	18.261200
1765.000000	18.189500
1764.000000	18.134700
1763.000000	18.102700
1762.000000	18.093500
1761.000000	18.125100
1760.000000	18.157100
1759.000000	18.202300
1758.000000	18.266600
1757.000000	18.336300
1756.000000	18.397500
1755.000000	18.453700
1754.000000	18.499600
1753.000000	18.529500
1752.000000	18.549600
1751.000000	18.552600
1750.000000	18.536400
1749.000000	18.513500
1748.000000	18.480100
1747.000000	18.438900
1746.000000	18.367700
1745.000000	18.277400
1744.000000	18.163300
1743.000000	18.043000
1742.000000	17.882700
1741.000000	17.708800
1740.000000	17.516600
1739.000000	17.336700
1738.000000	17.162300
1737.000000	16.989600
1736.000000	16.829700
1735.000000	16.697600
1734.000000	16.618900
1733.000000	16.573500
1732.000000	16.568400
1731.000000	16.598100
1730.000000	16.674800
1729.000000	16.760800
1728.000000	16.855800
1727.000000	16.952100
1726.000000	17.039600
1725.000000	17.119500
1724.000000	17.187500
1723.000000	17.233200
1722.000000	17.271400
1721.000000	17.317400
1720.000000	17.339600
1719.000000	17.370700
1718.000000	17.411300
1717.000000	17.463700
1716.000000	17.491100
1715.000000	17.558100
1714.000000	17.638300
1713.000000	17.708900
1712.000000	17.757700
1711.000000	17.785800
1710.000000	17.836900
1709.000000	17.857200
1708.000000	17.847000
1707.000000	17.836200
1706.000000	17.823600
1705.000000	17.792000
1704.000000	17.729900
1703.000000	17.674300
1702.000000	17.604300
1701.000000	17.510700
1700.000000	17.362600
1699.000000	17.233200
1698.000000	17.114700
1697.000000	16.974900
1696.000000	16.881600
1695.000000	16.849000
1694.000000	16.843200
1693.000000	16.885800
1692.000000	16.994900
1691.000000	17.138400
1690.000000	17.266800
1689.000000	17.390400
1688.000000	17.500900
1687.000000	17.560500
1686.000000	17.583600
1685.000000	17.610000
1684.000000	17.670900
1683.000000	17.770700
1682.000000	17.965600
1681.000000	18.242600
1680.000000	18.631700
1679.000000	19.058300
1678.000000	19.518000
1677.000000	20.014300
1676.000000	20.401200
1675.000000	20.807100
1674.000000	21.145300
1673.000000	21.443600
1672.000000	21.688500
1671.000000	21.923700
1670.000000	22.123300
1669.000000	22.285500
1668.000000	22.437200
1667.000000	22.565600
1666.000000	22.657100
1665.000000	22.751600
1664.000000	22.841000
1663.000000	22.886400
1662.000000	22.963900
1661.000000	23.020900
1660.000000	23.062900
1659.000000	23.107000
1658.000000	23.145100
1657.000000	23.160100
1656.000000	23.166600
1655.000000	23.196500
1654.000000	23.166800
1653.000000	23.180300
1652.000000	23.141900
1651.000000	23.147700
1650.000000	23.104100
1649.000000	23.100000
1648.000000	23.053400
1647.000000	23.021600
1646.000000	22.971000
1645.000000	22.928500
1644.000000	22.868800
1643.000000	22.820800
1642.000000	22.768500
1641.000000	22.718800
1640.000000	22.659700
1639.000000	22.635500
1638.000000	22.541300
1637.000000	22.500400
1636.000000	22.441700
1635.000000	22.373600
1634.000000	22.307900
1633.000000	22.238200
1632.000000	22.162700
1631.000000	22.108100
1630.000000	22.035700
1629.000000	21.983000
1628.000000	21.877500
1627.000000	21.788400
1626.000000	21.723300
1625.000000	21.659600
1624.000000	21.582800
1623.000000	21.508500
1622.000000	21.430200
1621.000000	21.362700
1620.000000	21.287200
1619.000000	21.221900
1618.000000	21.141100
1617.000000	21.063300
1616.000000	21.010000
1615.000000	20.940400
1614.000000	20.863900
1613.000000	20.802600
1612.000000	20.710700
1611.000000	20.662900
1610.000000	20.591000
1609.000000	20.533800
1608.000000	20.474900
1607.000000	20.412800
1606.000000	20.338300
1605.000000	20.277700
1604.000000	20.209800
1603.000000	20.152000
1602.000000	20.070500
1601.000000	20.000600
1600.000000	19.937200
1599.000000	19.862700
1598.000000	19.809000
1597.000000	19.750300
1596.000000	19.680500
1595.000000	19.618800
1594.000000	19.559700
1593.000000	19.507100
1592.000000	19.464900
1591.000000	19.402400
1590.000000	19.339800
1589.000000	19.299000
1588.000000	19.251600
1587.000000	19.214700
1586.000000	19.156100
1585.000000	19.121200
1584.000000	19.070900
1583.000000	19.033100
1582.000000	19.005100
1581.000000	18.977400
1580.000000	18.929800
1579.000000	18.901300
1578.000000	18.877300
1577.000000	18.847100
1576.000000	18.831000
1575.000000	18.834800
1574.000000	18.826800
1573.000000	18.790900
1572.000000	18.776800
1571.000000	18.778200
1570.000000	18.754400
1569.000000	18.737600
1568.000000	18.764400
1567.000000	18.752200
1566.000000	18.759300
1565.000000	18.775300
1564.000000	18.764200
1563.000000	18.754900
1562.000000	18.754700
1561.000000	18.758100
1560.000000	18.769300
1559.000000	18.762800
1558.000000	18.745500
1557.000000	18.760500
1556.000000	18.767100
1555.000000	18.750700
1554.000000	18.729300
1553.000000	18.717500
1552.000000	18.708500
1551.000000	18.677900
1550.000000	18.659400
1549.000000	18.647500
1548.000000	18.629900
1547.000000	18.609400
1546.000000	18.584600
1545.000000	18.577200
1544.000000	18.567600
1543.000000	18.556300
1542.000000	18.536000
1541.000000	18.525600
1540.000000	18.513100
1539.000000	18.491800
1538.000000	18.476000
1537.000000	18.464000
1536.000000	18.450700
1535.000000	18.439000
1534.000000	18.414100
1533.000000	18.397800
1532.000000	18.373500
1531.000000	18.347100
1530.000000	18.331600
1529.000000	18.305000
1528.000000	18.273000
1527.000000	18.240800
1526.000000	18.210800
1525.000000	18.183900
1524.000000	18.150400
1523.000000	18.113100
1522.000000	18.082700
1521.000000	18.060300
1520.000000	18.016700
1519.000000	17.984100
1518.000000	17.959700
1517.000000	17.911900
1516.000000	17.874100
1515.000000	17.835600
1514.000000	17.776700
1513.000000	17.737200
1512.000000	17.714900
1511.000000	17.670900
1510.000000	17.621200
1509.000000	17.573000
1508.000000	17.523600
1507.000000	17.491300
1506.000000	17.452000
1505.000000	17.398300
1504.000000	17.356000
1503.000000	17.324200
1502.000000	17.274100
1501.000000	17.223700
1500.000000	17.192100
1499.000000	17.147100
1498.000000	17.109900
1497.000000	17.090300
1496.000000	17.055600
1495.000000	17.013500
1494.000000	16.987800
1493.000000	16.955100
1492.000000	16.942000
1491.000000	16.930800
1490.000000	16.904000
1489.000000	16.880400
1488.000000	16.858700
1487.000000	16.838000
1486.000000	16.817600
1485.000000	16.794500
1484.000000	16.791700
1483.000000	16.775900
1482.000000	16.756700
1481.000000	16.751600
1480.000000	16.738300
1479.000000	16.731100
1478.000000	16.733100
1477.000000	16.724900
1476.000000	16.715800
1475.000000	16.725200
1474.000000	16.734400
1473.000000	16.749900
1472.000000	16.755800
1471.000000	16.764800
1470.000000	16.770200
1469.000000	16.770300
1468.000000	16.775400
1467.000000	16.793200
1466.000000	16.802600
1465.000000	16.811700
1464.000000	16.834400
1463.000000	16.866100
1462.000000	16.886100
1461.000000	16.904200
1460.000000	16.943600
1459.000000	16.979600
1458.000000	17.013200
1457.000000	17.064400
1456.000000	17.110900
1455.000000	17.179800
1454.000000	17.240400
1453.000000	17.295200
1452.000000	17.369500
1451.000000	17.442100
1450.000000	17.514800
1449.000000	17.565500
1448.000000	17.626500
1447.000000	17.729400
1446.000000	17.811000
1445.000000	17.886200
1444.000000	17.938100
1443.000000	18.034600
1442.000000	18.128100
1441.000000	18.221800
1440.000000	18.326400
1439.000000	18.414200
1438.000000	18.507500
1437.000000	18.596000
1436.000000	18.699600
1435.000000	18.780000
1434.000000	18.880600
1433.000000	19.022700
1432.000000	19.122400
1431.000000	19.228900
1430.000000	19.360600
1429.000000	19.467300
1428.000000	19.636400
1427.000000	19.778000
1426.000000	19.941600
1425.000000	20.101900
1424.000000	20.269100
1423.000000	20.444500
1422.000000	20.622400
1421.000000	20.827500
1420.000000	21.033900
1419.000000	21.257400
1418.000000	21.451000
1417.000000	21.669600
1416.000000	21.891400
1415.000000	22.137700
1414.000000	22.394400
1413.000000	22.617200
1412.000000	22.847000
1411.000000	23.095500
1410.000000	23.396300
1409.000000	23.731800
1408.000000	24.037600
1407.000000	24.373400
1406.000000	24.694200
1405.000000	25.079500
1404.000000	25.427400
1403.000000	25.792700
1402.000000	26.146300
1401.000000	26.543000
1400.000000	26.926100
1399.000000	27.269000
1398.000000	27.531500
1397.000000	27.809000
1396.000000	28.113500
1395.000000	28.422100
1394.000000	28.693800
1393.000000	28.913700
1392.000000	29.189100
1391.000000	29.462100
1390.000000	29.739700
1389.000000	30.049700
1388.000000	30.428300
1387.000000	30.820300
1386.000000	31.223100
1385.000000	31.661500
1384.000000	32.150400
1383.000000	32.649400
1382.000000	33.140600
1381.000000	33.594400
1380.000000	33.920600
1379.000000	34.141500
1378.000000	34.375000
1377.000000	34.540400
1376.000000	34.701400
1375.000000	34.898900
1374.000000	35.130000
1373.000000	35.382800
1372.000000	35.709100
1371.000000	36.041600
1370.000000	36.378500
1369.000000	36.672400
1368.000000	36.967000
1367.000000	37.273600
1366.000000	37.484700
1365.000000	37.690000
1364.000000	37.903300
1363.000000	38.073200
1362.000000	38.273600
1361.000000	38.406500
1360.000000	38.521000
1359.000000	38.558300
1358.000000	38.682400
1357.000000	38.813500
1356.000000	38.970400
1355.000000	39.226700
1354.000000	39.596900
1353.000000	40.015200
1352.000000	40.444900
1351.000000	40.905300
1350.000000	41.362200
1349.000000	41.806900
1348.000000	42.185800
1347.000000	42.550000
1346.000000	42.901800
1345.000000	43.220600
1344.000000	43.572200
1343.000000	43.878500
1342.000000	44.164600
1341.000000	44.487500
1340.000000	44.777900
1339.000000	45.073900
1338.000000	45.354700
1337.000000	45.635800
1336.000000	45.904600
1335.000000	46.170700
1334.000000	46.422900
1333.000000	46.673200
1332.000000	46.919400
1331.000000	47.167700
1330.000000	47.392900
1329.000000	47.608500
1328.000000	47.826300
1327.000000	48.022500
1326.000000	48.219600
1325.000000	48.406500
1324.000000	48.598900
1323.000000	48.767000
1322.000000	48.942000
1321.000000	49.111900
1320.000000	49.234600
1319.000000	49.386800
1318.000000	49.542600
1317.000000	49.668400
1316.000000	49.806200
1315.000000	49.928600
1314.000000	50.052100
1313.000000	50.171900
1312.000000	50.257200
1311.000000	50.378100
1310.000000	50.475200
1309.000000	50.563300
1308.000000	50.641000
1307.000000	50.729000
1306.000000	50.801000
1305.000000	50.861000
1304.000000	50.922000
1303.000000	50.965600
1302.000000	51.018300
1301.000000	51.064100
1300.000000	51.072300
1299.000000	51.100700
1298.000000	51.117300
1297.000000	51.150200
1296.000000	51.172700
1295.000000	51.187300
1294.000000	51.207300
1293.000000	51.217000
1292.000000	51.200500
1291.000000	51.196500
1290.000000	51.200500
1289.000000	51.177400
1288.000000	51.151400
1287.000000	51.126700
1286.000000	51.097400
1285.000000	51.067200
1284.000000	51.015800
1283.000000	50.978600
1282.000000	50.918800
1281.000000	50.861000
1280.000000	50.813000
1279.000000	50.773400
1278.000000	50.716100
1277.000000	50.669700
1276.000000	50.607400
1275.000000	50.559800
1274.000000	50.534700
1273.000000	50.487200
1272.000000	50.445500
1271.000000	50.415700
1270.000000	50.375300
1269.000000	50.336600
1268.000000	50.293400
1267.000000	50.255100
1266.000000	50.215100
1265.000000	50.172700
1264.000000	50.134600
1263.000000	50.106600
1262.000000	50.057400
1261.000000	50.005100
1260.000000	49.978600
1259.000000	49.938000
1258.000000	49.887700
1257.000000	49.832700
1256.000000	49.790200
1255.000000	49.751200
1254.000000	49.688000
1253.000000	49.630200
1252.000000	49.574600
1251.000000	49.511400
1250.000000	49.447200
1249.000000	49.371700
1248.000000	49.297400
1247.000000	49.221600
1246.000000	49.135900
1245.000000	49.043200
1244.000000	48.937800
1243.000000	48.817600
1242.000000	48.705300
1241.000000	48.591700
1240.000000	48.469400
1239.000000	48.336300
1238.000000	48.202900
1237.000000	48.065100
1236.000000	47.927900
1235.000000	47.790600
1234.000000	47.631700
1233.000000	47.469800
1232.000000	47.319100
1231.000000	47.157000
1230.000000	46.991700
1229.000000	46.826400
1228.000000	46.649100
1227.000000	46.478800
1226.000000	46.303800
1225.000000	46.122700
1224.000000	45.960900
1223.000000	45.785400
1222.000000	45.610600
1221.000000	45.432300
1220.000000	45.263200
1219.000000	45.101800
1218.000000	44.941000
1217.000000	44.793400
1216.000000	44.650600
1215.000000	44.510000
1214.000000	44.375400
1213.000000	44.243400
1212.000000	44.110200
1211.000000	43.982400
1210.000000	43.861400
1209.000000	43.751100
1208.000000	43.653400
1207.000000	43.561900
1206.000000	43.481000
1205.000000	43.409500
1204.000000	43.355600
1203.000000	43.317300
1202.000000	43.276900
1201.000000	43.241100
1200.000000	43.207200
1199.000000	43.162600
1198.000000	43.084600
1197.000000	42.975300
1196.000000	42.838000
1195.000000	42.651000
1194.000000	42.427300
1193.000000	42.134900
1192.000000	41.771600
1191.000000	41.355800
1190.000000	40.925900
1189.000000	40.525300
1188.000000	40.169000
1187.000000	39.926000
1186.000000	39.784000
1185.000000	39.730200
1184.000000	39.823300
1183.000000	40.045700
1182.000000	40.377100
1181.000000	40.786000
1180.000000	41.266800
1179.000000	41.740400
1178.000000	42.193500
1177.000000	42.606300
1176.000000	42.971100
1175.000000	43.287800
1174.000000	43.602700
1173.000000	43.899900
1172.000000	44.189200
1171.000000	44.514500
1170.000000	44.843400
1169.000000	45.168400
1168.000000	45.508500
1167.000000	45.858400
1166.000000	46.194100
1165.000000	46.527100
1164.000000	46.908500
1163.000000	47.292000
1162.000000	47.656200
1161.000000	48.035600
1160.000000	48.402400
1159.000000	48.775000
1158.000000	49.135100
1157.000000	49.463600
1156.000000	49.778900
1155.000000	50.053300
1154.000000	50.296800
1153.000000	50.494100
1152.000000	50.636000
1151.000000	50.743900
1150.000000	50.817400
1149.000000	50.891800
1148.000000	50.981100
1147.000000	51.064100
1146.000000	51.195500
1145.000000	51.378900
1144.000000	51.618900
1143.000000	51.938200
1142.000000	52.257300
1141.000000	52.627200
1140.000000	53.024700
1139.000000	53.425100
1138.000000	53.810100
1137.000000	54.236900
1136.000000	54.672400
1135.000000	55.133700
1134.000000	55.582400
1133.000000	55.990300
1132.000000	56.370700
1131.000000	56.696600
1130.000000	57.044300
1129.000000	57.335200
1128.000000	57.596700
1127.000000	57.803700
1126.000000	57.948600
1125.000000	58.091400
1124.000000	58.198700
1123.000000	58.315600
1122.000000	58.396000
1121.000000	58.477000
1120.000000	58.545600
1119.000000	58.573800
1118.000000	58.634600
1117.000000	58.676700
1116.000000	58.666300
1115.000000	58.673700
1114.000000	58.690700
1113.000000	58.682400
1112.000000	58.685800
1111.000000	58.693900
1110.000000	58.694700
1109.000000	58.701600
1108.000000	58.679000
1107.000000	58.687000
1106.000000	58.683200
1105.000000	58.678400
1104.000000	58.676100
1103.000000	58.654400
1102.000000	58.640900
1101.000000	58.642800
1100.000000	58.629500
1099.000000	58.621900
1098.000000	58.594100
1097.000000	58.603800
1096.000000	58.572300
1095.000000	58.551000
1094.000000	58.519300
1093.000000	58.489700
1092.000000	58.477200
1091.000000	58.447600
1090.000000	58.421200
1089.000000	58.379200
1088.000000	58.350900
1087.000000	58.298200
1086.000000	58.252700
1085.000000	58.218800
1084.000000	58.191500
1083.000000	58.133500
1082.000000	58.118700
1081.000000	58.049400
1080.000000	58.023800
1079.000000	57.957000
1078.000000	57.940900
1077.000000	57.900300
1076.000000	57.872800
1075.000000	57.821600
1074.000000	57.785500
1073.000000	57.743900
1072.000000	57.704100
1071.000000	57.666400
1070.000000	57.633300
1069.000000	57.582000
1068.000000	57.531000
1067.000000	57.511900
1066.000000	57.474200
1065.000000	57.421000
1064.000000	57.394600
1063.000000	57.348300
1062.000000	57.308300
1061.000000	57.252100
1060.000000	57.197400
1059.000000	57.163900
1058.000000	57.117500
1057.000000	57.063400
1056.000000	57.015900
1055.000000	56.945300
1054.000000	56.898300
1053.000000	56.853800
1052.000000	56.801100
1051.000000	56.758500
1050.000000	56.710300
1049.000000	56.658900
1048.000000	56.647300
1047.000000	56.578300
1046.000000	56.525900
1045.000000	56.477200
1044.000000	56.454200
1043.000000	56.411400
1042.000000	56.365600
1041.000000	56.318100
1040.000000	56.282900
1039.000000	56.247100
1038.000000	56.192200
1037.000000	56.130700
1036.000000	56.079700
1035.000000	56.041400
1034.000000	55.982000
1033.000000	55.897000
1032.000000	55.851600
1031.000000	55.796800
1030.000000	55.731600
1029.000000	55.655000
1028.000000	55.603400
1027.000000	55.524300
1026.000000	55.438100
1025.000000	55.373200
1024.000000	55.284700
1023.000000	55.200900
1022.000000	55.117200
1021.000000	55.042400
1020.000000	54.951000
1019.000000	54.885300
1018.000000	54.804800
1017.000000	54.724700
1016.000000	54.653200
1015.000000	54.590100
1014.000000	54.521600
1013.000000	54.482300
1012.000000	54.426700
1011.000000	54.404900
1010.000000	54.376000
1009.000000	54.341800
1008.000000	54.307500
1007.000000	54.307900
1006.000000	54.293600
1005.000000	54.271500
1004.000000	54.239800
1003.000000	54.224500
1002.000000	54.213000
1001.000000	54.202200
1000.000000	54.187200
999.000000	54.168300
998.000000	54.160100
997.000000	54.126300
996.000000	54.130900
995.000000	54.127900
994.000000	54.118100
993.000000	54.101900
992.000000	54.089500
991.000000	54.100100
990.000000	54.098600
989.000000	54.089500
988.000000	54.100400
987.000000	54.118300
986.000000	54.125100
985.000000	54.121400
984.000000	54.155300
983.000000	54.180500
982.000000	54.184000
981.000000	54.194100
980.000000	54.234200
979.000000	54.270300
978.000000	54.276600
977.000000	54.276500
976.000000	54.310400
975.000000	54.359200
974.000000	54.380600
973.000000	54.380600
972.000000	54.402100
971.000000	54.425900
970.000000	54.448200
969.000000	54.484900
968.000000	54.502700
967.000000	54.534000
966.000000	54.560700
965.000000	54.581700
964.000000	54.613300
963.000000	54.636300
962.000000	54.683600
961.000000	54.724300
960.000000	54.747400
959.000000	54.782000
958.000000	54.813600
957.000000	54.845500
956.000000	54.879100
955.000000	54.908800
954.000000	54.933400
953.000000	54.947900
952.000000	54.973400
951.000000	54.992200
950.000000	55.007900
949.000000	55.030100
948.000000	55.051500
947.000000	55.065300
946.000000	55.082600
945.000000	55.110400
944.000000	55.128200
943.000000	55.135000
942.000000	55.160900
941.000000	55.177600
940.000000	55.189600
939.000000	55.215500
938.000000	55.243000
937.000000	55.284700
936.000000	55.323300
935.000000	55.357000
934.000000	55.385300
933.000000	55.433300
932.000000	55.472400
931.000000	55.507100
930.000000	55.553500
929.000000	55.613900
928.000000	55.655000
927.000000	55.694600
926.000000	55.743800
925.000000	55.798900
924.000000	55.853100
923.000000	55.901500
922.000000	55.948800
921.000000	55.997000
920.000000	56.047600
919.000000	56.094700
918.000000	56.130700
917.000000	56.154300
916.000000	56.186100
915.000000	56.208500
914.000000	56.224500
913.000000	56.230300
912.000000	56.246700
911.000000	56.260800
910.000000	56.277500
909.000000	56.304200
908.000000	56.336200
907.000000	56.365700
906.000000	56.389200
905.000000	56.427400
904.000000	56.471900
903.000000	56.530700
902.000000	56.589800
901.000000	56.648100
900.000000	56.706100
899.000000	56.757800
898.000000	56.827700
897.000000	56.908500
896.000000	56.983300
895.000000	57.040600
894.000000	57.098200
893.000000	57.162900
892.000000	57.236600
891.000000	57.320100
890.000000	57.397600
889.000000	57.447700
888.000000	57.543400
887.000000	57.612800
886.000000	57.690400
885.000000	57.775600
884.000000	57.849800
883.000000	57.929700
882.000000	58.006100
881.000000	58.093100
880.000000	58.184400
879.000000	58.244700
878.000000	58.321300
877.000000	58.376200
876.000000	58.391800
875.000000	58.396200
874.000000	58.394500
873.000000	58.433600
872.000000	58.409000
871.000000	58.311500
870.000000	58.258000
869.000000	58.294100
868.000000	58.403500
867.000000	58.533000
866.000000	58.692900
865.000000	58.823300
864.000000	58.974900
863.000000	59.112400
862.000000	59.228200
861.000000	59.350400
860.000000	59.478700
859.000000	59.598100
858.000000	59.741300
857.000000	59.555100
856.000000	59.960901
855.000000	60.292083
854.000000	60.406505
853.000000	60.153107
852.000000	60.616551
851.000000	60.859015
850.000000	60.929989
849.000000	60.912054
848.000000	60.745168
847.000000	60.576364
846.000000	60.917233
845.000000	61.250813
844.000000	61.057455
843.000000	61.434579
842.000000	61.340490
841.000000	61.162862
840.000000	61.588421
839.000000	61.837023
838.000000	62.022324
837.000000	62.070663
836.000000	61.867906
835.000000	62.058003
834.000000	62.109411
833.000000	62.360123
832.000000	62.267377
831.000000	62.343147
830.000000	62.596833
829.000000	62.612946
828.000000	62.384581
827.000000	62.567196
826.000000	62.629730
825.000000	62.677302
824.000000	62.653900
823.000000	62.773885
822.000000	62.772638
821.000000	62.712502
820.000000	62.850326
819.000000	62.940387
818.000000	62.823951
817.000000	62.822320
816.000000	63.007141
815.000000	63.034188
814.000000	62.978752
813.000000	62.928015
812.000000	62.916793
811.000000	62.953335
810.000000	62.508019
809.000000	62.753648
808.000000	62.732643
807.000000	62.732068
806.000000	62.602300
805.000000	62.636156
804.000000	62.410669
803.000000	62.455555
802.000000	62.218750
801.000000	62.428604
800.000000	62.116029
799.000000	62.087447
798.000000	62.072293
797.000000	61.958830
796.000000	61.933893
795.000000	61.851889
794.000000	61.616235
793.000000	61.644625
792.000000	61.569143
791.000000	61.450884
790.000000	61.395063
789.000000	61.169768
788.000000	61.175618
787.000000	61.233261
786.000000	61.044411
785.000000	61.065032
784.000000	60.887309
783.000000	60.752266
782.000000	60.587202
781.000000	60.673426
780.000000	60.630074
779.000000	60.420700
778.000000	60.421851
777.000000	60.269735
776.000000	60.127019
775.000000	59.946035
774.000000	60.054031
773.000000	59.897791
772.000000	59.729467
771.000000	59.640365
770.000000	59.639022
769.000000	59.540713
768.000000	59.297674
767.000000	59.310814
766.000000	59.205311
765.000000	59.015503
764.000000	58.937815
763.000000	58.798839
762.000000	58.812650
761.000000	58.683554
760.000000	58.481468
759.000000	58.427087
758.000000	58.219151
757.000000	58.201119
756.000000	58.074708
755.000000	58.066076
754.000000	57.947338
753.000000	57.846056
752.000000	57.694228
751.000000	57.541825
750.000000	57.507393
749.000000	57.410618
748.000000	57.226660
747.000000	57.052005
746.000000	57.007119
745.000000	56.939406
744.000000	56.738088
743.000000	56.650233
742.000000	56.432802
741.000000	56.340727
740.000000	56.221413
739.000000	56.152549
738.000000	56.024891
737.000000	55.874118
736.000000	55.866253
735.000000	55.720372
734.000000	55.535072
733.000000	55.503133
732.000000	55.298746
731.000000	55.257120
730.000000	55.061174
729.000000	54.958452
728.000000	54.888629
727.000000	54.740734
726.000000	54.563394
725.000000	54.419527
724.000000	54.307694
723.000000	54.191449
722.000000	53.999435
721.000000	53.878203
720.000000	53.690121
719.000000	53.579247
718.000000	53.456768
717.000000	53.329686
716.000000	53.242598
715.000000	53.070150
714.000000	53.026318
713.000000	52.852527
712.000000	52.743092
711.000000	52.630396
710.000000	52.592895
709.000000	52.454974
708.000000	52.362995
707.000000	52.310915
706.000000	52.254903
705.000000	52.163212
704.000000	52.107008
703.000000	52.088305
702.000000	52.113914
701.000000	52.133000
700.000000	52.161869
699.000000	52.186518
698.000000	52.273702
697.000000	52.348896
696.000000	52.472142
695.000000	52.501587
694.000000	52.527867
693.000000	52.612940
692.000000	52.726116
691.000000	52.750381
690.000000	52.788554
689.000000	52.862214
688.000000	52.945849
687.000000	52.999943
686.000000	52.975293
685.000000	52.991598
684.000000	53.041089
683.000000	52.977308
682.000000	52.915061
681.000000	52.915637
680.000000	52.907964
679.000000	52.836510
678.000000	52.792774
677.000000	52.755848
676.000000	52.702138
675.000000	52.632218
674.000000	52.568342
673.000000	52.431188
672.000000	52.380259
671.000000	52.238982
670.000000	52.042747
669.000000	51.886700
668.000000	51.700919
667.000000	51.432559
666.000000	51.185396
665.000000	50.953194
664.000000	50.701619
663.000000	50.446207
662.000000	50.197029
661.000000	49.975954
660.000000	49.739148
659.000000	49.576291
658.000000	49.451798
657.000000	49.357421
656.000000	49.326634
655.000000	49.272252
654.000000	49.236573
653.000000	49.246644
652.000000	49.233600
651.000000	49.264387
650.000000	49.363080
649.000000	49.493424
648.000000	49.604009
647.000000	49.725913
646.000000	49.873616
645.000000	50.042708
644.000000	50.225899
643.000000	50.450619
642.000000	50.709771
641.000000	50.988969
640.000000	51.276320
639.000000	51.611626
638.000000	51.969663
637.000000	52.367791
636.000000	52.831043
635.000000	53.309257
634.000000	53.756204
633.000000	54.236048
632.000000	54.751188
631.000000	55.247529
630.000000	55.743966
629.000000	56.189379
628.000000	56.627981
627.000000	56.993883
626.000000	57.356140
625.000000	57.705354
624.000000	58.035768
623.000000	58.369923
622.000000	58.691994
621.000000	59.000349
620.000000	59.333065
619.000000	59.681032
618.000000	59.979316
617.000000	60.307620
616.000000	60.618469
615.000000	60.968354
614.000000	61.283998
613.000000	61.561182
612.000000	61.818320
611.000000	62.085433
610.000000	62.328856
609.000000	62.555783
608.000000	62.763335
607.000000	62.911038
606.000000	63.017500
605.000000	63.102957
604.000000	63.187934
603.000000	63.239535
602.000000	63.279338
601.000000	63.321635
600.000000	63.348778
599.000000	63.371317
598.000000	63.445744
597.000000	63.538970
596.000000	63.614740
595.000000	63.722256
594.000000	63.812221
593.000000	63.906406
592.000000	64.001263
591.000000	64.096982
590.000000	64.215433
589.000000	64.324004
588.000000	64.386922
587.000000	64.441879
586.000000	64.512086
585.000000	64.544600
584.000000	64.566180
583.000000	64.543833
582.000000	64.530022
581.000000	64.511895
580.000000	64.465857
579.000000	64.406680
578.000000	64.331389
577.000000	64.234999
576.000000	64.113383
575.000000	64.038764
574.000000	63.914655
573.000000	63.812797
572.000000	63.666532
571.000000	63.512978
570.000000	63.351655
569.000000	63.191195
568.000000	63.021816
567.000000	62.805919
566.000000	62.573334
565.000000	62.361274
564.000000	62.109699
563.000000	61.830981
562.000000	61.495003
561.000000	61.183483
560.000000	60.799454
559.000000	60.305223
558.000000	59.825282
557.000000	59.344575
556.000000	58.816583
555.000000	58.337889
554.000000	57.751679
553.000000	57.187336
552.000000	56.588850
551.000000	55.959192
550.000000	55.340851
549.000000	54.691148
548.000000	54.038183
547.000000	53.394906
546.000000	52.717292
545.000000	52.050132
544.000000	51.348349
543.000000	50.611750
542.000000	49.896539
541.000000	49.161666
540.000000	48.416147
539.000000	47.717433
538.000000	46.995412
537.000000	46.332857
536.000000	45.659079
535.000000	45.008896
534.000000	44.349506
533.000000	43.678126
532.000000	43.044824
531.000000	42.399148
530.000000	41.775245
529.000000	41.186158
528.000000	40.634955
527.000000	40.075696
526.000000	39.549238
525.000000	39.046951
524.000000	38.517232
523.000000	38.042471
522.000000	37.566847
521.000000	37.113090
520.000000	36.640535
519.000000	36.205001
518.000000	35.786636
517.000000	35.372395
516.000000	34.948946
515.000000	34.530965
514.000000	34.155472
513.000000	33.742477
512.000000	33.343198
511.000000	32.952935
510.000000	32.552313
509.000000	32.145841
508.000000	31.817632
507.000000	31.452306
506.000000	31.079403
505.000000	30.726641
504.000000	30.381648
503.000000	30.066579
502.000000	29.679864
501.000000	29.376593
500.000000	29.049631
499.000000	28.739453
498.000000	28.481740
497.000000	28.170795
496.000000	27.870209
495.000000	27.551400
494.000000	27.286492
493.000000	26.993579
492.000000	26.693760
491.000000	26.402861
490.000000	26.121265
489.000000	25.854632
488.000000	25.575434
487.000000	25.295564
486.000000	25.002076
485.000000	24.755488
484.000000	24.483963
483.000000	24.201696
482.000000	23.927389
481.000000	23.633900
480.000000	23.382421
479.000000	23.064666
478.000000	22.780289
477.000000	22.504448
476.000000	22.197820
475.000000	21.893781
474.000000	21.601251
473.000000	21.285223
472.000000	20.986939
471.000000	20.703233
470.000000	20.429406
469.000000	20.165266
468.000000	19.901414
467.000000	19.638617
466.000000	19.420323
465.000000	19.187929
464.000000	18.988338
463.000000	18.816273
462.000000	18.596348
461.000000	18.432723
460.000000	18.327796
459.000000	18.174051
458.000000	18.066822
457.000000	17.945973
456.000000	17.882768
455.000000	17.783500
454.000000	17.713101
453.000000	17.671283
452.000000	17.599733
451.000000	17.531445
450.000000	17.502671
449.000000	17.432080
448.000000	17.375493
447.000000	17.298380
446.000000	17.244574
445.000000	17.195467
444.000000	17.145689
443.000000	17.056396
442.000000	16.996547
441.000000	16.905623
440.000000	16.799833
439.000000	16.689726
438.000000	16.558328
437.000000	16.444865
436.000000	16.321427
435.000000	16.207484
434.000000	16.069755
433.000000	15.909679
432.000000	15.812713
431.000000	15.652925
430.000000	15.464651
429.000000	15.327018
428.000000	15.158022
427.000000	15.002742
426.000000	14.826457
425.000000	14.620343
424.000000	14.456335
423.000000	14.270554
422.000000	14.073648
421.000000	13.882401
420.000000	13.715228
419.000000	13.526186
418.000000	13.328801
417.000000	13.137170
416.000000	12.926453
415.000000	12.742687
414.000000	12.505402
413.000000	12.293054
412.000000	12.071499
411.000000	11.826829
410.000000	11.598368
409.000000	11.387747
408.000000	11.174632
407.000000	10.921426
406.000000	10.682798
405.000000	10.480905
404.000000	10.230385
403.000000	9.973054
402.000000	9.746704
401.000000	9.519873
400.000000	9.297838
399.000000	9.069090
398.000000	8.844082
397.000000	8.627706
396.000000	8.419195
395.000000	8.229290
394.000000	8.019148
393.000000	7.838739
392.000000	7.647396
391.000000	7.468138
390.000000	7.316022
389.000000	7.177143
388.000000	7.022342
387.000000	6.878091
386.000000	6.749474
385.000000	6.636586
384.000000	6.526959
383.000000	6.434693
382.000000	6.323723
381.000000	6.219755
380.000000	6.147534
379.000000	6.063420
378.000000	6.017191
377.000000	5.960795
376.000000	5.876105
375.000000	5.709603
374.000000	5.479032
373.000000	5.475100
372.000000	5.430980
371.000000	5.397028
370.000000	5.488911
369.000000	5.665771
368.000000	5.580123
367.000000	5.435680
366.000000	5.525933
365.000000	5.499749
364.000000	5.538689
363.000000	5.590673
362.000000	5.555569
361.000000	5.582712
360.000000	5.437119
359.000000	5.367871
358.000000	5.264095
357.000000	5.374872
356.000000	5.317325
355.000000	5.225155
354.000000	5.379956
353.000000	5.376215
352.000000	5.476346
351.000000	5.627503
350.000000	5.434529
349.000000	5.366528
348.000000	5.273782
347.000000	5.131066
346.000000	5.271384
345.000000	5.436351
344.000000	5.345044
343.000000	5.474812
342.000000	5.435968
341.000000	5.368542
340.000000	5.492651
339.000000	5.392424
338.000000	5.455630
337.000000	5.699244
336.000000	5.640547
335.000000	5.455917
334.000000	5.739144
333.000000	5.809063
332.000000	5.660017
331.000000	5.478361
330.000000	5.322888
329.000000	5.513752
328.000000	5.412661
327.000000	5.505887
326.000000	6.051335
325.000000	6.185611
324.000000	5.987458
323.000000	5.757367
322.000000	6.060830
321.000000	6.157605
320.000000	6.036373
319.000000	6.462699
318.000000	6.439105
317.000000	6.157797
316.000000	5.617720
315.000000	5.231485
314.000000	5.295266
313.000000	5.287113
312.000000	5.254695
311.000000	5.256038
310.000000	5.210768
309.000000	5.242610
308.000000	5.312146
307.000000	5.324327
306.000000	5.266876
305.000000	5.271768
304.000000	5.289703
303.000000	5.291046
302.000000	5.301021
301.000000	5.331808
300.000000	5.338618
299.000000	5.289415
298.000000	5.297664
297.000000	5.331137
296.000000	5.325478
295.000000	5.317997
294.000000	5.326245
293.000000	5.350990
292.000000	5.338714
291.000000	5.359814
290.000000	5.400481
289.000000	5.340536
288.000000	5.390314
287.000000	5.388396
286.000000	5.348976
285.000000	5.384559
284.000000	5.426664
283.000000	5.411414
282.000000	5.391177
281.000000	5.392520
280.000000	5.432707
279.000000	5.467619
278.000000	5.469345
277.000000	5.443545
276.000000	5.450546
275.000000	5.487856
274.000000	5.507230
273.000000	5.539264
272.000000	5.509820
271.000000	5.521521
270.000000	5.556624
269.000000	5.586932
268.000000	5.608800
267.000000	5.633449
266.000000	5.628078
265.000000	5.625009
264.000000	5.641602
263.000000	5.658866
262.000000	5.670951
261.000000	5.704040
260.000000	5.733005
259.000000	5.745761
258.000000	5.788250
257.000000	5.811844
256.000000	5.812899
255.000000	5.787291
254.000000	5.831123
253.000000	5.808967
252.000000	5.854813
251.000000	5.855388
250.000000	5.867377
