PE UV       SUBTECH     SPECTRUM    ASCII       PEDS        4.00        
   -1
CICIMAUCR0225-3.Sample.ASC
24/05/27
16:32:59.00
24/05/27
16:32:59.00
Vinicio Soto Monge
C. resplendens, F
250,000000
1
Lambda 1050
1050L1511233
PerkinElmer UV WinLab 6.3.2.0749 / 2.02.05 Lambda 900 UV/VIS/NIR, Aug  7 2015 09:38:08

0
0
3350/servo 860,8/2
0
0
UV/VIS
1
1
1
DoubleDePol,CommonBeamDepol,RBeamAtt,SBeamAtt,60mm sphere, WB InGaAs Detector
0
0
0
0
Program
Program
3350/servo 860,8/2
3350/0,2 860,8/0,2
3350/0,2 860,8/0,2
0
15.00
 
 
 
0
 
860,8
319,2
860,8
Front
100
on
S:100 R:100
0
0
0
0
 
0
 
 
 
0
 
 
0
0
0
0
0
 
 
 
 
0
0


0
0
#HDR
-1
-1
#GR
nm
%R
1.0
0.0
2500,000000
-1,000000
2251
8
72,869500
5,660100
#DATA
2500.000000	9.866800
2499.000000	9.757600
2498.000000	9.726300
2497.000000	9.784000
2496.000000	9.643000
2495.000000	9.779800
2494.000000	9.701000
2493.000000	9.612000
2492.000000	9.544800
2491.000000	9.571200
2490.000000	9.552900
2489.000000	9.477100
2488.000000	9.480800
2487.000000	9.512200
2486.000000	9.512400
2485.000000	9.541400
2484.000000	9.523500
2483.000000	9.500600
2482.000000	9.480000
2481.000000	9.459000
2480.000000	9.394400
2479.000000	9.466600
2478.000000	9.439100
2477.000000	9.404700
2476.000000	9.449900
2475.000000	9.458600
2474.000000	9.443100
2473.000000	9.508000
2472.000000	9.505600
2471.000000	9.512200
2470.000000	9.470400
2469.000000	9.484100
2468.000000	9.466400
2467.000000	9.495200
2466.000000	9.489400
2465.000000	9.561800
2464.000000	9.545900
2463.000000	9.597300
2462.000000	9.626400
2461.000000	9.622300
2460.000000	9.688000
2459.000000	9.726700
2458.000000	9.782900
2457.000000	9.856100
2456.000000	9.891500
2455.000000	9.906200
2454.000000	10.012100
2453.000000	10.082500
2452.000000	10.140500
2451.000000	10.229700
2450.000000	10.289400
2449.000000	10.360200
2448.000000	10.458200
2447.000000	10.535500
2446.000000	10.600500
2445.000000	10.673600
2444.000000	10.767200
2443.000000	10.848400
2442.000000	10.937900
2441.000000	11.017400
2440.000000	11.103600
2439.000000	11.140700
2438.000000	11.217500
2437.000000	11.299300
2436.000000	11.366400
2435.000000	11.447800
2434.000000	11.497300
2433.000000	11.577500
2432.000000	11.646500
2431.000000	11.702300
2430.000000	11.750000
2429.000000	11.794700
2428.000000	11.843200
2427.000000	11.885700
2426.000000	11.942400
2425.000000	11.998800
2424.000000	12.041800
2423.000000	12.072900
2422.000000	12.121200
2421.000000	12.168200
2420.000000	12.199700
2419.000000	12.231500
2418.000000	12.271800
2417.000000	12.306700
2416.000000	12.338200
2415.000000	12.365300
2414.000000	12.400000
2413.000000	12.432100
2412.000000	12.453800
2411.000000	12.476500
2410.000000	12.509100
2409.000000	12.547400
2408.000000	12.580200
2407.000000	12.602100
2406.000000	12.625900
2405.000000	12.657200
2404.000000	12.675500
2403.000000	12.717400
2402.000000	12.763900
2401.000000	12.802500
2400.000000	12.834200
2399.000000	12.873000
2398.000000	12.905200
2397.000000	12.931500
2396.000000	12.950200
2395.000000	12.985300
2394.000000	13.019600
2393.000000	13.054600
2392.000000	13.085200
2391.000000	13.101800
2390.000000	13.126400
2389.000000	13.145800
2388.000000	13.144700
2387.000000	13.163200
2386.000000	13.196900
2385.000000	13.196100
2384.000000	13.187200
2383.000000	13.188600
2382.000000	13.193900
2381.000000	13.193900
2380.000000	13.194300
2379.000000	13.193300
2378.000000	13.175200
2377.000000	13.170200
2376.000000	13.171100
2375.000000	13.140400
2374.000000	13.111600
2373.000000	13.102300
2372.000000	13.089200
2371.000000	13.063200
2370.000000	13.029600
2369.000000	12.996100
2368.000000	12.962600
2367.000000	12.916500
2366.000000	12.878900
2365.000000	12.835400
2364.000000	12.774400
2363.000000	12.720500
2362.000000	12.655500
2361.000000	12.588600
2360.000000	12.536300
2359.000000	12.490600
2358.000000	12.431200
2357.000000	12.364900
2356.000000	12.317400
2355.000000	12.284200
2354.000000	12.252200
2353.000000	12.213300
2352.000000	12.184600
2351.000000	12.184900
2350.000000	12.182200
2349.000000	12.192600
2348.000000	12.221600
2347.000000	12.242800
2346.000000	12.273700
2345.000000	12.317500
2344.000000	12.348800
2343.000000	12.389700
2342.000000	12.444200
2341.000000	12.484100
2340.000000	12.505000
2339.000000	12.537100
2338.000000	12.570100
2337.000000	12.592400
2336.000000	12.606600
2335.000000	12.614400
2334.000000	12.604000
2333.000000	12.582500
2332.000000	12.561800
2331.000000	12.532700
2330.000000	12.493300
2329.000000	12.458700
2328.000000	12.404500
2327.000000	12.348300
2326.000000	12.287400
2325.000000	12.219700
2324.000000	12.136400
2323.000000	12.059600
2322.000000	11.960500
2321.000000	11.854700
2320.000000	11.744600
2319.000000	11.624000
2318.000000	11.506000
2317.000000	11.390300
2316.000000	11.250800
2315.000000	11.111000
2314.000000	10.969700
2313.000000	10.859000
2312.000000	10.749300
2311.000000	10.652100
2310.000000	10.545500
2309.000000	10.460200
2308.000000	10.397200
2307.000000	10.342800
2306.000000	10.324700
2305.000000	10.299400
2304.000000	10.296700
2303.000000	10.346600
2302.000000	10.385500
2301.000000	10.440700
2300.000000	10.513500
2299.000000	10.591700
2298.000000	10.689400
2297.000000	10.790400
2296.000000	10.884500
2295.000000	10.979900
2294.000000	11.069500
2293.000000	11.158900
2292.000000	11.224200
2291.000000	11.270100
2290.000000	11.337900
2289.000000	11.366900
2288.000000	11.377100
2287.000000	11.412500
2286.000000	11.404800
2285.000000	11.384600
2284.000000	11.374000
2283.000000	11.350900
2282.000000	11.308600
2281.000000	11.250800
2280.000000	11.210200
2279.000000	11.147300
2278.000000	11.107000
2277.000000	11.093600
2276.000000	11.043900
2275.000000	10.990800
2274.000000	10.980200
2273.000000	10.948700
2272.000000	10.940200
2271.000000	10.921100
2270.000000	10.955600
2269.000000	10.995200
2268.000000	11.045700
2267.000000	11.115200
2266.000000	11.226100
2265.000000	11.350600
2264.000000	11.460800
2263.000000	11.605500
2262.000000	11.792900
2261.000000	12.005600
2260.000000	12.207600
2259.000000	12.416000
2258.000000	12.643900
2257.000000	12.895300
2256.000000	13.154700
2255.000000	13.395500
2254.000000	13.641700
2253.000000	13.894700
2252.000000	14.132000
2251.000000	14.343500
2250.000000	14.578700
2249.000000	14.777500
2248.000000	14.986900
2247.000000	15.165200
2246.000000	15.335200
2245.000000	15.492400
2244.000000	15.633300
2243.000000	15.773500
2242.000000	15.900600
2241.000000	16.003900
2240.000000	16.139500
2239.000000	16.230000
2238.000000	16.330600
2237.000000	16.394300
2236.000000	16.451500
2235.000000	16.552500
2234.000000	16.607600
2233.000000	16.655500
2232.000000	16.700300
2231.000000	16.743500
2230.000000	16.763300
2229.000000	16.780100
2228.000000	16.822400
2227.000000	16.820600
2226.000000	16.830900
2225.000000	16.830600
2224.000000	16.820000
2223.000000	16.819300
2222.000000	16.797300
2221.000000	16.781000
2220.000000	16.761900
2219.000000	16.714300
2218.000000	16.676000
2217.000000	16.680500
2216.000000	16.627300
2215.000000	16.610700
2214.000000	16.552300
2213.000000	16.521000
2212.000000	16.497400
2211.000000	16.468300
2210.000000	16.432300
2209.000000	16.422100
2208.000000	16.391000
2207.000000	16.360200
2206.000000	16.346900
2205.000000	16.328900
2204.000000	16.314600
2203.000000	16.272000
2202.000000	16.279800
2201.000000	16.269000
2200.000000	16.261300
2199.000000	16.240000
2198.000000	16.213400
2197.000000	16.195500
2196.000000	16.191700
2195.000000	16.188600
2194.000000	16.181700
2193.000000	16.180600
2192.000000	16.145900
2191.000000	16.137600
2190.000000	16.116900
2189.000000	16.112100
2188.000000	16.107900
2187.000000	16.078900
2186.000000	16.072400
2185.000000	16.053300
2184.000000	16.055700
2183.000000	16.027300
2182.000000	16.010600
2181.000000	16.002000
2180.000000	15.983400
2179.000000	15.971300
2178.000000	15.953800
2177.000000	15.944100
2176.000000	15.941300
2175.000000	15.935700
2174.000000	15.928100
2173.000000	15.938000
2172.000000	15.948900
2171.000000	15.960800
2170.000000	15.963400
2169.000000	15.982900
2168.000000	15.988800
2167.000000	15.992500
2166.000000	16.014700
2165.000000	16.055300
2164.000000	16.082100
2163.000000	16.096000
2162.000000	16.117000
2161.000000	16.160700
2160.000000	16.199200
2159.000000	16.229600
2158.000000	16.278400
2157.000000	16.300200
2156.000000	16.356900
2155.000000	16.402100
2154.000000	16.450000
2153.000000	16.491900
2152.000000	16.542700
2151.000000	16.606500
2150.000000	16.652900
2149.000000	16.698800
2148.000000	16.749100
2147.000000	16.797900
2146.000000	16.855200
2145.000000	16.882500
2144.000000	16.931700
2143.000000	16.989800
2142.000000	17.026200
2141.000000	17.069400
2140.000000	17.109100
2139.000000	17.149700
2138.000000	17.198200
2137.000000	17.238500
2136.000000	17.281200
2135.000000	17.304500
2134.000000	17.339800
2133.000000	17.377500
2132.000000	17.407000
2131.000000	17.427000
2130.000000	17.440400
2129.000000	17.460900
2128.000000	17.483800
2127.000000	17.493700
2126.000000	17.490500
2125.000000	17.511600
2124.000000	17.527100
2123.000000	17.533200
2122.000000	17.521200
2121.000000	17.512100
2120.000000	17.519800
2119.000000	17.510400
2118.000000	17.500800
2117.000000	17.495000
2116.000000	17.468500
2115.000000	17.447900
2114.000000	17.451600
2113.000000	17.453900
2112.000000	17.431200
2111.000000	17.399900
2110.000000	17.383700
2109.000000	17.369900
2108.000000	17.346900
2107.000000	17.316700
2106.000000	17.302800
2105.000000	17.298600
2104.000000	17.281500
2103.000000	17.257000
2102.000000	17.223800
2101.000000	17.192200
2100.000000	17.186300
2099.000000	17.164100
2098.000000	17.140900
2097.000000	17.130600
2096.000000	17.117300
2095.000000	17.101100
2094.000000	17.079300
2093.000000	17.052300
2092.000000	17.043300
2091.000000	17.040200
2090.000000	17.022400
2089.000000	17.006600
2088.000000	17.000800
2087.000000	16.981900
2086.000000	16.961400
2085.000000	16.950100
2084.000000	16.924100
2083.000000	16.909800
2082.000000	16.890200
2081.000000	16.855700
2080.000000	16.836000
2079.000000	16.800800
2078.000000	16.761700
2077.000000	16.726900
2076.000000	16.697000
2075.000000	16.662900
2074.000000	16.610900
2073.000000	16.568100
2072.000000	16.526700
2071.000000	16.486900
2070.000000	16.441700
2069.000000	16.386900
2068.000000	16.330800
2067.000000	16.286600
2066.000000	16.236100
2065.000000	16.187200
2064.000000	16.130900
2063.000000	16.088300
2062.000000	16.052100
2061.000000	15.998300
2060.000000	15.959700
2059.000000	15.911400
2058.000000	15.878400
2057.000000	15.857600
2056.000000	15.844300
2055.000000	15.832000
2054.000000	15.839000
2053.000000	15.856500
2052.000000	15.869200
2051.000000	15.904000
2050.000000	15.946700
2049.000000	15.988100
2048.000000	16.041200
2047.000000	16.111900
2046.000000	16.203100
2045.000000	16.299500
2044.000000	16.394800
2043.000000	16.487900
2042.000000	16.604900
2041.000000	16.718400
2040.000000	16.808500
2039.000000	16.906500
2038.000000	17.000900
2037.000000	17.094200
2036.000000	17.196700
2035.000000	17.300400
2034.000000	17.367500
2033.000000	17.452700
2032.000000	17.521400
2031.000000	17.587400
2030.000000	17.664200
2029.000000	17.732800
2028.000000	17.791500
2027.000000	17.839200
2026.000000	17.890300
2025.000000	17.928200
2024.000000	17.972000
2023.000000	18.013600
2022.000000	18.052500
2021.000000	18.087400
2020.000000	18.115500
2019.000000	18.149200
2018.000000	18.161900
2017.000000	18.178500
2016.000000	18.192600
2015.000000	18.209100
2014.000000	18.245600
2013.000000	18.246200
2012.000000	18.244600
2011.000000	18.244100
2010.000000	18.251300
2009.000000	18.258700
2008.000000	18.225100
2007.000000	18.228100
2006.000000	18.229000
2005.000000	18.200300
2004.000000	18.171400
2003.000000	18.140500
2002.000000	18.113200
2001.000000	18.102700
2000.000000	18.079500
1999.000000	18.026900
1998.000000	17.977200
1997.000000	17.946500
1996.000000	17.901200
1995.000000	17.849200
1994.000000	17.801300
1993.000000	17.728600
1992.000000	17.657600
1991.000000	17.595900
1990.000000	17.536600
1989.000000	17.466100
1988.000000	17.403900
1987.000000	17.351600
1986.000000	17.249400
1985.000000	17.179200
1984.000000	17.099700
1983.000000	17.028100
1982.000000	16.960700
1981.000000	16.884400
1980.000000	16.784600
1979.000000	16.716300
1978.000000	16.660200
1977.000000	16.549300
1976.000000	16.486000
1975.000000	16.400500
1974.000000	16.312900
1973.000000	16.244500
1972.000000	16.165100
1971.000000	16.091400
1970.000000	16.006900
1969.000000	15.943100
1968.000000	15.864300
1967.000000	15.791800
1966.000000	15.724400
1965.000000	15.632200
1964.000000	15.564200
1963.000000	15.510600
1962.000000	15.438800
1961.000000	15.340100
1960.000000	15.265200
1959.000000	15.194900
1958.000000	15.128100
1957.000000	15.070100
1956.000000	15.010500
1955.000000	14.944700
1954.000000	14.878200
1953.000000	14.817300
1952.000000	14.738600
1951.000000	14.676900
1950.000000	14.611700
1949.000000	14.571100
1948.000000	14.516000
1947.000000	14.460900
1946.000000	14.403500
1945.000000	14.343600
1944.000000	14.299600
1943.000000	14.270900
1942.000000	14.248900
1941.000000	14.223400
1940.000000	14.218600
1939.000000	14.187100
1938.000000	14.162400
1937.000000	14.188300
1936.000000	14.171600
1935.000000	14.192400
1934.000000	14.204000
1933.000000	14.238700
1932.000000	14.286700
1931.000000	14.294600
1930.000000	14.351400
1929.000000	14.418200
1928.000000	14.502700
1927.000000	14.559200
1926.000000	14.679200
1925.000000	14.759100
1924.000000	14.886400
1923.000000	14.971200
1922.000000	15.057100
1921.000000	15.195500
1920.000000	15.354700
1919.000000	15.543200
1918.000000	15.654200
1917.000000	15.827200
1916.000000	15.996800
1915.000000	16.135900
1914.000000	16.298800
1913.000000	16.517200
1912.000000	16.735300
1911.000000	16.951800
1910.000000	17.159000
1909.000000	17.354900
1908.000000	17.543700
1907.000000	17.757900
1906.000000	18.005600
1905.000000	18.266500
1904.000000	18.568100
1903.000000	18.798800
1902.000000	19.079000
1901.000000	19.342200
1900.000000	19.622900
1899.000000	19.910300
1898.000000	20.244300
1897.000000	20.544500
1896.000000	20.833600
1895.000000	21.107400
1894.000000	21.360200
1893.000000	21.683400
1892.000000	21.981600
1891.000000	22.350000
1890.000000	22.702400
1889.000000	23.029300
1888.000000	23.347100
1887.000000	23.727000
1886.000000	24.074500
1885.000000	24.471100
1884.000000	24.857000
1883.000000	25.286800
1882.000000	25.707600
1881.000000	26.120600
1880.000000	26.536600
1879.000000	26.944600
1878.000000	27.318000
1877.000000	27.711000
1876.000000	28.061400
1875.000000	28.400200
1874.000000	28.717700
1873.000000	29.023600
1872.000000	29.317800
1871.000000	29.570900
1870.000000	29.812900
1869.000000	29.997800
1868.000000	30.211200
1867.000000	30.358700
1866.000000	30.483500
1865.000000	30.583300
1864.000000	30.694800
1863.000000	30.780500
1862.000000	30.891900
1861.000000	30.993400
1860.000000	31.078600
1859.000000	31.160400
1858.000000	31.198500
1857.000000	31.242800
1856.000000	31.292200
1855.000000	31.314500
1854.000000	31.333200
1853.000000	31.344600
1852.000000	31.315800
1851.000000	31.309100
1850.000000	31.317600
1849.000000	31.325400
1848.000000	31.335900
1847.000000	31.306900
1846.000000	31.236000
1845.000000	31.170400
1844.000000	31.167400
1843.000000	31.153800
1842.000000	31.171600
1841.000000	31.176600
1840.000000	31.143500
1839.000000	31.120100
1838.000000	31.092800
1837.000000	31.060800
1836.000000	31.005100
1835.000000	30.970200
1834.000000	30.909100
1833.000000	30.849200
1832.000000	30.802400
1831.000000	30.779900
1830.000000	30.739600
1829.000000	30.685000
1828.000000	30.634700
1827.000000	30.565300
1826.000000	30.515500
1825.000000	30.473500
1824.000000	30.402500
1823.000000	30.383900
1822.000000	30.399100
1821.000000	30.392800
1820.000000	30.359800
1819.000000	30.329700
1818.000000	30.283400
1817.000000	30.262400
1816.000000	30.266100
1815.000000	30.273700
1814.000000	30.255700
1813.000000	30.227600
1812.000000	30.214300
1811.000000	30.200100
1810.000000	30.184900
1809.000000	30.149300
1808.000000	30.127100
1807.000000	30.102100
1806.000000	30.065600
1805.000000	30.035100
1804.000000	29.992200
1803.000000	29.954800
1802.000000	29.932300
1801.000000	29.907700
1800.000000	29.859000
1799.000000	29.805000
1798.000000	29.763000
1797.000000	29.733600
1796.000000	29.707200
1795.000000	29.672100
1794.000000	29.635500
1793.000000	29.605100
1792.000000	29.566900
1791.000000	29.523400
1790.000000	29.495400
1789.000000	29.463600
1788.000000	29.412400
1787.000000	29.370800
1786.000000	29.342300
1785.000000	29.300700
1784.000000	29.243400
1783.000000	29.183000
1782.000000	29.121700
1781.000000	29.076600
1780.000000	29.019500
1779.000000	28.944400
1778.000000	28.887700
1777.000000	28.810800
1776.000000	28.747800
1775.000000	28.682700
1774.000000	28.603600
1773.000000	28.519400
1772.000000	28.422900
1771.000000	28.324900
1770.000000	28.224300
1769.000000	28.126000
1768.000000	28.022700
1767.000000	27.922600
1766.000000	27.832600
1765.000000	27.741400
1764.000000	27.682700
1763.000000	27.646100
1762.000000	27.631300
1761.000000	27.641400
1760.000000	27.659800
1759.000000	27.696000
1758.000000	27.749400
1757.000000	27.794000
1756.000000	27.851500
1755.000000	27.898500
1754.000000	27.918100
1753.000000	27.935900
1752.000000	27.961900
1751.000000	27.952000
1750.000000	27.955400
1749.000000	27.945000
1748.000000	27.911300
1747.000000	27.863300
1746.000000	27.807900
1745.000000	27.729700
1744.000000	27.635800
1743.000000	27.513600
1742.000000	27.404500
1741.000000	27.261400
1740.000000	27.074300
1739.000000	26.904200
1738.000000	26.729200
1737.000000	26.538900
1736.000000	26.383700
1735.000000	26.244500
1734.000000	26.136800
1733.000000	26.048500
1732.000000	26.003000
1731.000000	26.004900
1730.000000	26.042000
1729.000000	26.085100
1728.000000	26.137500
1727.000000	26.214600
1726.000000	26.298900
1725.000000	26.365100
1724.000000	26.427700
1723.000000	26.469600
1722.000000	26.532000
1721.000000	26.560100
1720.000000	26.598800
1719.000000	26.642700
1718.000000	26.687700
1717.000000	26.753700
1716.000000	26.824000
1715.000000	26.895900
1714.000000	26.971700
1713.000000	27.047300
1712.000000	27.122700
1711.000000	27.164700
1710.000000	27.219200
1709.000000	27.247600
1708.000000	27.251200
1707.000000	27.291100
1706.000000	27.289400
1705.000000	27.281100
1704.000000	27.247500
1703.000000	27.207300
1702.000000	27.172600
1701.000000	27.110300
1700.000000	27.027100
1699.000000	26.924000
1698.000000	26.833900
1697.000000	26.738500
1696.000000	26.651600
1695.000000	26.595600
1694.000000	26.605200
1693.000000	26.629900
1692.000000	26.701200
1691.000000	26.798900
1690.000000	26.898300
1689.000000	27.033400
1688.000000	27.131200
1687.000000	27.194800
1686.000000	27.222200
1685.000000	27.279700
1684.000000	27.331600
1683.000000	27.427700
1682.000000	27.591800
1681.000000	27.815600
1680.000000	28.102300
1679.000000	28.465700
1678.000000	28.831500
1677.000000	29.210400
1676.000000	29.578600
1675.000000	29.903600
1674.000000	30.180900
1673.000000	30.440000
1672.000000	30.654000
1671.000000	30.842700
1670.000000	30.999200
1669.000000	31.141200
1668.000000	31.285300
1667.000000	31.357700
1666.000000	31.470000
1665.000000	31.547200
1664.000000	31.617800
1663.000000	31.699600
1662.000000	31.765800
1661.000000	31.816500
1660.000000	31.857900
1659.000000	31.913900
1658.000000	31.944800
1657.000000	31.969700
1656.000000	31.991500
1655.000000	32.015600
1654.000000	32.032300
1653.000000	32.033600
1652.000000	32.030500
1651.000000	32.023300
1650.000000	32.014000
1649.000000	31.995700
1648.000000	31.959100
1647.000000	31.955700
1646.000000	31.927600
1645.000000	31.899100
1644.000000	31.853400
1643.000000	31.820200
1642.000000	31.780200
1641.000000	31.759200
1640.000000	31.729500
1639.000000	31.678500
1638.000000	31.624300
1637.000000	31.585600
1636.000000	31.555500
1635.000000	31.503600
1634.000000	31.439000
1633.000000	31.404500
1632.000000	31.368400
1631.000000	31.297100
1630.000000	31.225200
1629.000000	31.187600
1628.000000	31.122100
1627.000000	31.061000
1626.000000	30.998800
1625.000000	30.938300
1624.000000	30.880700
1623.000000	30.810300
1622.000000	30.755500
1621.000000	30.700800
1620.000000	30.645000
1619.000000	30.590200
1618.000000	30.528100
1617.000000	30.469200
1616.000000	30.439300
1615.000000	30.369300
1614.000000	30.302900
1613.000000	30.256800
1612.000000	30.199400
1611.000000	30.135200
1610.000000	30.106800
1609.000000	30.047100
1608.000000	29.995900
1607.000000	29.934300
1606.000000	29.880000
1605.000000	29.842700
1604.000000	29.777700
1603.000000	29.707200
1602.000000	29.651000
1601.000000	29.616400
1600.000000	29.555900
1599.000000	29.491800
1598.000000	29.450300
1597.000000	29.391600
1596.000000	29.328100
1595.000000	29.290000
1594.000000	29.250400
1593.000000	29.197900
1592.000000	29.142800
1591.000000	29.106100
1590.000000	29.076300
1589.000000	29.024900
1588.000000	28.987600
1587.000000	28.960800
1586.000000	28.911400
1585.000000	28.870600
1584.000000	28.849300
1583.000000	28.809700
1582.000000	28.760500
1581.000000	28.739700
1580.000000	28.720500
1579.000000	28.688400
1578.000000	28.662100
1577.000000	28.626900
1576.000000	28.621900
1575.000000	28.602800
1574.000000	28.590400
1573.000000	28.592200
1572.000000	28.580600
1571.000000	28.585600
1570.000000	28.578000
1569.000000	28.583500
1568.000000	28.581400
1567.000000	28.600100
1566.000000	28.605600
1565.000000	28.608000
1564.000000	28.621300
1563.000000	28.627400
1562.000000	28.626000
1561.000000	28.641300
1560.000000	28.636500
1559.000000	28.632400
1558.000000	28.651800
1557.000000	28.648900
1556.000000	28.630100
1555.000000	28.628300
1554.000000	28.610300
1553.000000	28.583200
1552.000000	28.571400
1551.000000	28.552700
1550.000000	28.531100
1549.000000	28.513800
1548.000000	28.495000
1547.000000	28.473500
1546.000000	28.449600
1545.000000	28.412700
1544.000000	28.389900
1543.000000	28.366300
1542.000000	28.347400
1541.000000	28.327100
1540.000000	28.325200
1539.000000	28.319000
1538.000000	28.301700
1537.000000	28.291900
1536.000000	28.283300
1535.000000	28.271300
1534.000000	28.245700
1533.000000	28.233800
1532.000000	28.206200
1531.000000	28.189400
1530.000000	28.179800
1529.000000	28.155400
1528.000000	28.131700
1527.000000	28.125000
1526.000000	28.106500
1525.000000	28.079900
1524.000000	28.052100
1523.000000	28.022600
1522.000000	27.999100
1521.000000	27.980100
1520.000000	27.951900
1519.000000	27.908500
1518.000000	27.882400
1517.000000	27.864800
1516.000000	27.826800
1515.000000	27.786700
1514.000000	27.752200
1513.000000	27.720500
1512.000000	27.688100
1511.000000	27.651600
1510.000000	27.617700
1509.000000	27.576800
1508.000000	27.537100
1507.000000	27.495100
1506.000000	27.455400
1505.000000	27.422300
1504.000000	27.387700
1503.000000	27.335000
1502.000000	27.303900
1501.000000	27.272300
1500.000000	27.238300
1499.000000	27.209300
1498.000000	27.179900
1497.000000	27.150900
1496.000000	27.132200
1495.000000	27.113600
1494.000000	27.083400
1493.000000	27.064900
1492.000000	27.043400
1491.000000	27.025700
1490.000000	27.012100
1489.000000	27.004400
1488.000000	27.003900
1487.000000	26.980600
1486.000000	26.964600
1485.000000	26.961700
1484.000000	26.921700
1483.000000	26.901300
1482.000000	26.904500
1481.000000	26.896500
1480.000000	26.907300
1479.000000	26.907900
1478.000000	26.901100
1477.000000	26.908300
1476.000000	26.903000
1475.000000	26.902900
1474.000000	26.916100
1473.000000	26.943000
1472.000000	26.973600
1471.000000	26.988900
1470.000000	27.010900
1469.000000	27.015500
1468.000000	27.010500
1467.000000	27.034700
1466.000000	27.065100
1465.000000	27.076500
1464.000000	27.104400
1463.000000	27.150400
1462.000000	27.189400
1461.000000	27.211500
1460.000000	27.250500
1459.000000	27.294500
1458.000000	27.326200
1457.000000	27.373500
1456.000000	27.438400
1455.000000	27.511900
1454.000000	27.565800
1453.000000	27.623200
1452.000000	27.701900
1451.000000	27.774500
1450.000000	27.858500
1449.000000	27.917600
1448.000000	27.974600
1447.000000	28.054600
1446.000000	28.151800
1445.000000	28.228700
1444.000000	28.298500
1443.000000	28.370100
1442.000000	28.472900
1441.000000	28.556100
1440.000000	28.657300
1439.000000	28.749600
1438.000000	28.833100
1437.000000	28.949200
1436.000000	29.023400
1435.000000	29.112100
1434.000000	29.204000
1433.000000	29.318200
1432.000000	29.428800
1431.000000	29.548300
1430.000000	29.646400
1429.000000	29.770000
1428.000000	29.893200
1427.000000	30.031900
1426.000000	30.162700
1425.000000	30.321400
1424.000000	30.485300
1423.000000	30.661000
1422.000000	30.824800
1421.000000	30.985200
1420.000000	31.183500
1419.000000	31.378700
1418.000000	31.550300
1417.000000	31.716500
1416.000000	31.891600
1415.000000	32.112100
1414.000000	32.368500
1413.000000	32.543300
1412.000000	32.740600
1411.000000	32.952100
1410.000000	33.196300
1409.000000	33.481800
1408.000000	33.755900
1407.000000	34.031900
1406.000000	34.320500
1405.000000	34.623800
1404.000000	34.923100
1403.000000	35.188700
1402.000000	35.519600
1401.000000	35.824700
1400.000000	36.162900
1399.000000	36.419100
1398.000000	36.612100
1397.000000	36.809000
1396.000000	37.088800
1395.000000	37.347900
1394.000000	37.541400
1393.000000	37.695800
1392.000000	37.867800
1391.000000	38.071500
1390.000000	38.271700
1389.000000	38.504400
1388.000000	38.760800
1387.000000	39.063400
1386.000000	39.342400
1385.000000	39.660700
1384.000000	40.025800
1383.000000	40.387100
1382.000000	40.786700
1381.000000	41.057200
1380.000000	41.326700
1379.000000	41.465000
1378.000000	41.617600
1377.000000	41.739100
1376.000000	41.870600
1375.000000	41.993800
1374.000000	42.142600
1373.000000	42.326100
1372.000000	42.567800
1371.000000	42.828300
1370.000000	43.033900
1369.000000	43.259100
1368.000000	43.492100
1367.000000	43.683100
1366.000000	43.862400
1365.000000	44.018200
1364.000000	44.162700
1363.000000	44.287600
1362.000000	44.434900
1361.000000	44.576100
1360.000000	44.640400
1359.000000	44.627500
1358.000000	44.734200
1357.000000	44.795100
1356.000000	44.906900
1355.000000	45.068500
1354.000000	45.314800
1353.000000	45.573800
1352.000000	45.825300
1351.000000	46.193000
1350.000000	46.543700
1349.000000	46.828500
1348.000000	47.127100
1347.000000	47.401600
1346.000000	47.673000
1345.000000	47.888300
1344.000000	48.163000
1343.000000	48.393900
1342.000000	48.608500
1341.000000	48.824300
1340.000000	49.056000
1339.000000	49.244100
1338.000000	49.466200
1337.000000	49.647300
1336.000000	49.832700
1335.000000	50.028100
1334.000000	50.194400
1333.000000	50.394600
1332.000000	50.571700
1331.000000	50.726000
1330.000000	50.882700
1329.000000	51.050100
1328.000000	51.191600
1327.000000	51.328200
1326.000000	51.463600
1325.000000	51.585700
1324.000000	51.712600
1323.000000	51.823600
1322.000000	51.942800
1321.000000	52.065400
1320.000000	52.153200
1319.000000	52.259900
1318.000000	52.349400
1317.000000	52.446300
1316.000000	52.535300
1315.000000	52.618300
1314.000000	52.704900
1313.000000	52.773100
1312.000000	52.836700
1311.000000	52.906900
1310.000000	52.990800
1309.000000	53.057600
1308.000000	53.112900
1307.000000	53.164000
1306.000000	53.211800
1305.000000	53.254900
1304.000000	53.302300
1303.000000	53.319600
1302.000000	53.352900
1301.000000	53.379100
1300.000000	53.395300
1299.000000	53.405600
1298.000000	53.416200
1297.000000	53.432500
1296.000000	53.440400
1295.000000	53.451100
1294.000000	53.461800
1293.000000	53.454300
1292.000000	53.457300
1291.000000	53.434400
1290.000000	53.417500
1289.000000	53.405200
1288.000000	53.376000
1287.000000	53.342600
1286.000000	53.319200
1285.000000	53.290000
1284.000000	53.240900
1283.000000	53.194000
1282.000000	53.154500
1281.000000	53.097600
1280.000000	53.051700
1279.000000	53.011300
1278.000000	52.975400
1277.000000	52.908900
1276.000000	52.875000
1275.000000	52.839200
1274.000000	52.806800
1273.000000	52.770100
1272.000000	52.745500
1271.000000	52.707200
1270.000000	52.663800
1269.000000	52.635200
1268.000000	52.597100
1267.000000	52.585100
1266.000000	52.551300
1265.000000	52.510200
1264.000000	52.473600
1263.000000	52.446600
1262.000000	52.421600
1261.000000	52.382300
1260.000000	52.347200
1259.000000	52.311500
1258.000000	52.273200
1257.000000	52.237400
1256.000000	52.216800
1255.000000	52.183000
1254.000000	52.128500
1253.000000	52.082500
1252.000000	52.030300
1251.000000	51.976200
1250.000000	51.948800
1249.000000	51.893500
1248.000000	51.814200
1247.000000	51.733500
1246.000000	51.653500
1245.000000	51.579500
1244.000000	51.503700
1243.000000	51.417600
1242.000000	51.326100
1241.000000	51.225500
1240.000000	51.133600
1239.000000	51.035500
1238.000000	50.934300
1237.000000	50.815600
1236.000000	50.698100
1235.000000	50.596600
1234.000000	50.478500
1233.000000	50.367300
1232.000000	50.250100
1231.000000	50.125700
1230.000000	50.001400
1229.000000	49.883200
1228.000000	49.761800
1227.000000	49.624400
1226.000000	49.492300
1225.000000	49.357900
1224.000000	49.225300
1223.000000	49.099500
1222.000000	48.954300
1221.000000	48.808700
1220.000000	48.676600
1219.000000	48.555200
1218.000000	48.435800
1217.000000	48.322700
1216.000000	48.214400
1215.000000	48.097800
1214.000000	47.994800
1213.000000	47.896600
1212.000000	47.796900
1211.000000	47.710000
1210.000000	47.637500
1209.000000	47.556000
1208.000000	47.475800
1207.000000	47.405500
1206.000000	47.331100
1205.000000	47.281700
1204.000000	47.246900
1203.000000	47.209000
1202.000000	47.187700
1201.000000	47.161900
1200.000000	47.121500
1199.000000	47.084600
1198.000000	47.031600
1197.000000	46.965000
1196.000000	46.880100
1195.000000	46.747200
1194.000000	46.592300
1193.000000	46.392200
1192.000000	46.145400
1191.000000	45.874800
1190.000000	45.589500
1189.000000	45.311700
1188.000000	45.057200
1187.000000	44.865000
1186.000000	44.744500
1185.000000	44.700100
1184.000000	44.741800
1183.000000	44.883500
1182.000000	45.096500
1181.000000	45.367300
1180.000000	45.665400
1179.000000	45.991800
1178.000000	46.315900
1177.000000	46.627300
1176.000000	46.893900
1175.000000	47.116500
1174.000000	47.324700
1173.000000	47.548200
1172.000000	47.769500
1171.000000	47.983800
1170.000000	48.207600
1169.000000	48.436000
1168.000000	48.669800
1167.000000	48.928200
1166.000000	49.172900
1165.000000	49.417600
1164.000000	49.657300
1163.000000	49.927300
1162.000000	50.191900
1161.000000	50.439800
1160.000000	50.700300
1159.000000	50.961900
1158.000000	51.200400
1157.000000	51.431400
1156.000000	51.668800
1155.000000	51.850400
1154.000000	52.018400
1153.000000	52.164900
1152.000000	52.273200
1151.000000	52.349900
1150.000000	52.411700
1149.000000	52.454800
1148.000000	52.507400
1147.000000	52.566700
1146.000000	52.626500
1145.000000	52.727200
1144.000000	52.893600
1143.000000	53.054500
1142.000000	53.269800
1141.000000	53.514000
1140.000000	53.748200
1139.000000	53.999200
1138.000000	54.259300
1137.000000	54.526700
1136.000000	54.822600
1135.000000	55.121900
1134.000000	55.427200
1133.000000	55.697400
1132.000000	55.928300
1131.000000	56.157300
1130.000000	56.395000
1129.000000	56.596900
1128.000000	56.768200
1127.000000	56.908800
1126.000000	57.006700
1125.000000	57.099000
1124.000000	57.197200
1123.000000	57.273100
1122.000000	57.311900
1121.000000	57.372600
1120.000000	57.396000
1119.000000	57.434200
1118.000000	57.470000
1117.000000	57.473900
1116.000000	57.489900
1115.000000	57.490600
1114.000000	57.492300
1113.000000	57.501400
1112.000000	57.482000
1111.000000	57.491500
1110.000000	57.505100
1109.000000	57.509300
1108.000000	57.504200
1107.000000	57.516700
1106.000000	57.499000
1105.000000	57.495500
1104.000000	57.500300
1103.000000	57.504200
1102.000000	57.503100
1101.000000	57.509500
1100.000000	57.504300
1099.000000	57.514700
1098.000000	57.505800
1097.000000	57.511800
1096.000000	57.506800
1095.000000	57.487400
1094.000000	57.466900
1093.000000	57.471200
1092.000000	57.457500
1091.000000	57.436800
1090.000000	57.428600
1089.000000	57.425100
1088.000000	57.404700
1087.000000	57.378200
1086.000000	57.358700
1085.000000	57.334700
1084.000000	57.330700
1083.000000	57.301800
1082.000000	57.276900
1081.000000	57.253600
1080.000000	57.226200
1079.000000	57.183700
1078.000000	57.168200
1077.000000	57.140800
1076.000000	57.123400
1075.000000	57.095500
1074.000000	57.061100
1073.000000	57.042100
1072.000000	57.028600
1071.000000	56.966500
1070.000000	56.946500
1069.000000	56.930300
1068.000000	56.915400
1067.000000	56.873100
1066.000000	56.835400
1065.000000	56.817800
1064.000000	56.787800
1063.000000	56.766100
1062.000000	56.733700
1061.000000	56.726900
1060.000000	56.679900
1059.000000	56.679500
1058.000000	56.636200
1057.000000	56.598900
1056.000000	56.572100
1055.000000	56.559300
1054.000000	56.525100
1053.000000	56.499500
1052.000000	56.451300
1051.000000	56.454600
1050.000000	56.425700
1049.000000	56.412900
1048.000000	56.385200
1047.000000	56.380100
1046.000000	56.370500
1045.000000	56.352500
1044.000000	56.349100
1043.000000	56.345900
1042.000000	56.329100
1041.000000	56.331400
1040.000000	56.342100
1039.000000	56.328400
1038.000000	56.323600
1037.000000	56.312400
1036.000000	56.300700
1035.000000	56.284200
1034.000000	56.291200
1033.000000	56.263900
1032.000000	56.249400
1031.000000	56.222800
1030.000000	56.206000
1029.000000	56.208800
1028.000000	56.181700
1027.000000	56.144900
1026.000000	56.125000
1025.000000	56.098700
1024.000000	56.056600
1023.000000	56.024200
1022.000000	56.012100
1021.000000	55.976500
1020.000000	55.943500
1019.000000	55.915200
1018.000000	55.893600
1017.000000	55.863900
1016.000000	55.865200
1015.000000	55.855400
1014.000000	55.841100
1013.000000	55.853100
1012.000000	55.853100
1011.000000	55.867900
1010.000000	55.878900
1009.000000	55.893700
1008.000000	55.913900
1007.000000	55.944000
1006.000000	55.988700
1005.000000	56.021800
1004.000000	56.044600
1003.000000	56.066300
1002.000000	56.096200
1001.000000	56.138000
1000.000000	56.149100
999.000000	56.184300
998.000000	56.203900
997.000000	56.235600
996.000000	56.280500
995.000000	56.307000
994.000000	56.328900
993.000000	56.361700
992.000000	56.386800
991.000000	56.446800
990.000000	56.476200
989.000000	56.512200
988.000000	56.556300
987.000000	56.610100
986.000000	56.646600
985.000000	56.678700
984.000000	56.708900
983.000000	56.756000
982.000000	56.804500
981.000000	56.845700
980.000000	56.879300
979.000000	56.910200
978.000000	56.931600
977.000000	56.960100
976.000000	56.996300
975.000000	57.033800
974.000000	57.071000
973.000000	57.108600
972.000000	57.146400
971.000000	57.184200
970.000000	57.214200
969.000000	57.230300
968.000000	57.273900
967.000000	57.320100
966.000000	57.367400
965.000000	57.420800
964.000000	57.462500
963.000000	57.526800
962.000000	57.584900
961.000000	57.641100
960.000000	57.702200
959.000000	57.768200
958.000000	57.850100
957.000000	57.912900
956.000000	57.969400
955.000000	58.049700
954.000000	58.111100
953.000000	58.153600
952.000000	58.213500
951.000000	58.272100
950.000000	58.320200
949.000000	58.375300
948.000000	58.414100
947.000000	58.456000
946.000000	58.517700
945.000000	58.570700
944.000000	58.621000
943.000000	58.660800
942.000000	58.721600
941.000000	58.779000
940.000000	58.808600
939.000000	58.849800
938.000000	58.914900
937.000000	58.972800
936.000000	59.007500
935.000000	59.054200
934.000000	59.107000
933.000000	59.175300
932.000000	59.228900
931.000000	59.276200
930.000000	59.321100
929.000000	59.375500
928.000000	59.425400
927.000000	59.454100
926.000000	59.500700
925.000000	59.560700
924.000000	59.584200
923.000000	59.620200
922.000000	59.657900
921.000000	59.689400
920.000000	59.725700
919.000000	59.765900
918.000000	59.826900
917.000000	59.859300
916.000000	59.865000
915.000000	59.887700
914.000000	59.921800
913.000000	59.980500
912.000000	60.008100
911.000000	60.038100
910.000000	60.085500
909.000000	60.130100
908.000000	60.186700
907.000000	60.242700
906.000000	60.300700
905.000000	60.367200
904.000000	60.445500
903.000000	60.509400
902.000000	60.583200
901.000000	60.656000
900.000000	60.751600
899.000000	60.841200
898.000000	60.911900
897.000000	60.988500
896.000000	61.087500
895.000000	61.162800
894.000000	61.259700
893.000000	61.345300
892.000000	61.429400
891.000000	61.510800
890.000000	61.590500
889.000000	61.676400
888.000000	61.764600
887.000000	61.843000
886.000000	61.934700
885.000000	62.000400
884.000000	62.084500
883.000000	62.161300
882.000000	62.238200
881.000000	62.311200
880.000000	62.379300
879.000000	62.440900
878.000000	62.514200
877.000000	62.566400
876.000000	62.596300
875.000000	62.594400
874.000000	62.606100
873.000000	62.568400
872.000000	62.494600
871.000000	62.417500
870.000000	62.403100
869.000000	62.500800
868.000000	62.680100
867.000000	62.816600
866.000000	62.960300
865.000000	63.118800
864.000000	63.278500
863.000000	63.436400
862.000000	63.610400
861.000000	63.744700
860.000000	63.893500
859.000000	64.064300
858.000000	64.226500
857.000000	63.994260
856.000000	64.372670
855.000000	64.437668
854.000000	64.343674
853.000000	64.557253
852.000000	64.702623
851.000000	64.934884
850.000000	65.113337
849.000000	65.444458
848.000000	65.269410
847.000000	65.353091
846.000000	65.491552
845.000000	65.633419
844.000000	65.884266
843.000000	66.148442
842.000000	66.489293
841.000000	66.948075
840.000000	66.815743
839.000000	66.988066
838.000000	66.966854
837.000000	66.987677
836.000000	67.568768
835.000000	67.608467
834.000000	67.780596
833.000000	68.264287
832.000000	68.333956
831.000000	68.514063
830.000000	68.492851
829.000000	69.080266
828.000000	69.082407
827.000000	69.278666
826.000000	69.464514
825.000000	69.903738
824.000000	70.091630
823.000000	70.028286
822.000000	70.180078
821.000000	70.186889
820.000000	70.325253
819.000000	70.537567
818.000000	70.587094
817.000000	70.538832
816.000000	70.435400
815.000000	70.515772
814.000000	70.395506
813.000000	70.476948
812.000000	70.572596
811.000000	70.480548
810.000000	70.533675
809.000000	70.687219
808.000000	70.757763
807.000000	70.640708
806.000000	70.416231
805.000000	70.612685
804.000000	70.409031
803.000000	70.605776
802.000000	70.285262
801.000000	70.492322
800.000000	70.220458
799.000000	70.271347
798.000000	70.196716
797.000000	70.262590
796.000000	70.121404
795.000000	70.127242
794.000000	70.097954
793.000000	70.165677
792.000000	70.136389
791.000000	70.148941
790.000000	69.985959
789.000000	70.112744
788.000000	70.152930
787.000000	70.013982
786.000000	70.270277
785.000000	70.197884
784.000000	70.058255
783.000000	70.015052
782.000000	70.121015
781.000000	70.128896
780.000000	69.706506
779.000000	69.633432
778.000000	69.494094
777.000000	69.351449
776.000000	69.167352
775.000000	68.999116
774.000000	68.699424
773.000000	68.764033
772.000000	68.632966
771.000000	68.387277
770.000000	68.104516
769.000000	67.990672
768.000000	67.941145
767.000000	67.755978
766.000000	67.599808
765.000000	67.364530
764.000000	67.224122
763.000000	66.922581
762.000000	66.864978
761.000000	66.729922
760.000000	66.483163
759.000000	66.277271
758.000000	66.140366
757.000000	65.957924
756.000000	65.731306
755.000000	65.569297
754.000000	65.414391
753.000000	65.222511
752.000000	65.161113
751.000000	64.863464
750.000000	64.769081
749.000000	64.701650
748.000000	64.497606
747.000000	64.313802
746.000000	64.278870
745.000000	64.168042
744.000000	63.910482
743.000000	63.691552
742.000000	63.573524
741.000000	63.382129
740.000000	63.171177
739.000000	63.106471
738.000000	62.893573
737.000000	62.693227
736.000000	62.592908
735.000000	62.390227
734.000000	62.293800
733.000000	62.185794
732.000000	62.062998
731.000000	61.877248
730.000000	61.835018
729.000000	61.788118
728.000000	61.780042
727.000000	61.693832
726.000000	61.626207
725.000000	61.560917
724.000000	61.449992
723.000000	61.361155
722.000000	61.335564
721.000000	61.263949
720.000000	61.124028
719.000000	60.974474
718.000000	60.895367
717.000000	60.714579
716.000000	60.573587
715.000000	60.393578
714.000000	60.251224
713.000000	60.044359
712.000000	59.871063
711.000000	59.617006
710.000000	59.554732
709.000000	59.370830
708.000000	59.215146
707.000000	59.063159
706.000000	58.886360
705.000000	58.747120
704.000000	58.653126
703.000000	58.465916
702.000000	58.241634
701.000000	58.061721
700.000000	57.868575
699.000000	57.643028
698.000000	57.434509
697.000000	57.188528
696.000000	56.892825
695.000000	56.636141
694.000000	56.337033
693.000000	56.056412
692.000000	55.782311
691.000000	55.497506
690.000000	55.178256
689.000000	54.853363
688.000000	54.623826
687.000000	54.317323
686.000000	53.931226
685.000000	53.615285
684.000000	53.239988
683.000000	52.860703
682.000000	52.499905
681.000000	52.137161
680.000000	51.736955
679.000000	51.320208
678.000000	50.933625
677.000000	50.568643
676.000000	50.125624
675.000000	49.686011
674.000000	49.257685
673.000000	48.824689
672.000000	48.411347
671.000000	48.005109
670.000000	47.627283
669.000000	47.239727
668.000000	46.914250
667.000000	46.580891
666.000000	46.296573
665.000000	46.047770
664.000000	45.836818
663.000000	45.661673
662.000000	45.551138
661.000000	45.456754
660.000000	45.402070
659.000000	45.377258
658.000000	45.385529
657.000000	45.443910
656.000000	45.473977
655.000000	45.522628
654.000000	45.596967
653.000000	45.705557
652.000000	45.825239
651.000000	45.960003
650.000000	46.101676
649.000000	46.275945
648.000000	46.487578
647.000000	46.734726
646.000000	47.041424
645.000000	47.385583
644.000000	47.783356
643.000000	48.223651
642.000000	48.713180
641.000000	49.223337
640.000000	49.773778
639.000000	50.347864
638.000000	50.939463
637.000000	51.572319
636.000000	52.161973
635.000000	52.757951
634.000000	53.354222
633.000000	53.940956
632.000000	54.502392
631.000000	55.028118
630.000000	55.525821
629.000000	56.020215
628.000000	56.481819
627.000000	56.930968
626.000000	57.368343
625.000000	57.779349
624.000000	58.188506
623.000000	58.621697
622.000000	59.069776
621.000000	59.563781
620.000000	60.037645
619.000000	60.536126
618.000000	61.083064
617.000000	61.596821
616.000000	62.096568
615.000000	62.614704
614.000000	63.172734
613.000000	63.689897
612.000000	64.181081
611.000000	64.692698
610.000000	65.147101
609.000000	65.595666
608.000000	65.987601
607.000000	66.379244
606.000000	66.765924
605.000000	67.067368
604.000000	67.383990
603.000000	67.689131
602.000000	67.957492
601.000000	68.246967
600.000000	68.456460
599.000000	68.700884
598.000000	68.917771
597.000000	69.113447
596.000000	69.274969
595.000000	69.446903
594.000000	69.659606
593.000000	69.813733
592.000000	69.928356
591.000000	70.065066
590.000000	70.216274
589.000000	70.330605
588.000000	70.435594
587.000000	70.561698
586.000000	70.638762
585.000000	70.707555
584.000000	70.757666
583.000000	70.834146
582.000000	70.849519
581.000000	70.868007
580.000000	70.903912
579.000000	70.865769
578.000000	70.811961
577.000000	70.757471
576.000000	70.640513
575.000000	70.497771
574.000000	70.391419
573.000000	70.244103
572.000000	70.051346
571.000000	69.828329
570.000000	69.561039
569.000000	69.287618
568.000000	68.987051
567.000000	68.670817
566.000000	68.343102
565.000000	67.949902
564.000000	67.520311
563.000000	67.100353
562.000000	66.651010
561.000000	66.197483
560.000000	65.694720
559.000000	65.256177
558.000000	64.761686
557.000000	64.191979
556.000000	63.617991
555.000000	63.074751
554.000000	62.408228
553.000000	61.828888
552.000000	61.188151
551.000000	60.504600
550.000000	59.808789
549.000000	59.084663
548.000000	58.351099
547.000000	57.555066
546.000000	56.795036
545.000000	55.956482
544.000000	55.076867
543.000000	54.176429
542.000000	53.234734
541.000000	52.263362
540.000000	51.266886
539.000000	50.236063
538.000000	49.153377
537.000000	48.036343
536.000000	46.902379
535.000000	45.717331
534.000000	44.514184
533.000000	43.282139
532.000000	41.997744
531.000000	40.723956
530.000000	39.456493
529.000000	38.164801
528.000000	36.925360
527.000000	35.696818
526.000000	34.523057
525.000000	33.373816
524.000000	32.231678
523.000000	31.164658
522.000000	30.166138
521.000000	29.206930
520.000000	28.305713
519.000000	27.529627
518.000000	26.787695
517.000000	26.118740
516.000000	25.542027
515.000000	25.034108
514.000000	24.561023
513.000000	24.169477
512.000000	23.811987
511.000000	23.516869
510.000000	23.294143
509.000000	23.079688
508.000000	22.938502
507.000000	22.853070
506.000000	22.717917
505.000000	22.661579
504.000000	22.588018
503.000000	22.547638
502.000000	22.496456
501.000000	22.482639
500.000000	22.425717
499.000000	22.382710
498.000000	22.302046
497.000000	22.222647
496.000000	22.089829
495.000000	22.012668
494.000000	21.865157
493.000000	21.706457
492.000000	21.495310
491.000000	21.246799
490.000000	20.983012
489.000000	20.732166
488.000000	20.415446
487.000000	20.088996
486.000000	19.719538
485.000000	19.354361
484.000000	18.983249
483.000000	18.576330
482.000000	18.183227
481.000000	17.756263
480.000000	17.345063
479.000000	16.975605
478.000000	16.654506
477.000000	16.321342
476.000000	16.023401
475.000000	15.743365
474.000000	15.493394
473.000000	15.289643
472.000000	15.103114
471.000000	14.945775
470.000000	14.793497
469.000000	14.715655
468.000000	14.657857
467.000000	14.637910
466.000000	14.612806
465.000000	14.613098
464.000000	14.656981
463.000000	14.712638
462.000000	14.778609
461.000000	14.882723
460.000000	14.992870
459.000000	15.085307
458.000000	15.201486
457.000000	15.320585
456.000000	15.439294
455.000000	15.552749
454.000000	15.680604
453.000000	15.801746
452.000000	15.927753
451.000000	15.996935
450.000000	16.077015
449.000000	16.142305
448.000000	16.188719
447.000000	16.256830
446.000000	16.248462
445.000000	16.284756
444.000000	16.276972
443.000000	16.232894
442.000000	16.213531
441.000000	16.180253
440.000000	16.118174
439.000000	16.020774
438.000000	15.941375
437.000000	15.854095
436.000000	15.753095
435.000000	15.607530
434.000000	15.485513
433.000000	15.325839
432.000000	15.181831
431.000000	15.012038
430.000000	14.854992
429.000000	14.645791
428.000000	14.469576
427.000000	14.288107
426.000000	14.100994
425.000000	13.871555
424.000000	13.647564
423.000000	13.428244
422.000000	13.185377
421.000000	12.943385
420.000000	12.733114
419.000000	12.459986
418.000000	12.215173
417.000000	11.965300
416.000000	11.713772
415.000000	11.427508
414.000000	11.185419
413.000000	10.908107
412.000000	10.648601
411.000000	10.389290
410.000000	10.133773
409.000000	9.893436
408.000000	9.632178
407.000000	9.410620
406.000000	9.192565
405.000000	8.958747
404.000000	8.733005
403.000000	8.535967
402.000000	8.325112
401.000000	8.131480
400.000000	7.956044
399.000000	7.773991
398.000000	7.618598
397.000000	7.462038
396.000000	7.321728
395.000000	7.184531
394.000000	7.035756
393.000000	6.918409
392.000000	6.822468
391.000000	6.745599
390.000000	6.634285
389.000000	6.542140
388.000000	6.460406
387.000000	6.376141
386.000000	6.351913
385.000000	6.298008
384.000000	6.232426
383.000000	6.186596
382.000000	6.134831
381.000000	6.090072
380.000000	6.058059
379.000000	6.035096
378.000000	6.003764
377.000000	5.966692
376.000000	5.916095
375.000000	5.698624
374.000000	5.507424
373.000000	5.640242
372.000000	5.753794
371.000000	5.747275
370.000000	5.593439
369.000000	5.755351
368.000000	5.807797
367.000000	5.781233
366.000000	5.687434
365.000000	5.759924
364.000000	5.856059
363.000000	5.897705
362.000000	5.975255
361.000000	5.854989
360.000000	5.850416
359.000000	5.836599
358.000000	5.880482
357.000000	5.797969
356.000000	5.655519
355.000000	5.745815
354.000000	5.782985
353.000000	5.684320
352.000000	5.712927
351.000000	5.801570
350.000000	5.752724
349.000000	5.732971
348.000000	5.834361
347.000000	5.987418
346.000000	6.072849
345.000000	5.979342
344.000000	5.870071
343.000000	5.867735
342.000000	5.994521
341.000000	6.101651
340.000000	6.056405
339.000000	6.027214
338.000000	5.875325
337.000000	5.933707
336.000000	5.865887
335.000000	5.668849
334.000000	5.682179
333.000000	5.803613
332.000000	6.221722
331.000000	6.570649
330.000000	6.409516
329.000000	5.978368
328.000000	5.884277
327.000000	5.968054
326.000000	6.162562
325.000000	6.243615
324.000000	5.985180
323.000000	5.900916
322.000000	5.884666
321.000000	6.443572
320.000000	7.045194
319.000000	7.231820
318.000000	6.934366
317.000000	6.720301
316.000000	6.219484
315.000000	5.739783
314.000000	5.760800
313.000000	5.780163
312.000000	5.804683
311.000000	5.833874
310.000000	5.827063
309.000000	5.834069
308.000000	5.822392
307.000000	5.834944
306.000000	5.814997
305.000000	5.804878
304.000000	5.863162
303.000000	5.864914
302.000000	5.822587
301.000000	5.838155
300.000000	5.852070
299.000000	5.872795
298.000000	5.882525
297.000000	5.924463
296.000000	5.936723
295.000000	5.910451
294.000000	5.940907
293.000000	5.973406
292.000000	5.943826
291.000000	5.915706
290.000000	5.918430
289.000000	5.983915
288.000000	5.970000
287.000000	5.963384
286.000000	5.954335
285.000000	5.987028
284.000000	5.985763
283.000000	5.996272
282.000000	5.994132
281.000000	5.997537
280.000000	6.058157
279.000000	6.060297
278.000000	6.014273
277.000000	6.035582
276.000000	6.067498
275.000000	6.079952
274.000000	6.077520
273.000000	6.111089
272.000000	6.131036
271.000000	6.129188
270.000000	6.159838
269.000000	6.203235
268.000000	6.184261
267.000000	6.216468
266.000000	6.240794
265.000000	6.289639
264.000000	6.321652
263.000000	6.360573
262.000000	6.394726
261.000000	6.353956
260.000000	6.393851
259.000000	6.489986
258.000000	6.423722
257.000000	6.407668
256.000000	6.446394
255.000000	6.537372
254.000000	6.567633
253.000000	6.574152
252.000000	6.602175
251.000000	6.598186
250.000000	6.616771
