PE UV       SUBTECH     SPECTRUM    ASCII       PEDS        4.00        
   -1
CICIMAUCR0205-2.Sample.ASC
24/05/31
16:02:27.00
24/05/31
16:02:27.00
Vinicio Soto Monge
C. cupreomarginata. Sex F. Dorsal
250,000000
1
Lambda 1050
1050L1511233
PerkinElmer UV WinLab 6.3.2.0749 / 2.02.05 Lambda 900 UV/VIS/NIR, Aug  7 2015 09:38:08

0
0
3350/servo 860,8/2
0
0
UV/VIS
1
1
1
DoubleDePol,CommonBeamDepol,RBeamAtt,SBeamAtt,60mm sphere, WB InGaAs Detector
0
0
0
0
Program
Program
3350/servo 860,8/2
3350/0,2 860,8/0,2
3350/0,2 860,8/0,2
0
15.00
 
 
 
0
 
860,8
319,2
860,8
Front
100
on
S:100 R:100
0
0
0
0
 
0
 
 
 
0
 
 
0
0
0
0
0
 
 
 
 
0
0


0
0
#HDR
-1
-1
#GR
nm
%R
1.0
0.0
2500,000000
-1,000000
2251
8
68,667400
5,592200
#DATA
2500.000000	9.160100
2499.000000	9.104100
2498.000000	9.156100
2497.000000	9.105400
2496.000000	9.142700
2495.000000	9.030000
2494.000000	8.968100
2493.000000	8.886900
2492.000000	8.951500
2491.000000	8.958100
2490.000000	8.935900
2489.000000	8.983100
2488.000000	8.905500
2487.000000	8.934200
2486.000000	8.972400
2485.000000	8.965500
2484.000000	8.917600
2483.000000	8.880500
2482.000000	8.819600
2481.000000	8.865800
2480.000000	8.931700
2479.000000	8.976200
2478.000000	8.917600
2477.000000	8.952700
2476.000000	8.985700
2475.000000	8.979600
2474.000000	8.894000
2473.000000	8.918700
2472.000000	8.964700
2471.000000	9.020400
2470.000000	9.059700
2469.000000	9.020500
2468.000000	9.026800
2467.000000	9.048100
2466.000000	9.080600
2465.000000	9.097600
2464.000000	9.101500
2463.000000	9.146600
2462.000000	9.140800
2461.000000	9.218500
2460.000000	9.281800
2459.000000	9.305100
2458.000000	9.371900
2457.000000	9.376600
2456.000000	9.430500
2455.000000	9.522400
2454.000000	9.599900
2453.000000	9.668400
2452.000000	9.674400
2451.000000	9.790900
2450.000000	9.887500
2449.000000	9.949500
2448.000000	10.011500
2447.000000	10.110400
2446.000000	10.178500
2445.000000	10.263800
2444.000000	10.321400
2443.000000	10.385900
2442.000000	10.466100
2441.000000	10.538000
2440.000000	10.624000
2439.000000	10.708200
2438.000000	10.770100
2437.000000	10.849400
2436.000000	10.903200
2435.000000	10.965000
2434.000000	11.048800
2433.000000	11.112400
2432.000000	11.157900
2431.000000	11.228900
2430.000000	11.287500
2429.000000	11.343700
2428.000000	11.390400
2427.000000	11.435500
2426.000000	11.510600
2425.000000	11.566600
2424.000000	11.607400
2423.000000	11.645700
2422.000000	11.680900
2421.000000	11.723700
2420.000000	11.761500
2419.000000	11.818500
2418.000000	11.852000
2417.000000	11.884400
2416.000000	11.939500
2415.000000	11.976200
2414.000000	11.999200
2413.000000	12.041000
2412.000000	12.076400
2411.000000	12.106200
2410.000000	12.132300
2409.000000	12.171100
2408.000000	12.210000
2407.000000	12.222400
2406.000000	12.244600
2405.000000	12.274500
2404.000000	12.304800
2403.000000	12.345400
2402.000000	12.388100
2401.000000	12.400100
2400.000000	12.433200
2399.000000	12.472300
2398.000000	12.500500
2397.000000	12.537100
2396.000000	12.556900
2395.000000	12.583000
2394.000000	12.608500
2393.000000	12.631100
2392.000000	12.655100
2391.000000	12.673000
2390.000000	12.688700
2389.000000	12.710900
2388.000000	12.739600
2387.000000	12.752600
2386.000000	12.752400
2385.000000	12.763100
2384.000000	12.771800
2383.000000	12.776000
2382.000000	12.784700
2381.000000	12.775400
2380.000000	12.766400
2379.000000	12.767800
2378.000000	12.766200
2377.000000	12.771800
2376.000000	12.755900
2375.000000	12.719000
2374.000000	12.708500
2373.000000	12.707000
2372.000000	12.679100
2371.000000	12.650800
2370.000000	12.616300
2369.000000	12.587000
2368.000000	12.573200
2367.000000	12.537600
2366.000000	12.494700
2365.000000	12.456500
2364.000000	12.416600
2363.000000	12.375400
2362.000000	12.333500
2361.000000	12.293900
2360.000000	12.241400
2359.000000	12.191500
2358.000000	12.158200
2357.000000	12.119100
2356.000000	12.067100
2355.000000	12.035800
2354.000000	12.025400
2353.000000	11.976900
2352.000000	11.953600
2351.000000	11.966800
2350.000000	11.961100
2349.000000	11.944500
2348.000000	11.949700
2347.000000	11.974900
2346.000000	11.992100
2345.000000	12.031300
2344.000000	12.053300
2343.000000	12.062200
2342.000000	12.102300
2341.000000	12.140100
2340.000000	12.167000
2339.000000	12.184600
2338.000000	12.192800
2337.000000	12.212800
2336.000000	12.237300
2335.000000	12.246500
2334.000000	12.244400
2333.000000	12.225900
2332.000000	12.193200
2331.000000	12.173000
2330.000000	12.159700
2329.000000	12.126000
2328.000000	12.061500
2327.000000	12.012700
2326.000000	11.985900
2325.000000	11.931400
2324.000000	11.856900
2323.000000	11.771600
2322.000000	11.689700
2321.000000	11.620700
2320.000000	11.538000
2319.000000	11.443600
2318.000000	11.309000
2317.000000	11.204200
2316.000000	11.102800
2315.000000	11.007100
2314.000000	10.916200
2313.000000	10.787400
2312.000000	10.668500
2311.000000	10.565800
2310.000000	10.484700
2309.000000	10.415800
2308.000000	10.362000
2307.000000	10.301500
2306.000000	10.268200
2305.000000	10.252500
2304.000000	10.248000
2303.000000	10.262400
2302.000000	10.316900
2301.000000	10.322000
2300.000000	10.366700
2299.000000	10.441300
2298.000000	10.521800
2297.000000	10.597200
2296.000000	10.685200
2295.000000	10.768100
2294.000000	10.841100
2293.000000	10.913400
2292.000000	10.947800
2291.000000	11.030400
2290.000000	11.068400
2289.000000	11.113500
2288.000000	11.127800
2287.000000	11.142000
2286.000000	11.152800
2285.000000	11.152400
2284.000000	11.127500
2283.000000	11.111600
2282.000000	11.080800
2281.000000	11.046100
2280.000000	11.003400
2279.000000	10.950300
2278.000000	10.907300
2277.000000	10.846200
2276.000000	10.823700
2275.000000	10.802000
2274.000000	10.769900
2273.000000	10.749800
2272.000000	10.709000
2271.000000	10.708900
2270.000000	10.720500
2269.000000	10.768500
2268.000000	10.776900
2267.000000	10.822900
2266.000000	10.921800
2265.000000	11.021100
2264.000000	11.104800
2263.000000	11.241100
2262.000000	11.415800
2261.000000	11.580200
2260.000000	11.757800
2259.000000	11.940900
2258.000000	12.143300
2257.000000	12.392100
2256.000000	12.633000
2255.000000	12.844200
2254.000000	13.042100
2253.000000	13.278700
2252.000000	13.516200
2251.000000	13.733100
2250.000000	13.923300
2249.000000	14.105700
2248.000000	14.314800
2247.000000	14.488800
2246.000000	14.653500
2245.000000	14.789500
2244.000000	14.924400
2243.000000	15.073600
2242.000000	15.183500
2241.000000	15.290100
2240.000000	15.372100
2239.000000	15.477000
2238.000000	15.563000
2237.000000	15.648300
2236.000000	15.724400
2235.000000	15.776800
2234.000000	15.808500
2233.000000	15.873300
2232.000000	15.919300
2231.000000	15.959500
2230.000000	15.967100
2229.000000	15.983200
2228.000000	15.998500
2227.000000	16.022700
2226.000000	16.027000
2225.000000	16.028800
2224.000000	15.993300
2223.000000	15.977600
2222.000000	15.941400
2221.000000	15.934200
2220.000000	15.921200
2219.000000	15.890900
2218.000000	15.853300
2217.000000	15.825800
2216.000000	15.770900
2215.000000	15.745600
2214.000000	15.710100
2213.000000	15.668600
2212.000000	15.629600
2211.000000	15.618800
2210.000000	15.573100
2209.000000	15.571500
2208.000000	15.488500
2207.000000	15.484500
2206.000000	15.456300
2205.000000	15.418500
2204.000000	15.404100
2203.000000	15.384200
2202.000000	15.376900
2201.000000	15.365100
2200.000000	15.327200
2199.000000	15.312400
2198.000000	15.283900
2197.000000	15.258300
2196.000000	15.240600
2195.000000	15.246000
2194.000000	15.216000
2193.000000	15.187800
2192.000000	15.211900
2191.000000	15.195200
2190.000000	15.176200
2189.000000	15.165700
2188.000000	15.134100
2187.000000	15.141400
2186.000000	15.113900
2185.000000	15.101400
2184.000000	15.100900
2183.000000	15.073400
2182.000000	15.093900
2181.000000	15.064800
2180.000000	15.026800
2179.000000	15.064000
2178.000000	15.033000
2177.000000	15.010100
2176.000000	15.007800
2175.000000	15.016700
2174.000000	15.024600
2173.000000	15.028100
2172.000000	15.041100
2171.000000	15.040600
2170.000000	15.065500
2169.000000	15.080300
2168.000000	15.092600
2167.000000	15.128100
2166.000000	15.140800
2165.000000	15.180100
2164.000000	15.200400
2163.000000	15.223900
2162.000000	15.256000
2161.000000	15.318900
2160.000000	15.350800
2159.000000	15.378700
2158.000000	15.434100
2157.000000	15.494300
2156.000000	15.530000
2155.000000	15.570200
2154.000000	15.623500
2153.000000	15.668900
2152.000000	15.721000
2151.000000	15.773700
2150.000000	15.848500
2149.000000	15.907000
2148.000000	15.957700
2147.000000	16.014000
2146.000000	16.059600
2145.000000	16.110500
2144.000000	16.162800
2143.000000	16.218000
2142.000000	16.266000
2141.000000	16.298800
2140.000000	16.344000
2139.000000	16.389500
2138.000000	16.423200
2137.000000	16.431800
2136.000000	16.464800
2135.000000	16.512700
2134.000000	16.540400
2133.000000	16.569300
2132.000000	16.571800
2131.000000	16.576100
2130.000000	16.600200
2129.000000	16.627500
2128.000000	16.626800
2127.000000	16.621600
2126.000000	16.630700
2125.000000	16.625400
2124.000000	16.616800
2123.000000	16.620900
2122.000000	16.608600
2121.000000	16.598500
2120.000000	16.589600
2119.000000	16.551400
2118.000000	16.544400
2117.000000	16.519200
2116.000000	16.482600
2115.000000	16.458800
2114.000000	16.428200
2113.000000	16.401800
2112.000000	16.366900
2111.000000	16.327800
2110.000000	16.300800
2109.000000	16.271000
2108.000000	16.249600
2107.000000	16.211300
2106.000000	16.168700
2105.000000	16.133500
2104.000000	16.100100
2103.000000	16.067500
2102.000000	16.040100
2101.000000	16.016700
2100.000000	15.978000
2099.000000	15.930900
2098.000000	15.894500
2097.000000	15.858400
2096.000000	15.824700
2095.000000	15.802100
2094.000000	15.778000
2093.000000	15.743100
2092.000000	15.720300
2091.000000	15.700300
2090.000000	15.675300
2089.000000	15.658400
2088.000000	15.629200
2087.000000	15.583000
2086.000000	15.564000
2085.000000	15.547500
2084.000000	15.513100
2083.000000	15.469800
2082.000000	15.438000
2081.000000	15.406800
2080.000000	15.357500
2079.000000	15.324700
2078.000000	15.278300
2077.000000	15.211900
2076.000000	15.162600
2075.000000	15.108200
2074.000000	15.061900
2073.000000	15.017400
2072.000000	14.943700
2071.000000	14.871500
2070.000000	14.819900
2069.000000	14.758200
2068.000000	14.683900
2067.000000	14.622900
2066.000000	14.564100
2065.000000	14.491100
2064.000000	14.418700
2063.000000	14.358400
2062.000000	14.303800
2061.000000	14.235800
2060.000000	14.174800
2059.000000	14.123100
2058.000000	14.072500
2057.000000	14.044900
2056.000000	14.028800
2055.000000	13.997800
2054.000000	13.978300
2053.000000	13.980900
2052.000000	13.980900
2051.000000	13.997900
2050.000000	14.029700
2049.000000	14.075400
2048.000000	14.118900
2047.000000	14.180400
2046.000000	14.248800
2045.000000	14.319400
2044.000000	14.396400
2043.000000	14.468800
2042.000000	14.552700
2041.000000	14.630700
2040.000000	14.714900
2039.000000	14.801100
2038.000000	14.872100
2037.000000	14.954300
2036.000000	15.030500
2035.000000	15.098200
2034.000000	15.160000
2033.000000	15.217100
2032.000000	15.269900
2031.000000	15.320300
2030.000000	15.369700
2029.000000	15.410500
2028.000000	15.461800
2027.000000	15.501600
2026.000000	15.526100
2025.000000	15.547300
2024.000000	15.579900
2023.000000	15.594600
2022.000000	15.603000
2021.000000	15.624400
2020.000000	15.645900
2019.000000	15.656100
2018.000000	15.659500
2017.000000	15.655900
2016.000000	15.650500
2015.000000	15.679200
2014.000000	15.662500
2013.000000	15.626500
2012.000000	15.605200
2011.000000	15.608300
2010.000000	15.585500
2009.000000	15.558900
2008.000000	15.527000
2007.000000	15.489000
2006.000000	15.458000
2005.000000	15.418100
2004.000000	15.394200
2003.000000	15.365400
2002.000000	15.296800
2001.000000	15.236800
2000.000000	15.195300
1999.000000	15.124700
1998.000000	15.071600
1997.000000	15.002300
1996.000000	14.925600
1995.000000	14.865400
1994.000000	14.802500
1993.000000	14.709000
1992.000000	14.645600
1991.000000	14.554500
1990.000000	14.487800
1989.000000	14.416200
1988.000000	14.334800
1987.000000	14.251200
1986.000000	14.163000
1985.000000	14.079900
1984.000000	13.988100
1983.000000	13.903200
1982.000000	13.811700
1981.000000	13.734500
1980.000000	13.636500
1979.000000	13.535800
1978.000000	13.466500
1977.000000	13.369100
1976.000000	13.281500
1975.000000	13.201400
1974.000000	13.107400
1973.000000	13.050200
1972.000000	12.950300
1971.000000	12.883100
1970.000000	12.795600
1969.000000	12.718900
1968.000000	12.620300
1967.000000	12.544300
1966.000000	12.491900
1965.000000	12.413600
1964.000000	12.332200
1963.000000	12.261300
1962.000000	12.201400
1961.000000	12.107100
1960.000000	12.060400
1959.000000	11.994600
1958.000000	11.921700
1957.000000	11.836900
1956.000000	11.782400
1955.000000	11.698500
1954.000000	11.647500
1953.000000	11.572600
1952.000000	11.508300
1951.000000	11.448100
1950.000000	11.411900
1949.000000	11.346600
1948.000000	11.271800
1947.000000	11.222800
1946.000000	11.195600
1945.000000	11.147200
1944.000000	11.137200
1943.000000	11.092100
1942.000000	11.065400
1941.000000	11.030900
1940.000000	11.043600
1939.000000	11.032400
1938.000000	11.037100
1937.000000	11.006900
1936.000000	11.027500
1935.000000	11.044900
1934.000000	11.043700
1933.000000	11.074300
1932.000000	11.131500
1931.000000	11.149900
1930.000000	11.198200
1929.000000	11.292300
1928.000000	11.360200
1927.000000	11.452100
1926.000000	11.508500
1925.000000	11.602400
1924.000000	11.677100
1923.000000	11.792300
1922.000000	11.902900
1921.000000	12.059100
1920.000000	12.195500
1919.000000	12.320100
1918.000000	12.464000
1917.000000	12.621200
1916.000000	12.770800
1915.000000	12.924200
1914.000000	13.095000
1913.000000	13.303000
1912.000000	13.552200
1911.000000	13.741000
1910.000000	13.938900
1909.000000	14.134100
1908.000000	14.337600
1907.000000	14.559600
1906.000000	14.833500
1905.000000	15.138700
1904.000000	15.454500
1903.000000	15.742400
1902.000000	16.017400
1901.000000	16.335200
1900.000000	16.622000
1899.000000	16.982000
1898.000000	17.320100
1897.000000	17.667300
1896.000000	18.023400
1895.000000	18.319800
1894.000000	18.635000
1893.000000	18.983800
1892.000000	19.386700
1891.000000	19.823500
1890.000000	20.295800
1889.000000	20.705100
1888.000000	21.139200
1887.000000	21.556200
1886.000000	21.997700
1885.000000	22.450300
1884.000000	22.960100
1883.000000	23.475500
1882.000000	23.992900
1881.000000	24.505400
1880.000000	25.000600
1879.000000	25.460500
1878.000000	25.914900
1877.000000	26.403600
1876.000000	26.829500
1875.000000	27.252700
1874.000000	27.678500
1873.000000	28.067900
1872.000000	28.470100
1871.000000	28.829100
1870.000000	29.149000
1869.000000	29.442400
1868.000000	29.714300
1867.000000	29.924600
1866.000000	30.088100
1865.000000	30.219000
1864.000000	30.374000
1863.000000	30.502800
1862.000000	30.623500
1861.000000	30.763500
1860.000000	30.888800
1859.000000	31.010600
1858.000000	31.114800
1857.000000	31.211800
1856.000000	31.272000
1855.000000	31.312700
1854.000000	31.365400
1853.000000	31.388400
1852.000000	31.375400
1851.000000	31.392900
1850.000000	31.407400
1849.000000	31.430100
1848.000000	31.453500
1847.000000	31.434700
1846.000000	31.405600
1845.000000	31.363900
1844.000000	31.340800
1843.000000	31.310100
1842.000000	31.317100
1841.000000	31.354800
1840.000000	31.328500
1839.000000	31.297700
1838.000000	31.273500
1837.000000	31.235000
1836.000000	31.189800
1835.000000	31.149400
1834.000000	31.102900
1833.000000	31.028600
1832.000000	30.964900
1831.000000	30.922000
1830.000000	30.883300
1829.000000	30.822600
1828.000000	30.765500
1827.000000	30.700500
1826.000000	30.634400
1825.000000	30.591900
1824.000000	30.532100
1823.000000	30.492100
1822.000000	30.483600
1821.000000	30.478300
1820.000000	30.461900
1819.000000	30.429900
1818.000000	30.386600
1817.000000	30.355400
1816.000000	30.340400
1815.000000	30.327200
1814.000000	30.319600
1813.000000	30.303300
1812.000000	30.275300
1811.000000	30.241300
1810.000000	30.206600
1809.000000	30.168200
1808.000000	30.133700
1807.000000	30.100900
1806.000000	30.069100
1805.000000	30.017500
1804.000000	29.965300
1803.000000	29.937900
1802.000000	29.894000
1801.000000	29.837100
1800.000000	29.775800
1799.000000	29.717900
1798.000000	29.673400
1797.000000	29.621300
1796.000000	29.588200
1795.000000	29.548400
1794.000000	29.508900
1793.000000	29.461200
1792.000000	29.400100
1791.000000	29.346100
1790.000000	29.295900
1789.000000	29.262800
1788.000000	29.208400
1787.000000	29.160400
1786.000000	29.120200
1785.000000	29.072400
1784.000000	29.007800
1783.000000	28.946700
1782.000000	28.892100
1781.000000	28.824500
1780.000000	28.753800
1779.000000	28.689100
1778.000000	28.635200
1777.000000	28.561600
1776.000000	28.488100
1775.000000	28.408900
1774.000000	28.319500
1773.000000	28.224900
1772.000000	28.127400
1771.000000	28.030800
1770.000000	27.931000
1769.000000	27.838100
1768.000000	27.750900
1767.000000	27.655600
1766.000000	27.573200
1765.000000	27.508100
1764.000000	27.447700
1763.000000	27.414800
1762.000000	27.401800
1761.000000	27.404600
1760.000000	27.445100
1759.000000	27.480500
1758.000000	27.524900
1757.000000	27.573600
1756.000000	27.628100
1755.000000	27.685700
1754.000000	27.750400
1753.000000	27.773300
1752.000000	27.789400
1751.000000	27.801500
1750.000000	27.789600
1749.000000	27.777000
1748.000000	27.744300
1747.000000	27.698600
1746.000000	27.649300
1745.000000	27.577900
1744.000000	27.491800
1743.000000	27.365300
1742.000000	27.227400
1741.000000	27.068200
1740.000000	26.893500
1739.000000	26.718000
1738.000000	26.543700
1737.000000	26.366500
1736.000000	26.223900
1735.000000	26.102300
1734.000000	25.993600
1733.000000	25.916900
1732.000000	25.873100
1731.000000	25.886100
1730.000000	25.929300
1729.000000	25.966300
1728.000000	26.016300
1727.000000	26.100600
1726.000000	26.170400
1725.000000	26.242300
1724.000000	26.303900
1723.000000	26.358800
1722.000000	26.403500
1721.000000	26.443300
1720.000000	26.512300
1719.000000	26.589100
1718.000000	26.662300
1717.000000	26.773000
1716.000000	26.866500
1715.000000	26.958400
1714.000000	27.055100
1713.000000	27.164200
1712.000000	27.260400
1711.000000	27.335400
1710.000000	27.405100
1709.000000	27.448100
1708.000000	27.471600
1707.000000	27.492700
1706.000000	27.495400
1705.000000	27.476200
1704.000000	27.441100
1703.000000	27.428000
1702.000000	27.362100
1701.000000	27.281400
1700.000000	27.203300
1699.000000	27.060000
1698.000000	26.946200
1697.000000	26.853800
1696.000000	26.752100
1695.000000	26.716800
1694.000000	26.679400
1693.000000	26.708600
1692.000000	26.751900
1691.000000	26.845700
1690.000000	26.936300
1689.000000	27.032800
1688.000000	27.120500
1687.000000	27.168700
1686.000000	27.217700
1685.000000	27.287500
1684.000000	27.356900
1683.000000	27.480100
1682.000000	27.648400
1681.000000	27.922700
1680.000000	28.250500
1679.000000	28.638100
1678.000000	29.063500
1677.000000	29.478400
1676.000000	29.891700
1675.000000	30.260800
1674.000000	30.586300
1673.000000	30.860000
1672.000000	31.099600
1671.000000	31.320600
1670.000000	31.520600
1669.000000	31.711900
1668.000000	31.880800
1667.000000	32.006400
1666.000000	32.118900
1665.000000	32.249200
1664.000000	32.340100
1663.000000	32.419100
1662.000000	32.527700
1661.000000	32.577400
1660.000000	32.640500
1659.000000	32.688900
1658.000000	32.749800
1657.000000	32.773500
1656.000000	32.799200
1655.000000	32.822100
1654.000000	32.830100
1653.000000	32.836400
1652.000000	32.824300
1651.000000	32.813000
1650.000000	32.812000
1649.000000	32.792100
1648.000000	32.763200
1647.000000	32.707200
1646.000000	32.667100
1645.000000	32.649100
1644.000000	32.602400
1643.000000	32.565000
1642.000000	32.511700
1641.000000	32.464100
1640.000000	32.419200
1639.000000	32.381200
1638.000000	32.316200
1637.000000	32.258900
1636.000000	32.196300
1635.000000	32.145300
1634.000000	32.093500
1633.000000	32.020200
1632.000000	31.953400
1631.000000	31.889300
1630.000000	31.827000
1629.000000	31.749300
1628.000000	31.674200
1627.000000	31.597400
1626.000000	31.517900
1625.000000	31.475300
1624.000000	31.391600
1623.000000	31.275000
1622.000000	31.218000
1621.000000	31.139200
1620.000000	31.069100
1619.000000	31.001500
1618.000000	30.934100
1617.000000	30.867200
1616.000000	30.766300
1615.000000	30.723900
1614.000000	30.636700
1613.000000	30.575900
1612.000000	30.509300
1611.000000	30.424600
1610.000000	30.376400
1609.000000	30.279000
1608.000000	30.236100
1607.000000	30.142400
1606.000000	30.071700
1605.000000	29.987600
1604.000000	29.920500
1603.000000	29.853100
1602.000000	29.750200
1601.000000	29.687500
1600.000000	29.605400
1599.000000	29.522700
1598.000000	29.434000
1597.000000	29.371800
1596.000000	29.321000
1595.000000	29.240800
1594.000000	29.184100
1593.000000	29.115700
1592.000000	29.050600
1591.000000	28.980800
1590.000000	28.931700
1589.000000	28.857000
1588.000000	28.806500
1587.000000	28.737600
1586.000000	28.693200
1585.000000	28.630200
1584.000000	28.564600
1583.000000	28.519400
1582.000000	28.477700
1581.000000	28.424300
1580.000000	28.379600
1579.000000	28.336600
1578.000000	28.304600
1577.000000	28.277400
1576.000000	28.245900
1575.000000	28.216300
1574.000000	28.184500
1573.000000	28.172100
1572.000000	28.157600
1571.000000	28.132500
1570.000000	28.122500
1569.000000	28.108100
1568.000000	28.086300
1567.000000	28.094000
1566.000000	28.099900
1565.000000	28.092200
1564.000000	28.091900
1563.000000	28.075800
1562.000000	28.074100
1561.000000	28.065200
1560.000000	28.047400
1559.000000	28.042800
1558.000000	28.034200
1557.000000	28.003300
1556.000000	27.970300
1555.000000	27.940900
1554.000000	27.919300
1553.000000	27.895900
1552.000000	27.853900
1551.000000	27.805200
1550.000000	27.776200
1549.000000	27.748400
1548.000000	27.713200
1547.000000	27.660000
1546.000000	27.620600
1545.000000	27.594800
1544.000000	27.561000
1543.000000	27.530900
1542.000000	27.499000
1541.000000	27.464100
1540.000000	27.449500
1539.000000	27.424100
1538.000000	27.383000
1537.000000	27.341700
1536.000000	27.329300
1535.000000	27.313900
1534.000000	27.292400
1533.000000	27.259300
1532.000000	27.213400
1531.000000	27.182500
1530.000000	27.147500
1529.000000	27.108500
1528.000000	27.064800
1527.000000	27.014800
1526.000000	26.970300
1525.000000	26.941900
1524.000000	26.895100
1523.000000	26.840000
1522.000000	26.784300
1521.000000	26.736100
1520.000000	26.694400
1519.000000	26.637400
1518.000000	26.577300
1517.000000	26.532200
1516.000000	26.484200
1515.000000	26.425500
1514.000000	26.364900
1513.000000	26.304100
1512.000000	26.238700
1511.000000	26.179700
1510.000000	26.124900
1509.000000	26.067700
1508.000000	25.998800
1507.000000	25.934000
1506.000000	25.877000
1505.000000	25.813800
1504.000000	25.755200
1503.000000	25.695200
1502.000000	25.629900
1501.000000	25.565900
1500.000000	25.515700
1499.000000	25.474700
1498.000000	25.423100
1497.000000	25.374500
1496.000000	25.336300
1495.000000	25.294800
1494.000000	25.253200
1493.000000	25.216900
1492.000000	25.191100
1491.000000	25.150800
1490.000000	25.115300
1489.000000	25.089300
1488.000000	25.070300
1487.000000	25.046400
1486.000000	25.019600
1485.000000	24.979800
1484.000000	24.949900
1483.000000	24.938500
1482.000000	24.921400
1481.000000	24.897500
1480.000000	24.882300
1479.000000	24.861800
1478.000000	24.852200
1477.000000	24.856000
1476.000000	24.850700
1475.000000	24.843900
1474.000000	24.851000
1473.000000	24.864800
1472.000000	24.882600
1471.000000	24.898900
1470.000000	24.904100
1469.000000	24.896700
1468.000000	24.904900
1467.000000	24.949800
1466.000000	24.960900
1465.000000	24.970800
1464.000000	24.978600
1463.000000	25.019800
1462.000000	25.043200
1461.000000	25.086200
1460.000000	25.135000
1459.000000	25.163100
1458.000000	25.208700
1457.000000	25.247400
1456.000000	25.294100
1455.000000	25.365800
1454.000000	25.433700
1453.000000	25.507700
1452.000000	25.574100
1451.000000	25.637200
1450.000000	25.710200
1449.000000	25.782300
1448.000000	25.849400
1447.000000	25.915900
1446.000000	26.028800
1445.000000	26.107500
1444.000000	26.186200
1443.000000	26.260800
1442.000000	26.348800
1441.000000	26.444200
1440.000000	26.545200
1439.000000	26.635800
1438.000000	26.740500
1437.000000	26.844700
1436.000000	26.935700
1435.000000	27.042800
1434.000000	27.153100
1433.000000	27.273500
1432.000000	27.408000
1431.000000	27.524700
1430.000000	27.643600
1429.000000	27.767900
1428.000000	27.928500
1427.000000	28.101200
1426.000000	28.251500
1425.000000	28.425200
1424.000000	28.627200
1423.000000	28.803100
1422.000000	29.000200
1421.000000	29.212100
1420.000000	29.442500
1419.000000	29.679700
1418.000000	29.916800
1417.000000	30.136900
1416.000000	30.335100
1415.000000	30.605300
1414.000000	30.888300
1413.000000	31.152800
1412.000000	31.420000
1411.000000	31.677100
1410.000000	31.998200
1409.000000	32.353100
1408.000000	32.703400
1407.000000	33.084100
1406.000000	33.410300
1405.000000	33.788800
1404.000000	34.135600
1403.000000	34.539400
1402.000000	34.906600
1401.000000	35.304800
1400.000000	35.711400
1399.000000	36.084900
1398.000000	36.365800
1397.000000	36.657800
1396.000000	37.019400
1395.000000	37.382600
1394.000000	37.666200
1393.000000	37.898500
1392.000000	38.218900
1391.000000	38.494800
1390.000000	38.818700
1389.000000	39.112200
1388.000000	39.509100
1387.000000	39.914500
1386.000000	40.303000
1385.000000	40.702800
1384.000000	41.198700
1383.000000	41.651000
1382.000000	42.134100
1381.000000	42.544600
1380.000000	42.869900
1379.000000	43.095700
1378.000000	43.338600
1377.000000	43.487300
1376.000000	43.672800
1375.000000	43.855000
1374.000000	44.042500
1373.000000	44.317900
1372.000000	44.598600
1371.000000	44.878300
1370.000000	45.170300
1369.000000	45.431900
1368.000000	45.728100
1367.000000	45.975600
1366.000000	46.178300
1365.000000	46.359000
1364.000000	46.577300
1363.000000	46.720800
1362.000000	46.913100
1361.000000	47.068900
1360.000000	47.167300
1359.000000	47.215400
1358.000000	47.305500
1357.000000	47.425900
1356.000000	47.556400
1355.000000	47.791300
1354.000000	48.078700
1353.000000	48.402800
1352.000000	48.696200
1351.000000	49.160800
1350.000000	49.557900
1349.000000	49.924700
1348.000000	50.315700
1347.000000	50.646300
1346.000000	50.936300
1345.000000	51.228500
1344.000000	51.532400
1343.000000	51.827600
1342.000000	52.124400
1341.000000	52.386300
1340.000000	52.647100
1339.000000	52.931700
1338.000000	53.180800
1337.000000	53.443300
1336.000000	53.677800
1335.000000	53.932800
1334.000000	54.158000
1333.000000	54.379100
1332.000000	54.599900
1331.000000	54.833600
1330.000000	55.041600
1329.000000	55.243200
1328.000000	55.433200
1327.000000	55.614800
1326.000000	55.794200
1325.000000	55.982900
1324.000000	56.138500
1323.000000	56.287300
1322.000000	56.441600
1321.000000	56.587700
1320.000000	56.721200
1319.000000	56.853300
1318.000000	56.991200
1317.000000	57.114500
1316.000000	57.234200
1315.000000	57.352400
1314.000000	57.460100
1313.000000	57.569400
1312.000000	57.666500
1311.000000	57.762800
1310.000000	57.880800
1309.000000	57.939900
1308.000000	58.015000
1307.000000	58.097600
1306.000000	58.155600
1305.000000	58.220200
1304.000000	58.267100
1303.000000	58.302800
1302.000000	58.361400
1301.000000	58.406000
1300.000000	58.429000
1299.000000	58.458200
1298.000000	58.480000
1297.000000	58.493500
1296.000000	58.523400
1295.000000	58.532400
1294.000000	58.551200
1293.000000	58.559500
1292.000000	58.556500
1291.000000	58.562100
1290.000000	58.541700
1289.000000	58.525700
1288.000000	58.506000
1287.000000	58.482400
1286.000000	58.467900
1285.000000	58.432600
1284.000000	58.389000
1283.000000	58.348700
1282.000000	58.306000
1281.000000	58.266400
1280.000000	58.214300
1279.000000	58.173700
1278.000000	58.137400
1277.000000	58.099200
1276.000000	58.053600
1275.000000	58.020900
1274.000000	57.977300
1273.000000	57.954800
1272.000000	57.925200
1271.000000	57.900800
1270.000000	57.878700
1269.000000	57.841000
1268.000000	57.805000
1267.000000	57.780600
1266.000000	57.764400
1265.000000	57.734800
1264.000000	57.708600
1263.000000	57.664300
1262.000000	57.631500
1261.000000	57.608600
1260.000000	57.584900
1259.000000	57.551700
1258.000000	57.515300
1257.000000	57.483700
1256.000000	57.451100
1255.000000	57.408300
1254.000000	57.373700
1253.000000	57.324100
1252.000000	57.258600
1251.000000	57.223000
1250.000000	57.175100
1249.000000	57.109800
1248.000000	57.025000
1247.000000	56.941800
1246.000000	56.872500
1245.000000	56.797400
1244.000000	56.709400
1243.000000	56.611600
1242.000000	56.518300
1241.000000	56.408200
1240.000000	56.299100
1239.000000	56.210300
1238.000000	56.093500
1237.000000	55.975200
1236.000000	55.869400
1235.000000	55.741100
1234.000000	55.611900
1233.000000	55.494900
1232.000000	55.364500
1231.000000	55.223600
1230.000000	55.073800
1229.000000	54.929400
1228.000000	54.797900
1227.000000	54.663800
1226.000000	54.527900
1225.000000	54.385600
1224.000000	54.234000
1223.000000	54.094200
1222.000000	53.948700
1221.000000	53.807100
1220.000000	53.670600
1219.000000	53.524800
1218.000000	53.373500
1217.000000	53.242000
1216.000000	53.130800
1215.000000	53.011100
1214.000000	52.897700
1213.000000	52.778900
1212.000000	52.661400
1211.000000	52.554900
1210.000000	52.463100
1209.000000	52.369400
1208.000000	52.257400
1207.000000	52.167300
1206.000000	52.098100
1205.000000	52.024500
1204.000000	51.957700
1203.000000	51.911400
1202.000000	51.881000
1201.000000	51.841600
1200.000000	51.787900
1199.000000	51.738000
1198.000000	51.672500
1197.000000	51.577300
1196.000000	51.453200
1195.000000	51.292000
1194.000000	51.112500
1193.000000	50.877100
1192.000000	50.595500
1191.000000	50.261600
1190.000000	49.913000
1189.000000	49.584800
1188.000000	49.284600
1187.000000	49.049500
1186.000000	48.908800
1185.000000	48.849900
1184.000000	48.885400
1183.000000	49.042600
1182.000000	49.280900
1181.000000	49.598100
1180.000000	49.964000
1179.000000	50.356200
1178.000000	50.734000
1177.000000	51.078800
1176.000000	51.377700
1175.000000	51.628900
1174.000000	51.882800
1173.000000	52.128400
1172.000000	52.381400
1171.000000	52.643400
1170.000000	52.900800
1169.000000	53.176600
1168.000000	53.452800
1167.000000	53.740200
1166.000000	54.038800
1165.000000	54.325800
1164.000000	54.627900
1163.000000	54.951400
1162.000000	55.263000
1161.000000	55.590600
1160.000000	55.907000
1159.000000	56.210900
1158.000000	56.521900
1157.000000	56.806000
1156.000000	57.082300
1155.000000	57.338100
1154.000000	57.549900
1153.000000	57.733600
1152.000000	57.871700
1151.000000	57.964500
1150.000000	58.067700
1149.000000	58.134800
1148.000000	58.218600
1147.000000	58.315100
1146.000000	58.428000
1145.000000	58.579800
1144.000000	58.762600
1143.000000	59.015300
1142.000000	59.298900
1141.000000	59.594000
1140.000000	59.927700
1139.000000	60.252400
1138.000000	60.592800
1137.000000	60.959900
1136.000000	61.339100
1135.000000	61.730200
1134.000000	62.104500
1133.000000	62.463400
1132.000000	62.783000
1131.000000	63.077200
1130.000000	63.393600
1129.000000	63.647200
1128.000000	63.874800
1127.000000	64.056200
1126.000000	64.197600
1125.000000	64.341600
1124.000000	64.443200
1123.000000	64.543800
1122.000000	64.597300
1121.000000	64.685300
1120.000000	64.729800
1119.000000	64.771700
1118.000000	64.804000
1117.000000	64.819800
1116.000000	64.846300
1115.000000	64.853100
1114.000000	64.866400
1113.000000	64.854300
1112.000000	64.849900
1111.000000	64.861100
1110.000000	64.854400
1109.000000	64.841700
1108.000000	64.823800
1107.000000	64.844500
1106.000000	64.828200
1105.000000	64.820800
1104.000000	64.814400
1103.000000	64.824900
1102.000000	64.789600
1101.000000	64.798200
1100.000000	64.793100
1099.000000	64.765700
1098.000000	64.754300
1097.000000	64.739600
1096.000000	64.731000
1095.000000	64.696600
1094.000000	64.679400
1093.000000	64.661200
1092.000000	64.624000
1091.000000	64.598700
1090.000000	64.561600
1089.000000	64.539400
1088.000000	64.495800
1087.000000	64.445400
1086.000000	64.415900
1085.000000	64.393800
1084.000000	64.352800
1083.000000	64.295000
1082.000000	64.262300
1081.000000	64.221700
1080.000000	64.196200
1079.000000	64.134900
1078.000000	64.098900
1077.000000	64.074900
1076.000000	64.027800
1075.000000	63.986100
1074.000000	63.934500
1073.000000	63.903300
1072.000000	63.876200
1071.000000	63.823900
1070.000000	63.792800
1069.000000	63.750300
1068.000000	63.727300
1067.000000	63.680600
1066.000000	63.634900
1065.000000	63.593400
1064.000000	63.560400
1063.000000	63.512700
1062.000000	63.470200
1061.000000	63.409100
1060.000000	63.365800
1059.000000	63.339300
1058.000000	63.284500
1057.000000	63.234900
1056.000000	63.193100
1055.000000	63.134100
1054.000000	63.098100
1053.000000	63.038400
1052.000000	62.982100
1051.000000	62.939000
1050.000000	62.891300
1049.000000	62.831400
1048.000000	62.810200
1047.000000	62.768600
1046.000000	62.728600
1045.000000	62.686500
1044.000000	62.657400
1043.000000	62.617400
1042.000000	62.560900
1041.000000	62.528900
1040.000000	62.496500
1039.000000	62.445000
1038.000000	62.400100
1037.000000	62.360400
1036.000000	62.312700
1035.000000	62.279300
1034.000000	62.223000
1033.000000	62.149000
1032.000000	62.094100
1031.000000	62.052600
1030.000000	61.989300
1029.000000	61.908900
1028.000000	61.855100
1027.000000	61.794400
1026.000000	61.721800
1025.000000	61.650900
1024.000000	61.577300
1023.000000	61.494100
1022.000000	61.448300
1021.000000	61.381600
1020.000000	61.296500
1019.000000	61.245500
1018.000000	61.164700
1017.000000	61.108700
1016.000000	61.047500
1015.000000	60.969900
1014.000000	60.893800
1013.000000	60.857200
1012.000000	60.827700
1011.000000	60.780300
1010.000000	60.733300
1009.000000	60.696900
1008.000000	60.674100
1007.000000	60.639400
1006.000000	60.638400
1005.000000	60.616100
1004.000000	60.571300
1003.000000	60.542700
1002.000000	60.510800
1001.000000	60.512700
1000.000000	60.494900
999.000000	60.442300
998.000000	60.411400
997.000000	60.400200
996.000000	60.390300
995.000000	60.355500
994.000000	60.329300
993.000000	60.315500
992.000000	60.306800
991.000000	60.294700
990.000000	60.280000
989.000000	60.263900
988.000000	60.254900
987.000000	60.257400
986.000000	60.262000
985.000000	60.251600
984.000000	60.255600
983.000000	60.277000
982.000000	60.280600
981.000000	60.283300
980.000000	60.295400
979.000000	60.322000
978.000000	60.333400
977.000000	60.339300
976.000000	60.362500
975.000000	60.374400
974.000000	60.383700
973.000000	60.407900
972.000000	60.420400
971.000000	60.449600
970.000000	60.478100
969.000000	60.496800
968.000000	60.513300
967.000000	60.548200
966.000000	60.572200
965.000000	60.581300
964.000000	60.617100
963.000000	60.645600
962.000000	60.684500
961.000000	60.720600
960.000000	60.756500
959.000000	60.797400
958.000000	60.816100
957.000000	60.849500
956.000000	60.879900
955.000000	60.909100
954.000000	60.949200
953.000000	60.967000
952.000000	60.978500
951.000000	60.999300
950.000000	61.017300
949.000000	61.034400
948.000000	61.047300
947.000000	61.048600
946.000000	61.052500
945.000000	61.071600
944.000000	61.101200
943.000000	61.107200
942.000000	61.103800
941.000000	61.124400
940.000000	61.134800
939.000000	61.139700
938.000000	61.149500
937.000000	61.155600
936.000000	61.181800
935.000000	61.204900
934.000000	61.202300
933.000000	61.211600
932.000000	61.233400
931.000000	61.274200
930.000000	61.283200
929.000000	61.284800
928.000000	61.323300
927.000000	61.341800
926.000000	61.361000
925.000000	61.393600
924.000000	61.415400
923.000000	61.453100
922.000000	61.505800
921.000000	61.525300
920.000000	61.553800
919.000000	61.581900
918.000000	61.605800
917.000000	61.636100
916.000000	61.650000
915.000000	61.658400
914.000000	61.676500
913.000000	61.694500
912.000000	61.714500
911.000000	61.740300
910.000000	61.744100
909.000000	61.768600
908.000000	61.815300
907.000000	61.850500
906.000000	61.888200
905.000000	61.923100
904.000000	61.975600
903.000000	62.035000
902.000000	62.097000
901.000000	62.165500
900.000000	62.227600
899.000000	62.295800
898.000000	62.352000
897.000000	62.428200
896.000000	62.494900
895.000000	62.557300
894.000000	62.642600
893.000000	62.715600
892.000000	62.794100
891.000000	62.865900
890.000000	62.936100
889.000000	63.021300
888.000000	63.111400
887.000000	63.199700
886.000000	63.289700
885.000000	63.368800
884.000000	63.460500
883.000000	63.552600
882.000000	63.628900
881.000000	63.713700
880.000000	63.793600
879.000000	63.868500
878.000000	63.951000
877.000000	64.007600
876.000000	64.045100
875.000000	64.048400
874.000000	64.080400
873.000000	64.042500
872.000000	63.986100
871.000000	63.993100
870.000000	64.098300
869.000000	64.220200
868.000000	64.362800
867.000000	64.502300
866.000000	64.627100
865.000000	64.760600
864.000000	64.889800
863.000000	64.997400
862.000000	65.133600
861.000000	65.261900
860.000000	65.351800
859.000000	65.469700
858.000000	65.589400
857.000000	65.422900
856.000000	66.376508
855.000000	65.959874
854.000000	65.760973
853.000000	65.688102
852.000000	66.174370
851.000000	66.308050
850.000000	66.225468
849.000000	66.184864
848.000000	66.482922
847.000000	66.501949
846.000000	66.268426
845.000000	66.560403
844.000000	66.656421
843.000000	66.575115
842.000000	66.682313
841.000000	66.619348
840.000000	66.897299
839.000000	66.622486
838.000000	66.593553
837.000000	66.973800
836.000000	66.869053
835.000000	67.021367
834.000000	67.128370
833.000000	66.926624
832.000000	66.916326
831.000000	67.058931
830.000000	67.245180
829.000000	67.195847
828.000000	67.249594
827.000000	67.347279
826.000000	67.293827
825.000000	67.306184
824.000000	67.248711
823.000000	67.276859
822.000000	67.290884
821.000000	67.292355
820.000000	67.062266
819.000000	67.063345
818.000000	67.042552
817.000000	67.003615
816.000000	67.087864
815.000000	66.841101
814.000000	66.848064
813.000000	66.767543
812.000000	66.689571
811.000000	66.787845
810.000000	66.616503
809.000000	66.688983
808.000000	66.608559
807.000000	66.419564
806.000000	66.066485
805.000000	66.152401
804.000000	66.224880
803.000000	65.923291
802.000000	66.010482
801.000000	65.783727
800.000000	65.642986
799.000000	65.540593
798.000000	65.517937
797.000000	65.272645
796.000000	65.254305
795.000000	65.154462
794.000000	64.826981
793.000000	64.975765
792.000000	64.825510
791.000000	64.795792
790.000000	64.620724
789.000000	64.501266
788.000000	64.381807
787.000000	64.444283
786.000000	64.388280
785.000000	63.952914
784.000000	64.028532
783.000000	63.810310
782.000000	63.668588
781.000000	63.517450
780.000000	63.592577
779.000000	63.393970
778.000000	63.382397
777.000000	63.219785
776.000000	63.102582
775.000000	63.038439
774.000000	62.873375
773.000000	62.785301
772.000000	62.794030
771.000000	62.659174
770.000000	62.396620
769.000000	62.334537
768.000000	62.232046
767.000000	62.222435
766.000000	62.019316
765.000000	61.826201
764.000000	61.525398
763.000000	61.471651
762.000000	61.388481
761.000000	61.339639
760.000000	61.158686
759.000000	60.984892
758.000000	60.901527
757.000000	60.748428
756.000000	60.721751
755.000000	60.584932
754.000000	60.386718
753.000000	60.365827
752.000000	60.242642
751.000000	60.158786
750.000000	59.982344
749.000000	59.886719
748.000000	59.785110
747.000000	59.641329
746.000000	59.472537
745.000000	59.296978
744.000000	59.116516
743.000000	59.017850
742.000000	58.891722
741.000000	58.813554
740.000000	58.585916
739.000000	58.503629
738.000000	58.388290
737.000000	58.257259
736.000000	58.121519
735.000000	58.061790
734.000000	57.843764
733.000000	57.709496
732.000000	57.645059
731.000000	57.507260
730.000000	57.371815
729.000000	57.181250
728.000000	56.993922
727.000000	56.841608
726.000000	56.746178
725.000000	56.623582
724.000000	56.421248
723.000000	56.188019
722.000000	56.030997
721.000000	55.927722
720.000000	55.838177
719.000000	55.685764
718.000000	55.596416
717.000000	55.431744
716.000000	55.298456
715.000000	55.123682
714.000000	55.026389
713.000000	54.965287
712.000000	54.817288
711.000000	54.739120
710.000000	54.672329
709.000000	54.649968
708.000000	54.509325
707.000000	54.482942
706.000000	54.483432
705.000000	54.448222
704.000000	54.366524
703.000000	54.362601
702.000000	54.374958
701.000000	54.415955
700.000000	54.422232
699.000000	54.483334
698.000000	54.521290
697.000000	54.530607
696.000000	54.600635
695.000000	54.720780
694.000000	54.798555
693.000000	54.892415
692.000000	54.948025
691.000000	54.946162
690.000000	55.059441
689.000000	55.060814
688.000000	55.051889
687.000000	55.097201
686.000000	55.070818
685.000000	55.040218
684.000000	54.986766
683.000000	54.977645
682.000000	54.954695
681.000000	54.901733
680.000000	54.796594
679.000000	54.713718
678.000000	54.674879
677.000000	54.617700
676.000000	54.527959
675.000000	54.447438
674.000000	54.356128
673.000000	54.222644
672.000000	54.074253
671.000000	53.937729
670.000000	53.764524
669.000000	53.509522
668.000000	53.244713
667.000000	52.998637
666.000000	52.714016
665.000000	52.418116
664.000000	52.085241
663.000000	51.752954
662.000000	51.455289
661.000000	51.120354
660.000000	50.874670
659.000000	50.652524
658.000000	50.444796
657.000000	50.348876
656.000000	50.311313
655.000000	50.279438
654.000000	50.319846
653.000000	50.395954
652.000000	50.519629
651.000000	50.660567
650.000000	50.797091
649.000000	50.976965
648.000000	51.209016
647.000000	51.412037
646.000000	51.643598
645.000000	51.900855
644.000000	52.172137
643.000000	52.493930
642.000000	52.825334
641.000000	53.175961
640.000000	53.543457
639.000000	53.932531
638.000000	54.355931
637.000000	54.794632
636.000000	55.218033
635.000000	55.681057
634.000000	56.133390
633.000000	56.591314
632.000000	57.106319
631.000000	57.626228
630.000000	58.066988
629.000000	58.504512
628.000000	58.883876
627.000000	59.252353
626.000000	59.622400
625.000000	59.928598
624.000000	60.228617
623.000000	60.515199
622.000000	60.786972
621.000000	61.027360
620.000000	61.290208
619.000000	61.569533
618.000000	61.831694
617.000000	62.123867
616.000000	62.365235
615.000000	62.591991
614.000000	62.841794
613.000000	63.038047
612.000000	63.260095
611.000000	63.454779
610.000000	63.585222
609.000000	63.727238
608.000000	63.883279
607.000000	63.987143
606.000000	64.087967
605.000000	64.183102
604.000000	64.280395
603.000000	64.337084
602.000000	64.372882
601.000000	64.450265
600.000000	64.540791
599.000000	64.599539
598.000000	64.680453
597.000000	64.833062
596.000000	64.951736
595.000000	65.080119
594.000000	65.232237
593.000000	65.365328
592.000000	65.469291
591.000000	65.599243
590.000000	65.643967
589.000000	65.681923
588.000000	65.725077
587.000000	65.714681
586.000000	65.713504
585.000000	65.669859
584.000000	65.678882
583.000000	65.617780
582.000000	65.589141
581.000000	65.551970
580.000000	65.546576
579.000000	65.511954
578.000000	65.464975
577.000000	65.415936
576.000000	65.393771
575.000000	65.361602
574.000000	65.264014
573.000000	65.165054
572.000000	65.050598
571.000000	64.945851
570.000000	64.773431
569.000000	64.601501
568.000000	64.394361
567.000000	64.145538
566.000000	63.864154
565.000000	63.545500
564.000000	63.181731
563.000000	62.853367
562.000000	62.475573
561.000000	62.009312
560.000000	61.578556
559.000000	61.013923
558.000000	60.486266
557.000000	59.967534
556.000000	59.431835
555.000000	58.838172
554.000000	58.223324
553.000000	57.631132
552.000000	56.983918
551.000000	56.298357
550.000000	55.619758
549.000000	54.915366
548.000000	54.219506
547.000000	53.484709
546.000000	52.778845
545.000000	52.079454
544.000000	51.364469
543.000000	50.632419
542.000000	49.870258
541.000000	49.141738
540.000000	48.371438
539.000000	47.664299
538.000000	46.965202
537.000000	46.304846
536.000000	45.659398
535.000000	45.027485
534.000000	44.375171
533.000000	43.776604
532.000000	43.181274
531.000000	42.622526
530.000000	42.019644
529.000000	41.527294
528.000000	41.028668
527.000000	40.534162
526.000000	40.071628
525.000000	39.606937
524.000000	39.150680
523.000000	38.747876
522.000000	38.282988
521.000000	37.900584
520.000000	37.451291
519.000000	37.039267
518.000000	36.638327
517.000000	36.221595
516.000000	35.820262
515.000000	35.403727
514.000000	34.982190
513.000000	34.566341
512.000000	34.163144
511.000000	33.773973
510.000000	33.336449
509.000000	32.951397
508.000000	32.562617
507.000000	32.191590
506.000000	31.817522
505.000000	31.428253
504.000000	31.086158
503.000000	30.734845
502.000000	30.367643
501.000000	30.014367
500.000000	29.621959
499.000000	29.356169
498.000000	29.028983
497.000000	28.745441
496.000000	28.447677
495.000000	28.147756
494.000000	27.794285
493.000000	27.538989
492.000000	27.255839
491.000000	27.013980
490.000000	26.773592
489.000000	26.448367
488.000000	26.198466
487.000000	25.920612
486.000000	25.651487
485.000000	25.406392
484.000000	25.143250
483.000000	24.868731
482.000000	24.574400
481.000000	24.275656
480.000000	23.970243
479.000000	23.683072
478.000000	23.364025
477.000000	23.054100
476.000000	22.749079
475.000000	22.384721
474.000000	22.060575
473.000000	21.731525
472.000000	21.417187
471.000000	21.083919
470.000000	20.791452
469.000000	20.480841
468.000000	20.219955
467.000000	19.955930
466.000000	19.706911
465.000000	19.483785
464.000000	19.268701
463.000000	19.092750
462.000000	18.917877
461.000000	18.794006
460.000000	18.662189
459.000000	18.528412
458.000000	18.410719
457.000000	18.347949
456.000000	18.292829
455.000000	18.222508
454.000000	18.146694
453.000000	18.113740
452.000000	18.107169
451.000000	18.030472
450.000000	17.999676
449.000000	17.938181
448.000000	17.927687
447.000000	17.928864
446.000000	17.859229
445.000000	17.780669
444.000000	17.697891
443.000000	17.635710
442.000000	17.574706
441.000000	17.482807
440.000000	17.366193
439.000000	17.256837
438.000000	17.116488
437.000000	16.986437
436.000000	16.880219
435.000000	16.739674
434.000000	16.578533
433.000000	16.432299
432.000000	16.274688
431.000000	16.119334
430.000000	15.921315
429.000000	15.760566
428.000000	15.579515
427.000000	15.428181
426.000000	15.261254
425.000000	15.099524
424.000000	14.892188
423.000000	14.700250
422.000000	14.510764
421.000000	14.317650
420.000000	14.113550
419.000000	13.882087
418.000000	13.692111
417.000000	13.467318
416.000000	13.286365
415.000000	13.058825
414.000000	12.786267
413.000000	12.578932
412.000000	12.334719
411.000000	12.111592
410.000000	11.867379
409.000000	11.614143
408.000000	11.387388
407.000000	11.158181
406.000000	10.907200
405.000000	10.667401
404.000000	10.435251
403.000000	10.188390
402.000000	9.954868
401.000000	9.694570
400.000000	9.465363
399.000000	9.257438
398.000000	9.021072
397.000000	8.815403
396.000000	8.607675
395.000000	8.398476
394.000000	8.190453
393.000000	8.005381
392.000000	7.847574
391.000000	7.674762
390.000000	7.506657
389.000000	7.374448
388.000000	7.212032
387.000000	7.084335
386.000000	6.985081
385.000000	6.868172
384.000000	6.783629
383.000000	6.672998
382.000000	6.572763
381.000000	6.496458
380.000000	6.439868
379.000000	6.355521
378.000000	6.301971
377.000000	6.238220
376.000000	6.163485
375.000000	6.083454
374.000000	6.048342
373.000000	6.067369
372.000000	6.060700
371.000000	6.014505
370.000000	5.992928
369.000000	5.947420
368.000000	5.870332
367.000000	5.901912
366.000000	5.883964
365.000000	5.869645
364.000000	5.823941
363.000000	5.784612
362.000000	5.727040
361.000000	5.693302
360.000000	5.746067
359.000000	5.769998
358.000000	5.713113
357.000000	5.673980
356.000000	5.641419
355.000000	5.658582
354.000000	5.651913
353.000000	5.668194
352.000000	5.675550
351.000000	5.640340
350.000000	5.574824
349.000000	5.578355
348.000000	5.646911
347.000000	5.619940
346.000000	5.559033
345.000000	5.580414
344.000000	5.571784
343.000000	5.544028
342.000000	5.575314
341.000000	5.552658
340.000000	5.499010
339.000000	5.527354
338.000000	5.569332
337.000000	5.565997
336.000000	5.516370
335.000000	5.484691
334.000000	5.486848
333.000000	5.490183
332.000000	5.538143
331.000000	5.588064
330.000000	5.636417
329.000000	5.650932
328.000000	5.551285
327.000000	5.579630
326.000000	5.606209
325.000000	5.598657
324.000000	5.537358
323.000000	5.530101
322.000000	5.584141
321.000000	5.588261
320.000000	5.574334
319.000000	5.564918
318.000000	5.641713
317.000000	5.595714
316.000000	5.533337
315.000000	5.554228
314.000000	5.560407
313.000000	5.579434
312.000000	5.577766
311.000000	5.569332
310.000000	5.577080
309.000000	5.617488
308.000000	5.616017
307.000000	5.596793
306.000000	5.593459
305.000000	5.578551
304.000000	5.582180
303.000000	5.636122
302.000000	5.646715
301.000000	5.632297
300.000000	5.661721
299.000000	5.663486
298.000000	5.658092
297.000000	5.659073
296.000000	5.629747
295.000000	5.633965
294.000000	5.656130
293.000000	5.675059
292.000000	5.680355
291.000000	5.686436
290.000000	5.694479
289.000000	5.731356
288.000000	5.751167
287.000000	5.727727
286.000000	5.717233
285.000000	5.737044
284.000000	5.742635
283.000000	5.750481
282.000000	5.753717
281.000000	5.780787
280.000000	5.783827
279.000000	5.780787
278.000000	5.785102
277.000000	5.807562
276.000000	5.821293
275.000000	5.824824
274.000000	5.850226
273.000000	5.822568
272.000000	5.858072
271.000000	5.870822
270.000000	5.838162
269.000000	5.844341
268.000000	5.885926
267.000000	5.932218
266.000000	5.955855
265.000000	5.986259
264.000000	6.015584
263.000000	6.015486
262.000000	6.027550
261.000000	6.050304
260.000000	6.113466
259.000000	6.106796
258.000000	6.132983
257.000000	6.168291
256.000000	6.165054
255.000000	6.172116
254.000000	6.186533
253.000000	6.192810
252.000000	6.201147
251.000000	6.255678
250.000000	6.256365
