PE UV       SUBTECH     SPECTRUM    ASCII       PEDS        4.00        
   -1
CICIMAUCR0003-3.Sample.ASC
24/05/03
16:05:21.00
24/05/03
16:05:21.00
Vinicio Soto Monge
C. kalinini
250,000000
1
Lambda 1050
1050L1511233
PerkinElmer UV WinLab 6.3.2.0749 / 2.02.05 Lambda 900 UV/VIS/NIR, Aug  7 2015 09:38:08

0
0
3350/servo 860,8/2
0
0
UV/VIS
1
1
1
DoubleDePol,CommonBeamDepol,RBeamAtt,SBeamAtt,60mm sphere, WB InGaAs Detector
0
0
0
0
Program
Program
3350/servo 860,8/2
3350/0,2 860,8/0,2
3350/0,2 860,8/0,2
0
15.00
 
 
 
0
 
860,8
319,2
860,8
Front
100
on
S:100 R:100
0
0
0
0
 
0
 
 
 
0
 
 
0
0
0
0
0
 
 
 
 
0
0


0
0
#HDR
-1
-1
#GR
nm
%R
1.0
0.0
2500,000000
-1,000000
2251
8
101,669700
5,424300
#DATA
2500.000000	8.512300
2499.000000	8.389000
2498.000000	8.333700
2497.000000	8.234300
2496.000000	8.325700
2495.000000	8.341600
2494.000000	8.182100
2493.000000	8.262600
2492.000000	8.155900
2491.000000	8.161100
2490.000000	8.135100
2489.000000	8.168000
2488.000000	8.129600
2487.000000	8.051000
2486.000000	8.197300
2485.000000	8.190200
2484.000000	8.053300
2483.000000	8.048000
2482.000000	8.072300
2481.000000	8.101400
2480.000000	8.085000
2479.000000	8.073400
2478.000000	8.140100
2477.000000	8.089600
2476.000000	8.125600
2475.000000	8.080000
2474.000000	8.084600
2473.000000	8.082700
2472.000000	8.132300
2471.000000	8.112800
2470.000000	8.127600
2469.000000	8.099300
2468.000000	8.145900
2467.000000	8.143600
2466.000000	8.159800
2465.000000	8.198900
2464.000000	8.223300
2463.000000	8.275000
2462.000000	8.325200
2461.000000	8.375200
2460.000000	8.401000
2459.000000	8.443500
2458.000000	8.502000
2457.000000	8.576000
2456.000000	8.640100
2455.000000	8.702900
2454.000000	8.793600
2453.000000	8.857200
2452.000000	8.939200
2451.000000	9.050200
2450.000000	9.098700
2449.000000	9.174200
2448.000000	9.270700
2447.000000	9.352000
2446.000000	9.432400
2445.000000	9.515500
2444.000000	9.631500
2443.000000	9.700000
2442.000000	9.767400
2441.000000	9.838900
2440.000000	9.933400
2439.000000	9.994900
2438.000000	10.074000
2437.000000	10.153900
2436.000000	10.221300
2435.000000	10.283400
2434.000000	10.343800
2433.000000	10.422700
2432.000000	10.487800
2431.000000	10.537600
2430.000000	10.589200
2429.000000	10.633000
2428.000000	10.706300
2427.000000	10.756400
2426.000000	10.802700
2425.000000	10.830500
2424.000000	10.867300
2423.000000	10.897800
2422.000000	10.923800
2421.000000	10.950000
2420.000000	10.995400
2419.000000	11.018500
2418.000000	11.068800
2417.000000	11.079000
2416.000000	11.106900
2415.000000	11.139600
2414.000000	11.159200
2413.000000	11.200500
2412.000000	11.232600
2411.000000	11.244500
2410.000000	11.264300
2409.000000	11.300000
2408.000000	11.317600
2407.000000	11.342600
2406.000000	11.377400
2405.000000	11.395700
2404.000000	11.423400
2403.000000	11.443000
2402.000000	11.481400
2401.000000	11.510000
2400.000000	11.534900
2399.000000	11.575400
2398.000000	11.646200
2397.000000	11.715500
2396.000000	11.759200
2395.000000	11.776300
2394.000000	11.787200
2393.000000	11.799000
2392.000000	11.826000
2391.000000	11.860600
2390.000000	11.878900
2389.000000	11.895200
2388.000000	11.914700
2387.000000	11.942300
2386.000000	11.964800
2385.000000	11.954900
2384.000000	11.930100
2383.000000	11.946000
2382.000000	11.966300
2381.000000	11.951700
2380.000000	11.938500
2379.000000	11.923500
2378.000000	11.906800
2377.000000	11.888100
2376.000000	11.876700
2375.000000	11.851400
2374.000000	11.827100
2373.000000	11.811500
2372.000000	11.760800
2371.000000	11.723500
2370.000000	11.694500
2369.000000	11.641200
2368.000000	11.597800
2367.000000	11.557900
2366.000000	11.493800
2365.000000	11.416700
2364.000000	11.358200
2363.000000	11.292300
2362.000000	11.220900
2361.000000	11.168300
2360.000000	11.097800
2359.000000	11.019700
2358.000000	10.972200
2357.000000	10.931400
2356.000000	10.888800
2355.000000	10.873900
2354.000000	10.860600
2353.000000	10.843700
2352.000000	10.833400
2351.000000	10.847900
2350.000000	10.889400
2349.000000	10.909300
2348.000000	10.947500
2347.000000	10.996300
2346.000000	11.031200
2345.000000	11.086200
2344.000000	11.134000
2343.000000	11.181200
2342.000000	11.225800
2341.000000	11.277800
2340.000000	11.311300
2339.000000	11.322200
2338.000000	11.323000
2337.000000	11.336900
2336.000000	11.336500
2335.000000	11.324300
2334.000000	11.289800
2333.000000	11.254500
2332.000000	11.239000
2331.000000	11.204800
2330.000000	11.140800
2329.000000	11.061500
2328.000000	11.015900
2327.000000	10.928300
2326.000000	10.851300
2325.000000	10.765800
2324.000000	10.658800
2323.000000	10.572500
2322.000000	10.475600
2321.000000	10.353300
2320.000000	10.235400
2319.000000	10.117900
2318.000000	9.991600
2317.000000	9.876200
2316.000000	9.758900
2315.000000	9.623300
2314.000000	9.489600
2313.000000	9.395100
2312.000000	9.314500
2311.000000	9.218400
2310.000000	9.133600
2309.000000	9.096200
2308.000000	9.069700
2307.000000	9.053000
2306.000000	9.032500
2305.000000	9.053700
2304.000000	9.109200
2303.000000	9.182500
2302.000000	9.244800
2301.000000	9.343000
2300.000000	9.429500
2299.000000	9.555100
2298.000000	9.623200
2297.000000	9.701600
2296.000000	9.802500
2295.000000	9.894800
2294.000000	9.998000
2293.000000	10.053400
2292.000000	10.111800
2291.000000	10.147400
2290.000000	10.182800
2289.000000	10.208900
2288.000000	10.205000
2287.000000	10.170600
2286.000000	10.174700
2285.000000	10.155100
2284.000000	10.104600
2283.000000	10.037300
2282.000000	9.992400
2281.000000	9.949700
2280.000000	9.892300
2279.000000	9.847200
2278.000000	9.790900
2277.000000	9.766600
2276.000000	9.728000
2275.000000	9.685100
2274.000000	9.698200
2273.000000	9.675700
2272.000000	9.681400
2271.000000	9.709200
2270.000000	9.761200
2269.000000	9.813500
2268.000000	9.914400
2267.000000	10.007500
2266.000000	10.146100
2265.000000	10.284400
2264.000000	10.451300
2263.000000	10.655500
2262.000000	10.870800
2261.000000	11.160800
2260.000000	11.411900
2259.000000	11.660600
2258.000000	11.940600
2257.000000	12.261500
2256.000000	12.532500
2255.000000	12.820200
2254.000000	13.091500
2253.000000	13.399600
2252.000000	13.684700
2251.000000	13.942000
2250.000000	14.169000
2249.000000	14.379600
2248.000000	14.635100
2247.000000	14.840200
2246.000000	15.017300
2245.000000	15.187600
2244.000000	15.340100
2243.000000	15.533600
2242.000000	15.668700
2241.000000	15.783100
2240.000000	15.903700
2239.000000	16.022700
2238.000000	16.147700
2237.000000	16.246200
2236.000000	16.318200
2235.000000	16.378300
2234.000000	16.447300
2233.000000	16.522600
2232.000000	16.571300
2231.000000	16.612100
2230.000000	16.662200
2229.000000	16.656200
2228.000000	16.688000
2227.000000	16.701600
2226.000000	16.712500
2225.000000	16.708700
2224.000000	16.703700
2223.000000	16.664900
2222.000000	16.643900
2221.000000	16.633400
2220.000000	16.598900
2219.000000	16.571000
2218.000000	16.555100
2217.000000	16.499500
2216.000000	16.475600
2215.000000	16.443600
2214.000000	16.405700
2213.000000	16.388500
2212.000000	16.352100
2211.000000	16.343100
2210.000000	16.302700
2209.000000	16.286700
2208.000000	16.250100
2207.000000	16.218400
2206.000000	16.197700
2205.000000	16.192000
2204.000000	16.185900
2203.000000	16.157900
2202.000000	16.156600
2201.000000	16.179600
2200.000000	16.151000
2199.000000	16.130900
2198.000000	16.137500
2197.000000	16.136500
2196.000000	16.126600
2195.000000	16.109800
2194.000000	16.103200
2193.000000	16.096500
2192.000000	16.086300
2191.000000	16.087700
2190.000000	16.072200
2189.000000	16.069500
2188.000000	16.051900
2187.000000	16.038900
2186.000000	16.039200
2185.000000	16.029900
2184.000000	16.001700
2183.000000	16.002000
2182.000000	15.987800
2181.000000	15.948800
2180.000000	15.953600
2179.000000	15.930200
2178.000000	15.929800
2177.000000	15.930400
2176.000000	15.942000
2175.000000	15.930600
2174.000000	15.914300
2173.000000	15.914000
2172.000000	15.920100
2171.000000	15.939800
2170.000000	15.956500
2169.000000	15.958500
2168.000000	15.970700
2167.000000	16.003900
2166.000000	16.024600
2165.000000	16.037700
2164.000000	16.055100
2163.000000	16.094900
2162.000000	16.120600
2161.000000	16.136700
2160.000000	16.174500
2159.000000	16.210400
2158.000000	16.249600
2157.000000	16.296800
2156.000000	16.340800
2155.000000	16.384200
2154.000000	16.439900
2153.000000	16.465000
2152.000000	16.533200
2151.000000	16.581400
2150.000000	16.628100
2149.000000	16.688300
2148.000000	16.745000
2147.000000	16.788400
2146.000000	16.835500
2145.000000	16.875800
2144.000000	16.927000
2143.000000	16.953300
2142.000000	17.001800
2141.000000	17.055800
2140.000000	17.109600
2139.000000	17.139500
2138.000000	17.184500
2137.000000	17.221900
2136.000000	17.259500
2135.000000	17.277200
2134.000000	17.313300
2133.000000	17.344100
2132.000000	17.353600
2131.000000	17.356700
2130.000000	17.384300
2129.000000	17.424300
2128.000000	17.422800
2127.000000	17.424900
2126.000000	17.430500
2125.000000	17.420400
2124.000000	17.425300
2123.000000	17.428500
2122.000000	17.412000
2121.000000	17.406600
2120.000000	17.399500
2119.000000	17.375900
2118.000000	17.358800
2117.000000	17.325700
2116.000000	17.305400
2115.000000	17.287900
2114.000000	17.269300
2113.000000	17.251500
2112.000000	17.218000
2111.000000	17.187500
2110.000000	17.166000
2109.000000	17.129500
2108.000000	17.105400
2107.000000	17.075100
2106.000000	17.041200
2105.000000	17.016000
2104.000000	16.980200
2103.000000	16.957800
2102.000000	16.945000
2101.000000	16.923900
2100.000000	16.887100
2099.000000	16.852500
2098.000000	16.830700
2097.000000	16.819600
2096.000000	16.802900
2095.000000	16.773900
2094.000000	16.752300
2093.000000	16.739100
2092.000000	16.712100
2091.000000	16.716100
2090.000000	16.726500
2089.000000	16.703700
2088.000000	16.672000
2087.000000	16.648000
2086.000000	16.645400
2085.000000	16.629900
2084.000000	16.608300
2083.000000	16.582100
2082.000000	16.575300
2081.000000	16.548200
2080.000000	16.528300
2079.000000	16.510200
2078.000000	16.472500
2077.000000	16.452400
2076.000000	16.404300
2075.000000	16.359800
2074.000000	16.336700
2073.000000	16.293500
2072.000000	16.258900
2071.000000	16.232800
2070.000000	16.200500
2069.000000	16.158900
2068.000000	16.122400
2067.000000	16.083500
2066.000000	16.034400
2065.000000	16.015600
2064.000000	15.998800
2063.000000	15.966600
2062.000000	15.969300
2061.000000	15.960300
2060.000000	15.946100
2059.000000	15.936200
2058.000000	15.935500
2057.000000	15.957300
2056.000000	16.008100
2055.000000	16.062800
2054.000000	16.114700
2053.000000	16.187800
2052.000000	16.269100
2051.000000	16.360400
2050.000000	16.477300
2049.000000	16.607700
2048.000000	16.757300
2047.000000	16.890300
2046.000000	17.038400
2045.000000	17.192600
2044.000000	17.369400
2043.000000	17.512200
2042.000000	17.681300
2041.000000	17.875600
2040.000000	18.024000
2039.000000	18.174900
2038.000000	18.304700
2037.000000	18.454200
2036.000000	18.627700
2035.000000	18.754200
2034.000000	18.884900
2033.000000	18.998500
2032.000000	19.118200
2031.000000	19.241700
2030.000000	19.349400
2029.000000	19.467300
2028.000000	19.556200
2027.000000	19.663300
2026.000000	19.746600
2025.000000	19.843700
2024.000000	19.927500
2023.000000	20.002800
2022.000000	20.082000
2021.000000	20.162400
2020.000000	20.248500
2019.000000	20.287400
2018.000000	20.369300
2017.000000	20.401900
2016.000000	20.460400
2015.000000	20.519900
2014.000000	20.557900
2013.000000	20.601100
2012.000000	20.621700
2011.000000	20.671000
2010.000000	20.690100
2009.000000	20.690900
2008.000000	20.709700
2007.000000	20.728700
2006.000000	20.713900
2005.000000	20.719100
2004.000000	20.714400
2003.000000	20.703600
2002.000000	20.669700
2001.000000	20.647300
2000.000000	20.608400
1999.000000	20.583000
1998.000000	20.550700
1997.000000	20.508500
1996.000000	20.462500
1995.000000	20.409700
1994.000000	20.349800
1993.000000	20.292900
1992.000000	20.219600
1991.000000	20.158200
1990.000000	20.084500
1989.000000	20.028500
1988.000000	19.947600
1987.000000	19.853200
1986.000000	19.775500
1985.000000	19.696500
1984.000000	19.609600
1983.000000	19.518400
1982.000000	19.443400
1981.000000	19.353900
1980.000000	19.279200
1979.000000	19.162000
1978.000000	19.091500
1977.000000	19.008500
1976.000000	18.899400
1975.000000	18.812300
1974.000000	18.712500
1973.000000	18.647500
1972.000000	18.570200
1971.000000	18.463100
1970.000000	18.377800
1969.000000	18.299400
1968.000000	18.240900
1967.000000	18.133500
1966.000000	18.063500
1965.000000	18.005700
1964.000000	17.906200
1963.000000	17.804200
1962.000000	17.720900
1961.000000	17.636500
1960.000000	17.557900
1959.000000	17.482200
1958.000000	17.400800
1957.000000	17.321100
1956.000000	17.235400
1955.000000	17.145400
1954.000000	17.063900
1953.000000	17.001600
1952.000000	16.924900
1951.000000	16.834200
1950.000000	16.785900
1949.000000	16.712700
1948.000000	16.639000
1947.000000	16.605800
1946.000000	16.542300
1945.000000	16.500200
1944.000000	16.438500
1943.000000	16.417800
1942.000000	16.403400
1941.000000	16.395200
1940.000000	16.375900
1939.000000	16.374500
1938.000000	16.366500
1937.000000	16.397800
1936.000000	16.424100
1935.000000	16.429100
1934.000000	16.497700
1933.000000	16.545000
1932.000000	16.629000
1931.000000	16.687200
1930.000000	16.775500
1929.000000	16.882100
1928.000000	16.985800
1927.000000	17.089500
1926.000000	17.224000
1925.000000	17.367000
1924.000000	17.509600
1923.000000	17.681700
1922.000000	17.856300
1921.000000	18.044500
1920.000000	18.241000
1919.000000	18.450600
1918.000000	18.635900
1917.000000	18.850900
1916.000000	19.059400
1915.000000	19.271900
1914.000000	19.532900
1913.000000	19.844600
1912.000000	20.106500
1911.000000	20.342400
1910.000000	20.599600
1909.000000	20.853100
1908.000000	21.121700
1907.000000	21.435300
1906.000000	21.775700
1905.000000	22.096700
1904.000000	22.439200
1903.000000	22.746400
1902.000000	23.075500
1901.000000	23.401100
1900.000000	23.753700
1899.000000	24.098400
1898.000000	24.466200
1897.000000	24.781400
1896.000000	25.054000
1895.000000	25.372400
1894.000000	25.683900
1893.000000	26.033800
1892.000000	26.407200
1891.000000	26.750800
1890.000000	27.082100
1889.000000	27.416400
1888.000000	27.766600
1887.000000	28.139400
1886.000000	28.540000
1885.000000	28.986500
1884.000000	29.483900
1883.000000	29.974800
1882.000000	30.457100
1881.000000	30.916700
1880.000000	31.342700
1879.000000	31.805400
1878.000000	32.244700
1877.000000	32.647000
1876.000000	33.019000
1875.000000	33.370300
1874.000000	33.713100
1873.000000	34.018800
1872.000000	34.281600
1871.000000	34.522600
1870.000000	34.733400
1869.000000	34.917100
1868.000000	35.048300
1867.000000	35.126400
1866.000000	35.181700
1865.000000	35.253400
1864.000000	35.309200
1863.000000	35.364200
1862.000000	35.427500
1861.000000	35.471300
1860.000000	35.508400
1859.000000	35.533500
1858.000000	35.518600
1857.000000	35.501500
1856.000000	35.472700
1855.000000	35.441700
1854.000000	35.412600
1853.000000	35.340400
1852.000000	35.289600
1851.000000	35.266900
1850.000000	35.231600
1849.000000	35.175100
1848.000000	35.104200
1847.000000	35.023000
1846.000000	34.935600
1845.000000	34.860400
1844.000000	34.808900
1843.000000	34.788800
1842.000000	34.774900
1841.000000	34.732900
1840.000000	34.668400
1839.000000	34.613600
1838.000000	34.550600
1837.000000	34.489600
1836.000000	34.426400
1835.000000	34.327900
1834.000000	34.239900
1833.000000	34.156400
1832.000000	34.073200
1831.000000	33.999300
1830.000000	33.908700
1829.000000	33.820700
1828.000000	33.720900
1827.000000	33.638200
1826.000000	33.574400
1825.000000	33.502800
1824.000000	33.449900
1823.000000	33.441700
1822.000000	33.436600
1821.000000	33.398600
1820.000000	33.350100
1819.000000	33.295900
1818.000000	33.277200
1817.000000	33.275700
1816.000000	33.264800
1815.000000	33.247000
1814.000000	33.238000
1813.000000	33.226200
1812.000000	33.184500
1811.000000	33.136700
1810.000000	33.084000
1809.000000	33.041100
1808.000000	33.011600
1807.000000	32.970400
1806.000000	32.909400
1805.000000	32.838400
1804.000000	32.781200
1803.000000	32.739800
1802.000000	32.694900
1801.000000	32.626800
1800.000000	32.549600
1799.000000	32.487000
1798.000000	32.444400
1797.000000	32.404100
1796.000000	32.345500
1795.000000	32.294600
1794.000000	32.238500
1793.000000	32.166200
1792.000000	32.115900
1791.000000	32.054600
1790.000000	31.985000
1789.000000	31.923800
1788.000000	31.860300
1787.000000	31.789900
1786.000000	31.714500
1785.000000	31.625900
1784.000000	31.537900
1783.000000	31.464900
1782.000000	31.370600
1781.000000	31.282800
1780.000000	31.196700
1779.000000	31.099600
1778.000000	31.003400
1777.000000	30.879000
1776.000000	30.755000
1775.000000	30.615400
1774.000000	30.466400
1773.000000	30.316800
1772.000000	30.178800
1771.000000	30.027100
1770.000000	29.885100
1769.000000	29.751300
1768.000000	29.625700
1767.000000	29.515300
1766.000000	29.418100
1765.000000	29.353800
1764.000000	29.322500
1763.000000	29.300700
1762.000000	29.338100
1761.000000	29.376100
1760.000000	29.434200
1759.000000	29.500800
1758.000000	29.583800
1757.000000	29.629100
1756.000000	29.690000
1755.000000	29.706900
1754.000000	29.723600
1753.000000	29.733900
1752.000000	29.708900
1751.000000	29.648700
1750.000000	29.600300
1749.000000	29.525700
1748.000000	29.421300
1747.000000	29.312100
1746.000000	29.171100
1745.000000	29.009200
1744.000000	28.810900
1743.000000	28.612400
1742.000000	28.360900
1741.000000	28.123200
1740.000000	27.854200
1739.000000	27.594700
1738.000000	27.367600
1737.000000	27.190200
1736.000000	27.062700
1735.000000	26.981800
1734.000000	26.961500
1733.000000	26.960000
1732.000000	27.019300
1731.000000	27.098500
1730.000000	27.223900
1729.000000	27.338100
1728.000000	27.464600
1727.000000	27.561000
1726.000000	27.654100
1725.000000	27.727500
1724.000000	27.770700
1723.000000	27.817700
1722.000000	27.839900
1721.000000	27.844300
1720.000000	27.897100
1719.000000	27.943700
1718.000000	28.008200
1717.000000	28.069500
1716.000000	28.164700
1715.000000	28.240200
1714.000000	28.313900
1713.000000	28.396700
1712.000000	28.446800
1711.000000	28.489500
1710.000000	28.519300
1709.000000	28.497900
1708.000000	28.496400
1707.000000	28.469500
1706.000000	28.435700
1705.000000	28.369300
1704.000000	28.305800
1703.000000	28.183900
1702.000000	28.062800
1701.000000	27.899600
1700.000000	27.740900
1699.000000	27.570600
1698.000000	27.417700
1697.000000	27.301000
1696.000000	27.251200
1695.000000	27.248200
1694.000000	27.277500
1693.000000	27.410800
1692.000000	27.584900
1691.000000	27.747300
1690.000000	27.883000
1689.000000	27.996500
1688.000000	28.046900
1687.000000	28.053200
1686.000000	28.107200
1685.000000	28.171200
1684.000000	28.314800
1683.000000	28.602600
1682.000000	28.984900
1681.000000	29.519200
1680.000000	30.120000
1679.000000	30.691600
1678.000000	31.277900
1677.000000	31.781800
1676.000000	32.240700
1675.000000	32.669500
1674.000000	33.021600
1673.000000	33.329100
1672.000000	33.610200
1671.000000	33.848600
1670.000000	34.049000
1669.000000	34.227300
1668.000000	34.408400
1667.000000	34.540200
1666.000000	34.639700
1665.000000	34.764100
1664.000000	34.850300
1663.000000	34.917200
1662.000000	35.008800
1661.000000	35.070900
1660.000000	35.121800
1659.000000	35.175700
1658.000000	35.200600
1657.000000	35.215800
1656.000000	35.237600
1655.000000	35.247500
1654.000000	35.261800
1653.000000	35.248700
1652.000000	35.238000
1651.000000	35.200600
1650.000000	35.179800
1649.000000	35.165800
1648.000000	35.110600
1647.000000	35.052800
1646.000000	35.005500
1645.000000	34.963800
1644.000000	34.908900
1643.000000	34.869600
1642.000000	34.811700
1641.000000	34.745200
1640.000000	34.691800
1639.000000	34.638700
1638.000000	34.572500
1637.000000	34.488800
1636.000000	34.422600
1635.000000	34.354500
1634.000000	34.300500
1633.000000	34.209200
1632.000000	34.136500
1631.000000	34.063900
1630.000000	33.963900
1629.000000	33.896800
1628.000000	33.816600
1627.000000	33.730500
1626.000000	33.658300
1625.000000	33.570000
1624.000000	33.505600
1623.000000	33.422200
1622.000000	33.336900
1621.000000	33.250200
1620.000000	33.174300
1619.000000	33.098000
1618.000000	33.034700
1617.000000	32.959500
1616.000000	32.883200
1615.000000	32.808800
1614.000000	32.735100
1613.000000	32.653800
1612.000000	32.589300
1611.000000	32.526300
1610.000000	32.460200
1609.000000	32.382100
1608.000000	32.312500
1607.000000	32.231300
1606.000000	32.138700
1605.000000	32.073000
1604.000000	32.019000
1603.000000	31.954200
1602.000000	31.882100
1601.000000	31.810000
1600.000000	31.726500
1599.000000	31.660300
1598.000000	31.598700
1597.000000	31.523800
1596.000000	31.473300
1595.000000	31.411700
1594.000000	31.358600
1593.000000	31.311600
1592.000000	31.261700
1591.000000	31.215300
1590.000000	31.170600
1589.000000	31.119700
1588.000000	31.088600
1587.000000	31.052700
1586.000000	31.016500
1585.000000	30.981600
1584.000000	30.942600
1583.000000	30.912100
1582.000000	30.889700
1581.000000	30.865900
1580.000000	30.864800
1579.000000	30.855500
1578.000000	30.837300
1577.000000	30.832000
1576.000000	30.831500
1575.000000	30.838300
1574.000000	30.850000
1573.000000	30.859800
1572.000000	30.873500
1571.000000	30.904600
1570.000000	30.935800
1569.000000	30.964000
1568.000000	30.995900
1567.000000	31.023500
1566.000000	31.057500
1565.000000	31.089300
1564.000000	31.118200
1563.000000	31.144000
1562.000000	31.169700
1561.000000	31.190300
1560.000000	31.207700
1559.000000	31.222700
1558.000000	31.232700
1557.000000	31.244700
1556.000000	31.241900
1555.000000	31.230800
1554.000000	31.236200
1553.000000	31.226500
1552.000000	31.210300
1551.000000	31.188200
1550.000000	31.179500
1549.000000	31.172900
1548.000000	31.150100
1547.000000	31.133800
1546.000000	31.127600
1545.000000	31.127000
1544.000000	31.126800
1543.000000	31.112100
1542.000000	31.106600
1541.000000	31.111600
1540.000000	31.109300
1539.000000	31.099600
1538.000000	31.103900
1537.000000	31.109800
1536.000000	31.110600
1535.000000	31.104100
1534.000000	31.086000
1533.000000	31.083100
1532.000000	31.081300
1531.000000	31.073700
1530.000000	31.056600
1529.000000	31.041200
1528.000000	31.021700
1527.000000	30.998700
1526.000000	30.989800
1525.000000	30.964700
1524.000000	30.950900
1523.000000	30.940600
1522.000000	30.909300
1521.000000	30.867500
1520.000000	30.863400
1519.000000	30.842300
1518.000000	30.817400
1517.000000	30.786100
1516.000000	30.765400
1515.000000	30.723800
1514.000000	30.690800
1513.000000	30.675700
1512.000000	30.650800
1511.000000	30.608300
1510.000000	30.577100
1509.000000	30.554800
1508.000000	30.536000
1507.000000	30.489400
1506.000000	30.457000
1505.000000	30.439900
1504.000000	30.412500
1503.000000	30.392600
1502.000000	30.368200
1501.000000	30.344600
1500.000000	30.330400
1499.000000	30.321700
1498.000000	30.325100
1497.000000	30.333600
1496.000000	30.328300
1495.000000	30.314700
1494.000000	30.326900
1493.000000	30.340100
1492.000000	30.331300
1491.000000	30.359800
1490.000000	30.371300
1489.000000	30.378100
1488.000000	30.400200
1487.000000	30.421600
1486.000000	30.430200
1485.000000	30.456400
1484.000000	30.472400
1483.000000	30.501500
1482.000000	30.532500
1481.000000	30.570400
1480.000000	30.598500
1479.000000	30.642600
1478.000000	30.682100
1477.000000	30.711200
1476.000000	30.756900
1475.000000	30.820300
1474.000000	30.883900
1473.000000	30.943000
1472.000000	30.981800
1471.000000	31.038900
1470.000000	31.059700
1469.000000	31.109700
1468.000000	31.172200
1467.000000	31.229900
1466.000000	31.289300
1465.000000	31.362400
1464.000000	31.419200
1463.000000	31.500500
1462.000000	31.589200
1461.000000	31.667100
1460.000000	31.737900
1459.000000	31.851000
1458.000000	31.940700
1457.000000	32.047500
1456.000000	32.155000
1455.000000	32.253300
1454.000000	32.366800
1453.000000	32.489100
1452.000000	32.607100
1451.000000	32.741200
1450.000000	32.836200
1449.000000	32.936700
1448.000000	33.080000
1447.000000	33.253000
1446.000000	33.387500
1445.000000	33.526500
1444.000000	33.638400
1443.000000	33.773900
1442.000000	33.916600
1441.000000	34.035800
1440.000000	34.205600
1439.000000	34.343900
1438.000000	34.492600
1437.000000	34.595400
1436.000000	34.756300
1435.000000	34.888400
1434.000000	35.046900
1433.000000	35.203400
1432.000000	35.332800
1431.000000	35.478400
1430.000000	35.648200
1429.000000	35.830800
1428.000000	36.052600
1427.000000	36.248300
1426.000000	36.502300
1425.000000	36.725300
1424.000000	36.983500
1423.000000	37.216300
1422.000000	37.435200
1421.000000	37.683000
1420.000000	37.951300
1419.000000	38.202600
1418.000000	38.401900
1417.000000	38.656500
1416.000000	38.906600
1415.000000	39.179000
1414.000000	39.432400
1413.000000	39.637400
1412.000000	39.885900
1411.000000	40.187400
1410.000000	40.539900
1409.000000	40.878300
1408.000000	41.241000
1407.000000	41.610300
1406.000000	42.008300
1405.000000	42.402700
1404.000000	42.810100
1403.000000	43.168700
1402.000000	43.576200
1401.000000	43.981200
1400.000000	44.290100
1399.000000	44.500200
1398.000000	44.719300
1397.000000	45.007300
1396.000000	45.259200
1395.000000	45.397000
1394.000000	45.499600
1393.000000	45.647000
1392.000000	45.820800
1391.000000	45.990300
1390.000000	46.172900
1389.000000	46.440700
1388.000000	46.733500
1387.000000	47.019700
1386.000000	47.359400
1385.000000	47.770600
1384.000000	48.124600
1383.000000	48.503000
1382.000000	48.790400
1381.000000	48.966700
1380.000000	49.057100
1379.000000	49.151200
1378.000000	49.210700
1377.000000	49.327600
1376.000000	49.482700
1375.000000	49.687200
1374.000000	49.960100
1373.000000	50.282200
1372.000000	50.641100
1371.000000	50.994500
1370.000000	51.304800
1369.000000	51.588500
1368.000000	51.858500
1367.000000	52.092000
1366.000000	52.284200
1365.000000	52.480700
1364.000000	52.640700
1363.000000	52.813500
1362.000000	52.954000
1361.000000	53.022900
1360.000000	53.025500
1359.000000	53.134000
1358.000000	53.254800
1357.000000	53.456100
1356.000000	53.786900
1355.000000	54.230500
1354.000000	54.719000
1353.000000	55.216600
1352.000000	55.807900
1351.000000	56.349700
1350.000000	56.825500
1349.000000	57.256800
1348.000000	57.676700
1347.000000	58.050300
1346.000000	58.420200
1345.000000	58.780700
1344.000000	59.084500
1343.000000	59.397000
1342.000000	59.691800
1341.000000	59.972200
1340.000000	60.246800
1339.000000	60.491700
1338.000000	60.745100
1337.000000	60.976500
1336.000000	61.193800
1335.000000	61.415400
1334.000000	61.618500
1333.000000	61.818400
1332.000000	61.991500
1331.000000	62.166400
1330.000000	62.332700
1329.000000	62.482500
1328.000000	62.625100
1327.000000	62.753100
1326.000000	62.877700
1325.000000	63.001400
1324.000000	63.121700
1323.000000	63.232100
1322.000000	63.334000
1321.000000	63.430900
1320.000000	63.515600
1319.000000	63.596600
1318.000000	63.683200
1317.000000	63.763000
1316.000000	63.833000
1315.000000	63.903600
1314.000000	63.978600
1313.000000	64.028500
1312.000000	64.074800
1311.000000	64.129500
1310.000000	64.181000
1309.000000	64.216700
1308.000000	64.245200
1307.000000	64.258500
1306.000000	64.278900
1305.000000	64.297900
1304.000000	64.298700
1303.000000	64.302700
1302.000000	64.292700
1301.000000	64.270900
1300.000000	64.256300
1299.000000	64.246300
1298.000000	64.226000
1297.000000	64.204300
1296.000000	64.191300
1295.000000	64.159700
1294.000000	64.129800
1293.000000	64.105800
1292.000000	64.076700
1291.000000	64.027200
1290.000000	63.965700
1289.000000	63.903900
1288.000000	63.842800
1287.000000	63.773900
1286.000000	63.703900
1285.000000	63.617600
1284.000000	63.531100
1283.000000	63.447300
1282.000000	63.369400
1281.000000	63.295000
1280.000000	63.218500
1279.000000	63.139200
1278.000000	63.064400
1277.000000	62.995900
1276.000000	62.936900
1275.000000	62.883400
1274.000000	62.821700
1273.000000	62.765000
1272.000000	62.717100
1271.000000	62.665300
1270.000000	62.617700
1269.000000	62.564000
1268.000000	62.523200
1267.000000	62.462600
1266.000000	62.410300
1265.000000	62.363500
1264.000000	62.311000
1263.000000	62.265100
1262.000000	62.221200
1261.000000	62.156000
1260.000000	62.105800
1259.000000	62.055000
1258.000000	61.993300
1257.000000	61.941400
1256.000000	61.887600
1255.000000	61.812500
1254.000000	61.734900
1253.000000	61.662500
1252.000000	61.576600
1251.000000	61.494400
1250.000000	61.406400
1249.000000	61.308800
1248.000000	61.185000
1247.000000	61.074300
1246.000000	60.947000
1245.000000	60.800100
1244.000000	60.658700
1243.000000	60.507800
1242.000000	60.359400
1241.000000	60.203500
1240.000000	60.043300
1239.000000	59.880700
1238.000000	59.703400
1237.000000	59.537200
1236.000000	59.357000
1235.000000	59.184200
1234.000000	59.009300
1233.000000	58.817600
1232.000000	58.630500
1231.000000	58.448600
1230.000000	58.258800
1229.000000	58.060200
1228.000000	57.856600
1227.000000	57.672600
1226.000000	57.489600
1225.000000	57.299500
1224.000000	57.112600
1223.000000	56.929500
1222.000000	56.736400
1221.000000	56.567100
1220.000000	56.408600
1219.000000	56.257900
1218.000000	56.098000
1217.000000	55.935700
1216.000000	55.819500
1215.000000	55.704500
1214.000000	55.572500
1213.000000	55.455200
1212.000000	55.343000
1211.000000	55.211100
1210.000000	55.120000
1209.000000	55.022100
1208.000000	54.940700
1207.000000	54.885100
1206.000000	54.838100
1205.000000	54.792700
1204.000000	54.760600
1203.000000	54.725100
1202.000000	54.700900
1201.000000	54.647700
1200.000000	54.604800
1199.000000	54.503000
1198.000000	54.376200
1197.000000	54.223200
1196.000000	54.012000
1195.000000	53.731600
1194.000000	53.397400
1193.000000	52.998000
1192.000000	52.583100
1191.000000	52.148300
1190.000000	51.743500
1189.000000	51.393700
1188.000000	51.157300
1187.000000	51.047900
1186.000000	51.058600
1185.000000	51.189700
1184.000000	51.456700
1183.000000	51.824500
1182.000000	52.289100
1181.000000	52.751800
1180.000000	53.212500
1179.000000	53.671300
1178.000000	54.038000
1177.000000	54.361500
1176.000000	54.685700
1175.000000	54.945700
1174.000000	55.225700
1173.000000	55.545900
1172.000000	55.839300
1171.000000	56.152900
1170.000000	56.487200
1169.000000	56.794300
1168.000000	57.119400
1167.000000	57.477100
1166.000000	57.804700
1165.000000	58.172200
1164.000000	58.494100
1163.000000	58.847500
1162.000000	59.197100
1161.000000	59.515500
1160.000000	59.838700
1159.000000	60.136600
1158.000000	60.418700
1157.000000	60.683700
1156.000000	60.871500
1155.000000	61.027500
1154.000000	61.111800
1153.000000	61.169100
1152.000000	61.191100
1151.000000	61.174600
1150.000000	61.153900
1149.000000	61.117400
1148.000000	61.129800
1147.000000	61.196600
1146.000000	61.307600
1145.000000	61.487300
1144.000000	61.730900
1143.000000	61.996700
1142.000000	62.299600
1141.000000	62.580200
1140.000000	62.900600
1139.000000	63.231500
1138.000000	63.549600
1137.000000	63.898600
1136.000000	64.263900
1135.000000	64.604000
1134.000000	64.902500
1133.000000	65.133400
1132.000000	65.375900
1131.000000	65.617200
1130.000000	65.822100
1129.000000	65.978400
1128.000000	66.101600
1127.000000	66.218200
1126.000000	66.298000
1125.000000	66.359300
1124.000000	66.412000
1123.000000	66.459200
1122.000000	66.480300
1121.000000	66.494900
1120.000000	66.496800
1119.000000	66.508900
1118.000000	66.493600
1117.000000	66.476100
1116.000000	66.448200
1115.000000	66.405100
1114.000000	66.363800
1113.000000	66.329100
1112.000000	66.306700
1111.000000	66.267100
1110.000000	66.223500
1109.000000	66.192900
1108.000000	66.152900
1107.000000	66.113400
1106.000000	66.075400
1105.000000	66.028500
1104.000000	65.966900
1103.000000	65.924000
1102.000000	65.884600
1101.000000	65.832200
1100.000000	65.776600
1099.000000	65.710800
1098.000000	65.673700
1097.000000	65.616500
1096.000000	65.544000
1095.000000	65.486600
1094.000000	65.437400
1093.000000	65.364300
1092.000000	65.292600
1091.000000	65.224300
1090.000000	65.160100
1089.000000	65.092700
1088.000000	65.012600
1087.000000	64.937300
1086.000000	64.867100
1085.000000	64.790800
1084.000000	64.716200
1083.000000	64.639400
1082.000000	64.564600
1081.000000	64.479400
1080.000000	64.422400
1079.000000	64.359100
1078.000000	64.287100
1077.000000	64.217300
1076.000000	64.148400
1075.000000	64.078700
1074.000000	64.017900
1073.000000	63.948600
1072.000000	63.865700
1071.000000	63.786800
1070.000000	63.726100
1069.000000	63.665400
1068.000000	63.601300
1067.000000	63.523800
1066.000000	63.449300
1065.000000	63.384600
1064.000000	63.321600
1063.000000	63.243200
1062.000000	63.162900
1061.000000	63.093100
1060.000000	63.015100
1059.000000	62.931900
1058.000000	62.866900
1057.000000	62.804000
1056.000000	62.726600
1055.000000	62.658900
1054.000000	62.607900
1053.000000	62.544800
1052.000000	62.476300
1051.000000	62.412000
1050.000000	62.363500
1049.000000	62.314700
1048.000000	62.272700
1047.000000	62.225100
1046.000000	62.176100
1045.000000	62.131500
1044.000000	62.073900
1043.000000	62.025700
1042.000000	62.000700
1041.000000	61.956600
1040.000000	61.915100
1039.000000	61.870800
1038.000000	61.828600
1037.000000	61.800000
1036.000000	61.753400
1035.000000	61.711500
1034.000000	61.671000
1033.000000	61.619800
1032.000000	61.566000
1031.000000	61.521000
1030.000000	61.477300
1029.000000	61.430000
1028.000000	61.383100
1027.000000	61.344100
1026.000000	61.291100
1025.000000	61.242300
1024.000000	61.199200
1023.000000	61.157200
1022.000000	61.123800
1021.000000	61.087000
1020.000000	61.043400
1019.000000	61.013000
1018.000000	60.977400
1017.000000	60.965200
1016.000000	60.963200
1015.000000	60.946600
1014.000000	60.947700
1013.000000	60.952900
1012.000000	60.967800
1011.000000	60.998000
1010.000000	61.044700
1009.000000	61.074600
1008.000000	61.119100
1007.000000	61.159700
1006.000000	61.206200
1005.000000	61.257700
1004.000000	61.297100
1003.000000	61.356700
1002.000000	61.405100
1001.000000	61.450300
1000.000000	61.517900
999.000000	61.556700
998.000000	61.609800
997.000000	61.687600
996.000000	61.756300
995.000000	61.826300
994.000000	61.881900
993.000000	61.941600
992.000000	62.014000
991.000000	62.089800
990.000000	62.173600
989.000000	62.266000
988.000000	62.328800
987.000000	62.404300
986.000000	62.502900
985.000000	62.603700
984.000000	62.677400
983.000000	62.760100
982.000000	62.838300
981.000000	62.921600
980.000000	63.010700
979.000000	63.121800
978.000000	63.202200
977.000000	63.281700
976.000000	63.392900
975.000000	63.485400
974.000000	63.564800
973.000000	63.641600
972.000000	63.751300
971.000000	63.834400
970.000000	63.940400
969.000000	64.009400
968.000000	64.100500
967.000000	64.214400
966.000000	64.319900
965.000000	64.407700
964.000000	64.513500
963.000000	64.613800
962.000000	64.742900
961.000000	64.836200
960.000000	64.958800
959.000000	65.069800
958.000000	65.183100
957.000000	65.309500
956.000000	65.408900
955.000000	65.542100
954.000000	65.628000
953.000000	65.718500
952.000000	65.816300
951.000000	65.960900
950.000000	66.061900
949.000000	66.149200
948.000000	66.268900
947.000000	66.379500
946.000000	66.466300
945.000000	66.594500
944.000000	66.711700
943.000000	66.808900
942.000000	66.905900
941.000000	67.038700
940.000000	67.144900
939.000000	67.225500
938.000000	67.344200
937.000000	67.468600
936.000000	67.616300
935.000000	67.728400
934.000000	67.829600
933.000000	67.950900
932.000000	68.058700
931.000000	68.211600
930.000000	68.295600
929.000000	68.393700
928.000000	68.536000
927.000000	68.620600
926.000000	68.695600
925.000000	68.780100
924.000000	68.865500
923.000000	68.935400
922.000000	69.082700
921.000000	69.149800
920.000000	69.230000
919.000000	69.315100
918.000000	69.385200
917.000000	69.465500
916.000000	69.527300
915.000000	69.613500
914.000000	69.678000
913.000000	69.768900
912.000000	69.826200
911.000000	69.905600
910.000000	69.987500
909.000000	70.063100
908.000000	70.167800
907.000000	70.253700
906.000000	70.315100
905.000000	70.331900
904.000000	70.398700
903.000000	70.475300
902.000000	70.579300
901.000000	70.651100
900.000000	70.720200
899.000000	70.804600
898.000000	70.863400
897.000000	70.832200
896.000000	70.906900
895.000000	70.963900
894.000000	71.006800
893.000000	71.029500
892.000000	70.944900
891.000000	70.929800
890.000000	70.816300
889.000000	70.819900
888.000000	70.840100
887.000000	70.780200
886.000000	70.624500
885.000000	70.543000
884.000000	70.362700
883.000000	70.249000
882.000000	70.028900
881.000000	69.899300
880.000000	69.679600
879.000000	69.521700
878.000000	69.192200
877.000000	68.837900
876.000000	68.568700
875.000000	68.367100
874.000000	67.981900
873.000000	67.586200
872.000000	67.358100
871.000000	67.418700
870.000000	67.614900
869.000000	67.828100
868.000000	68.058200
867.000000	68.259300
866.000000	68.460100
865.000000	68.665700
864.000000	68.885300
863.000000	69.101400
862.000000	69.307700
861.000000	69.553600
860.000000	69.774200
859.000000	69.998700
858.000000	71.761500
857.000000	70.216560
856.000000	70.806102
855.000000	70.697891
854.000000	70.509851
853.000000	70.974903
852.000000	71.288565
851.000000	71.839889
850.000000	72.035416
849.000000	71.899522
848.000000	72.404184
847.000000	72.809167
846.000000	73.307126
845.000000	73.429527
844.000000	73.656568
843.000000	73.944200
842.000000	74.450430
841.000000	74.731446
840.000000	75.261354
839.000000	75.539149
838.000000	75.787780
837.000000	76.223581
836.000000	76.659556
835.000000	77.066890
834.000000	77.078556
833.000000	77.510352
832.000000	78.093626
831.000000	78.365501
830.000000	78.614742
829.000000	78.984729
828.000000	79.246766
827.000000	79.618669
826.000000	79.922319
825.000000	80.159807
824.000000	80.751264
823.000000	81.026969
822.000000	81.340109
821.000000	81.389644
820.000000	81.916853
819.000000	82.299115
818.000000	82.507178
817.000000	82.896666
816.000000	83.281452
815.000000	83.473149
814.000000	83.684782
813.000000	83.811709
812.000000	84.005234
811.000000	84.356591
810.000000	84.640828
809.000000	84.751998
808.000000	85.164555
807.000000	85.306630
806.000000	85.407789
805.000000	85.762280
804.000000	86.074984
803.000000	86.331015
802.000000	86.389865
801.000000	86.606286
800.000000	86.871545
799.000000	86.947457
798.000000	87.074210
797.000000	87.235264
796.000000	87.306910
795.000000	87.460999
794.000000	87.595326
793.000000	87.738098
792.000000	87.813227
791.000000	87.886963
790.000000	88.156313
789.000000	88.182865
788.000000	88.118357
787.000000	88.230920
786.000000	88.271401
785.000000	88.374823
784.000000	88.411822
783.000000	88.391364
782.000000	88.325724
781.000000	88.370209
780.000000	88.509325
779.000000	88.482947
778.000000	88.360372
777.000000	88.207850
776.000000	88.130893
775.000000	88.167282
774.000000	88.138293
773.000000	88.123145
772.000000	88.077615
771.000000	88.048190
770.000000	87.918390
769.000000	87.873034
768.000000	87.901762
767.000000	87.904287
766.000000	87.721035
765.000000	87.679509
764.000000	87.569471
763.000000	87.316487
762.000000	87.232217
761.000000	87.268258
760.000000	87.198352
759.000000	87.032859
758.000000	86.861533
757.000000	86.665832
756.000000	86.552572
755.000000	86.491111
754.000000	86.344422
753.000000	86.242132
752.000000	86.146805
751.000000	85.983663
750.000000	85.852209
749.000000	85.715879
748.000000	85.616549
747.000000	85.504421
746.000000	85.304019
745.000000	85.203034
744.000000	85.061046
743.000000	84.792653
742.000000	84.612709
741.000000	84.448522
740.000000	84.189618
739.000000	84.064606
738.000000	83.815017
737.000000	83.516329
736.000000	83.359280
735.000000	83.177334
734.000000	82.960130
733.000000	82.730738
732.000000	82.468178
731.000000	82.286666
730.000000	82.056926
729.000000	81.683631
728.000000	81.393910
727.000000	81.161558
726.000000	80.916583
725.000000	80.609537
724.000000	80.262185
723.000000	79.957751
722.000000	79.630595
721.000000	79.300393
720.000000	79.016069
719.000000	78.712418
718.000000	78.360191
717.000000	77.940234
716.000000	77.547351
715.000000	77.201653
714.000000	76.788834
713.000000	76.449926
712.000000	76.067925
711.000000	75.738071
710.000000	75.409088
709.000000	74.934285
708.000000	74.599730
707.000000	74.341784
706.000000	74.042138
705.000000	73.722643
704.000000	73.366411
703.000000	73.041519
702.000000	72.732907
701.000000	72.402530
700.000000	72.096790
699.000000	71.759536
698.000000	71.463285
697.000000	71.124639
696.000000	70.799572
695.000000	70.446910
694.000000	70.062645
693.000000	69.718862
692.000000	69.334250
691.000000	68.980542
690.000000	68.629534
689.000000	68.303597
688.000000	67.930737
687.000000	67.588086
686.000000	67.251702
685.000000	66.854989
684.000000	66.552122
683.000000	66.171253
682.000000	65.764964
681.000000	65.352755
680.000000	64.985641
679.000000	64.649083
678.000000	64.255940
677.000000	63.896312
676.000000	63.507782
675.000000	63.134139
674.000000	62.737687
673.000000	62.441698
672.000000	62.158853
671.000000	61.885411
670.000000	61.581674
669.000000	61.275847
668.000000	61.058991
667.000000	60.827336
666.000000	60.597596
665.000000	60.468144
664.000000	60.355755
663.000000	60.187911
662.000000	60.081355
661.000000	59.920476
660.000000	59.755331
659.000000	59.662965
658.000000	59.500606
657.000000	59.336419
656.000000	59.185290
655.000000	58.971307
654.000000	58.745136
653.000000	58.510521
652.000000	58.257276
651.000000	57.997240
650.000000	57.751395
649.000000	57.443914
648.000000	57.157849
647.000000	56.806753
646.000000	56.525389
645.000000	56.294081
644.000000	55.988342
643.000000	55.682950
642.000000	55.414644
641.000000	55.161573
640.000000	54.870894
639.000000	54.651949
638.000000	54.398355
637.000000	54.186984
636.000000	53.969693
635.000000	53.883769
634.000000	53.741781
633.000000	53.655334
632.000000	53.664388
631.000000	53.699820
630.000000	53.744218
629.000000	53.934783
628.000000	54.158517
627.000000	54.420554
626.000000	54.803513
625.000000	55.168973
624.000000	55.649695
623.000000	56.167328
622.000000	56.667986
621.000000	57.222096
620.000000	57.798318
619.000000	58.377587
618.000000	58.983582
617.000000	59.550228
616.000000	60.110867
615.000000	60.685783
614.000000	61.238587
613.000000	61.812894
612.000000	62.344805
611.000000	62.820477
610.000000	63.401661
609.000000	63.891176
608.000000	64.430747
607.000000	64.935584
606.000000	65.439027
605.000000	65.919140
604.000000	66.453314
603.000000	66.954494
602.000000	67.409273
601.000000	67.877198
600.000000	68.334676
599.000000	68.695696
598.000000	69.043223
597.000000	69.407377
596.000000	69.722344
595.000000	70.001271
594.000000	70.254255
593.000000	70.504366
592.000000	70.718785
591.000000	70.917272
590.000000	71.108098
589.000000	71.324257
588.000000	71.540417
587.000000	71.673003
586.000000	71.866005
585.000000	72.014087
584.000000	72.178013
583.000000	72.279955
582.000000	72.421769
581.000000	72.506736
580.000000	72.512133
579.000000	72.571070
578.000000	72.621301
577.000000	72.607546
576.000000	72.600495
575.000000	72.581952
574.000000	72.569068
573.000000	72.482882
572.000000	72.361527
571.000000	72.287616
570.000000	72.141624
569.000000	71.999288
568.000000	71.836232
567.000000	71.687802
566.000000	71.563661
565.000000	71.382585
564.000000	71.204208
563.000000	71.019998
562.000000	70.770148
561.000000	70.561214
560.000000	70.328165
559.000000	70.002316
558.000000	69.737405
557.000000	69.404330
556.000000	69.098416
555.000000	68.757680
554.000000	68.388737
553.000000	68.026585
552.000000	67.544906
551.000000	67.098832
550.000000	66.633693
549.000000	66.147400
548.000000	65.595379
547.000000	65.043098
546.000000	64.470010
545.000000	63.889261
544.000000	63.249923
543.000000	62.613894
542.000000	61.966634
541.000000	61.276979
540.000000	60.606911
539.000000	59.876077
538.000000	59.161350
537.000000	58.411800
536.000000	57.650932
535.000000	56.914441
534.000000	56.130242
533.000000	55.358841
532.000000	54.557841
531.000000	53.747439
530.000000	52.932598
529.000000	52.151446
528.000000	51.352536
527.000000	50.551100
526.000000	49.755672
525.000000	48.965989
524.000000	48.164293
523.000000	47.409519
522.000000	46.643777
521.000000	45.903542
520.000000	45.197781
519.000000	44.442746
518.000000	43.739945
517.000000	43.038276
516.000000	42.395456
515.000000	41.747848
514.000000	41.094843
513.000000	40.433568
512.000000	39.823307
511.000000	39.254223
510.000000	38.665900
509.000000	38.128679
508.000000	37.627238
507.000000	37.121793
506.000000	36.625749
505.000000	36.116124
504.000000	35.677538
503.000000	35.252444
502.000000	34.849811
501.000000	34.443000
500.000000	34.055950
499.000000	33.723832
498.000000	33.379179
497.000000	33.049760
496.000000	32.746022
495.000000	32.416690
494.000000	32.108078
493.000000	31.832720
492.000000	31.582609
491.000000	31.304553
490.000000	31.009086
489.000000	30.726416
488.000000	30.434866
487.000000	30.155852
486.000000	29.863432
485.000000	29.542980
484.000000	29.240635
483.000000	28.924187
482.000000	28.578402
481.000000	28.240103
480.000000	27.894057
479.000000	27.534255
478.000000	27.168186
477.000000	26.824403
476.000000	26.460684
475.000000	26.088607
474.000000	25.697379
473.000000	25.318251
472.000000	24.958537
471.000000	24.607093
470.000000	24.276803
469.000000	23.938069
468.000000	23.618749
467.000000	23.307785
466.000000	23.015191
465.000000	22.750977
464.000000	22.526634
463.000000	22.324578
462.000000	22.137321
461.000000	21.972872
460.000000	21.847338
459.000000	21.735994
458.000000	21.654771
457.000000	21.588957
456.000000	21.551610
455.000000	21.543775
454.000000	21.523142
453.000000	21.534547
452.000000	21.577988
451.000000	21.601144
450.000000	21.642322
449.000000	21.692118
448.000000	21.699256
447.000000	21.697863
446.000000	21.736603
445.000000	21.775517
444.000000	21.799544
443.000000	21.817217
442.000000	21.797107
441.000000	21.757409
440.000000	21.714926
439.000000	21.671921
438.000000	21.600100
437.000000	21.512435
436.000000	21.418850
435.000000	21.322914
434.000000	21.213746
433.000000	21.082640
432.000000	20.915667
431.000000	20.767324
430.000000	20.604617
429.000000	20.423193
428.000000	20.246992
427.000000	20.055818
426.000000	19.861335
425.000000	19.625501
424.000000	19.381136
423.000000	19.133288
422.000000	18.887529
421.000000	18.619572
420.000000	18.339513
419.000000	18.071469
418.000000	17.785926
417.000000	17.465735
416.000000	17.161475
415.000000	16.855561
414.000000	16.531453
413.000000	16.199335
412.000000	15.838228
411.000000	15.480515
410.000000	15.141346
409.000000	14.790860
408.000000	14.457088
407.000000	14.092760
406.000000	13.728431
405.000000	13.372112
404.000000	12.998295
403.000000	12.615162
402.000000	12.261020
401.000000	11.903656
400.000000	11.570493
399.000000	11.217221
398.000000	10.869259
397.000000	10.553769
396.000000	10.217125
395.000000	9.891710
394.000000	9.588408
393.000000	9.322540
392.000000	9.017061
391.000000	8.711843
390.000000	8.452069
389.000000	8.192556
388.000000	7.959334
387.000000	7.709484
386.000000	7.508994
385.000000	7.336798
384.000000	7.125252
383.000000	6.969335
382.000000	6.778161
381.000000	6.603266
380.000000	6.457099
379.000000	6.337485
378.000000	6.202897
377.000000	6.094860
376.000000	5.814280
375.000000	5.667678
374.000000	5.548499
373.000000	5.513850
372.000000	5.491216
371.000000	5.548847
370.000000	5.508105
369.000000	5.368380
368.000000	5.290030
367.000000	5.256514
366.000000	5.329205
365.000000	5.314754
364.000000	5.088409
363.000000	5.192179
362.000000	5.210548
361.000000	5.151524
360.000000	5.049147
359.000000	5.101641
358.000000	5.125930
357.000000	5.111305
356.000000	5.052281
355.000000	5.074480
354.000000	5.049582
353.000000	4.921697
352.000000	5.102251
351.000000	5.151350
350.000000	5.108780
349.000000	4.906114
348.000000	4.722165
347.000000	4.978806
346.000000	5.147868
345.000000	4.930141
344.000000	4.947814
343.000000	4.883305
342.000000	5.014411
341.000000	4.824195
340.000000	4.892533
339.000000	4.986902
338.000000	4.871031
337.000000	4.957303
336.000000	4.961656
335.000000	4.911512
334.000000	5.167630
333.000000	4.978022
332.000000	5.340087
331.000000	5.062205
330.000000	4.998654
329.000000	4.772571
328.000000	5.071955
327.000000	5.002659
326.000000	4.854925
325.000000	4.974975
324.000000	5.101902
323.000000	4.862934
322.000000	5.497745
321.000000	5.561296
320.000000	5.031387
319.000000	5.345049
318.000000	5.376738
317.000000	5.358630
316.000000	4.871814
315.000000	4.808438
314.000000	4.784236
313.000000	4.775356
312.000000	4.765954
311.000000	4.844740
310.000000	4.794683
309.000000	4.825413
308.000000	4.814793
307.000000	4.847090
306.000000	4.847177
305.000000	4.817578
304.000000	4.884524
303.000000	4.850834
302.000000	4.817317
301.000000	4.835338
300.000000	4.853881
299.000000	4.857102
298.000000	4.869202
297.000000	4.845001
296.000000	4.841258
295.000000	4.846394
294.000000	4.914297
293.000000	4.872685
292.000000	4.912382
291.000000	4.957390
290.000000	4.955997
289.000000	4.920130
288.000000	4.937280
287.000000	4.891402
286.000000	4.920304
285.000000	4.930751
284.000000	4.948336
283.000000	4.948510
282.000000	4.972538
281.000000	4.999960
280.000000	5.005532
279.000000	4.989078
278.000000	5.012235
277.000000	5.045403
276.000000	5.084927
275.000000	5.033128
274.000000	5.044620
273.000000	5.067341
272.000000	5.080661
271.000000	5.058723
270.000000	5.101032
269.000000	5.126626
268.000000	5.163190
267.000000	5.137334
266.000000	5.167804
265.000000	5.187739
264.000000	5.199231
263.000000	5.234750
262.000000	5.256252
261.000000	5.304133
260.000000	5.304917
259.000000	5.350273
258.000000	5.343047
257.000000	5.366987
256.000000	5.316582
255.000000	5.364027
254.000000	5.366030
253.000000	5.371601
252.000000	5.394584
251.000000	5.403202
250.000000	5.417654
