PE UV       SUBTECH     SPECTRUM    ASCII       PEDS        4.00        
   -1
CICIMAUCR0250-3.Sample.ASC
24/05/27
16:50:50.00
24/05/27
16:50:50.00
Vinicio Soto Monge
C. resplendens, M
250,000000
1
Lambda 1050
1050L1511233
PerkinElmer UV WinLab 6.3.2.0749 / 2.02.05 Lambda 900 UV/VIS/NIR, Aug  7 2015 09:38:08

0
0
3350/servo 860,8/2
0
0
UV/VIS
1
1
1
DoubleDePol,CommonBeamDepol,RBeamAtt,SBeamAtt,60mm sphere, WB InGaAs Detector
0
0
0
0
Program
Program
3350/servo 860,8/2
3350/0,2 860,8/0,2
3350/0,2 860,8/0,2
0
15.00
 
 
 
0
 
860,8
319,2
860,8
Front
100
on
S:100 R:100
0
0
0
0
 
0
 
 
 
0
 
 
0
0
0
0
0
 
 
 
 
0
0


0
0
#HDR
-1
-1
#GR
nm
%R
1.0
0.0
2500,000000
-1,000000
2251
8
89,705100
5,547200
#DATA
2500.000000	8.622800
2499.000000	8.757300
2498.000000	8.544300
2497.000000	8.511700
2496.000000	8.551000
2495.000000	8.501900
2494.000000	8.417900
2493.000000	8.326200
2492.000000	8.396800
2491.000000	8.361200
2490.000000	8.413600
2489.000000	8.391600
2488.000000	8.379000
2487.000000	8.392200
2486.000000	8.320500
2485.000000	8.418500
2484.000000	8.374300
2483.000000	8.390300
2482.000000	8.399300
2481.000000	8.329400
2480.000000	8.331900
2479.000000	8.373000
2478.000000	8.377000
2477.000000	8.389100
2476.000000	8.410600
2475.000000	8.450600
2474.000000	8.450100
2473.000000	8.393600
2472.000000	8.406700
2471.000000	8.434100
2470.000000	8.446700
2469.000000	8.442900
2468.000000	8.461700
2467.000000	8.487900
2466.000000	8.489300
2465.000000	8.520300
2464.000000	8.516500
2463.000000	8.543600
2462.000000	8.559700
2461.000000	8.605800
2460.000000	8.645300
2459.000000	8.694000
2458.000000	8.731300
2457.000000	8.803700
2456.000000	8.847600
2455.000000	8.892500
2454.000000	8.949600
2453.000000	9.017400
2452.000000	9.068300
2451.000000	9.123900
2450.000000	9.215000
2449.000000	9.281500
2448.000000	9.344800
2447.000000	9.424300
2446.000000	9.519000
2445.000000	9.562800
2444.000000	9.637000
2443.000000	9.684600
2442.000000	9.768500
2441.000000	9.862300
2440.000000	9.900200
2439.000000	9.954300
2438.000000	10.039900
2437.000000	10.116300
2436.000000	10.175900
2435.000000	10.230200
2434.000000	10.309100
2433.000000	10.381300
2432.000000	10.434100
2431.000000	10.492600
2430.000000	10.565800
2429.000000	10.607700
2428.000000	10.646300
2427.000000	10.687500
2426.000000	10.739900
2425.000000	10.801900
2424.000000	10.837600
2423.000000	10.872500
2422.000000	10.913600
2421.000000	10.951700
2420.000000	10.992200
2419.000000	11.033500
2418.000000	11.079700
2417.000000	11.106400
2416.000000	11.147900
2415.000000	11.173600
2414.000000	11.199600
2413.000000	11.231100
2412.000000	11.255400
2411.000000	11.289700
2410.000000	11.326000
2409.000000	11.361600
2408.000000	11.386900
2407.000000	11.427400
2406.000000	11.444200
2405.000000	11.474800
2404.000000	11.495400
2403.000000	11.523100
2402.000000	11.546200
2401.000000	11.568000
2400.000000	11.587300
2399.000000	11.605400
2398.000000	11.629300
2397.000000	11.659200
2396.000000	11.690000
2395.000000	11.710800
2394.000000	11.725600
2393.000000	11.759000
2392.000000	11.765600
2391.000000	11.779300
2390.000000	11.805600
2389.000000	11.831400
2388.000000	11.857300
2387.000000	11.850600
2386.000000	11.857000
2385.000000	11.856800
2384.000000	11.857500
2383.000000	11.860200
2382.000000	11.860800
2381.000000	11.872100
2380.000000	11.866900
2379.000000	11.851200
2378.000000	11.843400
2377.000000	11.835100
2376.000000	11.813100
2375.000000	11.806800
2374.000000	11.797200
2373.000000	11.763900
2372.000000	11.722400
2371.000000	11.709500
2370.000000	11.699700
2369.000000	11.663500
2368.000000	11.632200
2367.000000	11.605800
2366.000000	11.559400
2365.000000	11.515200
2364.000000	11.464200
2363.000000	11.415300
2362.000000	11.368800
2361.000000	11.306600
2360.000000	11.254300
2359.000000	11.214000
2358.000000	11.174700
2357.000000	11.119900
2356.000000	11.063700
2355.000000	11.023400
2354.000000	10.993700
2353.000000	10.977800
2352.000000	10.961800
2351.000000	10.945200
2350.000000	10.940700
2349.000000	10.943600
2348.000000	10.950200
2347.000000	10.974800
2346.000000	11.003200
2345.000000	11.016900
2344.000000	11.045700
2343.000000	11.065600
2342.000000	11.088400
2341.000000	11.111700
2340.000000	11.141500
2339.000000	11.168300
2338.000000	11.153700
2337.000000	11.164800
2336.000000	11.171200
2335.000000	11.156300
2334.000000	11.145900
2333.000000	11.123600
2332.000000	11.102100
2331.000000	11.066700
2330.000000	11.020300
2329.000000	10.982600
2328.000000	10.948900
2327.000000	10.877600
2326.000000	10.814900
2325.000000	10.773800
2324.000000	10.710000
2323.000000	10.618200
2322.000000	10.523400
2321.000000	10.454100
2320.000000	10.367500
2319.000000	10.257300
2318.000000	10.155600
2317.000000	10.061600
2316.000000	9.980600
2315.000000	9.888900
2314.000000	9.788900
2313.000000	9.667100
2312.000000	9.565800
2311.000000	9.485400
2310.000000	9.403300
2309.000000	9.330700
2308.000000	9.276000
2307.000000	9.233400
2306.000000	9.201700
2305.000000	9.210300
2304.000000	9.201800
2303.000000	9.212900
2302.000000	9.256400
2301.000000	9.295400
2300.000000	9.342300
2299.000000	9.404100
2298.000000	9.487900
2297.000000	9.554900
2296.000000	9.610000
2295.000000	9.694200
2294.000000	9.767400
2293.000000	9.833800
2292.000000	9.883400
2291.000000	9.918900
2290.000000	9.954100
2289.000000	10.001000
2288.000000	10.006700
2287.000000	10.011800
2286.000000	10.013800
2285.000000	10.011700
2284.000000	10.001900
2283.000000	9.964500
2282.000000	9.907800
2281.000000	9.877800
2280.000000	9.814300
2279.000000	9.770700
2278.000000	9.729000
2277.000000	9.680300
2276.000000	9.639800
2275.000000	9.589700
2274.000000	9.574800
2273.000000	9.551400
2272.000000	9.538200
2271.000000	9.503500
2270.000000	9.511100
2269.000000	9.523300
2268.000000	9.571700
2267.000000	9.607900
2266.000000	9.691200
2265.000000	9.767400
2264.000000	9.860300
2263.000000	9.997000
2262.000000	10.134300
2261.000000	10.288500
2260.000000	10.473900
2259.000000	10.670000
2258.000000	10.863200
2257.000000	11.042700
2256.000000	11.282900
2255.000000	11.510800
2254.000000	11.728500
2253.000000	11.960100
2252.000000	12.177500
2251.000000	12.382600
2250.000000	12.592200
2249.000000	12.773200
2248.000000	12.970700
2247.000000	13.134300
2246.000000	13.311800
2245.000000	13.460300
2244.000000	13.607800
2243.000000	13.724800
2242.000000	13.841000
2241.000000	13.969500
2240.000000	14.066900
2239.000000	14.155900
2238.000000	14.242400
2237.000000	14.333000
2236.000000	14.402100
2235.000000	14.469400
2234.000000	14.513700
2233.000000	14.567100
2232.000000	14.594800
2231.000000	14.653100
2230.000000	14.685300
2229.000000	14.713200
2228.000000	14.720600
2227.000000	14.742100
2226.000000	14.740800
2225.000000	14.739900
2224.000000	14.754500
2223.000000	14.738100
2222.000000	14.709100
2221.000000	14.700300
2220.000000	14.655000
2219.000000	14.656200
2218.000000	14.616300
2217.000000	14.585700
2216.000000	14.555600
2215.000000	14.527300
2214.000000	14.499100
2213.000000	14.448500
2212.000000	14.414400
2211.000000	14.408500
2210.000000	14.377100
2209.000000	14.337600
2208.000000	14.326000
2207.000000	14.301100
2206.000000	14.263700
2205.000000	14.260100
2204.000000	14.220100
2203.000000	14.217800
2202.000000	14.183100
2201.000000	14.145500
2200.000000	14.150300
2199.000000	14.118400
2198.000000	14.094800
2197.000000	14.094900
2196.000000	14.080700
2195.000000	14.058800
2194.000000	14.042200
2193.000000	14.023400
2192.000000	14.017100
2191.000000	13.991300
2190.000000	13.991100
2189.000000	13.991300
2188.000000	13.951400
2187.000000	13.957500
2186.000000	13.931700
2185.000000	13.905900
2184.000000	13.909000
2183.000000	13.887800
2182.000000	13.890700
2181.000000	13.869600
2180.000000	13.827800
2179.000000	13.839700
2178.000000	13.827500
2177.000000	13.790000
2176.000000	13.800600
2175.000000	13.802700
2174.000000	13.785800
2173.000000	13.780300
2172.000000	13.779500
2171.000000	13.807600
2170.000000	13.804300
2169.000000	13.804600
2168.000000	13.802000
2167.000000	13.836600
2166.000000	13.857000
2165.000000	13.862700
2164.000000	13.869200
2163.000000	13.908100
2162.000000	13.937700
2161.000000	13.946700
2160.000000	13.974500
2159.000000	14.001600
2158.000000	14.047900
2157.000000	14.093900
2156.000000	14.109800
2155.000000	14.130400
2154.000000	14.184400
2153.000000	14.236000
2152.000000	14.284500
2151.000000	14.327500
2150.000000	14.373700
2149.000000	14.411500
2148.000000	14.448700
2147.000000	14.494600
2146.000000	14.543000
2145.000000	14.587700
2144.000000	14.622000
2143.000000	14.664000
2142.000000	14.700900
2141.000000	14.752400
2140.000000	14.782200
2139.000000	14.822500
2138.000000	14.846500
2137.000000	14.875700
2136.000000	14.898700
2135.000000	14.937200
2134.000000	14.952300
2133.000000	14.976700
2132.000000	14.996500
2131.000000	15.008100
2130.000000	15.008900
2129.000000	15.036500
2128.000000	15.048400
2127.000000	15.042700
2126.000000	15.047900
2125.000000	15.051900
2124.000000	15.050600
2123.000000	15.023700
2122.000000	15.018600
2121.000000	15.018700
2120.000000	15.008200
2119.000000	14.996400
2118.000000	14.981000
2117.000000	14.971500
2116.000000	14.943200
2115.000000	14.920100
2114.000000	14.878400
2113.000000	14.845900
2112.000000	14.830800
2111.000000	14.813900
2110.000000	14.773100
2109.000000	14.737800
2108.000000	14.710600
2107.000000	14.695700
2106.000000	14.670000
2105.000000	14.633200
2104.000000	14.597000
2103.000000	14.568800
2102.000000	14.543700
2101.000000	14.497100
2100.000000	14.461700
2099.000000	14.440400
2098.000000	14.415500
2097.000000	14.396500
2096.000000	14.370100
2095.000000	14.343800
2094.000000	14.316400
2093.000000	14.291400
2092.000000	14.276400
2091.000000	14.264200
2090.000000	14.242300
2089.000000	14.216400
2088.000000	14.200200
2087.000000	14.177600
2086.000000	14.164300
2085.000000	14.145600
2084.000000	14.120100
2083.000000	14.110200
2082.000000	14.093300
2081.000000	14.056700
2080.000000	14.013400
2079.000000	13.984100
2078.000000	13.949900
2077.000000	13.902400
2076.000000	13.867400
2075.000000	13.821400
2074.000000	13.772500
2073.000000	13.734500
2072.000000	13.698700
2071.000000	13.648300
2070.000000	13.599800
2069.000000	13.557400
2068.000000	13.505900
2067.000000	13.467100
2066.000000	13.424700
2065.000000	13.366500
2064.000000	13.312500
2063.000000	13.274500
2062.000000	13.240700
2061.000000	13.197600
2060.000000	13.160200
2059.000000	13.136800
2058.000000	13.105000
2057.000000	13.082600
2056.000000	13.067500
2055.000000	13.054400
2054.000000	13.060100
2053.000000	13.058500
2052.000000	13.084300
2051.000000	13.121600
2050.000000	13.164100
2049.000000	13.210900
2048.000000	13.268000
2047.000000	13.331500
2046.000000	13.402000
2045.000000	13.480500
2044.000000	13.555100
2043.000000	13.635800
2042.000000	13.734700
2041.000000	13.832300
2040.000000	13.913500
2039.000000	13.984700
2038.000000	14.069100
2037.000000	14.149000
2036.000000	14.217400
2035.000000	14.280200
2034.000000	14.347100
2033.000000	14.411900
2032.000000	14.479000
2031.000000	14.526800
2030.000000	14.590200
2029.000000	14.636600
2028.000000	14.668600
2027.000000	14.704500
2026.000000	14.742200
2025.000000	14.768100
2024.000000	14.809300
2023.000000	14.841000
2022.000000	14.867500
2021.000000	14.877000
2020.000000	14.915600
2019.000000	14.935100
2018.000000	14.943300
2017.000000	14.942700
2016.000000	14.951300
2015.000000	14.943600
2014.000000	14.939500
2013.000000	14.950600
2012.000000	14.946500
2011.000000	14.930500
2010.000000	14.908700
2009.000000	14.890100
2008.000000	14.866500
2007.000000	14.826000
2006.000000	14.798400
2005.000000	14.779500
2004.000000	14.732200
2003.000000	14.684500
2002.000000	14.644800
2001.000000	14.583900
2000.000000	14.535600
1999.000000	14.473400
1998.000000	14.420100
1997.000000	14.365000
1996.000000	14.297400
1995.000000	14.237000
1994.000000	14.164600
1993.000000	14.094500
1992.000000	14.011600
1991.000000	13.936100
1990.000000	13.874500
1989.000000	13.789000
1988.000000	13.698400
1987.000000	13.644400
1986.000000	13.563600
1985.000000	13.468200
1984.000000	13.367800
1983.000000	13.316300
1982.000000	13.211500
1981.000000	13.131700
1980.000000	13.045700
1979.000000	12.974200
1978.000000	12.851500
1977.000000	12.768900
1976.000000	12.679400
1975.000000	12.612900
1974.000000	12.527700
1973.000000	12.442300
1972.000000	12.367600
1971.000000	12.287300
1970.000000	12.232900
1969.000000	12.149300
1968.000000	12.045200
1967.000000	11.960000
1966.000000	11.896100
1965.000000	11.832000
1964.000000	11.763200
1963.000000	11.672400
1962.000000	11.606000
1961.000000	11.523200
1960.000000	11.464900
1959.000000	11.386300
1958.000000	11.316100
1957.000000	11.258900
1956.000000	11.192000
1955.000000	11.115000
1954.000000	11.051300
1953.000000	10.988700
1952.000000	10.934800
1951.000000	10.869100
1950.000000	10.803900
1949.000000	10.740600
1948.000000	10.696300
1947.000000	10.647200
1946.000000	10.592400
1945.000000	10.553000
1944.000000	10.503200
1943.000000	10.479000
1942.000000	10.449200
1941.000000	10.407800
1940.000000	10.397800
1939.000000	10.398100
1938.000000	10.370900
1937.000000	10.385500
1936.000000	10.396700
1935.000000	10.374400
1934.000000	10.382800
1933.000000	10.405700
1932.000000	10.430800
1931.000000	10.477900
1930.000000	10.493100
1929.000000	10.575600
1928.000000	10.636800
1927.000000	10.708100
1926.000000	10.780100
1925.000000	10.866100
1924.000000	10.932600
1923.000000	11.020600
1922.000000	11.126900
1921.000000	11.254300
1920.000000	11.379000
1919.000000	11.530400
1918.000000	11.645400
1917.000000	11.799600
1916.000000	11.913800
1915.000000	12.038700
1914.000000	12.204600
1913.000000	12.404700
1912.000000	12.607800
1911.000000	12.841700
1910.000000	13.010100
1909.000000	13.163200
1908.000000	13.335900
1907.000000	13.548000
1906.000000	13.785000
1905.000000	14.073500
1904.000000	14.375600
1903.000000	14.650600
1902.000000	14.897100
1901.000000	15.165800
1900.000000	15.459200
1899.000000	15.771100
1898.000000	16.102000
1897.000000	16.423500
1896.000000	16.735000
1895.000000	17.018700
1894.000000	17.320500
1893.000000	17.620900
1892.000000	17.975600
1891.000000	18.387200
1890.000000	18.836800
1889.000000	19.233800
1888.000000	19.610700
1887.000000	20.021800
1886.000000	20.433500
1885.000000	20.876300
1884.000000	21.332500
1883.000000	21.853300
1882.000000	22.377600
1881.000000	22.860500
1880.000000	23.361700
1879.000000	23.812700
1878.000000	24.260100
1877.000000	24.717400
1876.000000	25.171100
1875.000000	25.597700
1874.000000	26.005100
1873.000000	26.380800
1872.000000	26.768900
1871.000000	27.106300
1870.000000	27.416700
1869.000000	27.692200
1868.000000	27.951700
1867.000000	28.178700
1866.000000	28.340400
1865.000000	28.481300
1864.000000	28.627200
1863.000000	28.732100
1862.000000	28.850700
1861.000000	28.976200
1860.000000	29.109300
1859.000000	29.209300
1858.000000	29.305600
1857.000000	29.384600
1856.000000	29.429000
1855.000000	29.459700
1854.000000	29.501300
1853.000000	29.527100
1852.000000	29.521300
1851.000000	29.506200
1850.000000	29.518900
1849.000000	29.547400
1848.000000	29.541700
1847.000000	29.537800
1846.000000	29.517000
1845.000000	29.475400
1844.000000	29.416800
1843.000000	29.383800
1842.000000	29.374000
1841.000000	29.384000
1840.000000	29.385800
1839.000000	29.365300
1838.000000	29.336200
1837.000000	29.294200
1836.000000	29.271900
1835.000000	29.221500
1834.000000	29.160000
1833.000000	29.099600
1832.000000	29.026700
1831.000000	28.968600
1830.000000	28.928300
1829.000000	28.877700
1828.000000	28.833900
1827.000000	28.764300
1826.000000	28.699300
1825.000000	28.651300
1824.000000	28.593000
1823.000000	28.541100
1822.000000	28.519900
1821.000000	28.537700
1820.000000	28.522900
1819.000000	28.486700
1818.000000	28.446500
1817.000000	28.408900
1816.000000	28.399500
1815.000000	28.394000
1814.000000	28.370000
1813.000000	28.345800
1812.000000	28.327700
1811.000000	28.308300
1810.000000	28.273300
1809.000000	28.225500
1808.000000	28.190100
1807.000000	28.154100
1806.000000	28.117700
1805.000000	28.074400
1804.000000	28.026800
1803.000000	27.975200
1802.000000	27.939900
1801.000000	27.899800
1800.000000	27.850500
1799.000000	27.783100
1798.000000	27.731600
1797.000000	27.684900
1796.000000	27.635300
1795.000000	27.604400
1794.000000	27.554900
1793.000000	27.493400
1792.000000	27.446200
1791.000000	27.404500
1790.000000	27.351000
1789.000000	27.302800
1788.000000	27.260100
1787.000000	27.208900
1786.000000	27.159000
1785.000000	27.105400
1784.000000	27.041100
1783.000000	26.981500
1782.000000	26.915700
1781.000000	26.843100
1780.000000	26.778800
1779.000000	26.721000
1778.000000	26.657300
1777.000000	26.591000
1776.000000	26.510500
1775.000000	26.426200
1774.000000	26.345900
1773.000000	26.257300
1772.000000	26.150400
1771.000000	26.043700
1770.000000	25.947100
1769.000000	25.846300
1768.000000	25.741800
1767.000000	25.649700
1766.000000	25.566400
1765.000000	25.502600
1764.000000	25.447000
1763.000000	25.406300
1762.000000	25.375600
1761.000000	25.375800
1760.000000	25.422400
1759.000000	25.478000
1758.000000	25.521100
1757.000000	25.582900
1756.000000	25.642800
1755.000000	25.671300
1754.000000	25.717100
1753.000000	25.774200
1752.000000	25.799300
1751.000000	25.798900
1750.000000	25.791200
1749.000000	25.778300
1748.000000	25.743800
1747.000000	25.691000
1746.000000	25.634500
1745.000000	25.552300
1744.000000	25.443900
1743.000000	25.324400
1742.000000	25.177600
1741.000000	25.031300
1740.000000	24.845500
1739.000000	24.657200
1738.000000	24.458300
1737.000000	24.280700
1736.000000	24.131100
1735.000000	23.992500
1734.000000	23.885600
1733.000000	23.821300
1732.000000	23.797600
1731.000000	23.804900
1730.000000	23.845300
1729.000000	23.911500
1728.000000	23.984000
1727.000000	24.063200
1726.000000	24.133000
1725.000000	24.208500
1724.000000	24.264400
1723.000000	24.318400
1722.000000	24.367100
1721.000000	24.415500
1720.000000	24.463400
1719.000000	24.517600
1718.000000	24.585800
1717.000000	24.658700
1716.000000	24.753500
1715.000000	24.835800
1714.000000	24.923700
1713.000000	25.027400
1712.000000	25.114800
1711.000000	25.194500
1710.000000	25.253900
1709.000000	25.282500
1708.000000	25.297800
1707.000000	25.316500
1706.000000	25.303300
1705.000000	25.280400
1704.000000	25.247900
1703.000000	25.199200
1702.000000	25.115300
1701.000000	25.040000
1700.000000	24.941400
1699.000000	24.804400
1698.000000	24.671500
1697.000000	24.559700
1696.000000	24.430600
1695.000000	24.365000
1694.000000	24.334700
1693.000000	24.322900
1692.000000	24.394700
1691.000000	24.462500
1690.000000	24.580900
1689.000000	24.673200
1688.000000	24.753000
1687.000000	24.830300
1686.000000	24.863100
1685.000000	24.893300
1684.000000	24.946000
1683.000000	25.083900
1682.000000	25.216700
1681.000000	25.486800
1680.000000	25.817100
1679.000000	26.225600
1678.000000	26.655900
1677.000000	27.085800
1676.000000	27.497200
1675.000000	27.870700
1674.000000	28.216200
1673.000000	28.486900
1672.000000	28.747800
1671.000000	28.969200
1670.000000	29.189500
1669.000000	29.340300
1668.000000	29.500500
1667.000000	29.638100
1666.000000	29.740400
1665.000000	29.852100
1664.000000	29.968800
1663.000000	30.046500
1662.000000	30.132200
1661.000000	30.187600
1660.000000	30.273500
1659.000000	30.317300
1658.000000	30.398300
1657.000000	30.406300
1656.000000	30.417600
1655.000000	30.447500
1654.000000	30.466700
1653.000000	30.453900
1652.000000	30.458900
1651.000000	30.451900
1650.000000	30.451800
1649.000000	30.449000
1648.000000	30.409600
1647.000000	30.376800
1646.000000	30.343700
1645.000000	30.298700
1644.000000	30.264600
1643.000000	30.218500
1642.000000	30.184900
1641.000000	30.123600
1640.000000	30.084700
1639.000000	30.039400
1638.000000	29.990900
1637.000000	29.927700
1636.000000	29.902200
1635.000000	29.817500
1634.000000	29.770600
1633.000000	29.722400
1632.000000	29.662900
1631.000000	29.582900
1630.000000	29.523000
1629.000000	29.446900
1628.000000	29.361200
1627.000000	29.305400
1626.000000	29.252400
1625.000000	29.169300
1624.000000	29.114600
1623.000000	29.032900
1622.000000	28.968700
1621.000000	28.893100
1620.000000	28.821600
1619.000000	28.769200
1618.000000	28.704400
1617.000000	28.639000
1616.000000	28.576400
1615.000000	28.506500
1614.000000	28.447100
1613.000000	28.401600
1612.000000	28.324100
1611.000000	28.264600
1610.000000	28.191000
1609.000000	28.130200
1608.000000	28.080700
1607.000000	28.021800
1606.000000	27.960300
1605.000000	27.885000
1604.000000	27.822700
1603.000000	27.755600
1602.000000	27.701700
1601.000000	27.626900
1600.000000	27.560900
1599.000000	27.505700
1598.000000	27.445200
1597.000000	27.386500
1596.000000	27.305100
1595.000000	27.249800
1594.000000	27.203100
1593.000000	27.136800
1592.000000	27.084900
1591.000000	27.031400
1590.000000	26.980100
1589.000000	26.940500
1588.000000	26.906900
1587.000000	26.868000
1586.000000	26.811700
1585.000000	26.748200
1584.000000	26.721300
1583.000000	26.698300
1582.000000	26.652600
1581.000000	26.599500
1580.000000	26.572500
1579.000000	26.532300
1578.000000	26.507400
1577.000000	26.481400
1576.000000	26.476900
1575.000000	26.463200
1574.000000	26.449300
1573.000000	26.441200
1572.000000	26.426200
1571.000000	26.418500
1570.000000	26.411300
1569.000000	26.413900
1568.000000	26.415500
1567.000000	26.408600
1566.000000	26.418300
1565.000000	26.417400
1564.000000	26.414900
1563.000000	26.433100
1562.000000	26.437900
1561.000000	26.431500
1560.000000	26.434600
1559.000000	26.423600
1558.000000	26.406200
1557.000000	26.399300
1556.000000	26.385000
1555.000000	26.368600
1554.000000	26.343500
1553.000000	26.315400
1552.000000	26.286600
1551.000000	26.264200
1550.000000	26.225300
1549.000000	26.189500
1548.000000	26.153900
1547.000000	26.121300
1546.000000	26.096800
1545.000000	26.068600
1544.000000	26.029600
1543.000000	26.007700
1542.000000	25.984900
1541.000000	25.959200
1540.000000	25.935600
1539.000000	25.924400
1538.000000	25.896000
1537.000000	25.878500
1536.000000	25.854600
1535.000000	25.829200
1534.000000	25.813400
1533.000000	25.781400
1532.000000	25.740000
1531.000000	25.695000
1530.000000	25.658200
1529.000000	25.620900
1528.000000	25.590100
1527.000000	25.554900
1526.000000	25.501400
1525.000000	25.467900
1524.000000	25.432400
1523.000000	25.375000
1522.000000	25.334200
1521.000000	25.290700
1520.000000	25.236600
1519.000000	25.194400
1518.000000	25.145500
1517.000000	25.084600
1516.000000	25.037200
1515.000000	24.996400
1514.000000	24.942700
1513.000000	24.872900
1512.000000	24.816400
1511.000000	24.755300
1510.000000	24.698600
1509.000000	24.655600
1508.000000	24.596400
1507.000000	24.526700
1506.000000	24.468800
1505.000000	24.420500
1504.000000	24.363100
1503.000000	24.310900
1502.000000	24.256100
1501.000000	24.200500
1500.000000	24.146100
1499.000000	24.096800
1498.000000	24.065500
1497.000000	24.036600
1496.000000	23.986500
1495.000000	23.930700
1494.000000	23.890000
1493.000000	23.872800
1492.000000	23.850300
1491.000000	23.816800
1490.000000	23.793900
1489.000000	23.770000
1488.000000	23.735900
1487.000000	23.716300
1486.000000	23.706500
1485.000000	23.687600
1484.000000	23.658400
1483.000000	23.632200
1482.000000	23.627800
1481.000000	23.623500
1480.000000	23.614300
1479.000000	23.590800
1478.000000	23.580700
1477.000000	23.581100
1476.000000	23.600500
1475.000000	23.594800
1474.000000	23.593400
1473.000000	23.605400
1472.000000	23.640900
1471.000000	23.654400
1470.000000	23.663400
1469.000000	23.683100
1468.000000	23.693500
1467.000000	23.706300
1466.000000	23.717400
1465.000000	23.743500
1464.000000	23.761000
1463.000000	23.804400
1462.000000	23.849400
1461.000000	23.885500
1460.000000	23.906200
1459.000000	23.947700
1458.000000	23.997300
1457.000000	24.052000
1456.000000	24.112600
1455.000000	24.182500
1454.000000	24.247800
1453.000000	24.313700
1452.000000	24.384300
1451.000000	24.471500
1450.000000	24.557600
1449.000000	24.616900
1448.000000	24.678100
1447.000000	24.775900
1446.000000	24.876900
1445.000000	24.973800
1444.000000	25.050200
1443.000000	25.120600
1442.000000	25.215900
1441.000000	25.335000
1440.000000	25.434900
1439.000000	25.543400
1438.000000	25.651700
1437.000000	25.762000
1436.000000	25.868500
1435.000000	25.990200
1434.000000	26.097900
1433.000000	26.224700
1432.000000	26.367200
1431.000000	26.491900
1430.000000	26.623800
1429.000000	26.763200
1428.000000	26.915400
1427.000000	27.080100
1426.000000	27.267300
1425.000000	27.453300
1424.000000	27.644100
1423.000000	27.862900
1422.000000	28.061800
1421.000000	28.262300
1420.000000	28.492000
1419.000000	28.755000
1418.000000	28.986100
1417.000000	29.238700
1416.000000	29.431600
1415.000000	29.692400
1414.000000	30.007400
1413.000000	30.255200
1412.000000	30.530300
1411.000000	30.778900
1410.000000	31.094400
1409.000000	31.466300
1408.000000	31.827600
1407.000000	32.187000
1406.000000	32.536600
1405.000000	32.912600
1404.000000	33.288300
1403.000000	33.694600
1402.000000	34.037300
1401.000000	34.395700
1400.000000	34.827300
1399.000000	35.228600
1398.000000	35.505000
1397.000000	35.756000
1396.000000	36.059100
1395.000000	36.440000
1394.000000	36.727800
1393.000000	36.950200
1392.000000	37.190100
1391.000000	37.486300
1390.000000	37.768600
1389.000000	38.040600
1388.000000	38.379100
1387.000000	38.768900
1386.000000	39.133500
1385.000000	39.527900
1384.000000	39.938600
1383.000000	40.432300
1382.000000	40.894500
1381.000000	41.291700
1380.000000	41.624400
1379.000000	41.833100
1378.000000	42.014300
1377.000000	42.150300
1376.000000	42.301200
1375.000000	42.454900
1374.000000	42.646300
1373.000000	42.844800
1372.000000	43.116900
1371.000000	43.397800
1370.000000	43.697400
1369.000000	43.949600
1368.000000	44.210200
1367.000000	44.451500
1366.000000	44.653300
1365.000000	44.803600
1364.000000	44.983200
1363.000000	45.130300
1362.000000	45.312800
1361.000000	45.444200
1360.000000	45.580200
1359.000000	45.587700
1358.000000	45.657700
1357.000000	45.743800
1356.000000	45.856800
1355.000000	46.058200
1354.000000	46.351100
1353.000000	46.685400
1352.000000	46.978700
1351.000000	47.399600
1350.000000	47.799900
1349.000000	48.188600
1348.000000	48.524800
1347.000000	48.868900
1346.000000	49.172800
1345.000000	49.468900
1344.000000	49.788600
1343.000000	50.067400
1342.000000	50.323300
1341.000000	50.606700
1340.000000	50.876100
1339.000000	51.120400
1338.000000	51.357900
1337.000000	51.606500
1336.000000	51.852900
1335.000000	52.095500
1334.000000	52.309700
1333.000000	52.529600
1332.000000	52.759500
1331.000000	52.949900
1330.000000	53.156800
1329.000000	53.372600
1328.000000	53.544700
1327.000000	53.713700
1326.000000	53.891900
1325.000000	54.058100
1324.000000	54.218000
1323.000000	54.372200
1322.000000	54.515900
1321.000000	54.665400
1320.000000	54.788600
1319.000000	54.921500
1318.000000	55.035000
1317.000000	55.155700
1316.000000	55.274500
1315.000000	55.389100
1314.000000	55.504300
1313.000000	55.583300
1312.000000	55.691100
1311.000000	55.777500
1310.000000	55.863500
1309.000000	55.947900
1308.000000	56.025100
1307.000000	56.094400
1306.000000	56.146800
1305.000000	56.204800
1304.000000	56.255300
1303.000000	56.294100
1302.000000	56.328200
1301.000000	56.360500
1300.000000	56.388700
1299.000000	56.405600
1298.000000	56.429900
1297.000000	56.437600
1296.000000	56.442000
1295.000000	56.452800
1294.000000	56.457200
1293.000000	56.465900
1292.000000	56.458400
1291.000000	56.430500
1290.000000	56.429900
1289.000000	56.414000
1288.000000	56.392800
1287.000000	56.362000
1286.000000	56.318900
1285.000000	56.278500
1284.000000	56.235000
1283.000000	56.185900
1282.000000	56.137500
1281.000000	56.086100
1280.000000	56.030200
1279.000000	55.973100
1278.000000	55.931600
1277.000000	55.886600
1276.000000	55.840200
1275.000000	55.789600
1274.000000	55.751100
1273.000000	55.717400
1272.000000	55.682800
1271.000000	55.665000
1270.000000	55.636200
1269.000000	55.592100
1268.000000	55.552400
1267.000000	55.530000
1266.000000	55.506100
1265.000000	55.474700
1264.000000	55.444200
1263.000000	55.394600
1262.000000	55.364800
1261.000000	55.344600
1260.000000	55.306100
1259.000000	55.269600
1258.000000	55.255300
1257.000000	55.213400
1256.000000	55.160500
1255.000000	55.128700
1254.000000	55.098000
1253.000000	55.064100
1252.000000	55.012900
1251.000000	54.958600
1250.000000	54.910300
1249.000000	54.839800
1248.000000	54.765800
1247.000000	54.702800
1246.000000	54.611600
1245.000000	54.516000
1244.000000	54.428400
1243.000000	54.335900
1242.000000	54.242300
1241.000000	54.130500
1240.000000	54.005200
1239.000000	53.894600
1238.000000	53.790100
1237.000000	53.674800
1236.000000	53.543800
1235.000000	53.420900
1234.000000	53.297500
1233.000000	53.157500
1232.000000	53.020100
1231.000000	52.885400
1230.000000	52.746600
1229.000000	52.609400
1228.000000	52.462000
1227.000000	52.306300
1226.000000	52.172100
1225.000000	52.031400
1224.000000	51.874100
1223.000000	51.727200
1222.000000	51.579900
1221.000000	51.431900
1220.000000	51.297300
1219.000000	51.155900
1218.000000	51.014500
1217.000000	50.891400
1216.000000	50.774700
1215.000000	50.660600
1214.000000	50.543400
1213.000000	50.430800
1212.000000	50.331000
1211.000000	50.231500
1210.000000	50.120600
1209.000000	50.030700
1208.000000	49.952400
1207.000000	49.878200
1206.000000	49.801100
1205.000000	49.722900
1204.000000	49.677800
1203.000000	49.640400
1202.000000	49.600800
1201.000000	49.561000
1200.000000	49.538400
1199.000000	49.484000
1198.000000	49.430800
1197.000000	49.362200
1196.000000	49.264100
1195.000000	49.132800
1194.000000	48.950500
1193.000000	48.723500
1192.000000	48.463300
1191.000000	48.154500
1190.000000	47.810300
1189.000000	47.498600
1188.000000	47.213700
1187.000000	46.970400
1186.000000	46.822500
1185.000000	46.778300
1184.000000	46.821300
1183.000000	46.961300
1182.000000	47.203200
1181.000000	47.512200
1180.000000	47.878000
1179.000000	48.277600
1178.000000	48.662400
1177.000000	49.003900
1176.000000	49.310500
1175.000000	49.580100
1174.000000	49.819400
1173.000000	50.074900
1172.000000	50.308100
1171.000000	50.555300
1170.000000	50.811100
1169.000000	51.062500
1168.000000	51.331000
1167.000000	51.612200
1166.000000	51.905600
1165.000000	52.192700
1164.000000	52.475300
1163.000000	52.766200
1162.000000	53.078600
1161.000000	53.389400
1160.000000	53.677300
1159.000000	53.963600
1158.000000	54.267700
1157.000000	54.527400
1156.000000	54.773400
1155.000000	55.010200
1154.000000	55.205200
1153.000000	55.395800
1152.000000	55.515300
1151.000000	55.603100
1150.000000	55.665700
1149.000000	55.733600
1148.000000	55.789400
1147.000000	55.847700
1146.000000	55.926800
1145.000000	56.052900
1144.000000	56.232500
1143.000000	56.431000
1142.000000	56.684100
1141.000000	56.959300
1140.000000	57.258900
1139.000000	57.559800
1138.000000	57.878600
1137.000000	58.207500
1136.000000	58.551300
1135.000000	58.900300
1134.000000	59.283200
1133.000000	59.606300
1132.000000	59.901500
1131.000000	60.193800
1130.000000	60.462400
1129.000000	60.707200
1128.000000	60.914900
1127.000000	61.088200
1126.000000	61.224100
1125.000000	61.345800
1124.000000	61.443600
1123.000000	61.528600
1122.000000	61.606600
1121.000000	61.658000
1120.000000	61.694100
1119.000000	61.744000
1118.000000	61.764500
1117.000000	61.785100
1116.000000	61.795000
1115.000000	61.767000
1114.000000	61.769800
1113.000000	61.769600
1112.000000	61.762100
1111.000000	61.748500
1110.000000	61.748800
1109.000000	61.734100
1108.000000	61.710200
1107.000000	61.683000
1106.000000	61.682800
1105.000000	61.662800
1104.000000	61.653800
1103.000000	61.642700
1102.000000	61.641900
1101.000000	61.591400
1100.000000	61.579200
1099.000000	61.558800
1098.000000	61.534400
1097.000000	61.508500
1096.000000	61.481800
1095.000000	61.455200
1094.000000	61.433400
1093.000000	61.403400
1092.000000	61.367700
1091.000000	61.326600
1090.000000	61.292100
1089.000000	61.267900
1088.000000	61.202100
1087.000000	61.181400
1086.000000	61.109800
1085.000000	61.084300
1084.000000	61.044100
1083.000000	61.001600
1082.000000	60.942300
1081.000000	60.927700
1080.000000	60.871900
1079.000000	60.843100
1078.000000	60.808500
1077.000000	60.730500
1076.000000	60.699100
1075.000000	60.658200
1074.000000	60.614800
1073.000000	60.558000
1072.000000	60.515600
1071.000000	60.495500
1070.000000	60.444500
1069.000000	60.385900
1068.000000	60.349900
1067.000000	60.291600
1066.000000	60.246100
1065.000000	60.194700
1064.000000	60.150600
1063.000000	60.093900
1062.000000	60.056300
1061.000000	60.002200
1060.000000	59.947200
1059.000000	59.884500
1058.000000	59.837500
1057.000000	59.764900
1056.000000	59.717800
1055.000000	59.629700
1054.000000	59.577400
1053.000000	59.537200
1052.000000	59.489400
1051.000000	59.405700
1050.000000	59.351600
1049.000000	59.296300
1048.000000	59.241900
1047.000000	59.198800
1046.000000	59.156200
1045.000000	59.097200
1044.000000	59.046700
1043.000000	59.006200
1042.000000	58.956100
1041.000000	58.928200
1040.000000	58.868000
1039.000000	58.835000
1038.000000	58.792300
1037.000000	58.735800
1036.000000	58.675200
1035.000000	58.650300
1034.000000	58.609800
1033.000000	58.557300
1032.000000	58.506600
1031.000000	58.475900
1030.000000	58.417100
1029.000000	58.385200
1028.000000	58.335000
1027.000000	58.288500
1026.000000	58.233400
1025.000000	58.186600
1024.000000	58.143500
1023.000000	58.090200
1022.000000	58.038600
1021.000000	57.998600
1020.000000	57.945100
1019.000000	57.896600
1018.000000	57.862000
1017.000000	57.827200
1016.000000	57.788700
1015.000000	57.761100
1014.000000	57.714800
1013.000000	57.701600
1012.000000	57.675500
1011.000000	57.667400
1010.000000	57.648600
1009.000000	57.644100
1008.000000	57.637900
1007.000000	57.638000
1006.000000	57.645800
1005.000000	57.671200
1004.000000	57.669900
1003.000000	57.687900
1002.000000	57.694200
1001.000000	57.698300
1000.000000	57.717300
999.000000	57.734000
998.000000	57.749300
997.000000	57.789200
996.000000	57.805000
995.000000	57.838000
994.000000	57.870700
993.000000	57.904800
992.000000	57.948100
991.000000	57.988000
990.000000	58.032700
989.000000	58.080600
988.000000	58.121300
987.000000	58.181400
986.000000	58.245800
985.000000	58.323200
984.000000	58.374400
983.000000	58.437800
982.000000	58.505800
981.000000	58.570600
980.000000	58.637900
979.000000	58.712500
978.000000	58.794100
977.000000	58.869000
976.000000	58.942500
975.000000	59.020000
974.000000	59.103800
973.000000	59.171200
972.000000	59.241500
971.000000	59.331500
970.000000	59.413800
969.000000	59.491000
968.000000	59.564300
967.000000	59.635400
966.000000	59.726100
965.000000	59.824300
964.000000	59.913900
963.000000	60.008000
962.000000	60.111800
961.000000	60.232000
960.000000	60.345600
959.000000	60.450900
958.000000	60.560100
957.000000	60.689800
956.000000	60.824700
955.000000	60.942000
954.000000	61.063200
953.000000	61.195500
952.000000	61.326400
951.000000	61.466800
950.000000	61.613800
949.000000	61.756200
948.000000	61.885600
947.000000	62.012100
946.000000	62.152900
945.000000	62.285300
944.000000	62.422200
943.000000	62.558300
942.000000	62.673800
941.000000	62.799300
940.000000	62.921200
939.000000	63.043100
938.000000	63.167700
937.000000	63.276200
936.000000	63.407800
935.000000	63.535300
934.000000	63.653500
933.000000	63.777100
932.000000	63.890400
931.000000	64.005000
930.000000	64.103600
929.000000	64.208300
928.000000	64.344500
927.000000	64.432000
926.000000	64.509100
925.000000	64.611400
924.000000	64.705700
923.000000	64.828100
922.000000	64.936400
921.000000	65.018000
920.000000	65.116000
919.000000	65.222700
918.000000	65.329200
917.000000	65.410200
916.000000	65.514300
915.000000	65.622400
914.000000	65.739400
913.000000	65.847800
912.000000	65.970600
911.000000	66.081200
910.000000	66.193100
909.000000	66.306900
908.000000	66.426800
907.000000	66.542600
906.000000	66.670300
905.000000	66.799100
904.000000	66.929500
903.000000	67.054900
902.000000	67.191700
901.000000	67.325200
900.000000	67.452000
899.000000	67.580900
898.000000	67.701400
897.000000	67.823300
896.000000	67.941400
895.000000	68.048000
894.000000	68.150900
893.000000	68.267000
892.000000	68.374800
891.000000	68.461700
890.000000	68.550600
889.000000	68.638400
888.000000	68.712800
887.000000	68.795000
886.000000	68.905600
885.000000	68.975900
884.000000	69.036900
883.000000	69.114000
882.000000	69.177200
881.000000	69.247400
880.000000	69.316800
879.000000	69.385900
878.000000	69.442400
877.000000	69.499300
876.000000	69.547600
875.000000	69.609500
874.000000	69.618500
873.000000	69.599100
872.000000	69.581000
871.000000	69.576800
870.000000	69.522000
869.000000	69.444900
868.000000	69.433900
867.000000	69.521700
866.000000	69.679200
865.000000	69.824300
864.000000	69.962400
863.000000	70.094500
862.000000	70.226900
861.000000	70.364600
860.000000	70.500500
859.000000	70.631400
858.000000	70.779900
857.000000	70.582560
856.000000	70.493189
855.000000	70.561318
854.000000	71.090302
853.000000	71.025402
852.000000	71.017963
851.000000	71.092064
850.000000	71.349703
849.000000	71.276777
848.000000	71.689666
847.000000	71.761320
846.000000	71.940160
845.000000	71.620068
844.000000	71.786183
843.000000	71.888769
842.000000	71.808012
841.000000	72.336506
840.000000	71.920778
839.000000	71.995270
838.000000	71.825632
837.000000	71.935070
836.000000	72.257315
835.000000	72.099422
834.000000	72.129180
833.000000	72.036872
832.000000	72.056156
831.000000	72.267006
830.000000	72.447314
829.000000	72.698787
828.000000	72.772985
827.000000	72.882130
826.000000	73.225617
825.000000	73.222484
824.000000	73.548057
823.000000	73.787098
822.000000	74.022224
821.000000	74.314418
820.000000	74.748744
819.000000	75.103977
818.000000	75.422209
817.000000	75.557293
816.000000	76.076096
815.000000	76.641004
814.000000	76.766790
813.000000	76.936624
812.000000	77.509167
811.000000	77.913442
810.000000	78.336413
809.000000	78.939595
808.000000	79.131846
807.000000	79.646538
806.000000	79.802081
805.000000	80.159957
804.000000	80.676900
803.000000	80.947363
802.000000	81.399211
801.000000	81.551719
800.000000	82.170955
799.000000	82.418610
798.000000	82.787058
797.000000	82.892580
796.000000	83.118211
795.000000	83.473346
794.000000	83.449559
793.000000	83.713464
792.000000	83.912958
791.000000	84.417078
790.000000	84.284441
789.000000	84.544136
788.000000	84.832218
787.000000	84.855418
786.000000	84.792966
785.000000	84.852187
784.000000	84.891440
783.000000	85.201449
782.000000	85.107086
781.000000	85.281423
780.000000	85.296890
779.000000	85.539455
778.000000	85.478275
777.000000	85.647033
776.000000	85.847212
775.000000	85.948819
774.000000	86.102796
773.000000	86.174156
772.000000	86.276742
771.000000	86.397927
770.000000	86.561888
769.000000	86.718899
768.000000	86.649497
767.000000	86.911052
766.000000	87.098898
765.000000	87.234178
764.000000	87.296826
763.000000	87.511591
762.000000	87.595383
761.000000	87.600473
760.000000	87.621714
759.000000	87.550550
758.000000	87.623281
757.000000	87.754058
756.000000	87.797031
755.000000	87.809952
754.000000	87.688180
753.000000	87.618386
752.000000	87.782543
751.000000	87.629545
750.000000	87.460690
749.000000	87.498572
748.000000	87.431813
747.000000	87.412823
746.000000	87.319536
745.000000	87.269907
744.000000	87.161057
743.000000	87.129733
742.000000	87.200701
741.000000	87.057394
740.000000	87.021175
739.000000	86.921232
738.000000	86.830393
737.000000	86.660265
736.000000	86.572166
735.000000	86.438452
734.000000	86.365526
733.000000	86.216639
732.000000	86.070689
731.000000	85.784662
730.000000	85.575477
729.000000	85.355426
728.000000	85.093480
727.000000	84.827813
726.000000	84.583780
725.000000	84.398871
724.000000	84.062139
723.000000	83.749193
722.000000	83.384856
721.000000	83.042740
720.000000	82.707475
719.000000	82.424385
718.000000	82.099008
717.000000	81.716953
716.000000	81.423389
715.000000	80.938553
714.000000	80.545535
713.000000	80.191868
712.000000	79.778000
711.000000	79.410140
710.000000	79.058235
709.000000	78.714552
708.000000	78.367835
707.000000	78.090716
706.000000	77.819079
705.000000	77.562907
704.000000	77.303995
703.000000	77.107731
702.000000	76.932611
701.000000	76.798897
700.000000	76.653534
699.000000	76.588830
698.000000	76.506899
697.000000	76.419387
696.000000	76.342056
695.000000	76.310928
694.000000	76.280094
693.000000	76.242113
692.000000	76.254153
691.000000	76.220480
690.000000	76.156658
689.000000	76.066308
688.000000	76.062001
687.000000	76.051527
686.000000	75.892655
685.000000	75.800152
684.000000	75.661152
683.000000	75.442569
682.000000	75.238866
681.000000	75.076666
680.000000	74.844967
679.000000	74.616204
678.000000	74.331939
677.000000	74.023594
676.000000	73.725919
675.000000	73.421587
674.000000	73.091217
673.000000	72.704464
672.000000	72.262307
671.000000	71.859696
670.000000	71.387977
669.000000	70.870838
668.000000	70.359670
667.000000	69.812872
666.000000	69.234651
665.000000	68.629511
664.000000	67.956046
663.000000	67.277883
662.000000	66.558411
661.000000	65.784220
660.000000	64.955016
659.000000	64.181314
658.000000	63.382260
657.000000	62.570676
656.000000	61.717685
655.000000	60.900521
654.000000	60.067892
653.000000	59.171146
652.000000	58.293585
651.000000	57.410837
650.000000	56.538759
649.000000	55.767406
648.000000	55.062715
647.000000	54.410590
646.000000	53.866238
645.000000	53.364174
644.000000	52.971743
643.000000	52.732311
642.000000	52.601827
641.000000	52.633640
640.000000	52.796917
639.000000	53.096158
638.000000	53.592153
637.000000	54.183197
636.000000	54.887595
635.000000	55.765351
634.000000	56.691169
633.000000	57.676797
632.000000	58.771080
631.000000	59.902462
630.000000	61.030516
629.000000	62.149466
628.000000	63.287603
627.000000	64.360644
626.000000	65.373582
625.000000	66.390632
624.000000	67.383993
623.000000	68.328410
622.000000	69.233966
621.000000	70.078538
620.000000	70.896387
619.000000	71.642582
618.000000	72.423430
617.000000	73.226791
616.000000	73.898690
615.000000	74.560017
614.000000	75.231524
613.000000	75.878560
612.000000	76.506507
611.000000	77.087566
610.000000	77.611753
609.000000	78.082298
608.000000	78.570168
607.000000	79.026715
606.000000	79.427662
605.000000	79.827825
604.000000	80.165439
603.000000	80.476133
602.000000	80.817564
601.000000	81.078434
600.000000	81.328047
599.000000	81.572961
598.000000	81.843326
597.000000	82.048008
596.000000	82.225772
595.000000	82.418316
594.000000	82.589130
593.000000	82.698078
592.000000	82.794889
591.000000	82.879463
590.000000	82.975491
589.000000	83.041663
588.000000	83.075238
587.000000	83.131034
586.000000	83.179195
585.000000	83.153352
584.000000	83.132209
583.000000	83.180957
582.000000	83.125357
581.000000	83.034028
580.000000	82.995068
579.000000	82.905991
578.000000	82.831303
577.000000	82.721473
576.000000	82.566518
575.000000	82.445333
574.000000	82.295370
573.000000	82.105174
572.000000	81.908029
571.000000	81.670750
570.000000	81.432493
569.000000	81.196290
568.000000	80.992195
567.000000	80.707441
566.000000	80.426602
565.000000	80.159859
564.000000	79.836341
563.000000	79.543267
562.000000	79.208981
561.000000	78.868627
560.000000	78.548927
559.000000	78.189387
558.000000	77.871253
557.000000	77.517781
556.000000	77.127504
555.000000	76.757588
554.000000	76.328156
553.000000	75.876308
552.000000	75.421132
551.000000	74.905266
550.000000	74.419353
549.000000	73.837608
548.000000	73.267317
547.000000	72.679014
546.000000	72.063694
545.000000	71.422434
544.000000	70.757387
543.000000	70.043984
542.000000	69.310514
541.000000	68.563633
540.000000	67.775640
539.000000	66.948100
538.000000	66.132503
537.000000	65.239672
536.000000	64.331473
535.000000	63.359550
534.000000	62.360511
533.000000	61.313117
532.000000	60.233223
531.000000	59.110749
530.000000	57.972515
529.000000	56.808830
528.000000	55.641327
527.000000	54.462176
526.000000	53.268146
525.000000	52.102993
524.000000	50.914641
523.000000	49.739894
522.000000	48.628090
521.000000	47.490345
520.000000	46.414269
519.000000	45.345242
518.000000	44.338862
517.000000	43.366938
516.000000	42.401573
515.000000	41.501792
514.000000	40.660940
513.000000	39.815976
512.000000	39.022110
511.000000	38.279047
510.000000	37.551842
509.000000	36.903044
508.000000	36.247591
507.000000	35.670936
506.000000	35.128640
505.000000	34.560208
504.000000	34.008221
503.000000	33.559408
502.000000	33.077900
501.000000	32.602167
500.000000	32.123792
499.000000	31.680558
498.000000	31.215593
497.000000	30.782637
496.000000	30.420650
495.000000	30.008250
494.000000	29.612785
493.000000	29.280458
492.000000	28.931196
491.000000	28.627941
490.000000	28.336824
489.000000	28.015753
488.000000	27.759288
487.000000	27.573009
486.000000	27.405230
485.000000	27.188801
484.000000	27.006437
483.000000	26.894747
482.000000	26.777184
481.000000	26.674207
480.000000	26.600694
479.000000	26.529432
478.000000	26.480488
477.000000	26.433306
476.000000	26.409715
475.000000	26.397577
474.000000	26.398948
473.000000	26.382698
472.000000	26.385929
471.000000	26.381034
470.000000	26.410890
469.000000	26.423811
468.000000	26.412946
467.000000	26.406289
466.000000	26.418134
465.000000	26.407366
464.000000	26.354017
463.000000	26.338160
462.000000	26.305172
461.000000	26.262689
460.000000	26.201313
459.000000	26.155796
458.000000	26.081988
457.000000	25.972844
456.000000	25.896688
455.000000	25.791459
454.000000	25.693376
453.000000	25.557900
452.000000	25.446112
451.000000	25.256211
450.000000	25.098318
449.000000	24.953445
448.000000	24.765306
447.000000	24.563560
446.000000	24.337048
445.000000	24.135107
444.000000	23.899394
443.000000	23.686391
442.000000	23.397526
441.000000	23.137928
440.000000	22.843875
439.000000	22.554911
438.000000	22.291301
437.000000	21.970230
436.000000	21.644657
435.000000	21.338465
434.000000	20.986168
433.000000	20.647968
432.000000	20.255635
431.000000	19.908820
430.000000	19.561516
429.000000	19.166149
428.000000	18.766279
427.000000	18.381973
426.000000	18.003443
425.000000	17.577926
424.000000	17.190782
423.000000	16.750191
422.000000	16.365200
421.000000	15.926567
420.000000	15.526207
419.000000	15.147188
418.000000	14.734494
417.000000	14.330220
416.000000	13.898341
415.000000	13.510119
414.000000	13.119255
413.000000	12.739159
412.000000	12.372668
411.000000	12.015869
410.000000	11.641254
409.000000	11.325371
408.000000	11.025542
407.000000	10.694487
406.000000	10.407482
405.000000	10.167951
404.000000	9.891126
403.000000	9.637891
402.000000	9.399438
401.000000	9.185848
400.000000	8.976466
399.000000	8.749759
398.000000	8.560347
397.000000	8.385520
396.000000	8.240060
395.000000	8.085202
394.000000	7.928093
393.000000	7.818067
392.000000	7.694534
391.000000	7.583040
390.000000	7.457548
389.000000	7.346544
388.000000	7.238183
387.000000	7.138240
386.000000	7.066978
385.000000	7.017447
384.000000	6.910260
383.000000	6.835964
382.000000	6.763723
381.000000	6.713311
380.000000	6.661822
379.000000	6.585176
378.000000	6.545434
377.000000	6.493554
376.000000	6.484744
375.000000	6.433451
374.000000	6.160051
373.000000	6.023205
372.000000	6.151242
371.000000	6.255687
370.000000	6.250499
369.000000	6.115513
368.000000	6.073030
367.000000	6.167001
366.000000	6.116492
365.000000	5.994524
364.000000	5.965451
363.000000	5.968388
362.000000	5.957718
361.000000	5.943427
360.000000	5.911320
359.000000	5.885477
358.000000	5.859048
357.000000	5.819501
356.000000	5.806972
355.000000	5.855132
354.000000	5.738059
353.000000	5.758126
352.000000	5.733752
351.000000	5.740702
350.000000	5.844560
349.000000	5.792778
348.000000	5.814509
347.000000	5.721320
346.000000	5.583005
345.000000	5.550017
344.000000	5.663175
343.000000	5.819991
342.000000	5.789646
341.000000	5.798847
340.000000	5.872654
339.000000	5.780346
338.000000	5.759692
337.000000	5.804525
336.000000	5.690094
335.000000	5.724942
334.000000	5.788275
333.000000	5.757049
332.000000	5.663077
331.000000	5.683242
330.000000	5.976415
329.000000	5.969758
328.000000	5.715643
327.000000	5.596514
326.000000	5.710553
325.000000	5.827234
324.000000	5.916312
323.000000	6.141257
322.000000	5.962613
321.000000	5.877646
320.000000	6.136461
319.000000	6.221329
318.000000	6.259701
317.000000	6.029176
316.000000	5.613448
315.000000	5.459472
314.000000	5.444103
313.000000	5.431476
312.000000	5.438915
311.000000	5.473665
310.000000	5.476993
309.000000	5.462310
308.000000	5.463093
307.000000	5.482867
306.000000	5.455556
305.000000	5.430007
304.000000	5.466422
303.000000	5.484139
302.000000	5.522805
301.000000	5.549332
300.000000	5.496571
299.000000	5.457024
298.000000	5.503619
297.000000	5.518008
296.000000	5.547179
295.000000	5.569008
294.000000	5.559806
293.000000	5.546493
292.000000	5.564211
291.000000	5.578503
290.000000	5.581243
289.000000	5.594654
288.000000	5.600136
287.000000	5.599548
286.000000	5.645164
285.000000	5.622943
284.000000	5.621475
283.000000	5.676586
282.000000	5.687060
281.000000	5.696653
280.000000	5.694793
279.000000	5.677271
278.000000	5.698610
277.000000	5.700960
276.000000	5.715545
275.000000	5.736884
274.000000	5.725334
273.000000	5.743149
272.000000	5.740506
271.000000	5.773592
270.000000	5.772320
269.000000	5.735024
268.000000	5.758420
267.000000	5.822927
266.000000	5.831737
265.000000	5.864921
264.000000	5.897322
263.000000	5.930408
262.000000	5.902901
261.000000	5.936085
260.000000	5.935498
259.000000	5.987868
258.000000	5.972891
257.000000	6.004215
256.000000	6.018506
255.000000	6.006858
254.000000	6.022422
253.000000	6.033972
252.000000	6.007151
251.000000	6.041020
250.000000	6.104060
