PE UV       SUBTECH     SPECTRUM    ASCII       PEDS        4.00        
   -1
CICIMAUCR0201-3.Sample.ASC
24/05/31
16:20:21.00
24/05/31
16:20:21.00
Vinicio Soto Monge
C. cupreomarginata. Sex F. Dorsal
250,000000
1
Lambda 1050
1050L1511233
PerkinElmer UV WinLab 6.3.2.0749 / 2.02.05 Lambda 900 UV/VIS/NIR, Aug  7 2015 09:38:08

0
0
3350/servo 860,8/2
0
0
UV/VIS
1
1
1
DoubleDePol,CommonBeamDepol,RBeamAtt,SBeamAtt,60mm sphere, WB InGaAs Detector
0
0
0
0
Program
Program
3350/servo 860,8/2
3350/0,2 860,8/0,2
3350/0,2 860,8/0,2
0
15.00
 
 
 
0
 
860,8
319,2
860,8
Front
100
on
S:100 R:100
0
0
0
0
 
0
 
 
 
0
 
 
0
0
0
0
0
 
 
 
 
0
0


0
0
#HDR
-1
-1
#GR
nm
%R
1.0
0.0
2500,000000
-1,000000
2251
8
69,649100
5,880400
#DATA
2500.000000	9.849900
2499.000000	9.909700
2498.000000	9.807900
2497.000000	9.929400
2496.000000	9.782100
2495.000000	9.831400
2494.000000	9.762900
2493.000000	9.809100
2492.000000	9.640400
2491.000000	9.750000
2490.000000	9.623600
2489.000000	9.707300
2488.000000	9.582300
2487.000000	9.625200
2486.000000	9.606900
2485.000000	9.592300
2484.000000	9.621800
2483.000000	9.653800
2482.000000	9.659800
2481.000000	9.581000
2480.000000	9.564900
2479.000000	9.552000
2478.000000	9.606700
2477.000000	9.651500
2476.000000	9.566900
2475.000000	9.578400
2474.000000	9.630000
2473.000000	9.637000
2472.000000	9.654400
2471.000000	9.652200
2470.000000	9.647600
2469.000000	9.665000
2468.000000	9.695800
2467.000000	9.718200
2466.000000	9.741400
2465.000000	9.773700
2464.000000	9.826000
2463.000000	9.853000
2462.000000	9.859000
2461.000000	9.910100
2460.000000	9.954300
2459.000000	10.040600
2458.000000	10.086200
2457.000000	10.158200
2456.000000	10.223300
2455.000000	10.308800
2454.000000	10.370400
2453.000000	10.438500
2452.000000	10.514200
2451.000000	10.622500
2450.000000	10.720100
2449.000000	10.810500
2448.000000	10.902000
2447.000000	10.995800
2446.000000	11.097600
2445.000000	11.177400
2444.000000	11.292300
2443.000000	11.378900
2442.000000	11.471000
2441.000000	11.549200
2440.000000	11.649400
2439.000000	11.746500
2438.000000	11.835400
2437.000000	11.896900
2436.000000	11.951900
2435.000000	12.071500
2434.000000	12.148000
2433.000000	12.226100
2432.000000	12.285200
2431.000000	12.354800
2430.000000	12.435000
2429.000000	12.511700
2428.000000	12.570900
2427.000000	12.641300
2426.000000	12.717700
2425.000000	12.766000
2424.000000	12.810200
2423.000000	12.861000
2422.000000	12.908600
2421.000000	12.954700
2420.000000	13.005500
2419.000000	13.042200
2418.000000	13.093600
2417.000000	13.149300
2416.000000	13.190600
2415.000000	13.212400
2414.000000	13.247300
2413.000000	13.289800
2412.000000	13.341900
2411.000000	13.364900
2410.000000	13.410600
2409.000000	13.457500
2408.000000	13.482400
2407.000000	13.508100
2406.000000	13.551000
2405.000000	13.584500
2404.000000	13.605100
2403.000000	13.645100
2402.000000	13.682800
2401.000000	13.721400
2400.000000	13.764700
2399.000000	13.800400
2398.000000	13.846100
2397.000000	13.897400
2396.000000	13.931100
2395.000000	13.958700
2394.000000	13.982100
2393.000000	14.002600
2392.000000	14.032600
2391.000000	14.062200
2390.000000	14.093700
2389.000000	14.113000
2388.000000	14.117900
2387.000000	14.147800
2386.000000	14.163200
2385.000000	14.163500
2384.000000	14.174300
2383.000000	14.178000
2382.000000	14.174100
2381.000000	14.168800
2380.000000	14.161900
2379.000000	14.158300
2378.000000	14.149800
2377.000000	14.135600
2376.000000	14.115100
2375.000000	14.094300
2374.000000	14.079600
2373.000000	14.055200
2372.000000	14.032700
2371.000000	14.003900
2370.000000	13.969700
2369.000000	13.918200
2368.000000	13.871500
2367.000000	13.835100
2366.000000	13.786900
2365.000000	13.727000
2364.000000	13.666100
2363.000000	13.609300
2362.000000	13.548700
2361.000000	13.480400
2360.000000	13.408600
2359.000000	13.337400
2358.000000	13.276700
2357.000000	13.220300
2356.000000	13.164400
2355.000000	13.109500
2354.000000	13.065800
2353.000000	13.038700
2352.000000	13.015400
2351.000000	12.997300
2350.000000	13.007900
2349.000000	13.025000
2348.000000	13.027400
2347.000000	13.051900
2346.000000	13.096500
2345.000000	13.128400
2344.000000	13.179500
2343.000000	13.228300
2342.000000	13.265300
2341.000000	13.300000
2340.000000	13.334200
2339.000000	13.370200
2338.000000	13.393500
2337.000000	13.416900
2336.000000	13.430500
2335.000000	13.431100
2334.000000	13.413300
2333.000000	13.393300
2332.000000	13.388400
2331.000000	13.352300
2330.000000	13.293400
2329.000000	13.235600
2328.000000	13.189100
2327.000000	13.128000
2326.000000	13.046600
2325.000000	12.967400
2324.000000	12.885300
2323.000000	12.793900
2322.000000	12.683200
2321.000000	12.574900
2320.000000	12.450200
2319.000000	12.315100
2318.000000	12.169800
2317.000000	12.034900
2316.000000	11.891600
2315.000000	11.740400
2314.000000	11.604800
2313.000000	11.469200
2312.000000	11.326800
2311.000000	11.187400
2310.000000	11.075700
2309.000000	10.987500
2308.000000	10.920400
2307.000000	10.855300
2306.000000	10.817900
2305.000000	10.803700
2304.000000	10.796000
2303.000000	10.829800
2302.000000	10.887900
2301.000000	10.955200
2300.000000	11.034800
2299.000000	11.117500
2298.000000	11.211500
2297.000000	11.319700
2296.000000	11.436900
2295.000000	11.553100
2294.000000	11.646300
2293.000000	11.731000
2292.000000	11.825100
2291.000000	11.896500
2290.000000	11.941600
2289.000000	11.969500
2288.000000	12.010300
2287.000000	12.021400
2286.000000	12.015500
2285.000000	12.003500
2284.000000	11.990300
2283.000000	11.960700
2282.000000	11.918400
2281.000000	11.855800
2280.000000	11.784300
2279.000000	11.748600
2278.000000	11.689500
2277.000000	11.635100
2276.000000	11.592700
2275.000000	11.545900
2274.000000	11.524400
2273.000000	11.506600
2272.000000	11.473400
2271.000000	11.480700
2270.000000	11.504100
2269.000000	11.542500
2268.000000	11.589200
2267.000000	11.667600
2266.000000	11.786600
2265.000000	11.914500
2264.000000	12.066100
2263.000000	12.239000
2262.000000	12.454000
2261.000000	12.691100
2260.000000	12.908300
2259.000000	13.180500
2258.000000	13.462900
2257.000000	13.743600
2256.000000	14.039200
2255.000000	14.359800
2254.000000	14.634500
2253.000000	14.938100
2252.000000	15.234400
2251.000000	15.514800
2250.000000	15.774900
2249.000000	16.020500
2248.000000	16.255800
2247.000000	16.506000
2246.000000	16.696600
2245.000000	16.909100
2244.000000	17.071600
2243.000000	17.249900
2242.000000	17.384800
2241.000000	17.532200
2240.000000	17.640800
2239.000000	17.771800
2238.000000	17.882800
2237.000000	17.971900
2236.000000	18.064400
2235.000000	18.132600
2234.000000	18.209100
2233.000000	18.259700
2232.000000	18.319900
2231.000000	18.352300
2230.000000	18.382500
2229.000000	18.408000
2228.000000	18.421900
2227.000000	18.407900
2226.000000	18.406800
2225.000000	18.412400
2224.000000	18.386100
2223.000000	18.356000
2222.000000	18.338500
2221.000000	18.303500
2220.000000	18.276800
2219.000000	18.222000
2218.000000	18.186900
2217.000000	18.129100
2216.000000	18.095900
2215.000000	18.064000
2214.000000	18.001700
2213.000000	17.945400
2212.000000	17.911500
2211.000000	17.869700
2210.000000	17.827900
2209.000000	17.777600
2208.000000	17.725900
2207.000000	17.682900
2206.000000	17.664400
2205.000000	17.635700
2204.000000	17.611400
2203.000000	17.582500
2202.000000	17.545100
2201.000000	17.523500
2200.000000	17.510500
2199.000000	17.457800
2198.000000	17.454100
2197.000000	17.429400
2196.000000	17.430300
2195.000000	17.397400
2194.000000	17.367300
2193.000000	17.368700
2192.000000	17.341200
2191.000000	17.331400
2190.000000	17.321600
2189.000000	17.312600
2188.000000	17.263600
2187.000000	17.256800
2186.000000	17.235600
2185.000000	17.215500
2184.000000	17.179500
2183.000000	17.167800
2182.000000	17.145400
2181.000000	17.127100
2180.000000	17.118600
2179.000000	17.098200
2178.000000	17.071200
2177.000000	17.055200
2176.000000	17.068400
2175.000000	17.078700
2174.000000	17.055700
2173.000000	17.067900
2172.000000	17.070900
2171.000000	17.066700
2170.000000	17.105200
2169.000000	17.117800
2168.000000	17.126600
2167.000000	17.150500
2166.000000	17.187800
2165.000000	17.221200
2164.000000	17.237500
2163.000000	17.264300
2162.000000	17.306500
2161.000000	17.362100
2160.000000	17.399500
2159.000000	17.456000
2158.000000	17.500100
2157.000000	17.542900
2156.000000	17.615200
2155.000000	17.661500
2154.000000	17.725400
2153.000000	17.793400
2152.000000	17.852300
2151.000000	17.913900
2150.000000	17.976100
2149.000000	18.051200
2148.000000	18.114700
2147.000000	18.172600
2146.000000	18.232100
2145.000000	18.291900
2144.000000	18.347200
2143.000000	18.404500
2142.000000	18.453900
2141.000000	18.519400
2140.000000	18.570900
2139.000000	18.611600
2138.000000	18.652900
2137.000000	18.697200
2136.000000	18.738800
2135.000000	18.766300
2134.000000	18.804100
2133.000000	18.836000
2132.000000	18.852200
2131.000000	18.871600
2130.000000	18.902000
2129.000000	18.923000
2128.000000	18.941400
2127.000000	18.943400
2126.000000	18.954400
2125.000000	18.960800
2124.000000	18.958800
2123.000000	18.936500
2122.000000	18.925000
2121.000000	18.912200
2120.000000	18.895600
2119.000000	18.865100
2118.000000	18.845400
2117.000000	18.839200
2116.000000	18.797900
2115.000000	18.762900
2114.000000	18.728700
2113.000000	18.696600
2112.000000	18.677800
2111.000000	18.642900
2110.000000	18.604200
2109.000000	18.567000
2108.000000	18.533300
2107.000000	18.494200
2106.000000	18.453100
2105.000000	18.420500
2104.000000	18.388500
2103.000000	18.350900
2102.000000	18.299600
2101.000000	18.268700
2100.000000	18.235000
2099.000000	18.188800
2098.000000	18.151200
2097.000000	18.123700
2096.000000	18.082800
2095.000000	18.052300
2094.000000	18.028700
2093.000000	17.995000
2092.000000	17.962000
2091.000000	17.952600
2090.000000	17.938200
2089.000000	17.902700
2088.000000	17.863000
2087.000000	17.834800
2086.000000	17.802600
2085.000000	17.776500
2084.000000	17.748500
2083.000000	17.705300
2082.000000	17.669600
2081.000000	17.622500
2080.000000	17.575400
2079.000000	17.540600
2078.000000	17.483700
2077.000000	17.425400
2076.000000	17.361100
2075.000000	17.295000
2074.000000	17.245300
2073.000000	17.180400
2072.000000	17.102300
2071.000000	17.035300
2070.000000	16.964800
2069.000000	16.897600
2068.000000	16.829600
2067.000000	16.741700
2066.000000	16.651500
2065.000000	16.580300
2064.000000	16.533300
2063.000000	16.458200
2062.000000	16.368200
2061.000000	16.298700
2060.000000	16.235900
2059.000000	16.179500
2058.000000	16.126600
2057.000000	16.067100
2056.000000	16.043400
2055.000000	16.025500
2054.000000	16.012100
2053.000000	16.008800
2052.000000	16.020300
2051.000000	16.059900
2050.000000	16.098500
2049.000000	16.129100
2048.000000	16.200700
2047.000000	16.278300
2046.000000	16.362400
2045.000000	16.454300
2044.000000	16.558100
2043.000000	16.663700
2042.000000	16.771600
2041.000000	16.879000
2040.000000	17.005100
2039.000000	17.113000
2038.000000	17.217800
2037.000000	17.331500
2036.000000	17.432200
2035.000000	17.529900
2034.000000	17.616900
2033.000000	17.689400
2032.000000	17.758300
2031.000000	17.841500
2030.000000	17.914100
2029.000000	17.952200
2028.000000	18.014900
2027.000000	18.055900
2026.000000	18.110200
2025.000000	18.151000
2024.000000	18.191100
2023.000000	18.228500
2022.000000	18.266300
2021.000000	18.289400
2020.000000	18.296700
2019.000000	18.320500
2018.000000	18.346500
2017.000000	18.347200
2016.000000	18.350400
2015.000000	18.347200
2014.000000	18.350900
2013.000000	18.354700
2012.000000	18.345600
2011.000000	18.333600
2010.000000	18.297300
2009.000000	18.273800
2008.000000	18.249900
2007.000000	18.217300
2006.000000	18.168000
2005.000000	18.134000
2004.000000	18.095600
2003.000000	18.055000
2002.000000	17.999300
2001.000000	17.936900
2000.000000	17.868200
1999.000000	17.793500
1998.000000	17.730800
1997.000000	17.659600
1996.000000	17.587800
1995.000000	17.499200
1994.000000	17.422400
1993.000000	17.335900
1992.000000	17.251100
1991.000000	17.161100
1990.000000	17.051400
1989.000000	16.957000
1988.000000	16.874600
1987.000000	16.763600
1986.000000	16.665800
1985.000000	16.574700
1984.000000	16.469300
1983.000000	16.361300
1982.000000	16.252000
1981.000000	16.136100
1980.000000	16.033400
1979.000000	15.940700
1978.000000	15.843600
1977.000000	15.737500
1976.000000	15.630200
1975.000000	15.540100
1974.000000	15.408800
1973.000000	15.326500
1972.000000	15.217100
1971.000000	15.131800
1970.000000	15.025800
1969.000000	14.927000
1968.000000	14.845000
1967.000000	14.746200
1966.000000	14.656500
1965.000000	14.578900
1964.000000	14.484300
1963.000000	14.406400
1962.000000	14.310900
1961.000000	14.214300
1960.000000	14.134600
1959.000000	14.064300
1958.000000	13.990000
1957.000000	13.903700
1956.000000	13.814300
1955.000000	13.726100
1954.000000	13.648700
1953.000000	13.573600
1952.000000	13.480100
1951.000000	13.451200
1950.000000	13.344000
1949.000000	13.276400
1948.000000	13.249100
1947.000000	13.178400
1946.000000	13.139200
1945.000000	13.058900
1944.000000	13.013200
1943.000000	12.970600
1942.000000	12.947200
1941.000000	12.952400
1940.000000	12.918600
1939.000000	12.925300
1938.000000	12.913000
1937.000000	12.889000
1936.000000	12.898600
1935.000000	12.895900
1934.000000	12.921700
1933.000000	12.961800
1932.000000	12.998700
1931.000000	13.064100
1930.000000	13.124000
1929.000000	13.210600
1928.000000	13.297700
1927.000000	13.372900
1926.000000	13.468300
1925.000000	13.577500
1924.000000	13.690500
1923.000000	13.823200
1922.000000	13.952000
1921.000000	14.099700
1920.000000	14.254900
1919.000000	14.430800
1918.000000	14.574500
1917.000000	14.746700
1916.000000	14.913400
1915.000000	15.129600
1914.000000	15.323800
1913.000000	15.575500
1912.000000	15.816700
1911.000000	16.025600
1910.000000	16.251200
1909.000000	16.480400
1908.000000	16.724700
1907.000000	16.995000
1906.000000	17.291900
1905.000000	17.637200
1904.000000	17.954400
1903.000000	18.292600
1902.000000	18.597100
1901.000000	18.935600
1900.000000	19.287700
1899.000000	19.649100
1898.000000	20.024800
1897.000000	20.367500
1896.000000	20.713000
1895.000000	21.067300
1894.000000	21.447000
1893.000000	21.836700
1892.000000	22.233200
1891.000000	22.726300
1890.000000	23.172800
1889.000000	23.612700
1888.000000	24.048900
1887.000000	24.510600
1886.000000	24.975100
1885.000000	25.496900
1884.000000	26.038900
1883.000000	26.604400
1882.000000	27.184800
1881.000000	27.714300
1880.000000	28.270600
1879.000000	28.751900
1878.000000	29.260900
1877.000000	29.785800
1876.000000	30.244500
1875.000000	30.696000
1874.000000	31.140500
1873.000000	31.584700
1872.000000	31.996200
1871.000000	32.344800
1870.000000	32.664200
1869.000000	32.942500
1868.000000	33.222900
1867.000000	33.391400
1866.000000	33.555100
1865.000000	33.695100
1864.000000	33.820100
1863.000000	33.939900
1862.000000	34.071300
1861.000000	34.201500
1860.000000	34.335100
1859.000000	34.456000
1858.000000	34.573400
1857.000000	34.655100
1856.000000	34.714500
1855.000000	34.733100
1854.000000	34.774400
1853.000000	34.808700
1852.000000	34.799100
1851.000000	34.799900
1850.000000	34.804300
1849.000000	34.822900
1848.000000	34.841700
1847.000000	34.866800
1846.000000	34.813400
1845.000000	34.737100
1844.000000	34.708100
1843.000000	34.679500
1842.000000	34.689500
1841.000000	34.696600
1840.000000	34.689500
1839.000000	34.674400
1838.000000	34.655100
1837.000000	34.626500
1836.000000	34.579900
1835.000000	34.518000
1834.000000	34.442100
1833.000000	34.367300
1832.000000	34.303000
1831.000000	34.258400
1830.000000	34.208300
1829.000000	34.164200
1828.000000	34.108200
1827.000000	34.033100
1826.000000	33.958400
1825.000000	33.907300
1824.000000	33.866700
1823.000000	33.826800
1822.000000	33.815100
1821.000000	33.838400
1820.000000	33.832000
1819.000000	33.784300
1818.000000	33.735300
1817.000000	33.708200
1816.000000	33.696900
1815.000000	33.687800
1814.000000	33.667900
1813.000000	33.647300
1812.000000	33.646900
1811.000000	33.625800
1810.000000	33.589100
1809.000000	33.540800
1808.000000	33.513200
1807.000000	33.472100
1806.000000	33.436700
1805.000000	33.380300
1804.000000	33.324400
1803.000000	33.288300
1802.000000	33.254600
1801.000000	33.218900
1800.000000	33.173000
1799.000000	33.116400
1798.000000	33.056300
1797.000000	33.006100
1796.000000	32.965100
1795.000000	32.929800
1794.000000	32.883300
1793.000000	32.835500
1792.000000	32.793700
1791.000000	32.740900
1790.000000	32.695400
1789.000000	32.645100
1788.000000	32.589200
1787.000000	32.546700
1786.000000	32.500200
1785.000000	32.453800
1784.000000	32.398000
1783.000000	32.319000
1782.000000	32.257400
1781.000000	32.200300
1780.000000	32.132900
1779.000000	32.074300
1778.000000	31.992000
1777.000000	31.897900
1776.000000	31.817800
1775.000000	31.725000
1774.000000	31.621700
1773.000000	31.524200
1772.000000	31.430800
1771.000000	31.315100
1770.000000	31.199700
1769.000000	31.083000
1768.000000	30.964000
1767.000000	30.854300
1766.000000	30.742700
1765.000000	30.657300
1764.000000	30.594000
1763.000000	30.562100
1762.000000	30.533900
1761.000000	30.537700
1760.000000	30.589900
1759.000000	30.642600
1758.000000	30.711400
1757.000000	30.772100
1756.000000	30.845300
1755.000000	30.910900
1754.000000	30.964000
1753.000000	31.003200
1752.000000	31.014800
1751.000000	31.034900
1750.000000	31.035700
1749.000000	31.022400
1748.000000	30.988000
1747.000000	30.923000
1746.000000	30.850500
1745.000000	30.753600
1744.000000	30.641500
1743.000000	30.522700
1742.000000	30.362100
1741.000000	30.187000
1740.000000	29.968200
1739.000000	29.756400
1738.000000	29.534300
1737.000000	29.330500
1736.000000	29.131000
1735.000000	28.989500
1734.000000	28.868300
1733.000000	28.779900
1732.000000	28.739100
1731.000000	28.734700
1730.000000	28.769200
1729.000000	28.832000
1728.000000	28.927000
1727.000000	29.018000
1726.000000	29.107200
1725.000000	29.185600
1724.000000	29.269200
1723.000000	29.335800
1722.000000	29.394200
1721.000000	29.479200
1720.000000	29.540200
1719.000000	29.647200
1718.000000	29.743100
1717.000000	29.840300
1716.000000	29.962600
1715.000000	30.095300
1714.000000	30.208900
1713.000000	30.330400
1712.000000	30.450100
1711.000000	30.544300
1710.000000	30.626900
1709.000000	30.706800
1708.000000	30.721900
1707.000000	30.750600
1706.000000	30.767800
1705.000000	30.757000
1704.000000	30.733600
1703.000000	30.691900
1702.000000	30.637800
1701.000000	30.567600
1700.000000	30.454400
1699.000000	30.333100
1698.000000	30.194600
1697.000000	30.076600
1696.000000	30.000600
1695.000000	29.932600
1694.000000	29.928600
1693.000000	29.974100
1692.000000	30.030800
1691.000000	30.165600
1690.000000	30.301200
1689.000000	30.428300
1688.000000	30.515600
1687.000000	30.605200
1686.000000	30.659600
1685.000000	30.757700
1684.000000	30.834300
1683.000000	30.990700
1682.000000	31.215000
1681.000000	31.541300
1680.000000	31.950200
1679.000000	32.397200
1678.000000	32.877900
1677.000000	33.385200
1676.000000	33.851400
1675.000000	34.288100
1674.000000	34.636500
1673.000000	34.924400
1672.000000	35.223000
1671.000000	35.478000
1670.000000	35.711100
1669.000000	35.902000
1668.000000	36.083800
1667.000000	36.202200
1666.000000	36.360400
1665.000000	36.503100
1664.000000	36.601800
1663.000000	36.706100
1662.000000	36.820800
1661.000000	36.891800
1660.000000	36.959100
1659.000000	37.035700
1658.000000	37.102400
1657.000000	37.155400
1656.000000	37.183500
1655.000000	37.204200
1654.000000	37.230500
1653.000000	37.256600
1652.000000	37.245300
1651.000000	37.246400
1650.000000	37.227600
1649.000000	37.220300
1648.000000	37.197000
1647.000000	37.166300
1646.000000	37.134300
1645.000000	37.103100
1644.000000	37.074800
1643.000000	37.024100
1642.000000	36.989500
1641.000000	36.961400
1640.000000	36.891300
1639.000000	36.855200
1638.000000	36.820200
1637.000000	36.780800
1636.000000	36.703500
1635.000000	36.664800
1634.000000	36.612300
1633.000000	36.546900
1632.000000	36.477100
1631.000000	36.403100
1630.000000	36.343200
1629.000000	36.255600
1628.000000	36.175000
1627.000000	36.126500
1626.000000	36.042000
1625.000000	35.961900
1624.000000	35.891600
1623.000000	35.812600
1622.000000	35.747500
1621.000000	35.679700
1620.000000	35.615900
1619.000000	35.530400
1618.000000	35.480600
1617.000000	35.408600
1616.000000	35.330700
1615.000000	35.272500
1614.000000	35.207300
1613.000000	35.131000
1612.000000	35.053300
1611.000000	34.982200
1610.000000	34.905500
1609.000000	34.842600
1608.000000	34.768200
1607.000000	34.704200
1606.000000	34.626000
1605.000000	34.549000
1604.000000	34.478600
1603.000000	34.390700
1602.000000	34.321300
1601.000000	34.228800
1600.000000	34.149100
1599.000000	34.060700
1598.000000	33.987100
1597.000000	33.921900
1596.000000	33.855500
1595.000000	33.787600
1594.000000	33.710000
1593.000000	33.637000
1592.000000	33.568000
1591.000000	33.505000
1590.000000	33.451900
1589.000000	33.398000
1588.000000	33.340800
1587.000000	33.285300
1586.000000	33.229300
1585.000000	33.169500
1584.000000	33.103600
1583.000000	33.046600
1582.000000	33.004100
1581.000000	32.942000
1580.000000	32.899300
1579.000000	32.863400
1578.000000	32.843200
1577.000000	32.801900
1576.000000	32.787900
1575.000000	32.761200
1574.000000	32.738600
1573.000000	32.717500
1572.000000	32.689700
1571.000000	32.680000
1570.000000	32.682000
1569.000000	32.681900
1568.000000	32.677000
1567.000000	32.686700
1566.000000	32.685800
1565.000000	32.668200
1564.000000	32.672400
1563.000000	32.679500
1562.000000	32.683200
1561.000000	32.681600
1560.000000	32.673000
1559.000000	32.665500
1558.000000	32.654200
1557.000000	32.633200
1556.000000	32.625600
1555.000000	32.599800
1554.000000	32.569700
1553.000000	32.550300
1552.000000	32.519600
1551.000000	32.467200
1550.000000	32.430000
1549.000000	32.383600
1548.000000	32.331100
1547.000000	32.292500
1546.000000	32.244900
1545.000000	32.206800
1544.000000	32.168900
1543.000000	32.127900
1542.000000	32.093200
1541.000000	32.068400
1540.000000	32.043100
1539.000000	32.009700
1538.000000	31.981700
1537.000000	31.950700
1536.000000	31.921800
1535.000000	31.900100
1534.000000	31.874000
1533.000000	31.832700
1532.000000	31.804400
1531.000000	31.766100
1530.000000	31.715700
1529.000000	31.678400
1528.000000	31.648100
1527.000000	31.609500
1526.000000	31.547300
1525.000000	31.506100
1524.000000	31.450000
1523.000000	31.392700
1522.000000	31.346400
1521.000000	31.297700
1520.000000	31.241600
1519.000000	31.169900
1518.000000	31.122300
1517.000000	31.078500
1516.000000	31.015400
1515.000000	30.958500
1514.000000	30.892400
1513.000000	30.835300
1512.000000	30.774600
1511.000000	30.688700
1510.000000	30.633900
1509.000000	30.578000
1508.000000	30.500500
1507.000000	30.428800
1506.000000	30.362100
1505.000000	30.301400
1504.000000	30.234600
1503.000000	30.161800
1502.000000	30.103200
1501.000000	30.050600
1500.000000	29.993300
1499.000000	29.941400
1498.000000	29.886400
1497.000000	29.842700
1496.000000	29.792000
1495.000000	29.745200
1494.000000	29.708400
1493.000000	29.680100
1492.000000	29.645900
1491.000000	29.616100
1490.000000	29.584300
1489.000000	29.564800
1488.000000	29.544300
1487.000000	29.509000
1486.000000	29.493800
1485.000000	29.474200
1484.000000	29.456900
1483.000000	29.431100
1482.000000	29.420200
1481.000000	29.423900
1480.000000	29.410000
1479.000000	29.384200
1478.000000	29.372100
1477.000000	29.384300
1476.000000	29.385900
1475.000000	29.395300
1474.000000	29.414300
1473.000000	29.435300
1472.000000	29.460700
1471.000000	29.493700
1470.000000	29.504800
1469.000000	29.514800
1468.000000	29.514400
1467.000000	29.543700
1466.000000	29.589500
1465.000000	29.600600
1464.000000	29.635100
1463.000000	29.665500
1462.000000	29.700400
1461.000000	29.739800
1460.000000	29.790800
1459.000000	29.847800
1458.000000	29.901600
1457.000000	29.966500
1456.000000	30.023200
1455.000000	30.087800
1454.000000	30.165900
1453.000000	30.240700
1452.000000	30.329600
1451.000000	30.430900
1450.000000	30.516100
1449.000000	30.586800
1448.000000	30.651000
1447.000000	30.755700
1446.000000	30.869100
1445.000000	30.972700
1444.000000	31.052600
1443.000000	31.131200
1442.000000	31.227800
1441.000000	31.343600
1440.000000	31.440900
1439.000000	31.538700
1438.000000	31.649600
1437.000000	31.761000
1436.000000	31.866300
1435.000000	31.962300
1434.000000	32.093300
1433.000000	32.223300
1432.000000	32.359500
1431.000000	32.479800
1430.000000	32.590000
1429.000000	32.739300
1428.000000	32.899500
1427.000000	33.055500
1426.000000	33.223100
1425.000000	33.413300
1424.000000	33.621300
1423.000000	33.828400
1422.000000	34.028500
1421.000000	34.234000
1420.000000	34.471400
1419.000000	34.718400
1418.000000	34.974900
1417.000000	35.173300
1416.000000	35.428700
1415.000000	35.679300
1414.000000	35.969800
1413.000000	36.254800
1412.000000	36.490500
1411.000000	36.753300
1410.000000	37.102400
1409.000000	37.478100
1408.000000	37.823200
1407.000000	38.185400
1406.000000	38.532300
1405.000000	38.953400
1404.000000	39.309300
1403.000000	39.678800
1402.000000	40.073600
1401.000000	40.475300
1400.000000	40.892300
1399.000000	41.260700
1398.000000	41.521900
1397.000000	41.797100
1396.000000	42.119400
1395.000000	42.490700
1394.000000	42.759100
1393.000000	42.981700
1392.000000	43.252100
1391.000000	43.529300
1390.000000	43.839100
1389.000000	44.103400
1388.000000	44.493900
1387.000000	44.922000
1386.000000	45.279700
1385.000000	45.687500
1384.000000	46.141400
1383.000000	46.630000
1382.000000	47.081300
1381.000000	47.499300
1380.000000	47.791400
1379.000000	48.006400
1378.000000	48.208500
1377.000000	48.354800
1376.000000	48.520600
1375.000000	48.669500
1374.000000	48.850900
1373.000000	49.089300
1372.000000	49.339600
1371.000000	49.668500
1370.000000	49.959600
1369.000000	50.186500
1368.000000	50.469800
1367.000000	50.705300
1366.000000	50.890000
1365.000000	51.062300
1364.000000	51.255300
1363.000000	51.387800
1362.000000	51.550700
1361.000000	51.710400
1360.000000	51.836700
1359.000000	51.827300
1358.000000	51.922200
1357.000000	52.035200
1356.000000	52.147800
1355.000000	52.361400
1354.000000	52.656700
1353.000000	52.953900
1352.000000	53.236000
1351.000000	53.655300
1350.000000	54.040000
1349.000000	54.390600
1348.000000	54.707300
1347.000000	55.050100
1346.000000	55.354800
1345.000000	55.626900
1344.000000	55.920200
1343.000000	56.182400
1342.000000	56.437800
1341.000000	56.693100
1340.000000	56.959300
1339.000000	57.207100
1338.000000	57.436600
1337.000000	57.675200
1336.000000	57.893400
1335.000000	58.121600
1334.000000	58.317800
1333.000000	58.536400
1332.000000	58.742100
1331.000000	58.920200
1330.000000	59.115600
1329.000000	59.301200
1328.000000	59.461900
1327.000000	59.614600
1326.000000	59.788100
1325.000000	59.954500
1324.000000	60.087700
1323.000000	60.229500
1322.000000	60.351100
1321.000000	60.479300
1320.000000	60.600300
1319.000000	60.721200
1318.000000	60.844900
1317.000000	60.946100
1316.000000	61.038100
1315.000000	61.152400
1314.000000	61.257200
1313.000000	61.342300
1312.000000	61.433600
1311.000000	61.511000
1310.000000	61.595900
1309.000000	61.658300
1308.000000	61.724200
1307.000000	61.796600
1306.000000	61.861800
1305.000000	61.918400
1304.000000	61.954500
1303.000000	61.993100
1302.000000	62.025300
1301.000000	62.073400
1300.000000	62.087900
1299.000000	62.119200
1298.000000	62.140100
1297.000000	62.157200
1296.000000	62.164600
1295.000000	62.169700
1294.000000	62.182800
1293.000000	62.192000
1292.000000	62.185400
1291.000000	62.195500
1290.000000	62.166400
1289.000000	62.142100
1288.000000	62.140800
1287.000000	62.126600
1286.000000	62.096400
1285.000000	62.058700
1284.000000	62.018800
1283.000000	61.978200
1282.000000	61.933100
1281.000000	61.883800
1280.000000	61.846400
1279.000000	61.819600
1278.000000	61.776500
1277.000000	61.724500
1276.000000	61.697500
1275.000000	61.668200
1274.000000	61.636400
1273.000000	61.597900
1272.000000	61.573300
1271.000000	61.550000
1270.000000	61.524900
1269.000000	61.510000
1268.000000	61.484400
1267.000000	61.451400
1266.000000	61.416700
1265.000000	61.397800
1264.000000	61.373200
1263.000000	61.354200
1262.000000	61.332700
1261.000000	61.295200
1260.000000	61.264800
1259.000000	61.246200
1258.000000	61.225700
1257.000000	61.203300
1256.000000	61.172900
1255.000000	61.137200
1254.000000	61.089400
1253.000000	61.043800
1252.000000	60.991200
1251.000000	60.950100
1250.000000	60.915400
1249.000000	60.850800
1248.000000	60.789100
1247.000000	60.713200
1246.000000	60.636500
1245.000000	60.571100
1244.000000	60.482900
1243.000000	60.377500
1242.000000	60.291800
1241.000000	60.199800
1240.000000	60.101200
1239.000000	60.008100
1238.000000	59.888400
1237.000000	59.771200
1236.000000	59.666800
1235.000000	59.560800
1234.000000	59.453100
1233.000000	59.340100
1232.000000	59.220900
1231.000000	59.103600
1230.000000	58.973300
1229.000000	58.838600
1228.000000	58.710800
1227.000000	58.592000
1226.000000	58.465900
1225.000000	58.332900
1224.000000	58.197700
1223.000000	58.064800
1222.000000	57.940800
1221.000000	57.803700
1220.000000	57.676900
1219.000000	57.552800
1218.000000	57.420000
1217.000000	57.298500
1216.000000	57.181700
1215.000000	57.085000
1214.000000	56.992700
1213.000000	56.896500
1212.000000	56.805300
1211.000000	56.708400
1210.000000	56.615800
1209.000000	56.531100
1208.000000	56.454100
1207.000000	56.377400
1206.000000	56.298800
1205.000000	56.243200
1204.000000	56.203600
1203.000000	56.161100
1202.000000	56.128700
1201.000000	56.087800
1200.000000	56.051500
1199.000000	56.007300
1198.000000	55.946900
1197.000000	55.862300
1196.000000	55.744700
1195.000000	55.616100
1194.000000	55.446400
1193.000000	55.212900
1192.000000	54.949700
1191.000000	54.657700
1190.000000	54.330200
1189.000000	54.016300
1188.000000	53.738000
1187.000000	53.530300
1186.000000	53.395000
1185.000000	53.355700
1184.000000	53.410200
1183.000000	53.557600
1182.000000	53.804500
1181.000000	54.115300
1180.000000	54.481500
1179.000000	54.858500
1178.000000	55.215100
1177.000000	55.536500
1176.000000	55.812700
1175.000000	56.087300
1174.000000	56.324000
1173.000000	56.557500
1172.000000	56.798700
1171.000000	57.037100
1170.000000	57.297000
1169.000000	57.550000
1168.000000	57.799800
1167.000000	58.069700
1166.000000	58.336500
1165.000000	58.617900
1164.000000	58.913600
1163.000000	59.201900
1162.000000	59.500700
1161.000000	59.792100
1160.000000	60.085600
1159.000000	60.367500
1158.000000	60.655800
1157.000000	60.921800
1156.000000	61.172300
1155.000000	61.382000
1154.000000	61.588700
1153.000000	61.739600
1152.000000	61.868700
1151.000000	61.994000
1150.000000	62.062700
1149.000000	62.126000
1148.000000	62.198600
1147.000000	62.278800
1146.000000	62.405900
1145.000000	62.523100
1144.000000	62.699900
1143.000000	62.928200
1142.000000	63.178400
1141.000000	63.435000
1140.000000	63.710600
1139.000000	63.999400
1138.000000	64.301700
1137.000000	64.615300
1136.000000	64.941200
1135.000000	65.297800
1134.000000	65.661100
1133.000000	65.976200
1132.000000	66.248500
1131.000000	66.526600
1130.000000	66.784200
1129.000000	66.999900
1128.000000	67.206400
1127.000000	67.360900
1126.000000	67.506600
1125.000000	67.629600
1124.000000	67.711200
1123.000000	67.814000
1122.000000	67.886300
1121.000000	67.936800
1120.000000	67.987200
1119.000000	68.036500
1118.000000	68.066100
1117.000000	68.093600
1116.000000	68.117800
1115.000000	68.141200
1114.000000	68.124300
1113.000000	68.116200
1112.000000	68.154700
1111.000000	68.154500
1110.000000	68.151600
1109.000000	68.156300
1108.000000	68.152400
1107.000000	68.155800
1106.000000	68.155500
1105.000000	68.166600
1104.000000	68.151500
1103.000000	68.165100
1102.000000	68.143700
1101.000000	68.133100
1100.000000	68.137000
1099.000000	68.143800
1098.000000	68.131400
1097.000000	68.126300
1096.000000	68.100000
1095.000000	68.077900
1094.000000	68.062100
1093.000000	68.034000
1092.000000	68.026300
1091.000000	67.984300
1090.000000	67.973900
1089.000000	67.942800
1088.000000	67.893700
1087.000000	67.851600
1086.000000	67.823500
1085.000000	67.801000
1084.000000	67.763500
1083.000000	67.724400
1082.000000	67.662000
1081.000000	67.633200
1080.000000	67.601900
1079.000000	67.554800
1078.000000	67.504000
1077.000000	67.464100
1076.000000	67.423700
1075.000000	67.375700
1074.000000	67.331400
1073.000000	67.280800
1072.000000	67.270100
1071.000000	67.219700
1070.000000	67.193600
1069.000000	67.128500
1068.000000	67.073100
1067.000000	67.027700
1066.000000	66.987600
1065.000000	66.939800
1064.000000	66.905100
1063.000000	66.846400
1062.000000	66.797500
1061.000000	66.751800
1060.000000	66.690800
1059.000000	66.651000
1058.000000	66.601200
1057.000000	66.562700
1056.000000	66.491200
1055.000000	66.444100
1054.000000	66.399500
1053.000000	66.355800
1052.000000	66.308000
1051.000000	66.268800
1050.000000	66.213400
1049.000000	66.161800
1048.000000	66.126100
1047.000000	66.091000
1046.000000	66.047900
1045.000000	66.030900
1044.000000	65.983600
1043.000000	65.932600
1042.000000	65.911000
1041.000000	65.854200
1040.000000	65.828800
1039.000000	65.796800
1038.000000	65.774100
1037.000000	65.722600
1036.000000	65.670900
1035.000000	65.649600
1034.000000	65.599500
1033.000000	65.557400
1032.000000	65.496900
1031.000000	65.451900
1030.000000	65.397400
1029.000000	65.342500
1028.000000	65.295300
1027.000000	65.238900
1026.000000	65.174600
1025.000000	65.113500
1024.000000	65.059400
1023.000000	65.007300
1022.000000	64.929400
1021.000000	64.874800
1020.000000	64.810100
1019.000000	64.752700
1018.000000	64.702500
1017.000000	64.616800
1016.000000	64.575100
1015.000000	64.523500
1014.000000	64.478500
1013.000000	64.438500
1012.000000	64.394400
1011.000000	64.341700
1010.000000	64.323800
1009.000000	64.304200
1008.000000	64.283100
1007.000000	64.251300
1006.000000	64.208300
1005.000000	64.203400
1004.000000	64.175400
1003.000000	64.155700
1002.000000	64.132800
1001.000000	64.107800
1000.000000	64.093800
999.000000	64.081600
998.000000	64.058200
997.000000	64.020200
996.000000	64.005100
995.000000	63.997400
994.000000	64.002800
993.000000	63.984400
992.000000	63.969800
991.000000	63.960900
990.000000	63.956600
989.000000	63.958600
988.000000	63.958000
987.000000	63.948500
986.000000	63.958100
985.000000	63.978500
984.000000	63.977700
983.000000	63.964700
982.000000	63.984600
981.000000	63.992500
980.000000	64.004800
979.000000	64.021900
978.000000	64.044100
977.000000	64.056400
976.000000	64.063300
975.000000	64.080400
974.000000	64.104400
973.000000	64.117600
972.000000	64.143000
971.000000	64.174600
970.000000	64.202200
969.000000	64.233000
968.000000	64.241100
967.000000	64.272600
966.000000	64.309800
965.000000	64.326400
964.000000	64.347700
963.000000	64.375600
962.000000	64.407900
961.000000	64.432500
960.000000	64.460100
959.000000	64.483800
958.000000	64.501200
957.000000	64.539100
956.000000	64.560100
955.000000	64.586700
954.000000	64.611400
953.000000	64.620400
952.000000	64.638000
951.000000	64.660000
950.000000	64.677000
949.000000	64.683800
948.000000	64.689300
947.000000	64.710300
946.000000	64.728600
945.000000	64.750000
944.000000	64.770200
943.000000	64.762000
942.000000	64.751100
941.000000	64.758200
940.000000	64.773700
939.000000	64.778300
938.000000	64.764300
937.000000	64.748200
936.000000	64.753500
935.000000	64.765200
934.000000	64.775800
933.000000	64.790300
932.000000	64.800900
931.000000	64.811700
930.000000	64.804600
929.000000	64.812900
928.000000	64.827000
927.000000	64.828400
926.000000	64.834500
925.000000	64.835700
924.000000	64.868600
923.000000	64.876100
922.000000	64.869800
921.000000	64.880200
920.000000	64.876000
919.000000	64.872000
918.000000	64.882600
917.000000	64.875200
916.000000	64.857600
915.000000	64.873700
914.000000	64.877900
913.000000	64.857200
912.000000	64.847400
911.000000	64.853200
910.000000	64.851800
909.000000	64.853100
908.000000	64.851200
907.000000	64.868700
906.000000	64.896100
905.000000	64.921200
904.000000	64.940100
903.000000	64.970700
902.000000	65.002900
901.000000	65.021600
900.000000	65.044200
899.000000	65.062900
898.000000	65.087400
897.000000	65.125300
896.000000	65.144600
895.000000	65.161500
894.000000	65.189000
893.000000	65.213800
892.000000	65.227600
891.000000	65.258200
890.000000	65.272200
889.000000	65.274000
888.000000	65.292200
887.000000	65.331000
886.000000	65.345000
885.000000	65.345200
884.000000	65.345700
883.000000	65.352000
882.000000	65.328800
881.000000	65.316400
880.000000	65.289600
879.000000	65.267800
878.000000	65.247600
877.000000	65.215500
876.000000	65.120700
875.000000	65.020900
874.000000	64.958200
873.000000	64.854100
872.000000	64.717500
871.000000	64.626400
870.000000	64.639300
869.000000	64.707300
868.000000	64.788500
867.000000	64.862100
866.000000	64.936300
865.000000	64.994000
864.000000	65.029400
863.000000	65.113800
862.000000	65.166500
861.000000	65.218000
860.000000	65.272500
859.000000	65.313500
858.000000	65.385300
857.000000	65.303260
856.000000	66.050552
855.000000	65.827223
854.000000	65.831470
853.000000	66.082208
852.000000	65.976334
851.000000	65.792479
850.000000	66.069565
849.000000	66.180167
848.000000	66.482153
847.000000	66.498367
846.000000	66.456674
845.000000	66.463720
844.000000	66.520276
843.000000	66.669580
842.000000	66.676528
841.000000	66.775357
840.000000	66.837703
839.000000	66.852856
838.000000	66.666491
837.000000	66.779410
836.000000	66.872062
835.000000	66.727390
834.000000	66.637345
833.000000	66.858164
832.000000	66.826894
831.000000	66.810294
830.000000	67.013838
829.000000	66.968381
828.000000	67.219698
827.000000	66.807495
826.000000	66.831527
825.000000	66.906902
824.000000	66.852373
823.000000	66.914720
822.000000	66.879783
821.000000	66.738006
820.000000	66.705482
819.000000	66.461500
818.000000	66.716870
817.000000	66.624026
816.000000	66.468931
815.000000	66.480030
814.000000	66.502131
813.000000	66.504544
812.000000	66.530795
811.000000	66.269731
810.000000	66.163664
809.000000	66.340088
808.000000	66.353503
807.000000	66.149091
806.000000	66.164629
805.000000	66.097650
804.000000	65.899125
803.000000	65.762078
802.000000	65.637191
801.000000	65.738143
800.000000	65.595981
799.000000	65.338969
798.000000	65.261663
797.000000	65.207520
796.000000	65.289555
795.000000	65.167178
794.000000	65.004169
793.000000	65.020094
792.000000	64.941533
791.000000	64.865964
790.000000	64.802749
789.000000	64.660877
788.000000	64.642057
787.000000	64.664544
786.000000	64.399908
785.000000	64.376166
784.000000	64.306195
783.000000	64.152934
782.000000	64.156216
781.000000	64.159014
780.000000	63.925649
779.000000	63.750962
778.000000	63.744303
777.000000	63.449652
776.000000	63.588339
775.000000	63.567686
774.000000	63.327275
773.000000	63.275062
772.000000	63.222270
771.000000	63.123924
770.000000	62.988132
769.000000	63.003187
768.000000	62.944412
767.000000	62.689138
766.000000	62.652174
765.000000	62.455096
764.000000	62.446989
763.000000	62.308495
762.000000	62.365437
761.000000	62.183125
760.000000	62.027838
759.000000	61.968965
758.000000	61.925632
757.000000	61.827962
756.000000	61.713981
755.000000	61.505998
754.000000	61.576065
753.000000	61.428981
752.000000	61.381401
751.000000	61.198704
750.000000	61.143788
749.000000	61.101902
748.000000	60.942658
747.000000	60.830125
746.000000	60.699254
745.000000	60.666151
744.000000	60.486349
743.000000	60.413483
742.000000	60.315330
741.000000	60.097020
740.000000	60.119314
739.000000	60.013151
738.000000	59.890195
737.000000	59.814143
736.000000	59.763861
735.000000	59.683080
734.000000	59.580102
733.000000	59.375979
732.000000	59.411785
731.000000	59.259779
730.000000	59.077178
729.000000	58.913784
728.000000	58.930287
727.000000	58.741220
726.000000	58.613921
725.000000	58.603884
724.000000	58.483244
723.000000	58.315313
722.000000	58.239262
721.000000	58.134836
720.000000	57.994507
719.000000	57.888344
718.000000	57.795886
717.000000	57.666077
716.000000	57.585007
715.000000	57.482994
714.000000	57.361196
713.000000	57.295375
712.000000	57.239977
711.000000	57.145781
710.000000	56.985765
709.000000	56.907397
708.000000	56.836364
707.000000	56.722480
706.000000	56.675961
705.000000	56.508127
704.000000	56.405052
703.000000	56.346566
702.000000	56.193788
701.000000	56.069480
700.000000	55.970459
699.000000	55.881668
698.000000	55.778690
697.000000	55.709201
696.000000	55.642897
695.000000	55.545613
694.000000	55.493111
693.000000	55.450935
692.000000	55.399205
691.000000	55.335603
690.000000	55.265150
689.000000	55.180798
688.000000	55.079654
687.000000	55.043076
686.000000	54.983431
685.000000	55.007366
684.000000	54.981115
683.000000	54.885858
682.000000	54.833259
681.000000	54.734237
680.000000	54.619292
679.000000	54.514866
678.000000	54.374537
677.000000	54.243088
676.000000	54.169836
675.000000	54.002677
674.000000	53.784174
673.000000	53.598195
672.000000	53.407005
671.000000	53.203751
670.000000	52.994224
669.000000	52.784214
668.000000	52.601806
667.000000	52.406949
666.000000	52.228498
665.000000	52.034026
664.000000	51.856058
663.000000	51.688996
662.000000	51.509870
661.000000	51.363944
660.000000	51.197654
659.000000	50.958015
658.000000	50.762964
657.000000	50.547743
656.000000	50.292854
655.000000	50.033334
654.000000	49.775647
653.000000	49.477522
652.000000	49.193583
651.000000	48.860810
650.000000	48.474763
649.000000	48.129057
648.000000	47.841837
647.000000	47.555969
646.000000	47.261607
645.000000	47.010966
644.000000	46.825856
643.000000	46.724132
642.000000	46.701356
641.000000	46.741891
640.000000	46.843325
639.000000	47.022837
638.000000	47.297992
637.000000	47.595056
636.000000	47.932558
635.000000	48.313491
634.000000	48.718262
633.000000	49.193680
632.000000	49.676336
631.000000	50.114211
630.000000	50.546584
629.000000	51.005595
628.000000	51.421272
627.000000	51.801626
626.000000	52.150613
625.000000	52.481070
624.000000	52.771281
623.000000	53.033311
622.000000	53.278741
621.000000	53.503710
620.000000	53.745955
619.000000	53.973337
618.000000	54.195604
617.000000	54.481569
616.000000	54.801892
615.000000	55.112950
614.000000	55.450742
613.000000	55.803204
612.000000	56.217529
611.000000	56.642954
610.000000	57.047146
609.000000	57.441976
608.000000	57.865567
607.000000	58.280376
606.000000	58.751450
605.000000	59.214322
604.000000	59.617549
603.000000	59.986900
602.000000	60.370245
601.000000	60.691630
600.000000	61.033668
599.000000	61.314422
598.000000	61.539101
597.000000	61.774590
596.000000	61.985662
595.000000	62.138923
594.000000	62.273268
593.000000	62.382712
592.000000	62.483471
591.000000	62.623702
590.000000	62.721469
589.000000	62.855042
588.000000	62.949913
587.000000	63.110316
586.000000	63.256338
585.000000	63.406125
584.000000	63.596929
583.000000	63.799218
582.000000	63.994365
581.000000	64.174167
580.000000	64.399136
579.000000	64.604417
578.000000	64.821472
577.000000	64.977243
576.000000	65.156948
575.000000	65.302874
574.000000	65.437508
573.000000	65.534213
572.000000	65.618758
571.000000	65.644912
570.000000	65.676472
569.000000	65.626865
568.000000	65.578029
567.000000	65.511919
566.000000	65.429594
565.000000	65.324010
564.000000	65.159650
563.000000	64.980138
562.000000	64.783254
561.000000	64.517363
560.000000	64.278593
559.000000	63.958077
558.000000	63.575021
557.000000	63.255663
556.000000	62.824351
555.000000	62.368332
554.000000	61.840991
553.000000	61.297242
552.000000	60.709871
551.000000	60.106382
550.000000	59.487933
549.000000	58.821518
548.000000	58.150664
547.000000	57.485117
546.000000	56.793513
545.000000	56.070735
544.000000	55.345834
543.000000	54.605104
542.000000	53.849223
541.000000	53.112451
540.000000	52.381469
539.000000	51.644601
538.000000	50.863047
537.000000	50.111895
536.000000	49.400505
535.000000	48.686027
534.000000	47.971935
533.000000	47.255817
532.000000	46.509586
531.000000	45.803409
530.000000	45.117209
529.000000	44.449250
528.000000	43.736798
527.000000	43.087852
526.000000	42.400687
525.000000	41.711206
524.000000	41.024620
523.000000	40.324522
522.000000	39.637743
521.000000	38.922300
520.000000	38.197303
519.000000	37.474621
518.000000	36.761205
517.000000	36.047982
516.000000	35.268744
515.000000	34.464124
514.000000	33.637210
513.000000	32.824579
512.000000	32.016002
511.000000	31.189474
510.000000	30.402516
509.000000	29.564696
508.000000	28.828020
507.000000	28.071366
506.000000	27.332181
505.000000	26.663257
504.000000	26.049731
503.000000	25.469308
502.000000	24.935597
501.000000	24.480640
500.000000	24.086099
499.000000	23.731417
498.000000	23.391406
497.000000	23.102642
496.000000	22.912707
495.000000	22.711190
494.000000	22.565457
493.000000	22.435166
492.000000	22.311437
491.000000	22.211354
490.000000	22.113781
489.000000	22.019489
488.000000	21.994106
487.000000	21.944692
486.000000	21.870667
485.000000	21.849724
484.000000	21.775603
483.000000	21.722039
482.000000	21.634020
481.000000	21.596284
480.000000	21.520811
479.000000	21.464352
478.000000	21.397180
477.000000	21.317364
476.000000	21.226354
475.000000	21.171921
474.000000	21.124919
473.000000	21.094325
472.000000	21.017888
471.000000	20.950329
470.000000	20.848702
469.000000	20.766667
468.000000	20.677683
467.000000	20.610221
466.000000	20.540443
465.000000	20.427910
464.000000	20.312578
463.000000	20.207767
462.000000	20.082108
461.000000	19.935217
460.000000	19.779157
459.000000	19.659868
458.000000	19.497053
457.000000	19.356242
456.000000	19.148741
455.000000	18.996928
454.000000	18.818284
453.000000	18.632885
452.000000	18.430789
451.000000	18.178699
450.000000	17.984904
449.000000	17.786668
448.000000	17.542782
447.000000	17.317330
446.000000	17.068137
445.000000	16.809581
444.000000	16.523134
443.000000	16.283301
442.000000	15.978227
441.000000	15.677979
440.000000	15.380529
439.000000	15.089256
438.000000	14.759281
437.000000	14.493391
436.000000	14.185325
435.000000	13.887682
434.000000	13.579809
433.000000	13.264505
432.000000	12.992534
431.000000	12.693829
430.000000	12.409409
429.000000	12.121803
428.000000	11.838927
427.000000	11.568790
426.000000	11.282921
425.000000	11.009696
424.000000	10.755773
423.000000	10.501078
422.000000	10.260088
421.000000	10.006744
420.000000	9.779844
419.000000	9.545513
418.000000	9.335986
417.000000	9.126073
416.000000	8.929671
415.000000	8.730953
414.000000	8.568620
413.000000	8.392968
412.000000	8.231310
411.000000	8.077470
410.000000	7.936273
409.000000	7.779538
408.000000	7.660539
407.000000	7.544145
406.000000	7.445510
405.000000	7.304217
404.000000	7.201335
403.000000	7.118142
402.000000	7.027034
401.000000	6.949728
400.000000	6.872519
399.000000	6.809014
398.000000	6.746860
397.000000	6.677951
396.000000	6.629019
395.000000	6.574393
394.000000	6.511371
393.000000	6.469388
392.000000	6.441303
391.000000	6.413411
390.000000	6.367279
389.000000	6.350100
388.000000	6.308792
387.000000	6.283796
386.000000	6.269223
385.000000	6.242103
384.000000	6.205235
383.000000	6.198865
382.000000	6.168561
381.000000	6.142309
380.000000	6.130631
379.000000	6.137291
378.000000	6.104863
377.000000	6.071663
376.000000	6.053904
375.000000	5.884623
374.000000	5.675288
373.000000	5.726632
372.000000	5.797665
371.000000	5.885877
370.000000	5.748734
369.000000	5.742750
368.000000	5.890220
367.000000	5.970518
366.000000	6.046666
365.000000	5.890124
364.000000	5.995611
363.000000	6.077453
362.000000	5.919560
361.000000	5.924965
360.000000	5.913383
359.000000	5.884140
358.000000	5.961253
357.000000	6.078901
356.000000	5.978529
355.000000	5.896300
354.000000	5.993778
353.000000	5.940117
352.000000	5.924965
351.000000	5.987022
350.000000	5.947452
349.000000	5.967912
348.000000	5.867443
347.000000	6.000244
346.000000	6.127254
345.000000	6.073400
344.000000	6.056124
343.000000	5.983161
342.000000	5.908268
341.000000	5.936353
340.000000	6.003911
339.000000	5.828549
338.000000	5.759640
337.000000	5.980941
336.000000	6.077357
335.000000	5.790909
334.000000	5.802587
333.000000	6.143661
332.000000	6.122524
331.000000	5.963955
330.000000	6.022828
329.000000	5.989145
328.000000	6.001305
327.000000	6.323366
326.000000	6.235636
325.000000	5.988952
324.000000	5.893502
323.000000	6.100809
322.000000	6.485409
321.000000	6.352898
320.000000	6.535885
319.000000	6.380211
318.000000	6.301940
317.000000	6.710475
316.000000	6.211412
315.000000	5.758288
314.000000	5.805772
313.000000	5.816196
312.000000	5.837621
311.000000	5.832024
310.000000	5.783864
309.000000	5.798534
308.000000	5.819573
307.000000	5.867250
306.000000	5.871111
305.000000	5.851326
304.000000	5.834726
303.000000	5.851229
302.000000	5.854800
301.000000	5.848044
300.000000	5.873138
299.000000	5.854028
298.000000	5.844763
297.000000	5.852098
296.000000	5.867057
295.000000	5.890992
294.000000	5.915603
293.000000	5.901319
292.000000	5.886842
291.000000	5.935484
290.000000	5.900257
289.000000	5.923034
288.000000	5.913769
287.000000	5.928632
286.000000	5.916085
285.000000	5.932396
284.000000	5.944460
283.000000	5.941565
282.000000	5.932975
281.000000	5.909040
280.000000	5.923806
279.000000	5.938669
278.000000	5.996866
277.000000	6.014914
276.000000	6.012211
275.000000	6.010281
274.000000	6.011246
273.000000	6.021380
272.000000	6.026302
271.000000	6.050816
270.000000	6.091448
269.000000	6.129377
268.000000	6.146749
267.000000	6.166341
266.000000	6.169719
265.000000	6.195101
264.000000	6.232645
263.000000	6.278005
262.000000	6.288621
261.000000	6.331762
260.000000	6.355215
259.000000	6.399417
258.000000	6.483672
257.000000	6.455491
256.000000	6.411288
255.000000	6.464659
254.000000	6.509730
253.000000	6.524593
252.000000	6.574972
251.000000	6.564260
250.000000	6.563970
