PE UV       SUBTECH     SPECTRUM    ASCII       PEDS        4.00        
   -1
CICIMAUCR0225-2.Sample.ASC
24/05/27
15:32:39.00
24/05/27
15:32:39.00
Vinicio Soto Monge
C. resplendens, F
250,000000
1
Lambda 1050
1050L1511233
PerkinElmer UV WinLab 6.3.2.0749 / 2.02.05 Lambda 900 UV/VIS/NIR, Aug  7 2015 09:38:08

0
0
3350/servo 860,8/2
0
0
UV/VIS
1
1
1
DoubleDePol,CommonBeamDepol,RBeamAtt,SBeamAtt,60mm sphere, WB InGaAs Detector
0
0
0
0
Program
Program
3350/servo 860,8/2
3350/0,2 860,8/0,2
3350/0,2 860,8/0,2
0
15.00
 
 
 
0
 
860,8
319,2
860,8
Front
100
on
S:100 R:100
0
0
0
0
 
0
 
 
 
0
 
 
0
0
0
0
0
 
 
 
 
0
0


0
0
#HDR
-1
-1
#GR
nm
%R
1.0
0.0
2500,000000
-1,000000
2251
8
76,317000
5,348100
#DATA
2500.000000	8.534200
2499.000000	8.723500
2498.000000	8.688400
2497.000000	8.627900
2496.000000	8.677500
2495.000000	8.531900
2494.000000	8.508900
2493.000000	8.510300
2492.000000	8.443400
2491.000000	8.449000
2490.000000	8.439300
2489.000000	8.424800
2488.000000	8.433400
2487.000000	8.487200
2486.000000	8.410800
2485.000000	8.400300
2484.000000	8.339900
2483.000000	8.330700
2482.000000	8.315600
2481.000000	8.366000
2480.000000	8.415000
2479.000000	8.355000
2478.000000	8.287100
2477.000000	8.394300
2476.000000	8.414100
2475.000000	8.398400
2474.000000	8.355300
2473.000000	8.372500
2472.000000	8.375700
2471.000000	8.387500
2470.000000	8.376500
2469.000000	8.356700
2468.000000	8.414900
2467.000000	8.407300
2466.000000	8.443300
2465.000000	8.412800
2464.000000	8.489900
2463.000000	8.496300
2462.000000	8.511800
2461.000000	8.542800
2460.000000	8.576000
2459.000000	8.606200
2458.000000	8.663000
2457.000000	8.734100
2456.000000	8.756800
2455.000000	8.787500
2454.000000	8.863300
2453.000000	8.906800
2452.000000	8.958400
2451.000000	9.030800
2450.000000	9.105100
2449.000000	9.167400
2448.000000	9.228700
2447.000000	9.293500
2446.000000	9.345100
2445.000000	9.419600
2444.000000	9.475600
2443.000000	9.545500
2442.000000	9.616300
2441.000000	9.684300
2440.000000	9.744500
2439.000000	9.817600
2438.000000	9.852000
2437.000000	9.916000
2436.000000	9.981100
2435.000000	10.031400
2434.000000	10.090000
2433.000000	10.131800
2432.000000	10.204900
2431.000000	10.242600
2430.000000	10.287400
2429.000000	10.352900
2428.000000	10.389900
2427.000000	10.429200
2426.000000	10.476000
2425.000000	10.506700
2424.000000	10.558400
2423.000000	10.593100
2422.000000	10.616500
2421.000000	10.666700
2420.000000	10.700200
2419.000000	10.724600
2418.000000	10.740200
2417.000000	10.780400
2416.000000	10.806000
2415.000000	10.840300
2414.000000	10.884300
2413.000000	10.915000
2412.000000	10.927100
2411.000000	10.949400
2410.000000	10.974400
2409.000000	10.998700
2408.000000	11.018100
2407.000000	11.045500
2406.000000	11.077300
2405.000000	11.111600
2404.000000	11.117800
2403.000000	11.125900
2402.000000	11.168300
2401.000000	11.203600
2400.000000	11.234200
2399.000000	11.269000
2398.000000	11.290200
2397.000000	11.313400
2396.000000	11.340100
2395.000000	11.357700
2394.000000	11.367100
2393.000000	11.384400
2392.000000	11.411100
2391.000000	11.426900
2390.000000	11.449400
2389.000000	11.474700
2388.000000	11.475300
2387.000000	11.480900
2386.000000	11.505200
2385.000000	11.518600
2384.000000	11.526700
2383.000000	11.519000
2382.000000	11.506800
2381.000000	11.512600
2380.000000	11.511700
2379.000000	11.515400
2378.000000	11.506700
2377.000000	11.502600
2376.000000	11.489800
2375.000000	11.471300
2374.000000	11.457900
2373.000000	11.433900
2372.000000	11.408800
2371.000000	11.393900
2370.000000	11.367000
2369.000000	11.345600
2368.000000	11.312600
2367.000000	11.270100
2366.000000	11.230600
2365.000000	11.191000
2364.000000	11.141700
2363.000000	11.082000
2362.000000	11.036400
2361.000000	10.993900
2360.000000	10.933200
2359.000000	10.879200
2358.000000	10.833200
2357.000000	10.781400
2356.000000	10.734000
2355.000000	10.702800
2354.000000	10.672700
2353.000000	10.650900
2352.000000	10.629800
2351.000000	10.620000
2350.000000	10.621800
2349.000000	10.623000
2348.000000	10.640300
2347.000000	10.674800
2346.000000	10.705600
2345.000000	10.738300
2344.000000	10.778500
2343.000000	10.803500
2342.000000	10.840200
2341.000000	10.867800
2340.000000	10.896600
2339.000000	10.927600
2338.000000	10.944100
2337.000000	10.937700
2336.000000	10.929500
2335.000000	10.945700
2334.000000	10.948300
2333.000000	10.923800
2332.000000	10.889900
2331.000000	10.864900
2330.000000	10.830400
2329.000000	10.791400
2328.000000	10.724100
2327.000000	10.668400
2326.000000	10.621800
2325.000000	10.550000
2324.000000	10.455500
2323.000000	10.367100
2322.000000	10.290700
2321.000000	10.205600
2320.000000	10.111800
2319.000000	10.003000
2318.000000	9.891300
2317.000000	9.786400
2316.000000	9.676600
2315.000000	9.546100
2314.000000	9.438400
2313.000000	9.350800
2312.000000	9.258300
2311.000000	9.167100
2310.000000	9.095400
2309.000000	9.047000
2308.000000	8.977400
2307.000000	8.928000
2306.000000	8.913400
2305.000000	8.896900
2304.000000	8.894100
2303.000000	8.923400
2302.000000	8.963500
2301.000000	9.008100
2300.000000	9.079500
2299.000000	9.147900
2298.000000	9.214200
2297.000000	9.292100
2296.000000	9.369300
2295.000000	9.437500
2294.000000	9.525400
2293.000000	9.581200
2292.000000	9.629100
2291.000000	9.696900
2290.000000	9.734400
2289.000000	9.765900
2288.000000	9.782800
2287.000000	9.787600
2286.000000	9.785900
2285.000000	9.789700
2284.000000	9.783100
2283.000000	9.748500
2282.000000	9.718500
2281.000000	9.666600
2280.000000	9.645900
2279.000000	9.621800
2278.000000	9.572000
2277.000000	9.519700
2276.000000	9.466100
2275.000000	9.468400
2274.000000	9.417000
2273.000000	9.406000
2272.000000	9.376400
2271.000000	9.413500
2270.000000	9.396100
2269.000000	9.443400
2268.000000	9.495100
2267.000000	9.540400
2266.000000	9.633900
2265.000000	9.707200
2264.000000	9.804800
2263.000000	9.941900
2262.000000	10.087300
2261.000000	10.255300
2260.000000	10.432500
2259.000000	10.598600
2258.000000	10.809500
2257.000000	11.022000
2256.000000	11.247400
2255.000000	11.436900
2254.000000	11.660200
2253.000000	11.850500
2252.000000	12.068000
2251.000000	12.267700
2250.000000	12.461900
2249.000000	12.648800
2248.000000	12.827900
2247.000000	12.986500
2246.000000	13.136200
2245.000000	13.275500
2244.000000	13.411900
2243.000000	13.541700
2242.000000	13.652000
2241.000000	13.755100
2240.000000	13.833600
2239.000000	13.925600
2238.000000	14.006000
2237.000000	14.069800
2236.000000	14.134500
2235.000000	14.220100
2234.000000	14.271000
2233.000000	14.311800
2232.000000	14.347500
2231.000000	14.399700
2230.000000	14.403100
2229.000000	14.447400
2228.000000	14.463200
2227.000000	14.466000
2226.000000	14.482500
2225.000000	14.457100
2224.000000	14.466100
2223.000000	14.456400
2222.000000	14.440200
2221.000000	14.411400
2220.000000	14.421400
2219.000000	14.387800
2218.000000	14.366100
2217.000000	14.329600
2216.000000	14.312900
2215.000000	14.271300
2214.000000	14.245800
2213.000000	14.210600
2212.000000	14.171600
2211.000000	14.163800
2210.000000	14.153400
2209.000000	14.106900
2208.000000	14.118600
2207.000000	14.091300
2206.000000	14.068900
2205.000000	14.036500
2204.000000	14.032800
2203.000000	14.024100
2202.000000	13.995300
2201.000000	13.983100
2200.000000	13.942700
2199.000000	13.972100
2198.000000	13.973900
2197.000000	13.932600
2196.000000	13.918700
2195.000000	13.918800
2194.000000	13.906300
2193.000000	13.903000
2192.000000	13.873900
2191.000000	13.876500
2190.000000	13.861100
2189.000000	13.843800
2188.000000	13.841700
2187.000000	13.813300
2186.000000	13.823400
2185.000000	13.841400
2184.000000	13.815900
2183.000000	13.804900
2182.000000	13.787600
2181.000000	13.775600
2180.000000	13.780300
2179.000000	13.789000
2178.000000	13.763400
2177.000000	13.769500
2176.000000	13.761200
2175.000000	13.765500
2174.000000	13.774900
2173.000000	13.798300
2172.000000	13.783000
2171.000000	13.796400
2170.000000	13.802500
2169.000000	13.826400
2168.000000	13.857900
2167.000000	13.878700
2166.000000	13.904500
2165.000000	13.906600
2164.000000	13.938300
2163.000000	13.982600
2162.000000	14.011100
2161.000000	14.033500
2160.000000	14.060900
2159.000000	14.109400
2158.000000	14.141500
2157.000000	14.194200
2156.000000	14.238300
2155.000000	14.278300
2154.000000	14.325400
2153.000000	14.375500
2152.000000	14.418800
2151.000000	14.457100
2150.000000	14.478800
2149.000000	14.537700
2148.000000	14.595800
2147.000000	14.642800
2146.000000	14.684600
2145.000000	14.741200
2144.000000	14.782900
2143.000000	14.821000
2142.000000	14.854900
2141.000000	14.892800
2140.000000	14.918200
2139.000000	14.956700
2138.000000	14.994800
2137.000000	15.020000
2136.000000	15.046500
2135.000000	15.074400
2134.000000	15.111800
2133.000000	15.140500
2132.000000	15.150500
2131.000000	15.173400
2130.000000	15.184000
2129.000000	15.188300
2128.000000	15.197400
2127.000000	15.209400
2126.000000	15.208300
2125.000000	15.203500
2124.000000	15.194300
2123.000000	15.197800
2122.000000	15.197900
2121.000000	15.187200
2120.000000	15.168400
2119.000000	15.152400
2118.000000	15.127800
2117.000000	15.112700
2116.000000	15.100300
2115.000000	15.080700
2114.000000	15.050100
2113.000000	15.033700
2112.000000	15.011500
2111.000000	14.985200
2110.000000	14.956100
2109.000000	14.913300
2108.000000	14.887800
2107.000000	14.859500
2106.000000	14.843700
2105.000000	14.816200
2104.000000	14.772700
2103.000000	14.747600
2102.000000	14.726500
2101.000000	14.707200
2100.000000	14.668900
2099.000000	14.637100
2098.000000	14.626100
2097.000000	14.598200
2096.000000	14.570800
2095.000000	14.551800
2094.000000	14.533800
2093.000000	14.509100
2092.000000	14.496100
2091.000000	14.481700
2090.000000	14.453300
2089.000000	14.436300
2088.000000	14.417900
2087.000000	14.412400
2086.000000	14.398900
2085.000000	14.367400
2084.000000	14.333200
2083.000000	14.322100
2082.000000	14.299500
2081.000000	14.266900
2080.000000	14.235300
2079.000000	14.204300
2078.000000	14.174400
2077.000000	14.137000
2076.000000	14.089300
2075.000000	14.042900
2074.000000	14.003700
2073.000000	13.959300
2072.000000	13.911500
2071.000000	13.875600
2070.000000	13.829800
2069.000000	13.780100
2068.000000	13.730200
2067.000000	13.667200
2066.000000	13.618800
2065.000000	13.573200
2064.000000	13.524800
2063.000000	13.480300
2062.000000	13.441600
2061.000000	13.385900
2060.000000	13.332100
2059.000000	13.314300
2058.000000	13.273400
2057.000000	13.245200
2056.000000	13.243000
2055.000000	13.234700
2054.000000	13.224300
2053.000000	13.231700
2052.000000	13.253200
2051.000000	13.278400
2050.000000	13.313000
2049.000000	13.375700
2048.000000	13.443900
2047.000000	13.509600
2046.000000	13.569900
2045.000000	13.646800
2044.000000	13.751300
2043.000000	13.834900
2042.000000	13.927900
2041.000000	14.028100
2040.000000	14.114400
2039.000000	14.205000
2038.000000	14.294100
2037.000000	14.361500
2036.000000	14.453000
2035.000000	14.538100
2034.000000	14.600900
2033.000000	14.682800
2032.000000	14.749900
2031.000000	14.794300
2030.000000	14.848100
2029.000000	14.901400
2028.000000	14.946800
2027.000000	14.991700
2026.000000	15.037000
2025.000000	15.064100
2024.000000	15.093500
2023.000000	15.126800
2022.000000	15.146700
2021.000000	15.178600
2020.000000	15.206000
2019.000000	15.230100
2018.000000	15.267900
2017.000000	15.266400
2016.000000	15.271700
2015.000000	15.288800
2014.000000	15.298000
2013.000000	15.301200
2012.000000	15.310500
2011.000000	15.307700
2010.000000	15.303000
2009.000000	15.278000
2008.000000	15.265700
2007.000000	15.234100
2006.000000	15.227400
2005.000000	15.234500
2004.000000	15.198500
2003.000000	15.155900
2002.000000	15.121600
2001.000000	15.102400
2000.000000	15.063400
1999.000000	15.012100
1998.000000	14.957000
1997.000000	14.905100
1996.000000	14.855800
1995.000000	14.800400
1994.000000	14.749100
1993.000000	14.704800
1992.000000	14.637600
1991.000000	14.572800
1990.000000	14.498900
1989.000000	14.457700
1988.000000	14.369300
1987.000000	14.297300
1986.000000	14.225800
1985.000000	14.158000
1984.000000	14.083000
1983.000000	14.004000
1982.000000	13.915500
1981.000000	13.848100
1980.000000	13.788200
1979.000000	13.712100
1978.000000	13.622800
1977.000000	13.538600
1976.000000	13.467400
1975.000000	13.399100
1974.000000	13.301100
1973.000000	13.234200
1972.000000	13.156400
1971.000000	13.103500
1970.000000	13.026100
1969.000000	12.954800
1968.000000	12.882700
1967.000000	12.814800
1966.000000	12.735300
1965.000000	12.690600
1964.000000	12.604000
1963.000000	12.543100
1962.000000	12.485400
1961.000000	12.417700
1960.000000	12.325000
1959.000000	12.284200
1958.000000	12.203300
1957.000000	12.151400
1956.000000	12.071700
1955.000000	12.019300
1954.000000	11.974800
1953.000000	11.902900
1952.000000	11.835700
1951.000000	11.766300
1950.000000	11.703500
1949.000000	11.664000
1948.000000	11.621000
1947.000000	11.572100
1946.000000	11.516200
1945.000000	11.508400
1944.000000	11.451600
1943.000000	11.421100
1942.000000	11.388700
1941.000000	11.362200
1940.000000	11.328100
1939.000000	11.337500
1938.000000	11.341000
1937.000000	11.344500
1936.000000	11.379700
1935.000000	11.362000
1934.000000	11.365000
1933.000000	11.390800
1932.000000	11.416200
1931.000000	11.430500
1930.000000	11.482200
1929.000000	11.556700
1928.000000	11.626500
1927.000000	11.707400
1926.000000	11.766400
1925.000000	11.885700
1924.000000	11.939000
1923.000000	12.008000
1922.000000	12.090500
1921.000000	12.249700
1920.000000	12.406200
1919.000000	12.557400
1918.000000	12.683500
1917.000000	12.778800
1916.000000	12.888900
1915.000000	13.000700
1914.000000	13.168300
1913.000000	13.352900
1912.000000	13.576400
1911.000000	13.779700
1910.000000	13.933900
1909.000000	14.071600
1908.000000	14.215100
1907.000000	14.393300
1906.000000	14.607600
1905.000000	14.877600
1904.000000	15.158900
1903.000000	15.407200
1902.000000	15.625600
1901.000000	15.855900
1900.000000	16.122500
1899.000000	16.384100
1898.000000	16.696600
1897.000000	16.996200
1896.000000	17.250600
1895.000000	17.473300
1894.000000	17.697400
1893.000000	17.963100
1892.000000	18.252700
1891.000000	18.614900
1890.000000	18.982100
1889.000000	19.297100
1888.000000	19.608900
1887.000000	19.944800
1886.000000	20.275000
1885.000000	20.642300
1884.000000	21.054800
1883.000000	21.494000
1882.000000	21.922400
1881.000000	22.327400
1880.000000	22.738200
1879.000000	23.110600
1878.000000	23.490100
1877.000000	23.881200
1876.000000	24.226200
1875.000000	24.583300
1874.000000	24.908400
1873.000000	25.233000
1872.000000	25.566200
1871.000000	25.838100
1870.000000	26.113900
1869.000000	26.327200
1868.000000	26.553500
1867.000000	26.704900
1866.000000	26.837200
1865.000000	26.914200
1864.000000	27.015500
1863.000000	27.100800
1862.000000	27.176900
1861.000000	27.282800
1860.000000	27.374900
1859.000000	27.432900
1858.000000	27.514600
1857.000000	27.570500
1856.000000	27.601700
1855.000000	27.615100
1854.000000	27.636200
1853.000000	27.653600
1852.000000	27.632000
1851.000000	27.626100
1850.000000	27.636000
1849.000000	27.621000
1848.000000	27.611400
1847.000000	27.632600
1846.000000	27.588900
1845.000000	27.521900
1844.000000	27.491800
1843.000000	27.455900
1842.000000	27.452700
1841.000000	27.451800
1840.000000	27.440200
1839.000000	27.403100
1838.000000	27.378000
1837.000000	27.340800
1836.000000	27.316700
1835.000000	27.287800
1834.000000	27.226100
1833.000000	27.163300
1832.000000	27.085500
1831.000000	27.042200
1830.000000	27.010600
1829.000000	26.960000
1828.000000	26.900700
1827.000000	26.836700
1826.000000	26.774000
1825.000000	26.725700
1824.000000	26.675400
1823.000000	26.639000
1822.000000	26.621200
1821.000000	26.626300
1820.000000	26.614000
1819.000000	26.587800
1818.000000	26.547300
1817.000000	26.505600
1816.000000	26.499400
1815.000000	26.497200
1814.000000	26.455300
1813.000000	26.446400
1812.000000	26.454400
1811.000000	26.439300
1810.000000	26.409700
1809.000000	26.361000
1808.000000	26.328700
1807.000000	26.296200
1806.000000	26.264400
1805.000000	26.223700
1804.000000	26.169700
1803.000000	26.131800
1802.000000	26.099500
1801.000000	26.047700
1800.000000	26.002000
1799.000000	25.964800
1798.000000	25.914200
1797.000000	25.867900
1796.000000	25.824600
1795.000000	25.785500
1794.000000	25.749000
1793.000000	25.706200
1792.000000	25.660800
1791.000000	25.615800
1790.000000	25.564700
1789.000000	25.507900
1788.000000	25.452400
1787.000000	25.411500
1786.000000	25.379500
1785.000000	25.332400
1784.000000	25.262500
1783.000000	25.206500
1782.000000	25.136500
1781.000000	25.058800
1780.000000	25.004100
1779.000000	24.952800
1778.000000	24.885500
1777.000000	24.803300
1776.000000	24.726700
1775.000000	24.644500
1774.000000	24.555500
1773.000000	24.463100
1772.000000	24.365800
1771.000000	24.263000
1770.000000	24.150700
1769.000000	24.034400
1768.000000	23.933500
1767.000000	23.833800
1766.000000	23.738200
1765.000000	23.658200
1764.000000	23.605700
1763.000000	23.568000
1762.000000	23.551100
1761.000000	23.557800
1760.000000	23.590200
1759.000000	23.616400
1758.000000	23.655600
1757.000000	23.706300
1756.000000	23.751000
1755.000000	23.804900
1754.000000	23.831300
1753.000000	23.857800
1752.000000	23.873400
1751.000000	23.870200
1750.000000	23.859700
1749.000000	23.846900
1748.000000	23.797200
1747.000000	23.758400
1746.000000	23.693200
1745.000000	23.605100
1744.000000	23.510500
1743.000000	23.387300
1742.000000	23.231400
1741.000000	23.079000
1740.000000	22.896000
1739.000000	22.730800
1738.000000	22.541600
1737.000000	22.362500
1736.000000	22.201100
1735.000000	22.057300
1734.000000	21.951600
1733.000000	21.880700
1732.000000	21.856600
1731.000000	21.859900
1730.000000	21.901100
1729.000000	21.960100
1728.000000	22.028800
1727.000000	22.102700
1726.000000	22.160400
1725.000000	22.233500
1724.000000	22.279200
1723.000000	22.324900
1722.000000	22.363000
1721.000000	22.412500
1720.000000	22.445800
1719.000000	22.491300
1718.000000	22.547100
1717.000000	22.605600
1716.000000	22.674400
1715.000000	22.758800
1714.000000	22.858200
1713.000000	22.929100
1712.000000	23.013100
1711.000000	23.070900
1710.000000	23.110000
1709.000000	23.145600
1708.000000	23.170500
1707.000000	23.177400
1706.000000	23.164200
1705.000000	23.156300
1704.000000	23.142200
1703.000000	23.099000
1702.000000	23.029400
1701.000000	22.971000
1700.000000	22.891100
1699.000000	22.783400
1698.000000	22.668000
1697.000000	22.565800
1696.000000	22.484300
1695.000000	22.450300
1694.000000	22.414900
1693.000000	22.450600
1692.000000	22.538000
1691.000000	22.628300
1690.000000	22.731300
1689.000000	22.831300
1688.000000	22.924000
1687.000000	22.967400
1686.000000	23.033800
1685.000000	23.081900
1684.000000	23.128800
1683.000000	23.212900
1682.000000	23.373800
1681.000000	23.641300
1680.000000	23.957000
1679.000000	24.344400
1678.000000	24.738300
1677.000000	25.153600
1676.000000	25.519300
1675.000000	25.865000
1674.000000	26.153200
1673.000000	26.413000
1672.000000	26.655600
1671.000000	26.852900
1670.000000	27.018900
1669.000000	27.197100
1668.000000	27.318000
1667.000000	27.429500
1666.000000	27.517600
1665.000000	27.630400
1664.000000	27.719800
1663.000000	27.810500
1662.000000	27.865300
1661.000000	27.914700
1660.000000	27.988000
1659.000000	28.038800
1658.000000	28.076500
1657.000000	28.096500
1656.000000	28.123600
1655.000000	28.158400
1654.000000	28.158100
1653.000000	28.168900
1652.000000	28.145300
1651.000000	28.163100
1650.000000	28.148400
1649.000000	28.126300
1648.000000	28.107100
1647.000000	28.064300
1646.000000	28.039400
1645.000000	28.009100
1644.000000	27.961000
1643.000000	27.955900
1642.000000	27.910100
1641.000000	27.856900
1640.000000	27.827000
1639.000000	27.772600
1638.000000	27.722000
1637.000000	27.677700
1636.000000	27.629800
1635.000000	27.581700
1634.000000	27.508700
1633.000000	27.470400
1632.000000	27.420900
1631.000000	27.358300
1630.000000	27.300100
1629.000000	27.207000
1628.000000	27.167800
1627.000000	27.101900
1626.000000	27.037300
1625.000000	26.964200
1624.000000	26.903200
1623.000000	26.830200
1622.000000	26.768900
1621.000000	26.699000
1620.000000	26.641200
1619.000000	26.577300
1618.000000	26.533100
1617.000000	26.482800
1616.000000	26.397800
1615.000000	26.339400
1614.000000	26.285600
1613.000000	26.259400
1612.000000	26.171100
1611.000000	26.117500
1610.000000	26.052900
1609.000000	25.990500
1608.000000	25.946900
1607.000000	25.891500
1606.000000	25.830200
1605.000000	25.764700
1604.000000	25.701700
1603.000000	25.654300
1602.000000	25.578400
1601.000000	25.531200
1600.000000	25.471500
1599.000000	25.414400
1598.000000	25.361200
1597.000000	25.302700
1596.000000	25.255800
1595.000000	25.199800
1594.000000	25.147800
1593.000000	25.108700
1592.000000	25.047600
1591.000000	25.013600
1590.000000	24.972700
1589.000000	24.925700
1588.000000	24.904600
1587.000000	24.858100
1586.000000	24.812600
1585.000000	24.783300
1584.000000	24.752700
1583.000000	24.726600
1582.000000	24.683400
1581.000000	24.649500
1580.000000	24.625500
1579.000000	24.608600
1578.000000	24.573100
1577.000000	24.574600
1576.000000	24.558500
1575.000000	24.554500
1574.000000	24.555800
1573.000000	24.541700
1572.000000	24.535900
1571.000000	24.536000
1570.000000	24.546000
1569.000000	24.552400
1568.000000	24.561200
1567.000000	24.576600
1566.000000	24.612100
1565.000000	24.609100
1564.000000	24.613900
1563.000000	24.634600
1562.000000	24.630700
1561.000000	24.636400
1560.000000	24.646800
1559.000000	24.656500
1558.000000	24.654000
1557.000000	24.655900
1556.000000	24.664400
1555.000000	24.660500
1554.000000	24.647500
1553.000000	24.634100
1552.000000	24.610600
1551.000000	24.599200
1550.000000	24.576600
1549.000000	24.546400
1548.000000	24.526600
1547.000000	24.500800
1546.000000	24.486400
1545.000000	24.462000
1544.000000	24.443200
1543.000000	24.424500
1542.000000	24.407000
1541.000000	24.384100
1540.000000	24.364400
1539.000000	24.365700
1538.000000	24.371700
1537.000000	24.347500
1536.000000	24.320500
1535.000000	24.310300
1534.000000	24.295800
1533.000000	24.276500
1532.000000	24.259800
1531.000000	24.241000
1530.000000	24.213900
1529.000000	24.203900
1528.000000	24.180100
1527.000000	24.141400
1526.000000	24.109400
1525.000000	24.087300
1524.000000	24.061800
1523.000000	24.028200
1522.000000	23.992400
1521.000000	23.960800
1520.000000	23.935300
1519.000000	23.898200
1518.000000	23.855800
1517.000000	23.832900
1516.000000	23.788200
1515.000000	23.727600
1514.000000	23.692700
1513.000000	23.664800
1512.000000	23.618400
1511.000000	23.575200
1510.000000	23.533900
1509.000000	23.493500
1508.000000	23.444600
1507.000000	23.391200
1506.000000	23.341500
1505.000000	23.291500
1504.000000	23.241800
1503.000000	23.198100
1502.000000	23.160600
1501.000000	23.122400
1500.000000	23.083800
1499.000000	23.051500
1498.000000	23.004000
1497.000000	22.967600
1496.000000	22.948200
1495.000000	22.906000
1494.000000	22.863300
1493.000000	22.850400
1492.000000	22.839900
1491.000000	22.819200
1490.000000	22.810700
1489.000000	22.799000
1488.000000	22.775500
1487.000000	22.763700
1486.000000	22.754400
1485.000000	22.735300
1484.000000	22.721500
1483.000000	22.696800
1482.000000	22.685600
1481.000000	22.692600
1480.000000	22.690000
1479.000000	22.679900
1478.000000	22.689600
1477.000000	22.695900
1476.000000	22.695200
1475.000000	22.704000
1474.000000	22.720600
1473.000000	22.720700
1472.000000	22.742200
1471.000000	22.774800
1470.000000	22.801900
1469.000000	22.819900
1468.000000	22.830700
1467.000000	22.853600
1466.000000	22.889700
1465.000000	22.916000
1464.000000	22.930600
1463.000000	22.966900
1462.000000	23.003100
1461.000000	23.046600
1460.000000	23.090700
1459.000000	23.130700
1458.000000	23.187800
1457.000000	23.234500
1456.000000	23.304900
1455.000000	23.372000
1454.000000	23.439900
1453.000000	23.501400
1452.000000	23.579800
1451.000000	23.677100
1450.000000	23.750800
1449.000000	23.841600
1448.000000	23.914500
1447.000000	23.989200
1446.000000	24.085500
1445.000000	24.186300
1444.000000	24.261200
1443.000000	24.341100
1442.000000	24.436000
1441.000000	24.530900
1440.000000	24.637200
1439.000000	24.739700
1438.000000	24.833200
1437.000000	24.934500
1436.000000	25.029700
1435.000000	25.130200
1434.000000	25.247300
1433.000000	25.357200
1432.000000	25.481200
1431.000000	25.575200
1430.000000	25.700300
1429.000000	25.830300
1428.000000	25.980000
1427.000000	26.125700
1426.000000	26.248900
1425.000000	26.407100
1424.000000	26.585000
1423.000000	26.777000
1422.000000	26.948300
1421.000000	27.123600
1420.000000	27.314300
1419.000000	27.524700
1418.000000	27.720600
1417.000000	27.898200
1416.000000	28.074900
1415.000000	28.303300
1414.000000	28.557800
1413.000000	28.784600
1412.000000	28.987900
1411.000000	29.201200
1410.000000	29.485200
1409.000000	29.792000
1408.000000	30.091000
1407.000000	30.389400
1406.000000	30.699700
1405.000000	31.009200
1404.000000	31.334500
1403.000000	31.638300
1402.000000	31.953000
1401.000000	32.297000
1400.000000	32.678800
1399.000000	32.973600
1398.000000	33.178700
1397.000000	33.405400
1396.000000	33.672000
1395.000000	33.967400
1394.000000	34.182800
1393.000000	34.348200
1392.000000	34.539200
1391.000000	34.760600
1390.000000	34.989200
1389.000000	35.226100
1388.000000	35.521700
1387.000000	35.861100
1386.000000	36.169300
1385.000000	36.517200
1384.000000	36.937500
1383.000000	37.319200
1382.000000	37.743900
1381.000000	38.066900
1380.000000	38.339200
1379.000000	38.526400
1378.000000	38.697700
1377.000000	38.831200
1376.000000	38.982500
1375.000000	39.128300
1374.000000	39.286800
1373.000000	39.524600
1372.000000	39.776100
1371.000000	40.055300
1370.000000	40.335800
1369.000000	40.556400
1368.000000	40.817900
1367.000000	41.032800
1366.000000	41.230900
1365.000000	41.407700
1364.000000	41.573100
1363.000000	41.725800
1362.000000	41.929300
1361.000000	42.048300
1360.000000	42.128500
1359.000000	42.115800
1358.000000	42.225900
1357.000000	42.321700
1356.000000	42.461200
1355.000000	42.642500
1354.000000	42.937100
1353.000000	43.240800
1352.000000	43.548400
1351.000000	44.001500
1350.000000	44.377300
1349.000000	44.754500
1348.000000	45.076100
1347.000000	45.410500
1346.000000	45.692500
1345.000000	45.962800
1344.000000	46.255700
1343.000000	46.523700
1342.000000	46.781400
1341.000000	47.053000
1340.000000	47.301000
1339.000000	47.536400
1338.000000	47.775300
1337.000000	48.008400
1336.000000	48.230400
1335.000000	48.444800
1334.000000	48.655900
1333.000000	48.868000
1332.000000	49.061900
1331.000000	49.258900
1330.000000	49.438200
1329.000000	49.626000
1328.000000	49.796400
1327.000000	49.935500
1326.000000	50.100900
1325.000000	50.241400
1324.000000	50.380400
1323.000000	50.523200
1322.000000	50.650300
1321.000000	50.766500
1320.000000	50.887400
1319.000000	51.004400
1318.000000	51.111200
1317.000000	51.215700
1316.000000	51.313800
1315.000000	51.414200
1314.000000	51.506500
1313.000000	51.604000
1312.000000	51.683600
1311.000000	51.764900
1310.000000	51.832200
1309.000000	51.906800
1308.000000	51.979300
1307.000000	52.032400
1306.000000	52.086200
1305.000000	52.131700
1304.000000	52.186700
1303.000000	52.206600
1302.000000	52.239000
1301.000000	52.274300
1300.000000	52.295000
1299.000000	52.311100
1298.000000	52.333300
1297.000000	52.339300
1296.000000	52.358000
1295.000000	52.368100
1294.000000	52.370200
1293.000000	52.361800
1292.000000	52.368100
1291.000000	52.364300
1290.000000	52.354700
1289.000000	52.321200
1288.000000	52.311600
1287.000000	52.277100
1286.000000	52.241800
1285.000000	52.192800
1284.000000	52.153400
1283.000000	52.118900
1282.000000	52.077100
1281.000000	52.037600
1280.000000	51.989500
1279.000000	51.924800
1278.000000	51.880800
1277.000000	51.836000
1276.000000	51.797500
1275.000000	51.758500
1274.000000	51.724800
1273.000000	51.681300
1272.000000	51.658100
1271.000000	51.640000
1270.000000	51.600700
1269.000000	51.575800
1268.000000	51.546800
1267.000000	51.508100
1266.000000	51.470100
1265.000000	51.449600
1264.000000	51.425800
1263.000000	51.393700
1262.000000	51.367600
1261.000000	51.327000
1260.000000	51.298800
1259.000000	51.271600
1258.000000	51.230800
1257.000000	51.184900
1256.000000	51.148600
1255.000000	51.104600
1254.000000	51.072700
1253.000000	51.021900
1252.000000	50.967100
1251.000000	50.924400
1250.000000	50.853800
1249.000000	50.785600
1248.000000	50.719100
1247.000000	50.630800
1246.000000	50.551800
1245.000000	50.466100
1244.000000	50.376700
1243.000000	50.269300
1242.000000	50.155800
1241.000000	50.050800
1240.000000	49.937200
1239.000000	49.821600
1238.000000	49.708000
1237.000000	49.594000
1236.000000	49.466800
1235.000000	49.332900
1234.000000	49.190400
1233.000000	49.057200
1232.000000	48.935600
1231.000000	48.795900
1230.000000	48.650000
1229.000000	48.507500
1228.000000	48.350000
1227.000000	48.202600
1226.000000	48.055400
1225.000000	47.905900
1224.000000	47.750200
1223.000000	47.602400
1222.000000	47.459000
1221.000000	47.319600
1220.000000	47.174400
1219.000000	47.028000
1218.000000	46.895300
1217.000000	46.775100
1216.000000	46.662600
1215.000000	46.545700
1214.000000	46.426400
1213.000000	46.321500
1212.000000	46.217600
1211.000000	46.117900
1210.000000	46.023900
1209.000000	45.920900
1208.000000	45.836000
1207.000000	45.771400
1206.000000	45.704300
1205.000000	45.651700
1204.000000	45.607600
1203.000000	45.571900
1202.000000	45.538600
1201.000000	45.512300
1200.000000	45.491200
1199.000000	45.451200
1198.000000	45.399700
1197.000000	45.315100
1196.000000	45.197200
1195.000000	45.059800
1194.000000	44.885600
1193.000000	44.660600
1192.000000	44.387800
1191.000000	44.073500
1190.000000	43.732400
1189.000000	43.401600
1188.000000	43.125000
1187.000000	42.917300
1186.000000	42.775800
1185.000000	42.753300
1184.000000	42.797400
1183.000000	42.945800
1182.000000	43.214400
1181.000000	43.550200
1180.000000	43.925700
1179.000000	44.314900
1178.000000	44.693100
1177.000000	45.041700
1176.000000	45.356700
1175.000000	45.634400
1174.000000	45.889600
1173.000000	46.132200
1172.000000	46.376100
1171.000000	46.641900
1170.000000	46.914800
1169.000000	47.197800
1168.000000	47.479500
1167.000000	47.750500
1166.000000	48.026500
1165.000000	48.323500
1164.000000	48.635400
1163.000000	48.934100
1162.000000	49.251400
1161.000000	49.554200
1160.000000	49.842000
1159.000000	50.145000
1158.000000	50.437500
1157.000000	50.715300
1156.000000	50.968100
1155.000000	51.213100
1154.000000	51.406700
1153.000000	51.567600
1152.000000	51.688400
1151.000000	51.769300
1150.000000	51.819800
1149.000000	51.895300
1148.000000	51.956200
1147.000000	52.009400
1146.000000	52.094100
1145.000000	52.210400
1144.000000	52.382500
1143.000000	52.597300
1142.000000	52.869800
1141.000000	53.139500
1140.000000	53.437500
1139.000000	53.762000
1138.000000	54.087800
1137.000000	54.402300
1136.000000	54.748700
1135.000000	55.122800
1134.000000	55.469100
1133.000000	55.802200
1132.000000	56.080500
1131.000000	56.366800
1130.000000	56.668400
1129.000000	56.935000
1128.000000	57.130800
1127.000000	57.324900
1126.000000	57.466000
1125.000000	57.576400
1124.000000	57.686100
1123.000000	57.781200
1122.000000	57.862200
1121.000000	57.933200
1120.000000	57.971600
1119.000000	58.041100
1118.000000	58.064600
1117.000000	58.114400
1116.000000	58.141600
1115.000000	58.156500
1114.000000	58.170600
1113.000000	58.178500
1112.000000	58.192300
1111.000000	58.190200
1110.000000	58.199000
1109.000000	58.203400
1108.000000	58.207400
1107.000000	58.235300
1106.000000	58.231600
1105.000000	58.231900
1104.000000	58.222000
1103.000000	58.236500
1102.000000	58.244900
1101.000000	58.251500
1100.000000	58.244700
1099.000000	58.231800
1098.000000	58.226500
1097.000000	58.228000
1096.000000	58.199600
1095.000000	58.191300
1094.000000	58.188200
1093.000000	58.162300
1092.000000	58.142500
1091.000000	58.129700
1090.000000	58.107300
1089.000000	58.078000
1088.000000	58.052700
1087.000000	58.036900
1086.000000	57.987400
1085.000000	57.960200
1084.000000	57.971600
1083.000000	57.928700
1082.000000	57.894500
1081.000000	57.870300
1080.000000	57.832900
1079.000000	57.796000
1078.000000	57.779400
1077.000000	57.758500
1076.000000	57.728000
1075.000000	57.731500
1074.000000	57.708100
1073.000000	57.674100
1072.000000	57.663000
1071.000000	57.639900
1070.000000	57.618200
1069.000000	57.599100
1068.000000	57.582700
1067.000000	57.569200
1066.000000	57.562900
1065.000000	57.527100
1064.000000	57.511400
1063.000000	57.478300
1062.000000	57.456200
1061.000000	57.443900
1060.000000	57.426300
1059.000000	57.390400
1058.000000	57.334100
1057.000000	57.302500
1056.000000	57.284200
1055.000000	57.261000
1054.000000	57.210600
1053.000000	57.191300
1052.000000	57.157100
1051.000000	57.134200
1050.000000	57.086300
1049.000000	57.077400
1048.000000	57.055300
1047.000000	57.042300
1046.000000	57.011500
1045.000000	56.989300
1044.000000	56.970700
1043.000000	56.949500
1042.000000	56.920100
1041.000000	56.898600
1040.000000	56.879900
1039.000000	56.844000
1038.000000	56.812700
1037.000000	56.802400
1036.000000	56.777600
1035.000000	56.754200
1034.000000	56.723800
1033.000000	56.694800
1032.000000	56.668700
1031.000000	56.650600
1030.000000	56.627200
1029.000000	56.607500
1028.000000	56.573500
1027.000000	56.545600
1026.000000	56.535600
1025.000000	56.494700
1024.000000	56.475300
1023.000000	56.461600
1022.000000	56.430700
1021.000000	56.394300
1020.000000	56.375800
1019.000000	56.359300
1018.000000	56.340400
1017.000000	56.331100
1016.000000	56.320100
1015.000000	56.302700
1014.000000	56.289800
1013.000000	56.290400
1012.000000	56.304200
1011.000000	56.317000
1010.000000	56.331500
1009.000000	56.365200
1008.000000	56.380900
1007.000000	56.392600
1006.000000	56.428900
1005.000000	56.477000
1004.000000	56.495000
1003.000000	56.513600
1002.000000	56.538200
1001.000000	56.574700
1000.000000	56.599300
999.000000	56.612400
998.000000	56.641100
997.000000	56.670400
996.000000	56.694800
995.000000	56.734600
994.000000	56.753200
993.000000	56.762600
992.000000	56.802500
991.000000	56.829200
990.000000	56.850700
989.000000	56.881000
988.000000	56.926100
987.000000	56.969900
986.000000	57.014100
985.000000	57.066900
984.000000	57.126800
983.000000	57.173400
982.000000	57.233900
981.000000	57.296500
980.000000	57.351900
979.000000	57.415000
978.000000	57.487600
977.000000	57.543600
976.000000	57.595400
975.000000	57.663700
974.000000	57.720200
973.000000	57.788000
972.000000	57.847200
971.000000	57.884700
970.000000	57.945200
969.000000	58.011900
968.000000	58.071800
967.000000	58.129200
966.000000	58.207600
965.000000	58.280100
964.000000	58.345200
963.000000	58.425600
962.000000	58.502700
961.000000	58.583700
960.000000	58.680400
959.000000	58.777600
958.000000	58.858800
957.000000	58.932600
956.000000	59.016700
955.000000	59.087200
954.000000	59.147100
953.000000	59.214600
952.000000	59.279300
951.000000	59.332600
950.000000	59.403300
949.000000	59.458500
948.000000	59.500800
947.000000	59.575700
946.000000	59.642500
945.000000	59.700700
944.000000	59.779800
943.000000	59.861700
942.000000	59.933500
941.000000	60.013000
940.000000	60.112800
939.000000	60.205600
938.000000	60.302200
937.000000	60.400600
936.000000	60.489900
935.000000	60.578200
934.000000	60.649100
933.000000	60.713000
932.000000	60.783300
931.000000	60.854500
930.000000	60.924400
929.000000	60.974300
928.000000	61.023100
927.000000	61.063600
926.000000	61.116300
925.000000	61.162600
924.000000	61.189800
923.000000	61.234700
922.000000	61.295700
921.000000	61.365800
920.000000	61.414000
919.000000	61.459100
918.000000	61.514100
917.000000	61.553600
916.000000	61.596600
915.000000	61.639900
914.000000	61.668000
913.000000	61.689500
912.000000	61.708200
911.000000	61.737400
910.000000	61.758900
909.000000	61.778700
908.000000	61.801800
907.000000	61.839400
906.000000	61.891200
905.000000	61.954500
904.000000	62.017800
903.000000	62.093400
902.000000	62.166400
901.000000	62.266000
900.000000	62.378600
899.000000	62.499700
898.000000	62.619200
897.000000	62.733400
896.000000	62.853700
895.000000	62.980200
894.000000	63.092000
893.000000	63.189900
892.000000	63.294000
891.000000	63.381400
890.000000	63.472100
889.000000	63.553700
888.000000	63.630800
887.000000	63.689800
886.000000	63.761800
885.000000	63.842200
884.000000	63.921200
883.000000	63.972000
882.000000	64.039800
881.000000	64.071300
880.000000	64.118100
879.000000	64.153700
878.000000	64.203600
877.000000	64.197600
876.000000	64.164400
875.000000	64.131200
874.000000	64.126700
873.000000	64.057200
872.000000	63.937700
871.000000	63.855000
870.000000	63.898500
869.000000	64.017700
868.000000	64.203500
867.000000	64.362200
866.000000	64.502200
865.000000	64.659500
864.000000	64.793200
863.000000	64.988200
862.000000	65.135900
861.000000	65.296700
860.000000	65.469100
859.000000	65.641200
858.000000	65.790700
857.000000	65.567840
856.000000	65.792048
855.000000	65.904826
854.000000	65.942546
853.000000	66.432147
852.000000	66.534244
851.000000	66.214098
850.000000	66.774040
849.000000	66.902118
848.000000	66.395196
847.000000	67.034045
846.000000	67.130945
845.000000	67.580612
844.000000	67.459270
843.000000	67.799046
842.000000	68.247173
841.000000	68.157971
840.000000	68.515838
839.000000	68.722244
838.000000	68.641221
837.000000	68.814140
836.000000	68.816546
835.000000	69.353009
834.000000	69.348294
833.000000	69.647848
832.000000	70.059601
831.000000	69.947594
830.000000	70.245607
829.000000	70.253209
828.000000	70.302092
827.000000	70.365121
826.000000	70.625606
825.000000	70.828548
824.000000	70.584421
823.000000	70.659574
822.000000	70.868482
821.000000	70.933820
820.000000	70.976833
819.000000	70.937092
818.000000	70.936033
817.000000	70.828259
816.000000	70.957299
815.000000	70.899852
814.000000	71.083067
813.000000	71.080469
812.000000	70.910148
811.000000	71.021675
810.000000	71.136473
809.000000	71.039477
808.000000	70.805935
807.000000	70.818540
806.000000	70.998388
805.000000	70.905337
804.000000	71.129449
803.000000	71.008107
802.000000	71.052179
801.000000	71.226830
800.000000	71.208066
799.000000	71.285432
798.000000	71.471438
797.000000	71.146577
796.000000	71.376174
795.000000	71.371843
794.000000	71.535044
793.000000	71.573919
792.000000	71.597880
791.000000	71.724225
790.000000	71.722108
789.000000	71.512623
788.000000	71.612891
787.000000	71.628191
786.000000	71.464413
785.000000	71.319496
784.000000	71.393206
783.000000	71.225868
782.000000	71.115977
781.000000	71.075081
780.000000	70.806416
779.000000	70.777644
778.000000	70.730686
777.000000	70.554302
776.000000	70.372626
775.000000	70.309117
774.000000	70.292085
773.000000	70.104058
772.000000	69.970784
771.000000	69.845305
770.000000	69.673059
769.000000	69.591459
768.000000	69.320004
767.000000	68.943277
766.000000	68.901129
765.000000	68.830595
764.000000	68.788544
763.000000	68.488798
762.000000	68.375540
761.000000	68.204930
760.000000	68.092537
759.000000	67.760459
758.000000	67.608902
757.000000	67.532691
756.000000	67.389698
755.000000	67.118339
754.000000	67.008448
753.000000	66.927907
752.000000	66.793574
751.000000	66.651929
750.000000	66.277222
749.000000	66.241715
748.000000	65.999705
747.000000	65.841605
746.000000	65.616338
745.000000	65.527329
744.000000	65.304660
743.000000	65.106722
742.000000	64.920235
741.000000	64.884535
740.000000	64.646759
739.000000	64.585366
738.000000	64.548512
737.000000	64.468355
736.000000	64.383002
735.000000	64.330847
734.000000	64.309773
733.000000	64.195071
732.000000	64.177269
731.000000	64.160815
730.000000	64.024365
729.000000	63.926792
728.000000	63.865880
727.000000	63.851735
726.000000	63.731163
725.000000	63.635802
724.000000	63.461151
723.000000	63.401876
722.000000	63.225204
721.000000	63.158615
720.000000	63.007154
719.000000	62.902652
718.000000	62.753982
717.000000	62.662374
716.000000	62.495229
715.000000	62.413917
714.000000	62.302583
713.000000	62.185186
712.000000	62.109264
711.000000	61.905263
710.000000	61.818467
709.000000	61.661136
708.000000	61.483310
707.000000	61.323189
706.000000	61.165762
705.000000	60.989571
704.000000	60.799812
703.000000	60.518734
702.000000	60.315408
701.000000	60.141815
700.000000	59.855829
699.000000	59.600925
698.000000	59.361898
697.000000	59.056956
696.000000	58.780305
695.000000	58.494800
694.000000	58.296381
693.000000	58.005873
692.000000	57.672159
691.000000	57.352398
690.000000	57.057752
689.000000	56.706429
688.000000	56.362130
687.000000	56.028994
686.000000	55.578942
685.000000	55.147847
684.000000	54.711844
683.000000	54.277381
682.000000	53.815878
681.000000	53.307898
680.000000	52.800110
679.000000	52.324462
678.000000	51.826009
677.000000	51.336985
676.000000	50.863646
675.000000	50.418213
674.000000	49.986156
673.000000	49.580080
672.000000	49.198253
671.000000	48.830763
670.000000	48.524282
669.000000	48.218858
668.000000	47.970498
667.000000	47.792190
666.000000	47.577219
665.000000	47.365810
664.000000	47.251685
663.000000	47.168545
662.000000	47.075302
661.000000	46.988120
660.000000	46.970607
659.000000	46.956365
658.000000	46.951073
657.000000	46.986869
656.000000	47.023532
655.000000	47.103111
654.000000	47.217717
653.000000	47.343004
652.000000	47.562112
651.000000	47.860992
650.000000	48.182485
649.000000	48.539870
648.000000	48.993194
647.000000	49.490782
646.000000	49.971241
645.000000	50.500199
644.000000	51.055907
643.000000	51.693216
642.000000	52.323019
641.000000	52.873628
640.000000	53.473312
639.000000	54.034216
638.000000	54.584921
637.000000	55.127832
636.000000	55.621185
635.000000	56.125894
634.000000	56.617419
633.000000	57.082867
632.000000	57.566214
631.000000	58.039167
630.000000	58.500093
629.000000	59.006148
628.000000	59.504506
627.000000	60.049149
626.000000	60.612363
625.000000	61.151039
624.000000	61.702418
623.000000	62.263611
622.000000	62.874265
621.000000	63.468945
620.000000	64.037260
619.000000	64.610193
618.000000	65.139920
617.000000	65.640106
616.000000	66.137020
615.000000	66.644519
614.000000	67.166645
613.000000	67.609672
612.000000	68.016326
611.000000	68.384681
610.000000	68.803459
609.000000	69.201164
608.000000	69.538149
607.000000	69.852425
606.000000	70.185273
605.000000	70.480400
604.000000	70.751759
603.000000	71.030046
602.000000	71.301117
601.000000	71.556695
600.000000	71.802938
599.000000	72.004245
598.000000	72.216809
597.000000	72.392038
596.000000	72.572366
595.000000	72.720748
594.000000	72.862874
593.000000	73.013950
592.000000	73.138275
591.000000	73.203901
590.000000	73.275494
589.000000	73.354400
588.000000	73.389041
587.000000	73.396451
586.000000	73.424549
585.000000	73.437251
584.000000	73.383460
583.000000	73.358153
582.000000	73.292815
581.000000	73.217085
580.000000	73.102575
579.000000	72.996629
578.000000	72.863259
577.000000	72.681102
576.000000	72.493557
575.000000	72.277143
574.000000	72.014541
573.000000	71.731346
572.000000	71.412259
571.000000	71.070750
570.000000	70.704801
569.000000	70.299494
568.000000	69.883795
567.000000	69.451930
566.000000	68.993795
565.000000	68.486778
564.000000	68.044231
563.000000	67.513734
562.000000	66.953022
561.000000	66.414057
560.000000	65.826690
559.000000	65.156279
558.000000	64.544470
557.000000	63.918227
556.000000	63.283902
555.000000	62.633410
554.000000	61.921429
553.000000	61.161432
552.000000	60.401915
551.000000	59.647210
550.000000	58.791178
549.000000	57.924273
548.000000	57.034081
547.000000	56.120986
546.000000	55.154775
545.000000	54.098881
544.000000	53.052224
543.000000	51.966018
542.000000	50.808509
541.000000	49.634352
540.000000	48.438447
539.000000	47.190966
538.000000	45.939443
537.000000	44.684840
536.000000	43.443132
535.000000	42.168804
534.000000	40.901981
533.000000	39.667393
532.000000	38.446566
531.000000	37.256243
530.000000	36.082664
529.000000	34.955369
528.000000	33.906692
527.000000	32.885728
526.000000	31.978022
525.000000	31.093892
524.000000	30.240940
523.000000	29.494799
522.000000	28.807452
521.000000	28.172357
520.000000	27.588165
519.000000	27.085092
518.000000	26.667276
517.000000	26.273132
516.000000	25.927679
515.000000	25.626393
514.000000	25.375627
513.000000	25.141411
512.000000	24.952230
511.000000	24.776328
510.000000	24.654890
509.000000	24.519114
508.000000	24.400755
507.000000	24.311649
506.000000	24.232840
505.000000	24.123623
504.000000	24.015656
503.000000	23.893834
502.000000	23.773935
501.000000	23.595339
500.000000	23.447053
499.000000	23.295112
498.000000	23.129602
497.000000	22.876237
496.000000	22.622007
495.000000	22.349108
494.000000	22.027807
493.000000	21.705063
492.000000	21.380876
491.000000	21.018583
490.000000	20.606541
489.000000	20.224713
488.000000	19.848564
487.000000	19.437291
486.000000	19.031504
485.000000	18.673829
484.000000	18.296717
483.000000	17.922011
482.000000	17.585603
481.000000	17.287108
480.000000	17.016326
479.000000	16.784324
478.000000	16.588599
477.000000	16.409906
476.000000	16.270089
475.000000	16.148074
474.000000	16.061566
473.000000	15.993630
472.000000	15.961683
471.000000	15.949270
470.000000	15.974000
469.000000	15.993438
468.000000	16.046458
467.000000	16.132196
466.000000	16.208889
465.000000	16.270859
464.000000	16.411061
463.000000	16.546837
462.000000	16.641043
461.000000	16.770852
460.000000	16.854281
459.000000	16.985726
458.000000	17.106009
457.000000	17.195885
456.000000	17.273732
455.000000	17.393438
454.000000	17.446074
453.000000	17.500250
452.000000	17.569822
451.000000	17.633043
450.000000	17.629097
449.000000	17.585507
448.000000	17.592435
447.000000	17.571169
446.000000	17.528733
445.000000	17.496882
444.000000	17.418169
443.000000	17.306353
442.000000	17.230527
441.000000	17.079355
440.000000	16.969079
439.000000	16.805301
438.000000	16.656824
437.000000	16.485829
436.000000	16.331000
435.000000	16.160102
434.000000	15.941475
433.000000	15.735550
432.000000	15.525873
431.000000	15.320429
430.000000	15.088042
429.000000	14.834966
428.000000	14.586220
427.000000	14.366053
426.000000	14.094983
425.000000	13.814771
424.000000	13.579593
423.000000	13.309100
422.000000	13.046787
421.000000	12.754354
420.000000	12.492329
419.000000	12.187579
418.000000	11.913237
417.000000	11.648711
416.000000	11.375619
415.000000	11.079723
414.000000	10.796432
413.000000	10.515642
412.000000	10.252174
411.000000	9.999964
410.000000	9.738324
409.000000	9.487654
408.000000	9.254208
407.000000	9.013064
406.000000	8.793860
405.000000	8.571576
404.000000	8.361706
403.000000	8.170985
402.000000	7.982573
401.000000	7.812060
400.000000	7.631346
399.000000	7.471033
398.000000	7.349691
397.000000	7.203042
396.000000	7.086223
395.000000	6.959685
394.000000	6.865864
393.000000	6.749718
392.000000	6.649739
391.000000	6.559863
390.000000	6.470373
389.000000	6.400608
388.000000	6.340755
387.000000	6.275321
386.000000	6.206615
385.000000	6.162159
384.000000	6.133772
383.000000	6.094800
382.000000	6.056021
381.000000	6.004636
380.000000	5.974517
379.000000	5.949402
378.000000	5.936411
377.000000	5.924190
376.000000	5.840569
375.000000	5.596346
374.000000	5.227029
373.000000	5.146295
372.000000	5.454797
371.000000	5.632046
370.000000	5.544095
369.000000	5.668997
368.000000	5.698924
367.000000	5.596635
366.000000	5.709701
365.000000	5.705948
364.000000	5.669382
363.000000	5.697865
362.000000	5.674194
361.000000	5.698635
360.000000	5.828445
359.000000	5.661588
358.000000	5.510993
357.000000	5.746171
356.000000	5.678043
355.000000	5.559010
354.000000	5.786201
353.000000	5.909949
352.000000	5.682373
351.000000	5.582009
350.000000	5.565554
349.000000	5.638590
348.000000	5.814107
347.000000	5.688916
346.000000	5.718843
345.000000	5.876943
344.000000	5.759739
343.000000	5.776001
342.000000	5.999536
341.000000	5.898402
340.000000	5.930156
339.000000	5.958351
338.000000	5.714031
337.000000	5.911873
336.000000	6.092491
335.000000	5.783796
334.000000	5.959794
333.000000	5.913317
332.000000	5.906388
331.000000	6.173995
330.000000	5.834026
329.000000	5.648405
328.000000	5.554103
327.000000	5.560743
326.000000	5.714128
325.000000	6.364716
324.000000	6.578050
323.000000	6.341718
322.000000	7.258565
321.000000	6.827373
320.000000	6.352399
319.000000	6.722967
318.000000	6.979219
317.000000	6.968538
316.000000	6.192566
315.000000	5.727984
314.000000	5.762337
313.000000	5.796017
312.000000	5.777349
311.000000	5.768496
310.000000	5.815647
309.000000	5.820651
308.000000	5.828156
307.000000	5.833160
306.000000	5.808045
305.000000	5.761760
304.000000	5.754735
303.000000	5.832486
302.000000	5.845766
301.000000	5.844034
300.000000	5.847883
299.000000	5.876654
298.000000	5.852309
297.000000	5.894071
296.000000	5.924864
295.000000	5.955945
294.000000	5.911681
293.000000	5.910526
292.000000	5.929002
291.000000	5.990298
290.000000	6.008292
289.000000	5.974132
288.000000	5.985294
287.000000	6.024940
286.000000	6.020128
285.000000	6.038219
284.000000	6.063430
283.000000	6.015124
282.000000	6.045243
281.000000	6.049574
280.000000	6.056117
279.000000	6.111832
278.000000	6.081232
277.000000	6.150900
276.000000	6.147725
275.000000	6.152921
274.000000	6.154364
273.000000	6.155615
272.000000	6.200264
271.000000	6.222974
270.000000	6.208155
269.000000	6.241161
268.000000	6.254248
267.000000	6.263197
266.000000	6.309963
265.000000	6.345085
264.000000	6.434095
263.000000	6.449106
262.000000	6.478648
261.000000	6.506842
260.000000	6.522816
259.000000	6.526954
258.000000	6.540041
257.000000	6.566310
256.000000	6.598354
255.000000	6.597103
254.000000	6.620390
253.000000	6.636460
252.000000	6.679954
251.000000	6.700162
250.000000	6.708726
