PE UV       SUBTECH     SPECTRUM    ASCII       PEDS        4.00        
   -1
CICIMAUCR0204-2.Sample.ASC
24/05/31
15:45:50.00
24/05/31
15:45:50.00
Vinicio Soto Monge
C. cupreomarginata. Sex M. Dorsal
250,000000
1
Lambda 1050
1050L1511233
PerkinElmer UV WinLab 6.3.2.0749 / 2.02.05 Lambda 900 UV/VIS/NIR, Aug  7 2015 09:38:08

0
0
3350/servo 860,8/2
0
0
UV/VIS
1
1
1
DoubleDePol,CommonBeamDepol,RBeamAtt,SBeamAtt,60mm sphere, WB InGaAs Detector
0
0
0
0
Program
Program
3350/servo 860,8/2
3350/0,2 860,8/0,2
3350/0,2 860,8/0,2
0
15.00
 
 
 
0
 
860,8
319,2
860,8
Front
100
on
S:100 R:100
0
0
0
0
 
0
 
 
 
0
 
 
0
0
0
0
0
 
 
 
 
0
0


0
0
#HDR
-1
-1
#GR
nm
%R
1.0
0.0
2500,000000
-1,000000
2251
8
68,788900
5,307800
#DATA
2500.000000	10.888800
2499.000000	10.929200
2498.000000	11.033400
2497.000000	10.880300
2496.000000	10.908300
2495.000000	10.759900
2494.000000	10.873000
2493.000000	10.790500
2492.000000	10.806100
2491.000000	10.823600
2490.000000	10.798600
2489.000000	10.674800
2488.000000	10.797400
2487.000000	10.808200
2486.000000	10.655900
2485.000000	10.774500
2484.000000	10.757800
2483.000000	10.688900
2482.000000	10.735400
2481.000000	10.711600
2480.000000	10.760900
2479.000000	10.774500
2478.000000	10.760000
2477.000000	10.789100
2476.000000	10.768900
2475.000000	10.789000
2474.000000	10.802900
2473.000000	10.789000
2472.000000	10.813000
2471.000000	10.773400
2470.000000	10.828800
2469.000000	10.865700
2468.000000	10.854100
2467.000000	10.902000
2466.000000	10.886700
2465.000000	10.892200
2464.000000	10.937800
2463.000000	11.001500
2462.000000	11.004300
2461.000000	11.043700
2460.000000	11.075200
2459.000000	11.154100
2458.000000	11.233800
2457.000000	11.294500
2456.000000	11.335600
2455.000000	11.428200
2454.000000	11.491800
2453.000000	11.597600
2452.000000	11.665800
2451.000000	11.733300
2450.000000	11.803000
2449.000000	11.914800
2448.000000	11.997400
2447.000000	12.086000
2446.000000	12.168200
2445.000000	12.267700
2444.000000	12.355200
2443.000000	12.430100
2442.000000	12.522400
2441.000000	12.614700
2440.000000	12.680200
2439.000000	12.769900
2438.000000	12.877300
2437.000000	12.959800
2436.000000	13.023600
2435.000000	13.092900
2434.000000	13.154000
2433.000000	13.211000
2432.000000	13.299700
2431.000000	13.363400
2430.000000	13.429000
2429.000000	13.492600
2428.000000	13.538000
2427.000000	13.593200
2426.000000	13.649600
2425.000000	13.698500
2424.000000	13.743600
2423.000000	13.788900
2422.000000	13.846900
2421.000000	13.880000
2420.000000	13.931100
2419.000000	13.975400
2418.000000	13.993700
2417.000000	14.030000
2416.000000	14.073000
2415.000000	14.098300
2414.000000	14.137100
2413.000000	14.194000
2412.000000	14.218800
2411.000000	14.260400
2410.000000	14.290000
2409.000000	14.313400
2408.000000	14.345000
2407.000000	14.381000
2406.000000	14.417100
2405.000000	14.438200
2404.000000	14.475100
2403.000000	14.514500
2402.000000	14.541600
2401.000000	14.561800
2400.000000	14.605400
2399.000000	14.649300
2398.000000	14.686700
2397.000000	14.711200
2396.000000	14.734900
2395.000000	14.773600
2394.000000	14.798000
2393.000000	14.821500
2392.000000	14.849500
2391.000000	14.879600
2390.000000	14.897500
2389.000000	14.923000
2388.000000	14.943100
2387.000000	14.958500
2386.000000	14.970200
2385.000000	14.979600
2384.000000	14.980000
2383.000000	14.980600
2382.000000	14.990200
2381.000000	14.987200
2380.000000	14.984200
2379.000000	14.972700
2378.000000	14.957400
2377.000000	14.946900
2376.000000	14.930300
2375.000000	14.912900
2374.000000	14.897300
2373.000000	14.880300
2372.000000	14.861200
2371.000000	14.835600
2370.000000	14.800800
2369.000000	14.769600
2368.000000	14.751800
2367.000000	14.709700
2366.000000	14.654900
2365.000000	14.610700
2364.000000	14.557100
2363.000000	14.492200
2362.000000	14.429800
2361.000000	14.370900
2360.000000	14.310000
2359.000000	14.251400
2358.000000	14.199000
2357.000000	14.154400
2356.000000	14.109400
2355.000000	14.066200
2354.000000	14.039800
2353.000000	14.018700
2352.000000	14.012400
2351.000000	14.014600
2350.000000	14.017300
2349.000000	14.023800
2348.000000	14.052100
2347.000000	14.084200
2346.000000	14.123400
2345.000000	14.173600
2344.000000	14.209700
2343.000000	14.247200
2342.000000	14.291300
2341.000000	14.327400
2340.000000	14.356900
2339.000000	14.389500
2338.000000	14.409700
2337.000000	14.427100
2336.000000	14.441600
2335.000000	14.422300
2334.000000	14.404000
2333.000000	14.401100
2332.000000	14.376000
2331.000000	14.337400
2330.000000	14.282300
2329.000000	14.225400
2328.000000	14.173900
2327.000000	14.108000
2326.000000	14.030600
2325.000000	13.951300
2324.000000	13.864900
2323.000000	13.771100
2322.000000	13.660600
2321.000000	13.556700
2320.000000	13.448100
2319.000000	13.316600
2318.000000	13.184900
2317.000000	13.073800
2316.000000	12.916800
2315.000000	12.777100
2314.000000	12.665600
2313.000000	12.543600
2312.000000	12.412400
2311.000000	12.307500
2310.000000	12.195500
2309.000000	12.098800
2308.000000	12.037800
2307.000000	11.990300
2306.000000	11.974800
2305.000000	11.970900
2304.000000	11.973900
2303.000000	11.985200
2302.000000	12.026900
2301.000000	12.098800
2300.000000	12.179000
2299.000000	12.252400
2298.000000	12.350800
2297.000000	12.461200
2296.000000	12.565800
2295.000000	12.660600
2294.000000	12.755700
2293.000000	12.818900
2292.000000	12.906800
2291.000000	12.954500
2290.000000	12.973800
2289.000000	13.004500
2288.000000	13.047800
2287.000000	13.044800
2286.000000	13.023100
2285.000000	13.002200
2284.000000	12.982200
2283.000000	12.943600
2282.000000	12.894800
2281.000000	12.835700
2280.000000	12.775100
2279.000000	12.711300
2278.000000	12.631500
2277.000000	12.584000
2276.000000	12.545100
2275.000000	12.479900
2274.000000	12.449900
2273.000000	12.415800
2272.000000	12.384200
2271.000000	12.379800
2270.000000	12.396600
2269.000000	12.421000
2268.000000	12.453800
2267.000000	12.535800
2266.000000	12.613600
2265.000000	12.733600
2264.000000	12.889500
2263.000000	13.043100
2262.000000	13.213000
2261.000000	13.428700
2260.000000	13.637500
2259.000000	13.867400
2258.000000	14.117000
2257.000000	14.384100
2256.000000	14.649800
2255.000000	14.919100
2254.000000	15.176400
2253.000000	15.410000
2252.000000	15.665700
2251.000000	15.905800
2250.000000	16.127900
2249.000000	16.333400
2248.000000	16.546300
2247.000000	16.752600
2246.000000	16.918000
2245.000000	17.066100
2244.000000	17.198800
2243.000000	17.346500
2242.000000	17.486000
2241.000000	17.617000
2240.000000	17.694900
2239.000000	17.809800
2238.000000	17.896800
2237.000000	17.977700
2236.000000	18.059400
2235.000000	18.120100
2234.000000	18.162000
2233.000000	18.221900
2232.000000	18.261600
2231.000000	18.298500
2230.000000	18.339100
2229.000000	18.366400
2228.000000	18.364400
2227.000000	18.372200
2226.000000	18.381400
2225.000000	18.388800
2224.000000	18.352800
2223.000000	18.325500
2222.000000	18.306100
2221.000000	18.296100
2220.000000	18.286600
2219.000000	18.231000
2218.000000	18.211300
2217.000000	18.185600
2216.000000	18.131300
2215.000000	18.097000
2214.000000	18.051400
2213.000000	18.040900
2212.000000	18.001300
2211.000000	17.958600
2210.000000	17.922000
2209.000000	17.902800
2208.000000	17.864800
2207.000000	17.851800
2206.000000	17.806100
2205.000000	17.795400
2204.000000	17.777700
2203.000000	17.769800
2202.000000	17.748100
2201.000000	17.730400
2200.000000	17.710400
2199.000000	17.713200
2198.000000	17.676300
2197.000000	17.671100
2196.000000	17.643300
2195.000000	17.620100
2194.000000	17.625500
2193.000000	17.615800
2192.000000	17.584000
2191.000000	17.582200
2190.000000	17.566500
2189.000000	17.557700
2188.000000	17.545100
2187.000000	17.535900
2186.000000	17.523600
2185.000000	17.496400
2184.000000	17.468000
2183.000000	17.476300
2182.000000	17.459100
2181.000000	17.455200
2180.000000	17.427100
2179.000000	17.425600
2178.000000	17.403400
2177.000000	17.396700
2176.000000	17.396700
2175.000000	17.387000
2174.000000	17.386800
2173.000000	17.380300
2172.000000	17.378600
2171.000000	17.391600
2170.000000	17.390700
2169.000000	17.408700
2168.000000	17.433900
2167.000000	17.437700
2166.000000	17.465800
2165.000000	17.481000
2164.000000	17.505400
2163.000000	17.523100
2162.000000	17.556600
2161.000000	17.596200
2160.000000	17.622000
2159.000000	17.641900
2158.000000	17.678900
2157.000000	17.743300
2156.000000	17.769400
2155.000000	17.830000
2154.000000	17.877500
2153.000000	17.924600
2152.000000	17.955100
2151.000000	18.004800
2150.000000	18.053800
2149.000000	18.098900
2148.000000	18.143600
2147.000000	18.194900
2146.000000	18.250100
2145.000000	18.299600
2144.000000	18.331800
2143.000000	18.370000
2142.000000	18.422700
2141.000000	18.477100
2140.000000	18.513900
2139.000000	18.534600
2138.000000	18.575900
2137.000000	18.604200
2136.000000	18.631400
2135.000000	18.660400
2134.000000	18.684100
2133.000000	18.705400
2132.000000	18.724900
2131.000000	18.752200
2130.000000	18.780600
2129.000000	18.785500
2128.000000	18.792300
2127.000000	18.794900
2126.000000	18.803600
2125.000000	18.800900
2124.000000	18.774600
2123.000000	18.780800
2122.000000	18.781600
2121.000000	18.761100
2120.000000	18.735200
2119.000000	18.723200
2118.000000	18.699700
2117.000000	18.680400
2116.000000	18.658900
2115.000000	18.636400
2114.000000	18.610000
2113.000000	18.576800
2112.000000	18.560200
2111.000000	18.540700
2110.000000	18.501600
2109.000000	18.467900
2108.000000	18.440900
2107.000000	18.404500
2106.000000	18.376100
2105.000000	18.339500
2104.000000	18.303200
2103.000000	18.272300
2102.000000	18.240000
2101.000000	18.210700
2100.000000	18.166600
2099.000000	18.119800
2098.000000	18.090000
2097.000000	18.063100
2096.000000	18.039200
2095.000000	18.007000
2094.000000	17.985700
2093.000000	17.953100
2092.000000	17.917500
2091.000000	17.896200
2090.000000	17.866300
2089.000000	17.829100
2088.000000	17.815000
2087.000000	17.800300
2086.000000	17.758100
2085.000000	17.721700
2084.000000	17.692200
2083.000000	17.661600
2082.000000	17.623300
2081.000000	17.567400
2080.000000	17.530100
2079.000000	17.502700
2078.000000	17.460400
2077.000000	17.416300
2076.000000	17.367800
2075.000000	17.300500
2074.000000	17.252700
2073.000000	17.204400
2072.000000	17.142100
2071.000000	17.084700
2070.000000	17.035300
2069.000000	16.984800
2068.000000	16.923500
2067.000000	16.864700
2066.000000	16.805500
2065.000000	16.749300
2064.000000	16.684200
2063.000000	16.622400
2062.000000	16.586500
2061.000000	16.543000
2060.000000	16.495100
2059.000000	16.455200
2058.000000	16.436300
2057.000000	16.407200
2056.000000	16.379700
2055.000000	16.376100
2054.000000	16.390100
2053.000000	16.391900
2052.000000	16.402100
2051.000000	16.437700
2050.000000	16.476900
2049.000000	16.523100
2048.000000	16.591500
2047.000000	16.664400
2046.000000	16.726300
2045.000000	16.802000
2044.000000	16.888600
2043.000000	16.973100
2042.000000	17.069900
2041.000000	17.145700
2040.000000	17.216200
2039.000000	17.290900
2038.000000	17.381100
2037.000000	17.443800
2036.000000	17.501400
2035.000000	17.572000
2034.000000	17.650800
2033.000000	17.707500
2032.000000	17.750600
2031.000000	17.799500
2030.000000	17.835800
2029.000000	17.893100
2028.000000	17.932300
2027.000000	17.955500
2026.000000	17.983900
2025.000000	18.010100
2024.000000	18.037000
2023.000000	18.050000
2022.000000	18.065600
2021.000000	18.086100
2020.000000	18.093800
2019.000000	18.114600
2018.000000	18.119400
2017.000000	18.128100
2016.000000	18.111800
2015.000000	18.114500
2014.000000	18.101400
2013.000000	18.096300
2012.000000	18.084300
2011.000000	18.065800
2010.000000	18.034200
2009.000000	18.014000
2008.000000	17.974000
2007.000000	17.930700
2006.000000	17.908100
2005.000000	17.868100
2004.000000	17.818100
2003.000000	17.758700
2002.000000	17.706500
2001.000000	17.660500
2000.000000	17.588500
1999.000000	17.520400
1998.000000	17.458300
1997.000000	17.384400
1996.000000	17.306100
1995.000000	17.257100
1994.000000	17.166100
1993.000000	17.081200
1992.000000	17.010900
1991.000000	16.924800
1990.000000	16.855400
1989.000000	16.774700
1988.000000	16.690700
1987.000000	16.589700
1986.000000	16.475300
1985.000000	16.406900
1984.000000	16.315300
1983.000000	16.210800
1982.000000	16.120900
1981.000000	16.042100
1980.000000	15.949400
1979.000000	15.842000
1978.000000	15.749000
1977.000000	15.661900
1976.000000	15.561300
1975.000000	15.480800
1974.000000	15.385500
1973.000000	15.298200
1972.000000	15.225300
1971.000000	15.129900
1970.000000	15.044300
1969.000000	14.956100
1968.000000	14.867000
1967.000000	14.799500
1966.000000	14.700000
1965.000000	14.642700
1964.000000	14.552000
1963.000000	14.453800
1962.000000	14.387500
1961.000000	14.335400
1960.000000	14.244100
1959.000000	14.154800
1958.000000	14.068900
1957.000000	14.024400
1956.000000	13.956500
1955.000000	13.885200
1954.000000	13.796900
1953.000000	13.741400
1952.000000	13.667400
1951.000000	13.596400
1950.000000	13.554300
1949.000000	13.485200
1948.000000	13.423000
1947.000000	13.383300
1946.000000	13.318400
1945.000000	13.277600
1944.000000	13.238200
1943.000000	13.209400
1942.000000	13.196900
1941.000000	13.163100
1940.000000	13.130000
1939.000000	13.123200
1938.000000	13.129100
1937.000000	13.144700
1936.000000	13.151700
1935.000000	13.165400
1934.000000	13.195900
1933.000000	13.181500
1932.000000	13.228200
1931.000000	13.273200
1930.000000	13.344200
1929.000000	13.421800
1928.000000	13.487600
1927.000000	13.568800
1926.000000	13.676300
1925.000000	13.783200
1924.000000	13.864400
1923.000000	13.951100
1922.000000	14.089800
1921.000000	14.238700
1920.000000	14.377500
1919.000000	14.563000
1918.000000	14.702200
1917.000000	14.856900
1916.000000	15.005700
1915.000000	15.152200
1914.000000	15.324100
1913.000000	15.554100
1912.000000	15.776800
1911.000000	16.014400
1910.000000	16.187400
1909.000000	16.382600
1908.000000	16.552800
1907.000000	16.780500
1906.000000	17.015100
1905.000000	17.309500
1904.000000	17.635400
1903.000000	17.913500
1902.000000	18.173700
1901.000000	18.434300
1900.000000	18.734500
1899.000000	19.052200
1898.000000	19.409300
1897.000000	19.704000
1896.000000	19.995200
1895.000000	20.255000
1894.000000	20.533800
1893.000000	20.832700
1892.000000	21.168700
1891.000000	21.570900
1890.000000	21.968500
1889.000000	22.318700
1888.000000	22.684200
1887.000000	23.067700
1886.000000	23.449900
1885.000000	23.861000
1884.000000	24.301000
1883.000000	24.800800
1882.000000	25.292200
1881.000000	25.728700
1880.000000	26.196100
1879.000000	26.585100
1878.000000	27.013000
1877.000000	27.456500
1876.000000	27.862000
1875.000000	28.266800
1874.000000	28.644700
1873.000000	29.018400
1872.000000	29.395000
1871.000000	29.722900
1870.000000	30.035800
1869.000000	30.283100
1868.000000	30.552200
1867.000000	30.728900
1866.000000	30.875400
1865.000000	30.993300
1864.000000	31.104000
1863.000000	31.201400
1862.000000	31.295300
1861.000000	31.416600
1860.000000	31.537100
1859.000000	31.665600
1858.000000	31.757100
1857.000000	31.827300
1856.000000	31.877600
1855.000000	31.894300
1854.000000	31.936500
1853.000000	31.964500
1852.000000	31.965000
1851.000000	31.953600
1850.000000	31.956100
1849.000000	31.986900
1848.000000	32.006800
1847.000000	32.005400
1846.000000	32.001200
1845.000000	31.934000
1844.000000	31.891000
1843.000000	31.846000
1842.000000	31.865600
1841.000000	31.902700
1840.000000	31.885000
1839.000000	31.869000
1838.000000	31.848700
1837.000000	31.825300
1836.000000	31.791600
1835.000000	31.748400
1834.000000	31.695500
1833.000000	31.632900
1832.000000	31.569100
1831.000000	31.521600
1830.000000	31.474400
1829.000000	31.434300
1828.000000	31.387400
1827.000000	31.329700
1826.000000	31.273000
1825.000000	31.199000
1824.000000	31.147300
1823.000000	31.107200
1822.000000	31.090700
1821.000000	31.104000
1820.000000	31.095100
1819.000000	31.068500
1818.000000	31.036400
1817.000000	31.002200
1816.000000	30.978200
1815.000000	30.973200
1814.000000	30.947300
1813.000000	30.934200
1812.000000	30.931600
1811.000000	30.916900
1810.000000	30.890200
1809.000000	30.846600
1808.000000	30.801600
1807.000000	30.766500
1806.000000	30.745900
1805.000000	30.699900
1804.000000	30.645000
1803.000000	30.614400
1802.000000	30.582000
1801.000000	30.540900
1800.000000	30.488200
1799.000000	30.437100
1798.000000	30.387600
1797.000000	30.341400
1796.000000	30.308000
1795.000000	30.267400
1794.000000	30.219200
1793.000000	30.170500
1792.000000	30.133400
1791.000000	30.096000
1790.000000	30.040400
1789.000000	29.988700
1788.000000	29.943400
1787.000000	29.896700
1786.000000	29.841300
1785.000000	29.779200
1784.000000	29.729800
1783.000000	29.676600
1782.000000	29.608500
1781.000000	29.537800
1780.000000	29.486200
1779.000000	29.424400
1778.000000	29.356700
1777.000000	29.295100
1776.000000	29.221300
1775.000000	29.137100
1774.000000	29.052300
1773.000000	28.950400
1772.000000	28.855700
1771.000000	28.769700
1770.000000	28.669800
1769.000000	28.556300
1768.000000	28.462300
1767.000000	28.370100
1766.000000	28.281900
1765.000000	28.215800
1764.000000	28.164800
1763.000000	28.138500
1762.000000	28.116500
1761.000000	28.117900
1760.000000	28.143100
1759.000000	28.172800
1758.000000	28.219800
1757.000000	28.275500
1756.000000	28.332500
1755.000000	28.381000
1754.000000	28.412200
1753.000000	28.441900
1752.000000	28.452900
1751.000000	28.454600
1750.000000	28.447400
1749.000000	28.425200
1748.000000	28.391600
1747.000000	28.332100
1746.000000	28.275700
1745.000000	28.197400
1744.000000	28.107500
1743.000000	27.987600
1742.000000	27.845600
1741.000000	27.685700
1740.000000	27.514100
1739.000000	27.343300
1738.000000	27.165400
1737.000000	26.972900
1736.000000	26.829500
1735.000000	26.720900
1734.000000	26.640300
1733.000000	26.578800
1732.000000	26.573800
1731.000000	26.582100
1730.000000	26.617300
1729.000000	26.691700
1728.000000	26.761000
1727.000000	26.831300
1726.000000	26.914400
1725.000000	27.004300
1724.000000	27.081400
1723.000000	27.131200
1722.000000	27.167200
1721.000000	27.219800
1720.000000	27.272300
1719.000000	27.322900
1718.000000	27.379300
1717.000000	27.465700
1716.000000	27.523400
1715.000000	27.595200
1714.000000	27.679300
1713.000000	27.768000
1712.000000	27.847700
1711.000000	27.910400
1710.000000	27.974200
1709.000000	27.992800
1708.000000	28.031500
1707.000000	28.034100
1706.000000	28.026800
1705.000000	28.013100
1704.000000	27.972000
1703.000000	27.951600
1702.000000	27.877700
1701.000000	27.806900
1700.000000	27.698300
1699.000000	27.574800
1698.000000	27.477000
1697.000000	27.349400
1696.000000	27.264500
1695.000000	27.211900
1694.000000	27.232500
1693.000000	27.244100
1692.000000	27.323200
1691.000000	27.455900
1690.000000	27.586400
1689.000000	27.728600
1688.000000	27.819900
1687.000000	27.889600
1686.000000	27.959300
1685.000000	28.001100
1684.000000	28.088200
1683.000000	28.196800
1682.000000	28.401200
1681.000000	28.675600
1680.000000	29.039600
1679.000000	29.454700
1678.000000	29.887700
1677.000000	30.330900
1676.000000	30.740800
1675.000000	31.100300
1674.000000	31.442600
1673.000000	31.735700
1672.000000	31.994100
1671.000000	32.229300
1670.000000	32.422500
1669.000000	32.605300
1668.000000	32.774600
1667.000000	32.903300
1666.000000	33.023600
1665.000000	33.133000
1664.000000	33.238800
1663.000000	33.332100
1662.000000	33.414800
1661.000000	33.483700
1660.000000	33.530700
1659.000000	33.610100
1658.000000	33.658100
1657.000000	33.710100
1656.000000	33.752100
1655.000000	33.761900
1654.000000	33.786100
1653.000000	33.791600
1652.000000	33.814500
1651.000000	33.811600
1650.000000	33.796800
1649.000000	33.787700
1648.000000	33.793500
1647.000000	33.764100
1646.000000	33.725100
1645.000000	33.691200
1644.000000	33.662500
1643.000000	33.647000
1642.000000	33.620700
1641.000000	33.582400
1640.000000	33.543200
1639.000000	33.505400
1638.000000	33.466500
1637.000000	33.436500
1636.000000	33.385500
1635.000000	33.348900
1634.000000	33.291000
1633.000000	33.257100
1632.000000	33.200000
1631.000000	33.158900
1630.000000	33.094500
1629.000000	33.047000
1628.000000	32.977700
1627.000000	32.909500
1626.000000	32.857900
1625.000000	32.787100
1624.000000	32.733900
1623.000000	32.691300
1622.000000	32.630000
1621.000000	32.570500
1620.000000	32.501600
1619.000000	32.452900
1618.000000	32.396800
1617.000000	32.348900
1616.000000	32.300500
1615.000000	32.237000
1614.000000	32.182900
1613.000000	32.131700
1612.000000	32.066400
1611.000000	32.038300
1610.000000	31.957600
1609.000000	31.924500
1608.000000	31.867700
1607.000000	31.813500
1606.000000	31.747800
1605.000000	31.687800
1604.000000	31.621200
1603.000000	31.563100
1602.000000	31.507600
1601.000000	31.444400
1600.000000	31.373500
1599.000000	31.322900
1598.000000	31.247600
1597.000000	31.201900
1596.000000	31.147600
1595.000000	31.075900
1594.000000	31.026000
1593.000000	30.978900
1592.000000	30.929700
1591.000000	30.870200
1590.000000	30.805400
1589.000000	30.765600
1588.000000	30.698500
1587.000000	30.662500
1586.000000	30.622500
1585.000000	30.571800
1584.000000	30.542100
1583.000000	30.495400
1582.000000	30.454300
1581.000000	30.421300
1580.000000	30.366800
1579.000000	30.328100
1578.000000	30.301900
1577.000000	30.277100
1576.000000	30.253400
1575.000000	30.227000
1574.000000	30.215000
1573.000000	30.208800
1572.000000	30.201000
1571.000000	30.190800
1570.000000	30.184100
1569.000000	30.178800
1568.000000	30.170000
1567.000000	30.172700
1566.000000	30.164500
1565.000000	30.174900
1564.000000	30.177200
1563.000000	30.164700
1562.000000	30.156200
1561.000000	30.152300
1560.000000	30.150300
1559.000000	30.145700
1558.000000	30.133800
1557.000000	30.126500
1556.000000	30.113400
1555.000000	30.091000
1554.000000	30.062000
1553.000000	30.031700
1552.000000	30.000500
1551.000000	29.971200
1550.000000	29.946400
1549.000000	29.919200
1548.000000	29.884900
1547.000000	29.849600
1546.000000	29.805200
1545.000000	29.769300
1544.000000	29.741600
1543.000000	29.709100
1542.000000	29.691000
1541.000000	29.669200
1540.000000	29.651400
1539.000000	29.642800
1538.000000	29.620000
1537.000000	29.606500
1536.000000	29.590100
1535.000000	29.569400
1534.000000	29.529500
1533.000000	29.501700
1532.000000	29.483200
1531.000000	29.451400
1530.000000	29.421400
1529.000000	29.389500
1528.000000	29.354100
1527.000000	29.313900
1526.000000	29.273300
1525.000000	29.238800
1524.000000	29.206800
1523.000000	29.173600
1522.000000	29.124200
1521.000000	29.078200
1520.000000	29.050600
1519.000000	29.013400
1518.000000	28.964400
1517.000000	28.924200
1516.000000	28.879800
1515.000000	28.832300
1514.000000	28.795800
1513.000000	28.746800
1512.000000	28.692500
1511.000000	28.639200
1510.000000	28.591500
1509.000000	28.547500
1508.000000	28.490300
1507.000000	28.431600
1506.000000	28.376700
1505.000000	28.324500
1504.000000	28.280200
1503.000000	28.237100
1502.000000	28.190100
1501.000000	28.144300
1500.000000	28.108900
1499.000000	28.073400
1498.000000	28.027700
1497.000000	27.991600
1496.000000	27.971500
1495.000000	27.933800
1494.000000	27.904300
1493.000000	27.884000
1492.000000	27.854200
1491.000000	27.837000
1490.000000	27.821000
1489.000000	27.807400
1488.000000	27.793900
1487.000000	27.786100
1486.000000	27.771300
1485.000000	27.754400
1484.000000	27.750300
1483.000000	27.732600
1482.000000	27.736300
1481.000000	27.739500
1480.000000	27.726500
1479.000000	27.732500
1478.000000	27.747000
1477.000000	27.748500
1476.000000	27.757600
1475.000000	27.767600
1474.000000	27.781700
1473.000000	27.789200
1472.000000	27.814100
1471.000000	27.856100
1470.000000	27.866100
1469.000000	27.872500
1468.000000	27.895200
1467.000000	27.925500
1466.000000	27.948900
1465.000000	27.970200
1464.000000	27.996600
1463.000000	28.042600
1462.000000	28.078900
1461.000000	28.118900
1460.000000	28.165500
1459.000000	28.215200
1458.000000	28.266300
1457.000000	28.328400
1456.000000	28.388900
1455.000000	28.456700
1454.000000	28.538900
1453.000000	28.599800
1452.000000	28.661100
1451.000000	28.763600
1450.000000	28.848800
1449.000000	28.919700
1448.000000	28.980500
1447.000000	29.074300
1446.000000	29.175200
1445.000000	29.255800
1444.000000	29.353200
1443.000000	29.427900
1442.000000	29.520600
1441.000000	29.628300
1440.000000	29.701500
1439.000000	29.807600
1438.000000	29.906300
1437.000000	30.012500
1436.000000	30.100700
1435.000000	30.194300
1434.000000	30.308300
1433.000000	30.427900
1432.000000	30.550700
1431.000000	30.648800
1430.000000	30.763900
1429.000000	30.893800
1428.000000	31.031600
1427.000000	31.178800
1426.000000	31.341400
1425.000000	31.496200
1424.000000	31.674200
1423.000000	31.841000
1422.000000	32.013500
1421.000000	32.201300
1420.000000	32.410200
1419.000000	32.646500
1418.000000	32.849600
1417.000000	33.026900
1416.000000	33.212900
1415.000000	33.452700
1414.000000	33.718300
1413.000000	33.952600
1412.000000	34.174300
1411.000000	34.405200
1410.000000	34.672000
1409.000000	35.000800
1408.000000	35.312700
1407.000000	35.633500
1406.000000	35.961100
1405.000000	36.294000
1404.000000	36.640800
1403.000000	36.937400
1402.000000	37.276300
1401.000000	37.621500
1400.000000	38.012000
1399.000000	38.357300
1398.000000	38.575500
1397.000000	38.798700
1396.000000	39.106500
1395.000000	39.452800
1394.000000	39.711300
1393.000000	39.902600
1392.000000	40.122900
1391.000000	40.407200
1390.000000	40.666600
1389.000000	40.897000
1388.000000	41.257500
1387.000000	41.618000
1386.000000	41.963000
1385.000000	42.333600
1384.000000	42.778300
1383.000000	43.199800
1382.000000	43.640200
1381.000000	43.997400
1380.000000	44.316000
1379.000000	44.482100
1378.000000	44.681200
1377.000000	44.788000
1376.000000	44.950500
1375.000000	45.122200
1374.000000	45.291100
1373.000000	45.518000
1372.000000	45.743100
1371.000000	46.022500
1370.000000	46.276100
1369.000000	46.543100
1368.000000	46.783200
1367.000000	47.004400
1366.000000	47.206400
1365.000000	47.340100
1364.000000	47.528900
1363.000000	47.668700
1362.000000	47.844100
1361.000000	47.968800
1360.000000	48.062600
1359.000000	48.076400
1358.000000	48.191900
1357.000000	48.271900
1356.000000	48.386900
1355.000000	48.599200
1354.000000	48.864700
1353.000000	49.157800
1352.000000	49.421800
1351.000000	49.811300
1350.000000	50.157100
1349.000000	50.483400
1348.000000	50.809300
1347.000000	51.098700
1346.000000	51.383300
1345.000000	51.602900
1344.000000	51.895100
1343.000000	52.146900
1342.000000	52.377300
1341.000000	52.619600
1340.000000	52.837000
1339.000000	53.071700
1338.000000	53.305300
1337.000000	53.507500
1336.000000	53.719300
1335.000000	53.935500
1334.000000	54.140500
1333.000000	54.327300
1332.000000	54.527500
1331.000000	54.713900
1330.000000	54.889100
1329.000000	55.057100
1328.000000	55.225500
1327.000000	55.374700
1326.000000	55.539200
1325.000000	55.694600
1324.000000	55.824400
1323.000000	55.953000
1322.000000	56.084100
1321.000000	56.208400
1320.000000	56.319300
1319.000000	56.437800
1318.000000	56.549300
1317.000000	56.634500
1316.000000	56.767200
1315.000000	56.841700
1314.000000	56.937000
1313.000000	57.014700
1312.000000	57.102300
1311.000000	57.177700
1310.000000	57.247900
1309.000000	57.317400
1308.000000	57.377600
1307.000000	57.450600
1306.000000	57.493100
1305.000000	57.527700
1304.000000	57.579900
1303.000000	57.605100
1302.000000	57.642400
1301.000000	57.664400
1300.000000	57.677300
1299.000000	57.714800
1298.000000	57.725800
1297.000000	57.724400
1296.000000	57.734300
1295.000000	57.741900
1294.000000	57.755100
1293.000000	57.744800
1292.000000	57.736300
1291.000000	57.733900
1290.000000	57.714600
1289.000000	57.695400
1288.000000	57.677500
1287.000000	57.652700
1286.000000	57.619500
1285.000000	57.579700
1284.000000	57.541100
1283.000000	57.510600
1282.000000	57.454300
1281.000000	57.414100
1280.000000	57.364700
1279.000000	57.319800
1278.000000	57.263800
1277.000000	57.219400
1276.000000	57.188800
1275.000000	57.138700
1274.000000	57.105300
1273.000000	57.077400
1272.000000	57.047400
1271.000000	57.027000
1270.000000	56.984300
1269.000000	56.947300
1268.000000	56.919800
1267.000000	56.885600
1266.000000	56.861100
1265.000000	56.840900
1264.000000	56.805100
1263.000000	56.765400
1262.000000	56.725100
1261.000000	56.697200
1260.000000	56.676800
1259.000000	56.644000
1258.000000	56.594400
1257.000000	56.551200
1256.000000	56.517400
1255.000000	56.467300
1254.000000	56.425400
1253.000000	56.376600
1252.000000	56.317200
1251.000000	56.258000
1250.000000	56.223900
1249.000000	56.158600
1248.000000	56.096700
1247.000000	56.027900
1246.000000	55.959300
1245.000000	55.881200
1244.000000	55.788400
1243.000000	55.710600
1242.000000	55.619700
1241.000000	55.522200
1240.000000	55.427700
1239.000000	55.331700
1238.000000	55.247700
1237.000000	55.154100
1236.000000	55.045700
1235.000000	54.951500
1234.000000	54.851800
1233.000000	54.742400
1232.000000	54.633800
1231.000000	54.520400
1230.000000	54.401000
1229.000000	54.285100
1228.000000	54.169700
1227.000000	54.054800
1226.000000	53.943900
1225.000000	53.829900
1224.000000	53.713500
1223.000000	53.590500
1222.000000	53.459800
1221.000000	53.334400
1220.000000	53.215100
1219.000000	53.093600
1218.000000	52.984900
1217.000000	52.868700
1216.000000	52.751400
1215.000000	52.657200
1214.000000	52.568600
1213.000000	52.472100
1212.000000	52.383100
1211.000000	52.283900
1210.000000	52.192400
1209.000000	52.118700
1208.000000	52.034600
1207.000000	51.958300
1206.000000	51.900000
1205.000000	51.855200
1204.000000	51.798000
1203.000000	51.759700
1202.000000	51.715100
1201.000000	51.671100
1200.000000	51.651200
1199.000000	51.614400
1198.000000	51.546500
1197.000000	51.467800
1196.000000	51.378600
1195.000000	51.243000
1194.000000	51.067700
1193.000000	50.853300
1192.000000	50.592500
1191.000000	50.310500
1190.000000	50.006400
1189.000000	49.703500
1188.000000	49.436600
1187.000000	49.235100
1186.000000	49.119800
1185.000000	49.079700
1184.000000	49.124700
1183.000000	49.265800
1182.000000	49.475300
1181.000000	49.755800
1180.000000	50.079900
1179.000000	50.419400
1178.000000	50.757000
1177.000000	51.048300
1176.000000	51.308200
1175.000000	51.568900
1174.000000	51.782200
1173.000000	51.982400
1172.000000	52.196000
1171.000000	52.412400
1170.000000	52.640800
1169.000000	52.873200
1168.000000	53.116800
1167.000000	53.353500
1166.000000	53.583700
1165.000000	53.831900
1164.000000	54.103100
1163.000000	54.362100
1162.000000	54.631500
1161.000000	54.890600
1160.000000	55.132100
1159.000000	55.390400
1158.000000	55.650500
1157.000000	55.890800
1156.000000	56.116700
1155.000000	56.311500
1154.000000	56.484700
1153.000000	56.631900
1152.000000	56.742900
1151.000000	56.834100
1150.000000	56.908800
1149.000000	56.957900
1148.000000	57.022000
1147.000000	57.091400
1146.000000	57.193200
1145.000000	57.315200
1144.000000	57.492400
1143.000000	57.688200
1142.000000	57.926600
1141.000000	58.163900
1140.000000	58.443400
1139.000000	58.705600
1138.000000	58.993600
1137.000000	59.302100
1136.000000	59.601900
1135.000000	59.939200
1134.000000	60.261100
1133.000000	60.569700
1132.000000	60.803400
1131.000000	61.083900
1130.000000	61.316100
1129.000000	61.507100
1128.000000	61.685800
1127.000000	61.857200
1126.000000	61.980600
1125.000000	62.089600
1124.000000	62.204800
1123.000000	62.291900
1122.000000	62.345200
1121.000000	62.412700
1120.000000	62.456100
1119.000000	62.497900
1118.000000	62.536400
1117.000000	62.566000
1116.000000	62.588700
1115.000000	62.592900
1114.000000	62.599900
1113.000000	62.610200
1112.000000	62.627400
1111.000000	62.631600
1110.000000	62.646500
1109.000000	62.642900
1108.000000	62.636000
1107.000000	62.660400
1106.000000	62.662400
1105.000000	62.686900
1104.000000	62.678400
1103.000000	62.677000
1102.000000	62.660900
1101.000000	62.660600
1100.000000	62.655400
1099.000000	62.662200
1098.000000	62.662400
1097.000000	62.623600
1096.000000	62.638100
1095.000000	62.623300
1094.000000	62.609200
1093.000000	62.577700
1092.000000	62.562600
1091.000000	62.530200
1090.000000	62.511400
1089.000000	62.508000
1088.000000	62.460500
1087.000000	62.436800
1086.000000	62.391200
1085.000000	62.362700
1084.000000	62.337800
1083.000000	62.299700
1082.000000	62.268200
1081.000000	62.217800
1080.000000	62.184200
1079.000000	62.154500
1078.000000	62.130700
1077.000000	62.092200
1076.000000	62.069700
1075.000000	62.041800
1074.000000	61.993800
1073.000000	61.965100
1072.000000	61.917300
1071.000000	61.905700
1070.000000	61.856500
1069.000000	61.846500
1068.000000	61.802100
1067.000000	61.777600
1066.000000	61.751700
1065.000000	61.721800
1064.000000	61.688900
1063.000000	61.650800
1062.000000	61.624700
1061.000000	61.595700
1060.000000	61.578500
1059.000000	61.558100
1058.000000	61.529100
1057.000000	61.499900
1056.000000	61.475500
1055.000000	61.462200
1054.000000	61.447600
1053.000000	61.425100
1052.000000	61.429200
1051.000000	61.383000
1050.000000	61.380800
1049.000000	61.367100
1048.000000	61.354100
1047.000000	61.352000
1046.000000	61.353200
1045.000000	61.332200
1044.000000	61.354800
1043.000000	61.348300
1042.000000	61.338300
1041.000000	61.339300
1040.000000	61.356400
1039.000000	61.359600
1038.000000	61.365600
1037.000000	61.363000
1036.000000	61.363800
1035.000000	61.362800
1034.000000	61.375500
1033.000000	61.361200
1032.000000	61.367600
1031.000000	61.360000
1030.000000	61.359500
1029.000000	61.359900
1028.000000	61.356600
1027.000000	61.358200
1026.000000	61.344700
1025.000000	61.343800
1024.000000	61.344700
1023.000000	61.344800
1022.000000	61.346200
1021.000000	61.348100
1020.000000	61.334700
1019.000000	61.337300
1018.000000	61.350400
1017.000000	61.363900
1016.000000	61.369700
1015.000000	61.375600
1014.000000	61.377800
1013.000000	61.404500
1012.000000	61.446500
1011.000000	61.473200
1010.000000	61.487000
1009.000000	61.524600
1008.000000	61.571400
1007.000000	61.619500
1006.000000	61.659800
1005.000000	61.700400
1004.000000	61.725300
1003.000000	61.771500
1002.000000	61.819700
1001.000000	61.869600
1000.000000	61.908700
999.000000	61.949600
998.000000	61.986800
997.000000	62.029800
996.000000	62.096900
995.000000	62.140100
994.000000	62.189500
993.000000	62.240800
992.000000	62.303200
991.000000	62.356200
990.000000	62.402100
989.000000	62.472400
988.000000	62.534000
987.000000	62.600000
986.000000	62.669000
985.000000	62.746000
984.000000	62.816100
983.000000	62.885500
982.000000	62.964800
981.000000	63.041900
980.000000	63.119400
979.000000	63.207500
978.000000	63.285000
977.000000	63.384600
976.000000	63.458500
975.000000	63.530400
974.000000	63.629900
973.000000	63.704200
972.000000	63.786000
971.000000	63.882300
970.000000	63.982400
969.000000	64.072800
968.000000	64.159600
967.000000	64.250600
966.000000	64.356700
965.000000	64.447500
964.000000	64.533800
963.000000	64.640000
962.000000	64.741800
961.000000	64.852800
960.000000	64.963800
959.000000	65.072400
958.000000	65.172900
957.000000	65.261200
956.000000	65.373300
955.000000	65.479600
954.000000	65.564100
953.000000	65.646500
952.000000	65.729500
951.000000	65.819200
950.000000	65.908300
949.000000	65.997000
948.000000	66.079300
947.000000	66.150100
946.000000	66.205300
945.000000	66.269200
944.000000	66.354400
943.000000	66.423400
942.000000	66.483500
941.000000	66.541400
940.000000	66.599000
939.000000	66.657300
938.000000	66.713500
937.000000	66.757300
936.000000	66.811900
935.000000	66.862500
934.000000	66.907700
933.000000	66.969500
932.000000	67.014700
931.000000	67.072100
930.000000	67.103700
929.000000	67.137400
928.000000	67.179800
927.000000	67.230700
926.000000	67.258500
925.000000	67.278000
924.000000	67.315800
923.000000	67.351300
922.000000	67.399700
921.000000	67.434000
920.000000	67.467800
919.000000	67.496500
918.000000	67.513800
917.000000	67.537100
916.000000	67.545900
915.000000	67.574400
914.000000	67.594300
913.000000	67.612000
912.000000	67.623900
911.000000	67.638300
910.000000	67.648700
909.000000	67.657800
908.000000	67.671800
907.000000	67.706600
906.000000	67.728100
905.000000	67.747200
904.000000	67.770700
903.000000	67.792300
902.000000	67.815900
901.000000	67.832900
900.000000	67.849400
899.000000	67.881500
898.000000	67.907700
897.000000	67.919900
896.000000	67.913300
895.000000	67.922100
894.000000	67.931300
893.000000	67.925800
892.000000	67.926800
891.000000	67.912200
890.000000	67.901500
889.000000	67.866500
888.000000	67.830700
887.000000	67.798600
886.000000	67.758700
885.000000	67.687000
884.000000	67.627400
883.000000	67.558200
882.000000	67.494300
881.000000	67.390900
880.000000	67.313800
879.000000	67.220600
878.000000	67.114900
877.000000	66.966500
876.000000	66.796200
875.000000	66.613900
874.000000	66.467700
873.000000	66.247200
872.000000	66.001900
871.000000	65.848000
870.000000	65.814400
869.000000	65.812300
868.000000	65.836000
867.000000	65.847600
866.000000	65.837100
865.000000	65.858200
864.000000	65.850500
863.000000	65.858500
862.000000	65.851000
861.000000	65.866300
860.000000	65.873100
859.000000	65.862100
858.000000	65.867900
857.000000	65.869860
856.000000	66.596733
855.000000	66.396717
854.000000	66.147230
853.000000	66.433506
852.000000	66.061937
851.000000	66.186826
850.000000	66.299807
849.000000	65.859888
848.000000	66.211611
847.000000	66.137064
846.000000	65.851659
845.000000	66.266794
844.000000	65.885253
843.000000	65.548537
842.000000	65.721833
841.000000	65.688142
840.000000	65.503809
839.000000	65.315798
838.000000	65.244544
837.000000	65.222470
836.000000	65.112974
835.000000	65.279493
834.000000	65.104939
833.000000	64.730562
832.000000	64.742470
831.000000	64.720010
830.000000	64.792813
829.000000	64.596766
828.000000	64.571982
827.000000	64.393071
826.000000	64.301486
825.000000	64.249594
824.000000	64.084237
823.000000	63.818679
822.000000	63.815194
821.000000	63.635508
820.000000	63.714411
819.000000	63.653225
818.000000	63.602689
817.000000	63.316121
816.000000	63.165674
815.000000	63.078736
814.000000	62.957429
813.000000	62.955008
812.000000	63.041269
811.000000	62.901955
810.000000	62.628264
809.000000	62.674540
808.000000	62.698260
807.000000	62.362221
806.000000	62.272475
805.000000	62.245561
804.000000	62.205480
803.000000	62.115057
802.000000	61.842625
801.000000	61.975259
800.000000	61.785311
799.000000	61.594299
798.000000	61.724513
797.000000	61.447433
796.000000	61.461568
795.000000	61.397768
794.000000	61.194751
793.000000	61.071120
792.000000	60.975275
791.000000	61.050015
790.000000	60.949620
789.000000	60.828990
788.000000	60.828506
787.000000	60.601963
786.000000	60.451709
785.000000	60.419858
784.000000	60.305037
783.000000	60.259632
782.000000	60.072686
781.000000	60.100955
780.000000	59.729096
779.000000	59.831911
778.000000	59.662779
777.000000	59.559092
776.000000	59.490645
775.000000	59.362174
774.000000	59.354525
773.000000	59.095841
772.000000	59.062924
771.000000	58.958559
770.000000	58.789040
769.000000	58.779068
768.000000	58.626684
767.000000	58.480980
766.000000	58.315042
765.000000	58.230040
764.000000	58.257922
763.000000	57.947249
762.000000	57.918883
761.000000	57.613534
760.000000	57.525724
759.000000	57.313026
758.000000	57.330452
757.000000	57.189492
756.000000	57.042045
755.000000	56.858197
754.000000	56.737568
753.000000	56.627975
752.000000	56.514510
751.000000	56.342570
750.000000	56.201223
749.000000	56.139940
748.000000	55.939149
747.000000	55.893357
746.000000	55.766822
745.000000	55.645031
744.000000	55.524983
743.000000	55.347137
742.000000	55.278496
741.000000	55.272300
740.000000	55.134535
739.000000	55.123982
738.000000	55.026201
737.000000	54.960078
736.000000	54.982829
735.000000	54.853002
734.000000	54.799368
733.000000	54.689969
732.000000	54.659957
731.000000	54.601288
730.000000	54.509509
729.000000	54.430703
728.000000	54.341538
727.000000	54.149170
726.000000	53.952736
725.000000	53.898908
724.000000	53.757174
723.000000	53.640126
722.000000	53.547379
721.000000	53.366920
720.000000	53.154124
719.000000	53.056537
718.000000	52.986347
717.000000	52.831252
716.000000	52.675480
715.000000	52.567920
714.000000	52.455520
713.000000	52.269542
712.000000	52.149881
711.000000	52.036997
710.000000	51.862733
709.000000	51.720708
708.000000	51.596787
707.000000	51.369179
706.000000	51.214762
705.000000	51.061410
704.000000	50.833512
703.000000	50.635819
702.000000	50.420797
701.000000	50.254569
700.000000	50.082532
699.000000	49.842822
698.000000	49.646388
697.000000	49.447825
696.000000	49.219539
695.000000	49.020588
694.000000	48.864912
693.000000	48.676998
692.000000	48.489664
691.000000	48.354320
690.000000	48.186252
689.000000	48.000661
688.000000	47.771795
687.000000	47.614570
686.000000	47.457829
685.000000	47.271367
684.000000	47.125179
683.000000	46.932230
682.000000	46.769003
681.000000	46.581767
680.000000	46.399661
679.000000	46.268673
678.000000	46.130036
677.000000	46.030900
676.000000	45.898653
675.000000	45.811521
674.000000	45.760404
673.000000	45.691473
672.000000	45.666011
671.000000	45.664849
670.000000	45.628738
669.000000	45.620508
668.000000	45.607245
667.000000	45.634353
666.000000	45.650811
665.000000	45.615765
664.000000	45.602888
663.000000	45.633965
662.000000	45.636870
661.000000	45.650811
660.000000	45.662913
659.000000	45.642872
658.000000	45.627673
657.000000	45.629415
656.000000	45.632610
655.000000	45.631739
654.000000	45.607632
653.000000	45.591561
652.000000	45.574425
651.000000	45.562227
650.000000	45.528342
649.000000	45.483808
648.000000	45.426882
647.000000	45.325906
646.000000	45.216410
645.000000	45.094716
644.000000	44.894603
643.000000	44.675224
642.000000	44.466302
641.000000	44.215071
640.000000	43.959678
639.000000	43.652199
638.000000	43.351885
637.000000	43.117403
636.000000	42.889699
635.000000	42.652894
634.000000	42.468464
633.000000	42.341833
632.000000	42.251603
631.000000	42.203680
630.000000	42.215007
629.000000	42.282777
628.000000	42.381139
627.000000	42.568956
626.000000	42.840130
625.000000	43.149545
624.000000	43.503882
623.000000	43.898395
622.000000	44.315563
621.000000	44.790916
620.000000	45.296087
619.000000	45.826333
618.000000	46.370714
617.000000	46.927099
616.000000	47.481064
615.000000	48.037159
614.000000	48.645824
613.000000	49.251875
612.000000	49.874964
611.000000	50.503088
610.000000	51.119014
609.000000	51.706476
608.000000	52.288033
607.000000	52.829122
606.000000	53.347751
605.000000	53.823200
604.000000	54.282288
603.000000	54.707782
602.000000	55.092228
601.000000	55.464765
600.000000	55.761013
599.000000	56.046418
598.000000	56.360674
597.000000	56.609097
596.000000	56.800981
595.000000	57.004676
594.000000	57.226184
593.000000	57.422812
592.000000	57.599205
591.000000	57.736002
590.000000	57.904748
589.000000	58.088983
588.000000	58.224425
587.000000	58.386297
586.000000	58.507700
585.000000	58.657858
584.000000	58.829120
583.000000	58.940746
582.000000	59.067571
581.000000	59.242319
580.000000	59.435461
579.000000	59.611274
578.000000	59.747297
577.000000	59.946635
576.000000	60.110152
575.000000	60.284513
574.000000	60.465457
573.000000	60.590540
572.000000	60.694711
571.000000	60.821729
570.000000	60.890757
569.000000	60.935098
568.000000	60.993767
567.000000	61.018744
566.000000	61.042464
565.000000	60.999769
564.000000	61.011096
563.000000	60.993960
562.000000	60.968208
561.000000	60.978567
560.000000	60.945844
559.000000	60.949910
558.000000	60.891532
557.000000	60.896179
556.000000	60.873621
555.000000	60.826957
554.000000	60.745053
553.000000	60.637010
552.000000	60.484239
551.000000	60.300584
550.000000	60.121480
549.000000	59.841399
548.000000	59.544667
547.000000	59.192170
546.000000	58.832606
545.000000	58.448838
544.000000	58.012598
543.000000	57.529209
542.000000	57.028201
541.000000	56.495244
540.000000	55.866540
539.000000	55.279368
538.000000	54.622200
537.000000	53.910913
536.000000	53.168743
535.000000	52.384847
534.000000	51.550704
533.000000	50.739506
532.000000	49.888906
531.000000	48.952431
530.000000	48.045292
529.000000	47.148124
528.000000	46.201872
527.000000	45.304413
526.000000	44.412957
525.000000	43.519856
524.000000	42.615911
523.000000	41.736847
522.000000	40.875113
521.000000	40.040583
520.000000	39.275565
519.000000	38.523327
518.000000	37.826562
517.000000	37.173654
516.000000	36.529459
515.000000	35.912759
514.000000	35.349403
513.000000	34.808895
512.000000	34.282037
511.000000	33.767281
510.000000	33.310904
509.000000	32.835261
508.000000	32.386338
507.000000	31.943902
506.000000	31.468065
505.000000	31.025919
504.000000	30.590260
503.000000	30.128073
502.000000	29.671793
501.000000	29.174270
500.000000	28.732995
499.000000	28.283879
498.000000	27.814335
497.000000	27.320200
496.000000	26.857820
495.000000	26.438522
494.000000	26.001508
493.000000	25.571947
492.000000	25.155844
491.000000	24.745260
490.000000	24.391988
489.000000	24.034070
488.000000	23.669084
487.000000	23.376515
486.000000	23.094207
485.000000	22.794183
484.000000	22.552344
483.000000	22.313506
482.000000	22.061985
481.000000	21.848415
480.000000	21.679282
479.000000	21.493304
478.000000	21.316136
477.000000	21.143034
476.000000	20.964511
475.000000	20.823454
474.000000	20.674942
473.000000	20.573192
472.000000	20.425939
471.000000	20.274426
470.000000	20.140049
469.000000	19.989118
468.000000	19.890852
467.000000	19.747278
466.000000	19.622389
465.000000	19.474459
464.000000	19.328852
463.000000	19.184890
462.000000	19.036573
461.000000	18.891546
460.000000	18.762494
459.000000	18.624923
458.000000	18.441946
457.000000	18.282301
456.000000	18.135823
455.000000	18.000478
454.000000	17.816049
453.000000	17.657081
452.000000	17.479042
451.000000	17.351733
450.000000	17.150071
449.000000	16.948506
448.000000	16.770853
447.000000	16.560962
446.000000	16.373629
445.000000	16.188716
444.000000	15.950555
443.000000	15.733597
442.000000	15.510733
441.000000	15.295517
440.000000	15.049902
439.000000	14.804190
438.000000	14.555187
437.000000	14.316832
436.000000	14.067345
435.000000	13.818535
434.000000	13.582408
433.000000	13.332629
432.000000	13.072492
431.000000	12.818067
430.000000	12.557543
429.000000	12.297116
428.000000	12.038527
427.000000	11.777713
426.000000	11.485530
425.000000	11.266926
424.000000	11.022086
423.000000	10.762142
422.000000	10.496584
421.000000	10.231993
420.000000	9.986669
419.000000	9.745894
418.000000	9.527871
417.000000	9.290872
416.000000	9.085047
415.000000	8.871381
414.000000	8.686661
413.000000	8.463991
412.000000	8.279949
411.000000	8.105685
410.000000	7.931034
409.000000	7.772454
408.000000	7.605645
407.000000	7.457230
406.000000	7.333212
405.000000	7.207258
404.000000	7.085855
403.000000	6.969001
402.000000	6.863765
401.000000	6.789703
400.000000	6.686113
399.000000	6.602176
398.000000	6.524725
397.000000	6.461797
396.000000	6.387735
395.000000	6.311833
394.000000	6.248227
393.000000	6.203983
392.000000	6.149090
391.000000	6.094584
390.000000	6.054116
389.000000	6.011228
388.000000	5.980442
387.000000	5.950526
386.000000	5.916158
385.000000	5.863298
384.000000	5.836964
383.000000	5.813245
382.000000	5.776650
381.000000	5.747315
380.000000	5.714689
379.000000	5.691745
378.000000	5.672285
377.000000	5.683031
376.000000	5.656989
375.000000	5.651470
374.000000	5.608292
373.000000	5.584088
372.000000	5.593092
371.000000	5.604613
370.000000	5.605581
369.000000	5.538296
368.000000	5.507316
367.000000	5.571600
366.000000	5.536360
365.000000	5.516222
364.000000	5.502572
363.000000	5.514673
362.000000	5.497053
361.000000	5.450293
360.000000	5.424443
359.000000	5.482628
358.000000	5.428219
357.000000	5.405274
356.000000	5.403338
355.000000	5.415924
354.000000	5.376230
353.000000	5.362870
352.000000	5.366162
351.000000	5.398110
350.000000	5.437223
349.000000	5.381458
348.000000	5.336440
347.000000	5.323177
346.000000	5.322596
345.000000	5.351156
344.000000	5.341571
343.000000	5.382814
342.000000	5.385040
341.000000	5.272931
340.000000	5.328889
339.000000	5.395690
338.000000	5.352027
337.000000	5.301684
336.000000	5.329954
335.000000	5.329082
334.000000	5.305363
333.000000	5.328308
332.000000	5.314851
331.000000	5.304201
330.000000	5.344766
329.000000	5.280869
328.000000	5.293068
327.000000	5.316497
326.000000	5.279127
325.000000	5.316981
324.000000	5.261023
323.000000	5.279708
322.000000	5.346896
321.000000	5.394625
320.000000	5.307396
319.000000	5.226073
318.000000	5.138651
317.000000	5.176021
316.000000	5.254439
315.000000	5.255698
314.000000	5.266057
313.000000	5.233431
312.000000	5.208937
311.000000	5.199643
310.000000	5.224524
309.000000	5.244177
308.000000	5.237691
307.000000	5.261507
306.000000	5.243984
305.000000	5.218328
304.000000	5.231204
303.000000	5.233334
302.000000	5.262378
301.000000	5.272544
300.000000	5.268090
299.000000	5.239530
298.000000	5.253955
297.000000	5.283193
296.000000	5.294907
295.000000	5.296553
294.000000	5.283483
293.000000	5.290260
292.000000	5.285904
291.000000	5.307687
290.000000	5.337408
289.000000	5.297715
288.000000	5.281934
287.000000	5.320757
286.000000	5.344379
285.000000	5.335375
284.000000	5.342346
283.000000	5.340990
282.000000	5.360256
281.000000	5.369647
280.000000	5.353092
279.000000	5.359675
278.000000	5.352027
277.000000	5.389591
276.000000	5.386493
275.000000	5.400143
274.000000	5.408566
273.000000	5.411567
272.000000	5.454843
271.000000	5.465202
270.000000	5.451551
269.000000	5.471204
268.000000	5.506444
267.000000	5.532681
266.000000	5.541200
265.000000	5.539458
264.000000	5.556013
263.000000	5.570728
262.000000	5.609163
261.000000	5.627073
260.000000	5.648566
259.000000	5.637626
258.000000	5.641595
257.000000	5.649437
256.000000	5.677223
255.000000	5.687775
254.000000	5.688453
253.000000	5.675286
252.000000	5.700361
251.000000	5.701136
250.000000	5.704427
