PE UV       SUBTECH     SPECTRUM    ASCII       PEDS        4.00        
   -1
CICIMAUCR0251-3.Sample.ASC
24/05/27
17:05:10.00
24/05/27
17:05:10.00
Vinicio Soto Monge
C. resplendens, F
250,000000
1
Lambda 1050
1050L1511233
PerkinElmer UV WinLab 6.3.2.0749 / 2.02.05 Lambda 900 UV/VIS/NIR, Aug  7 2015 09:38:08

0
0
3350/servo 860,8/2
0
0
UV/VIS
1
1
1
DoubleDePol,CommonBeamDepol,RBeamAtt,SBeamAtt,60mm sphere, WB InGaAs Detector
0
0
0
0
Program
Program
3350/servo 860,8/2
3350/0,2 860,8/0,2
3350/0,2 860,8/0,2
0
15.00
 
 
 
0
 
860,8
319,2
860,8
Front
100
on
S:100 R:100
0
0
0
0
 
0
 
 
 
0
 
 
0
0
0
0
0
 
 
 
 
0
0


0
0
#HDR
-1
-1
#GR
nm
%R
1.0
0.0
2500,000000
-1,000000
2251
8
89,601500
5,208800
#DATA
2500.000000	5.589900
2499.000000	5.561900
2498.000000	5.580500
2497.000000	5.418800
2496.000000	5.470100
2495.000000	5.440000
2494.000000	5.343700
2493.000000	5.451300
2492.000000	5.472000
2491.000000	5.369000
2490.000000	5.430800
2489.000000	5.396400
2488.000000	5.373700
2487.000000	5.290100
2486.000000	5.350500
2485.000000	5.346500
2484.000000	5.324600
2483.000000	5.259900
2482.000000	5.288100
2481.000000	5.316600
2480.000000	5.255000
2479.000000	5.281400
2478.000000	5.261400
2477.000000	5.208800
2476.000000	5.267100
2475.000000	5.279800
2474.000000	5.294800
2473.000000	5.244300
2472.000000	5.259700
2471.000000	5.244500
2470.000000	5.229000
2469.000000	5.234600
2468.000000	5.256500
2467.000000	5.223400
2466.000000	5.220800
2465.000000	5.225800
2464.000000	5.232600
2463.000000	5.255300
2462.000000	5.267300
2461.000000	5.264400
2460.000000	5.223500
2459.000000	5.260200
2458.000000	5.297900
2457.000000	5.298000
2456.000000	5.285100
2455.000000	5.304500
2454.000000	5.339600
2453.000000	5.352900
2452.000000	5.357200
2451.000000	5.369800
2450.000000	5.361600
2449.000000	5.409800
2448.000000	5.405900
2447.000000	5.438000
2446.000000	5.447800
2445.000000	5.466900
2444.000000	5.475400
2443.000000	5.516200
2442.000000	5.524700
2441.000000	5.539800
2440.000000	5.567800
2439.000000	5.583300
2438.000000	5.583400
2437.000000	5.604100
2436.000000	5.639700
2435.000000	5.633900
2434.000000	5.677200
2433.000000	5.697400
2432.000000	5.688100
2431.000000	5.714100
2430.000000	5.736000
2429.000000	5.758700
2428.000000	5.763100
2427.000000	5.777200
2426.000000	5.797400
2425.000000	5.821700
2424.000000	5.825700
2423.000000	5.826300
2422.000000	5.837900
2421.000000	5.850500
2420.000000	5.892500
2419.000000	5.901900
2418.000000	5.898200
2417.000000	5.900500
2416.000000	5.919700
2415.000000	5.934600
2414.000000	5.947400
2413.000000	5.963400
2412.000000	5.975100
2411.000000	5.981300
2410.000000	5.990800
2409.000000	6.010900
2408.000000	6.022400
2407.000000	6.021800
2406.000000	6.032900
2405.000000	6.056000
2404.000000	6.063900
2403.000000	6.065900
2402.000000	6.071100
2401.000000	6.085900
2400.000000	6.089600
2399.000000	6.103500
2398.000000	6.102000
2397.000000	6.092200
2396.000000	6.116600
2395.000000	6.132900
2394.000000	6.140800
2393.000000	6.150900
2392.000000	6.161000
2391.000000	6.171500
2390.000000	6.167100
2389.000000	6.168400
2388.000000	6.179700
2387.000000	6.199100
2386.000000	6.207500
2385.000000	6.204100
2384.000000	6.199800
2383.000000	6.210300
2382.000000	6.214500
2381.000000	6.207400
2380.000000	6.215800
2379.000000	6.214900
2378.000000	6.206000
2377.000000	6.194800
2376.000000	6.202500
2375.000000	6.206500
2374.000000	6.197400
2373.000000	6.195300
2372.000000	6.193500
2371.000000	6.180900
2370.000000	6.162200
2369.000000	6.153900
2368.000000	6.155700
2367.000000	6.145100
2366.000000	6.124500
2365.000000	6.110100
2364.000000	6.102700
2363.000000	6.075800
2362.000000	6.051400
2361.000000	6.032500
2360.000000	6.018400
2359.000000	5.999600
2358.000000	5.974800
2357.000000	5.950700
2356.000000	5.936700
2355.000000	5.921900
2354.000000	5.903200
2353.000000	5.898400
2352.000000	5.905400
2351.000000	5.907700
2350.000000	5.904300
2349.000000	5.912500
2348.000000	5.930200
2347.000000	5.927900
2346.000000	5.923200
2345.000000	5.934100
2344.000000	5.945900
2343.000000	5.957900
2342.000000	5.972400
2341.000000	5.987300
2340.000000	6.012700
2339.000000	6.026700
2338.000000	6.032500
2337.000000	6.037600
2336.000000	6.033400
2335.000000	6.045900
2334.000000	6.043000
2333.000000	6.038900
2332.000000	6.024300
2331.000000	6.001000
2330.000000	5.969900
2329.000000	5.965700
2328.000000	5.945900
2327.000000	5.919100
2326.000000	5.891800
2325.000000	5.867300
2324.000000	5.842800
2323.000000	5.816000
2322.000000	5.782900
2321.000000	5.750900
2320.000000	5.717100
2319.000000	5.679600
2318.000000	5.641400
2317.000000	5.593800
2316.000000	5.570400
2315.000000	5.544800
2314.000000	5.501400
2313.000000	5.473300
2312.000000	5.436100
2311.000000	5.393000
2310.000000	5.358300
2309.000000	5.345600
2308.000000	5.306300
2307.000000	5.290800
2306.000000	5.287600
2305.000000	5.284800
2304.000000	5.278800
2303.000000	5.285100
2302.000000	5.300300
2301.000000	5.300400
2300.000000	5.319900
2299.000000	5.340300
2298.000000	5.353100
2297.000000	5.383500
2296.000000	5.415800
2295.000000	5.443700
2294.000000	5.457900
2293.000000	5.466400
2292.000000	5.478500
2291.000000	5.479900
2290.000000	5.511900
2289.000000	5.520800
2288.000000	5.513400
2287.000000	5.525200
2286.000000	5.515400
2285.000000	5.520300
2284.000000	5.495400
2283.000000	5.458300
2282.000000	5.455900
2281.000000	5.438100
2280.000000	5.414700
2279.000000	5.397100
2278.000000	5.395700
2277.000000	5.369200
2276.000000	5.341500
2275.000000	5.320500
2274.000000	5.311000
2273.000000	5.317600
2272.000000	5.295500
2271.000000	5.269000
2270.000000	5.252900
2269.000000	5.268800
2268.000000	5.268900
2267.000000	5.290000
2266.000000	5.307500
2265.000000	5.329000
2264.000000	5.361400
2263.000000	5.415000
2262.000000	5.452600
2261.000000	5.511800
2260.000000	5.579900
2259.000000	5.649200
2258.000000	5.707700
2257.000000	5.796800
2256.000000	5.881100
2255.000000	5.980700
2254.000000	6.059000
2253.000000	6.154300
2252.000000	6.248100
2251.000000	6.348900
2250.000000	6.423000
2249.000000	6.508800
2248.000000	6.608300
2247.000000	6.703600
2246.000000	6.769000
2245.000000	6.843200
2244.000000	6.919600
2243.000000	6.977600
2242.000000	7.025600
2241.000000	7.097600
2240.000000	7.140700
2239.000000	7.199600
2238.000000	7.264700
2237.000000	7.302400
2236.000000	7.333500
2235.000000	7.369300
2234.000000	7.409800
2233.000000	7.450400
2232.000000	7.470900
2231.000000	7.508700
2230.000000	7.516800
2229.000000	7.557300
2228.000000	7.570300
2227.000000	7.580600
2226.000000	7.583500
2225.000000	7.574800
2224.000000	7.604500
2223.000000	7.581700
2222.000000	7.585700
2221.000000	7.590500
2220.000000	7.595300
2219.000000	7.588600
2218.000000	7.579800
2217.000000	7.571500
2216.000000	7.542100
2215.000000	7.549200
2214.000000	7.519100
2213.000000	7.519700
2212.000000	7.500500
2211.000000	7.514100
2210.000000	7.483200
2209.000000	7.491000
2208.000000	7.459000
2207.000000	7.467200
2206.000000	7.457500
2205.000000	7.454400
2204.000000	7.431700
2203.000000	7.415400
2202.000000	7.419900
2201.000000	7.427300
2200.000000	7.415300
2199.000000	7.399800
2198.000000	7.377200
2197.000000	7.379500
2196.000000	7.379100
2195.000000	7.374200
2194.000000	7.396300
2193.000000	7.366400
2192.000000	7.371800
2191.000000	7.368300
2190.000000	7.369900
2189.000000	7.347200
2188.000000	7.375300
2187.000000	7.352300
2186.000000	7.356300
2185.000000	7.356600
2184.000000	7.331300
2183.000000	7.340300
2182.000000	7.335800
2181.000000	7.328700
2180.000000	7.332700
2179.000000	7.308500
2178.000000	7.318100
2177.000000	7.328300
2176.000000	7.321500
2175.000000	7.314800
2174.000000	7.338900
2173.000000	7.330500
2172.000000	7.326600
2171.000000	7.339400
2170.000000	7.339500
2169.000000	7.346300
2168.000000	7.356900
2167.000000	7.386100
2166.000000	7.397400
2165.000000	7.367500
2164.000000	7.421800
2163.000000	7.439100
2162.000000	7.432300
2161.000000	7.469200
2160.000000	7.486500
2159.000000	7.497700
2158.000000	7.493100
2157.000000	7.525200
2156.000000	7.544400
2155.000000	7.559700
2154.000000	7.582600
2153.000000	7.596100
2152.000000	7.604700
2151.000000	7.641900
2150.000000	7.650200
2149.000000	7.664000
2148.000000	7.700100
2147.000000	7.702100
2146.000000	7.712400
2145.000000	7.733700
2144.000000	7.764800
2143.000000	7.764500
2142.000000	7.783900
2141.000000	7.803900
2140.000000	7.829300
2139.000000	7.833400
2138.000000	7.832500
2137.000000	7.841100
2136.000000	7.857300
2135.000000	7.862700
2134.000000	7.872100
2133.000000	7.862800
2132.000000	7.873600
2131.000000	7.878700
2130.000000	7.871800
2129.000000	7.869800
2128.000000	7.881100
2127.000000	7.874300
2126.000000	7.871100
2125.000000	7.865800
2124.000000	7.833400
2123.000000	7.819100
2122.000000	7.814500
2121.000000	7.809800
2120.000000	7.803000
2119.000000	7.798400
2118.000000	7.761600
2117.000000	7.756800
2116.000000	7.752100
2115.000000	7.743700
2114.000000	7.700000
2113.000000	7.668300
2112.000000	7.650200
2111.000000	7.623600
2110.000000	7.619800
2109.000000	7.606800
2108.000000	7.575100
2107.000000	7.550400
2106.000000	7.526300
2105.000000	7.517300
2104.000000	7.498200
2103.000000	7.467800
2102.000000	7.445100
2101.000000	7.421900
2100.000000	7.414100
2099.000000	7.396800
2098.000000	7.373300
2097.000000	7.351300
2096.000000	7.337200
2095.000000	7.316900
2094.000000	7.302000
2093.000000	7.297800
2092.000000	7.290900
2091.000000	7.270600
2090.000000	7.258800
2089.000000	7.249600
2088.000000	7.230900
2087.000000	7.204900
2086.000000	7.189600
2085.000000	7.176800
2084.000000	7.156800
2083.000000	7.143200
2082.000000	7.136500
2081.000000	7.109500
2080.000000	7.088900
2079.000000	7.084500
2078.000000	7.061600
2077.000000	7.045800
2076.000000	7.031400
2075.000000	7.016000
2074.000000	6.984100
2073.000000	6.972400
2072.000000	6.966500
2071.000000	6.929900
2070.000000	6.905000
2069.000000	6.884300
2068.000000	6.858600
2067.000000	6.847000
2066.000000	6.822100
2065.000000	6.794200
2064.000000	6.775000
2063.000000	6.757900
2062.000000	6.750000
2061.000000	6.741700
2060.000000	6.709400
2059.000000	6.688800
2058.000000	6.680400
2057.000000	6.681100
2056.000000	6.671000
2055.000000	6.671800
2054.000000	6.677000
2053.000000	6.681100
2052.000000	6.691800
2051.000000	6.703500
2050.000000	6.707000
2049.000000	6.713500
2048.000000	6.749100
2047.000000	6.777700
2046.000000	6.815300
2045.000000	6.840300
2044.000000	6.872600
2043.000000	6.901500
2042.000000	6.923600
2041.000000	6.963400
2040.000000	7.003600
2039.000000	7.037100
2038.000000	7.083700
2037.000000	7.130800
2036.000000	7.142600
2035.000000	7.181100
2034.000000	7.196700
2033.000000	7.221800
2032.000000	7.249300
2031.000000	7.269200
2030.000000	7.297300
2029.000000	7.307800
2028.000000	7.329200
2027.000000	7.344300
2026.000000	7.355100
2025.000000	7.362000
2024.000000	7.386000
2023.000000	7.384100
2022.000000	7.389700
2021.000000	7.411100
2020.000000	7.414800
2019.000000	7.418900
2018.000000	7.438200
2017.000000	7.424300
2016.000000	7.427200
2015.000000	7.424400
2014.000000	7.424000
2013.000000	7.414800
2012.000000	7.406700
2011.000000	7.400900
2010.000000	7.394400
2009.000000	7.395000
2008.000000	7.367400
2007.000000	7.356300
2006.000000	7.341300
2005.000000	7.328200
2004.000000	7.309900
2003.000000	7.273100
2002.000000	7.259700
2001.000000	7.237300
2000.000000	7.220800
1999.000000	7.195400
1998.000000	7.171400
1997.000000	7.154700
1996.000000	7.133100
1995.000000	7.076600
1994.000000	7.045800
1993.000000	7.040400
1992.000000	7.008700
1991.000000	6.973800
1990.000000	6.931300
1989.000000	6.921800
1988.000000	6.876100
1987.000000	6.835500
1986.000000	6.810900
1985.000000	6.771800
1984.000000	6.731200
1983.000000	6.707500
1982.000000	6.666200
1981.000000	6.638800
1980.000000	6.614400
1979.000000	6.591900
1978.000000	6.544200
1977.000000	6.507300
1976.000000	6.479500
1975.000000	6.440500
1974.000000	6.408000
1973.000000	6.402100
1972.000000	6.370700
1971.000000	6.324700
1970.000000	6.295500
1969.000000	6.273400
1968.000000	6.258700
1967.000000	6.230900
1966.000000	6.204900
1965.000000	6.187100
1964.000000	6.152500
1963.000000	6.144500
1962.000000	6.112500
1961.000000	6.095500
1960.000000	6.065500
1959.000000	6.048400
1958.000000	6.035200
1957.000000	6.008700
1956.000000	5.997200
1955.000000	5.979400
1954.000000	5.939400
1953.000000	5.919700
1952.000000	5.904600
1951.000000	5.890600
1950.000000	5.855800
1949.000000	5.848100
1948.000000	5.842300
1947.000000	5.824500
1946.000000	5.831400
1945.000000	5.839800
1944.000000	5.816100
1943.000000	5.780300
1942.000000	5.773300
1941.000000	5.763400
1940.000000	5.778900
1939.000000	5.766400
1938.000000	5.768000
1937.000000	5.779300
1936.000000	5.774900
1935.000000	5.796900
1934.000000	5.793600
1933.000000	5.804600
1932.000000	5.805200
1931.000000	5.823500
1930.000000	5.834400
1929.000000	5.856300
1928.000000	5.878200
1927.000000	5.897600
1926.000000	5.919500
1925.000000	5.954700
1924.000000	5.977400
1923.000000	6.010500
1922.000000	6.056500
1921.000000	6.109600
1920.000000	6.145300
1919.000000	6.186900
1918.000000	6.228000
1917.000000	6.292500
1916.000000	6.329100
1915.000000	6.386800
1914.000000	6.441400
1913.000000	6.525400
1912.000000	6.602400
1911.000000	6.669800
1910.000000	6.735800
1909.000000	6.805400
1908.000000	6.883000
1907.000000	6.979000
1906.000000	7.078700
1905.000000	7.187500
1904.000000	7.297400
1903.000000	7.398200
1902.000000	7.549700
1901.000000	7.664900
1900.000000	7.791000
1899.000000	7.932500
1898.000000	8.112600
1897.000000	8.229300
1896.000000	8.412300
1895.000000	8.566100
1894.000000	8.703100
1893.000000	8.906300
1892.000000	9.092400
1891.000000	9.325500
1890.000000	9.545300
1889.000000	9.799600
1888.000000	10.031900
1887.000000	10.300100
1886.000000	10.572000
1885.000000	10.904000
1884.000000	11.239100
1883.000000	11.628600
1882.000000	12.044700
1881.000000	12.431800
1880.000000	12.861800
1879.000000	13.235200
1878.000000	13.635400
1877.000000	14.060900
1876.000000	14.464000
1875.000000	14.837800
1874.000000	15.220000
1873.000000	15.608800
1872.000000	15.976500
1871.000000	16.297800
1870.000000	16.619200
1869.000000	16.904200
1868.000000	17.200200
1867.000000	17.449700
1866.000000	17.654100
1865.000000	17.810500
1864.000000	17.986800
1863.000000	18.154700
1862.000000	18.289000
1861.000000	18.426100
1860.000000	18.561000
1859.000000	18.686800
1858.000000	18.778300
1857.000000	18.870200
1856.000000	18.940900
1855.000000	18.976000
1854.000000	19.026500
1853.000000	19.074400
1852.000000	19.063100
1851.000000	19.092200
1850.000000	19.078600
1849.000000	19.086700
1848.000000	19.093900
1847.000000	19.087300
1846.000000	19.060800
1845.000000	19.017800
1844.000000	18.990000
1843.000000	18.979200
1842.000000	18.978000
1841.000000	18.987200
1840.000000	18.967900
1839.000000	18.950200
1838.000000	18.915500
1837.000000	18.888200
1836.000000	18.848100
1835.000000	18.819800
1834.000000	18.786900
1833.000000	18.737600
1832.000000	18.689200
1831.000000	18.642900
1830.000000	18.594500
1829.000000	18.541400
1828.000000	18.503300
1827.000000	18.438600
1826.000000	18.376000
1825.000000	18.329100
1824.000000	18.273900
1823.000000	18.227500
1822.000000	18.204400
1821.000000	18.203900
1820.000000	18.192700
1819.000000	18.167700
1818.000000	18.116300
1817.000000	18.089300
1816.000000	18.088200
1815.000000	18.081000
1814.000000	18.082300
1813.000000	18.073900
1812.000000	18.058700
1811.000000	18.035500
1810.000000	18.013600
1809.000000	17.977600
1808.000000	17.952700
1807.000000	17.926500
1806.000000	17.886700
1805.000000	17.835900
1804.000000	17.798500
1803.000000	17.759400
1802.000000	17.701100
1801.000000	17.664500
1800.000000	17.618600
1799.000000	17.556300
1798.000000	17.509800
1797.000000	17.464700
1796.000000	17.426800
1795.000000	17.387100
1794.000000	17.348800
1793.000000	17.307100
1792.000000	17.259600
1791.000000	17.208300
1790.000000	17.143700
1789.000000	17.086600
1788.000000	17.042000
1787.000000	16.992700
1786.000000	16.926700
1785.000000	16.876100
1784.000000	16.821200
1783.000000	16.751900
1782.000000	16.689600
1781.000000	16.624600
1780.000000	16.545300
1779.000000	16.468700
1778.000000	16.405100
1777.000000	16.342700
1776.000000	16.275800
1775.000000	16.189100
1774.000000	16.093100
1773.000000	16.000200
1772.000000	15.910900
1771.000000	15.813000
1770.000000	15.707300
1769.000000	15.605800
1768.000000	15.517500
1767.000000	15.424800
1766.000000	15.354700
1765.000000	15.270900
1764.000000	15.207600
1763.000000	15.163700
1762.000000	15.161300
1761.000000	15.164300
1760.000000	15.188500
1759.000000	15.251900
1758.000000	15.304900
1757.000000	15.363000
1756.000000	15.433700
1755.000000	15.480700
1754.000000	15.518600
1753.000000	15.573500
1752.000000	15.595800
1751.000000	15.603200
1750.000000	15.606300
1749.000000	15.592300
1748.000000	15.577100
1747.000000	15.529600
1746.000000	15.479300
1745.000000	15.402400
1744.000000	15.305700
1743.000000	15.183300
1742.000000	15.045400
1741.000000	14.904000
1740.000000	14.735400
1739.000000	14.551100
1738.000000	14.361200
1737.000000	14.189700
1736.000000	14.032500
1735.000000	13.911400
1734.000000	13.831400
1733.000000	13.759400
1732.000000	13.720700
1731.000000	13.733100
1730.000000	13.771100
1729.000000	13.837200
1728.000000	13.915900
1727.000000	14.008100
1726.000000	14.105000
1725.000000	14.183600
1724.000000	14.225200
1723.000000	14.288400
1722.000000	14.344900
1721.000000	14.370200
1720.000000	14.383600
1719.000000	14.425800
1718.000000	14.449200
1717.000000	14.493300
1716.000000	14.555600
1715.000000	14.609900
1714.000000	14.670800
1713.000000	14.748700
1712.000000	14.798700
1711.000000	14.849500
1710.000000	14.898500
1709.000000	14.923100
1708.000000	14.941200
1707.000000	14.932300
1706.000000	14.912900
1705.000000	14.877700
1704.000000	14.838400
1703.000000	14.805800
1702.000000	14.724600
1701.000000	14.647000
1700.000000	14.541300
1699.000000	14.419400
1698.000000	14.286000
1697.000000	14.146300
1696.000000	14.051400
1695.000000	14.002800
1694.000000	13.959700
1693.000000	13.998400
1692.000000	14.069500
1691.000000	14.168600
1690.000000	14.286100
1689.000000	14.427300
1688.000000	14.520900
1687.000000	14.589800
1686.000000	14.630800
1685.000000	14.670300
1684.000000	14.716600
1683.000000	14.803900
1682.000000	14.943100
1681.000000	15.159100
1680.000000	15.500100
1679.000000	15.914900
1678.000000	16.355000
1677.000000	16.813100
1676.000000	17.247700
1675.000000	17.674300
1674.000000	18.011500
1673.000000	18.346900
1672.000000	18.595000
1671.000000	18.834100
1670.000000	19.049100
1669.000000	19.226700
1668.000000	19.382100
1667.000000	19.524100
1666.000000	19.626800
1665.000000	19.735000
1664.000000	19.840000
1663.000000	19.893000
1662.000000	19.967300
1661.000000	20.041300
1660.000000	20.072200
1659.000000	20.110800
1658.000000	20.143500
1657.000000	20.177300
1656.000000	20.190300
1655.000000	20.207900
1654.000000	20.224300
1653.000000	20.195100
1652.000000	20.199200
1651.000000	20.176600
1650.000000	20.146700
1649.000000	20.119800
1648.000000	20.076100
1647.000000	20.037200
1646.000000	20.008600
1645.000000	19.940700
1644.000000	19.894900
1643.000000	19.824900
1642.000000	19.802000
1641.000000	19.737200
1640.000000	19.690500
1639.000000	19.624200
1638.000000	19.552400
1637.000000	19.489900
1636.000000	19.423900
1635.000000	19.342900
1634.000000	19.288200
1633.000000	19.216300
1632.000000	19.124600
1631.000000	19.063900
1630.000000	19.012400
1629.000000	18.904200
1628.000000	18.825400
1627.000000	18.756100
1626.000000	18.668200
1625.000000	18.597200
1624.000000	18.518300
1623.000000	18.435300
1622.000000	18.360000
1621.000000	18.260900
1620.000000	18.184900
1619.000000	18.115400
1618.000000	18.046800
1617.000000	17.979700
1616.000000	17.903500
1615.000000	17.838000
1614.000000	17.756700
1613.000000	17.682400
1612.000000	17.614700
1611.000000	17.550900
1610.000000	17.474600
1609.000000	17.424800
1608.000000	17.352400
1607.000000	17.283300
1606.000000	17.228900
1605.000000	17.164800
1604.000000	17.091400
1603.000000	17.003400
1602.000000	16.948700
1601.000000	16.896900
1600.000000	16.830000
1599.000000	16.775300
1598.000000	16.692900
1597.000000	16.646800
1596.000000	16.600200
1595.000000	16.523900
1594.000000	16.473100
1593.000000	16.412100
1592.000000	16.366000
1591.000000	16.319900
1590.000000	16.276100
1589.000000	16.209500
1588.000000	16.176800
1587.000000	16.132500
1586.000000	16.087100
1585.000000	16.045800
1584.000000	16.019800
1583.000000	15.979800
1582.000000	15.953200
1581.000000	15.916100
1580.000000	15.879000
1579.000000	15.858800
1578.000000	15.818400
1577.000000	15.806500
1576.000000	15.775500
1575.000000	15.759600
1574.000000	15.754900
1573.000000	15.750500
1572.000000	15.742000
1571.000000	15.729700
1570.000000	15.733900
1569.000000	15.724100
1568.000000	15.726700
1567.000000	15.731700
1566.000000	15.725400
1565.000000	15.734300
1564.000000	15.742800
1563.000000	15.756000
1562.000000	15.744100
1561.000000	15.742700
1560.000000	15.745100
1559.000000	15.743300
1558.000000	15.724800
1557.000000	15.723800
1556.000000	15.714900
1555.000000	15.714300
1554.000000	15.698500
1553.000000	15.678500
1552.000000	15.667700
1551.000000	15.658800
1550.000000	15.622900
1549.000000	15.602400
1548.000000	15.579900
1547.000000	15.549300
1546.000000	15.519200
1545.000000	15.493700
1544.000000	15.486800
1543.000000	15.462800
1542.000000	15.440800
1541.000000	15.413000
1540.000000	15.395400
1539.000000	15.378200
1538.000000	15.359000
1537.000000	15.340100
1536.000000	15.317700
1535.000000	15.291100
1534.000000	15.248900
1533.000000	15.214400
1532.000000	15.197500
1531.000000	15.177400
1530.000000	15.131500
1529.000000	15.089100
1528.000000	15.050000
1527.000000	15.008700
1526.000000	14.968500
1525.000000	14.921500
1524.000000	14.871000
1523.000000	14.828400
1522.000000	14.786100
1521.000000	14.731100
1520.000000	14.685500
1519.000000	14.635800
1518.000000	14.582600
1517.000000	14.539400
1516.000000	14.483900
1515.000000	14.426900
1514.000000	14.373400
1513.000000	14.321200
1512.000000	14.278500
1511.000000	14.210800
1510.000000	14.147100
1509.000000	14.097600
1508.000000	14.042100
1507.000000	13.986900
1506.000000	13.931600
1505.000000	13.872400
1504.000000	13.819700
1503.000000	13.760300
1502.000000	13.703100
1501.000000	13.659000
1500.000000	13.609600
1499.000000	13.569700
1498.000000	13.523700
1497.000000	13.469600
1496.000000	13.436400
1495.000000	13.392900
1494.000000	13.360500
1493.000000	13.321800
1492.000000	13.284100
1491.000000	13.250100
1490.000000	13.219500
1489.000000	13.198500
1488.000000	13.169200
1487.000000	13.142800
1486.000000	13.125100
1485.000000	13.109300
1484.000000	13.080300
1483.000000	13.054200
1482.000000	13.036300
1481.000000	13.019300
1480.000000	13.010000
1479.000000	13.003900
1478.000000	12.999200
1477.000000	12.991700
1476.000000	12.998700
1475.000000	12.985200
1474.000000	12.975400
1473.000000	12.987900
1472.000000	12.991000
1471.000000	13.002900
1470.000000	13.024600
1469.000000	13.025400
1468.000000	13.026900
1467.000000	13.042600
1466.000000	13.052300
1465.000000	13.064900
1464.000000	13.091600
1463.000000	13.109400
1462.000000	13.127200
1461.000000	13.165200
1460.000000	13.188500
1459.000000	13.220400
1458.000000	13.251300
1457.000000	13.297900
1456.000000	13.343800
1455.000000	13.386600
1454.000000	13.446100
1453.000000	13.511900
1452.000000	13.558600
1451.000000	13.627200
1450.000000	13.685500
1449.000000	13.764300
1448.000000	13.818600
1447.000000	13.878400
1446.000000	13.949900
1445.000000	14.032200
1444.000000	14.105100
1443.000000	14.183600
1442.000000	14.259900
1441.000000	14.333500
1440.000000	14.429400
1439.000000	14.518600
1438.000000	14.595300
1437.000000	14.684900
1436.000000	14.776200
1435.000000	14.852200
1434.000000	14.946500
1433.000000	15.053500
1432.000000	15.165000
1431.000000	15.250900
1430.000000	15.384200
1429.000000	15.485800
1428.000000	15.626300
1427.000000	15.767800
1426.000000	15.899300
1425.000000	16.041100
1424.000000	16.218400
1423.000000	16.388000
1422.000000	16.570500
1421.000000	16.751600
1420.000000	16.943700
1419.000000	17.169000
1418.000000	17.387300
1417.000000	17.576400
1416.000000	17.786100
1415.000000	18.023600
1414.000000	18.272100
1413.000000	18.532200
1412.000000	18.758800
1411.000000	19.020000
1410.000000	19.311000
1409.000000	19.641800
1408.000000	19.999000
1407.000000	20.354800
1406.000000	20.705800
1405.000000	21.069300
1404.000000	21.468500
1403.000000	21.893500
1402.000000	22.281800
1401.000000	22.671200
1400.000000	23.094500
1399.000000	23.510600
1398.000000	23.852500
1397.000000	24.145800
1396.000000	24.478200
1395.000000	24.879800
1394.000000	25.244600
1393.000000	25.510000
1392.000000	25.779600
1391.000000	26.127600
1390.000000	26.503000
1389.000000	26.817200
1388.000000	27.229600
1387.000000	27.721700
1386.000000	28.171800
1385.000000	28.668300
1384.000000	29.214400
1383.000000	29.796400
1382.000000	30.385800
1381.000000	30.929500
1380.000000	31.368700
1379.000000	31.705300
1378.000000	32.008400
1377.000000	32.222000
1376.000000	32.441500
1375.000000	32.656300
1374.000000	32.909600
1373.000000	33.198900
1372.000000	33.534800
1371.000000	33.906900
1370.000000	34.302500
1369.000000	34.641700
1368.000000	34.970900
1367.000000	35.296700
1366.000000	35.591900
1365.000000	35.810400
1364.000000	36.068300
1363.000000	36.265500
1362.000000	36.461400
1361.000000	36.650700
1360.000000	36.813400
1359.000000	36.910900
1358.000000	37.008900
1357.000000	37.144800
1356.000000	37.323900
1355.000000	37.584900
1354.000000	37.926500
1353.000000	38.368300
1352.000000	38.792400
1351.000000	39.340100
1350.000000	39.878300
1349.000000	40.409100
1348.000000	40.852600
1347.000000	41.305800
1346.000000	41.748800
1345.000000	42.076800
1344.000000	42.452900
1343.000000	42.821000
1342.000000	43.188000
1341.000000	43.530600
1340.000000	43.867500
1339.000000	44.226300
1338.000000	44.556500
1337.000000	44.891100
1336.000000	45.206200
1335.000000	45.522200
1334.000000	45.838400
1333.000000	46.148300
1332.000000	46.447300
1331.000000	46.730900
1330.000000	47.024200
1329.000000	47.307300
1328.000000	47.565700
1327.000000	47.828100
1326.000000	48.069400
1325.000000	48.309200
1324.000000	48.550600
1323.000000	48.764000
1322.000000	48.958000
1321.000000	49.171500
1320.000000	49.379200
1319.000000	49.566300
1318.000000	49.767000
1317.000000	49.931100
1316.000000	50.104200
1315.000000	50.267100
1314.000000	50.419400
1313.000000	50.591200
1312.000000	50.742100
1311.000000	50.880700
1310.000000	51.021200
1309.000000	51.149400
1308.000000	51.250700
1307.000000	51.355100
1306.000000	51.465100
1305.000000	51.555600
1304.000000	51.650100
1303.000000	51.737000
1302.000000	51.780600
1301.000000	51.844100
1300.000000	51.913000
1299.000000	51.963600
1298.000000	52.010000
1297.000000	52.041800
1296.000000	52.078400
1295.000000	52.105300
1294.000000	52.128600
1293.000000	52.155000
1292.000000	52.167800
1291.000000	52.179200
1290.000000	52.178700
1289.000000	52.148400
1288.000000	52.142600
1287.000000	52.116900
1286.000000	52.088200
1285.000000	52.045100
1284.000000	51.990500
1283.000000	51.937300
1282.000000	51.886400
1281.000000	51.820400
1280.000000	51.770400
1279.000000	51.710700
1278.000000	51.641600
1277.000000	51.588700
1276.000000	51.537700
1275.000000	51.479800
1274.000000	51.420400
1273.000000	51.376200
1272.000000	51.331200
1271.000000	51.283500
1270.000000	51.240400
1269.000000	51.190300
1268.000000	51.132700
1267.000000	51.091500
1266.000000	51.031000
1265.000000	50.967600
1264.000000	50.920500
1263.000000	50.866500
1262.000000	50.817300
1261.000000	50.762400
1260.000000	50.714200
1259.000000	50.649000
1258.000000	50.577100
1257.000000	50.517800
1256.000000	50.457200
1255.000000	50.392200
1254.000000	50.322700
1253.000000	50.239800
1252.000000	50.168500
1251.000000	50.088900
1250.000000	49.990500
1249.000000	49.901300
1248.000000	49.807200
1247.000000	49.690800
1246.000000	49.582400
1245.000000	49.461200
1244.000000	49.328000
1243.000000	49.193000
1242.000000	49.055500
1241.000000	48.911600
1240.000000	48.762500
1239.000000	48.597700
1238.000000	48.443300
1237.000000	48.284500
1236.000000	48.111000
1235.000000	47.949600
1234.000000	47.779900
1233.000000	47.607100
1232.000000	47.439200
1231.000000	47.249900
1230.000000	47.054800
1229.000000	46.869900
1228.000000	46.670400
1227.000000	46.474300
1226.000000	46.287000
1225.000000	46.095900
1224.000000	45.900600
1223.000000	45.697700
1222.000000	45.498400
1221.000000	45.304800
1220.000000	45.108400
1219.000000	44.913800
1218.000000	44.728600
1217.000000	44.558300
1216.000000	44.395200
1215.000000	44.222800
1214.000000	44.066900
1213.000000	43.929600
1212.000000	43.787300
1211.000000	43.642800
1210.000000	43.501000
1209.000000	43.375500
1208.000000	43.251800
1207.000000	43.134500
1206.000000	43.026300
1205.000000	42.938300
1204.000000	42.875400
1203.000000	42.821000
1202.000000	42.767700
1201.000000	42.729100
1200.000000	42.693500
1199.000000	42.642900
1198.000000	42.560400
1197.000000	42.456500
1196.000000	42.320800
1195.000000	42.139100
1194.000000	41.887000
1193.000000	41.560400
1192.000000	41.193400
1191.000000	40.788900
1190.000000	40.327800
1189.000000	39.849800
1188.000000	39.445500
1187.000000	39.121800
1186.000000	38.921200
1185.000000	38.820600
1184.000000	38.852100
1183.000000	39.035200
1182.000000	39.342500
1181.000000	39.777800
1180.000000	40.283100
1179.000000	40.788000
1178.000000	41.303400
1177.000000	41.788800
1176.000000	42.219300
1175.000000	42.579400
1174.000000	42.937500
1173.000000	43.262700
1172.000000	43.583800
1171.000000	43.929500
1170.000000	44.297500
1169.000000	44.651800
1168.000000	45.026500
1167.000000	45.400800
1166.000000	45.794800
1165.000000	46.163100
1164.000000	46.560600
1163.000000	46.995500
1162.000000	47.398700
1161.000000	47.827700
1160.000000	48.235500
1159.000000	48.650600
1158.000000	49.080600
1157.000000	49.456100
1156.000000	49.810400
1155.000000	50.161900
1154.000000	50.452100
1153.000000	50.700200
1152.000000	50.889900
1151.000000	51.034100
1150.000000	51.160000
1149.000000	51.249500
1148.000000	51.336200
1147.000000	51.429300
1146.000000	51.576600
1145.000000	51.779400
1144.000000	52.029200
1143.000000	52.351500
1142.000000	52.726400
1141.000000	53.126300
1140.000000	53.574800
1139.000000	54.022200
1138.000000	54.487100
1137.000000	54.957300
1136.000000	55.464400
1135.000000	55.986500
1134.000000	56.531400
1133.000000	57.044600
1132.000000	57.475900
1131.000000	57.942500
1130.000000	58.345200
1129.000000	58.708000
1128.000000	59.027300
1127.000000	59.273000
1126.000000	59.508300
1125.000000	59.691600
1124.000000	59.817700
1123.000000	59.948000
1122.000000	60.061000
1121.000000	60.139100
1120.000000	60.224200
1119.000000	60.283100
1118.000000	60.348100
1117.000000	60.386700
1116.000000	60.398100
1115.000000	60.414200
1114.000000	60.445600
1113.000000	60.430600
1112.000000	60.446400
1111.000000	60.450900
1110.000000	60.455600
1109.000000	60.454900
1108.000000	60.466500
1107.000000	60.458900
1106.000000	60.467100
1105.000000	60.435400
1104.000000	60.465300
1103.000000	60.471300
1102.000000	60.425400
1101.000000	60.448100
1100.000000	60.454200
1099.000000	60.444900
1098.000000	60.409000
1097.000000	60.403300
1096.000000	60.386500
1095.000000	60.381500
1094.000000	60.344100
1093.000000	60.320500
1092.000000	60.292700
1091.000000	60.249600
1090.000000	60.211200
1089.000000	60.185400
1088.000000	60.134700
1087.000000	60.095500
1086.000000	60.037700
1085.000000	60.016300
1084.000000	59.957500
1083.000000	59.921000
1082.000000	59.868200
1081.000000	59.821300
1080.000000	59.781100
1079.000000	59.736900
1078.000000	59.692100
1077.000000	59.644600
1076.000000	59.623500
1075.000000	59.573000
1074.000000	59.510500
1073.000000	59.484900
1072.000000	59.446700
1071.000000	59.396800
1070.000000	59.354800
1069.000000	59.322100
1068.000000	59.270200
1067.000000	59.237000
1066.000000	59.194200
1065.000000	59.162400
1064.000000	59.124900
1063.000000	59.077900
1062.000000	59.050300
1061.000000	59.007300
1060.000000	58.978100
1059.000000	58.940400
1058.000000	58.901200
1057.000000	58.849800
1056.000000	58.813200
1055.000000	58.768400
1054.000000	58.748600
1053.000000	58.715400
1052.000000	58.676900
1051.000000	58.641700
1050.000000	58.619900
1049.000000	58.586100
1048.000000	58.572300
1047.000000	58.556500
1046.000000	58.547200
1045.000000	58.517300
1044.000000	58.497100
1043.000000	58.501500
1042.000000	58.482300
1041.000000	58.478200
1040.000000	58.472600
1039.000000	58.467200
1038.000000	58.449400
1037.000000	58.438300
1036.000000	58.409200
1035.000000	58.400200
1034.000000	58.392400
1033.000000	58.360100
1032.000000	58.353500
1031.000000	58.328100
1030.000000	58.307800
1029.000000	58.281800
1028.000000	58.254700
1027.000000	58.215000
1026.000000	58.187400
1025.000000	58.156600
1024.000000	58.115500
1023.000000	58.089400
1022.000000	58.056500
1021.000000	58.021600
1020.000000	57.983200
1019.000000	57.951600
1018.000000	57.937300
1017.000000	57.930300
1016.000000	57.916400
1015.000000	57.915700
1014.000000	57.925300
1013.000000	57.936400
1012.000000	57.953800
1011.000000	57.987200
1010.000000	58.044500
1009.000000	58.097700
1008.000000	58.153300
1007.000000	58.214400
1006.000000	58.290600
1005.000000	58.357500
1004.000000	58.431600
1003.000000	58.507000
1002.000000	58.570100
1001.000000	58.643200
1000.000000	58.729900
999.000000	58.811400
998.000000	58.901900
997.000000	58.998500
996.000000	59.105900
995.000000	59.203300
994.000000	59.315400
993.000000	59.420300
992.000000	59.507800
991.000000	59.626300
990.000000	59.741800
989.000000	59.855300
988.000000	59.970000
987.000000	60.088000
986.000000	60.208800
985.000000	60.328700
984.000000	60.442600
983.000000	60.567400
982.000000	60.696600
981.000000	60.813000
980.000000	60.919000
979.000000	61.041100
978.000000	61.166400
977.000000	61.279500
976.000000	61.380300
975.000000	61.497400
974.000000	61.618500
973.000000	61.741400
972.000000	61.852400
971.000000	61.972400
970.000000	62.083700
969.000000	62.193500
968.000000	62.307700
967.000000	62.410500
966.000000	62.518700
965.000000	62.649900
964.000000	62.771800
963.000000	62.890600
962.000000	63.008400
961.000000	63.133700
960.000000	63.264600
959.000000	63.393100
958.000000	63.522100
957.000000	63.665400
956.000000	63.794300
955.000000	63.914100
954.000000	64.052800
953.000000	64.188300
952.000000	64.318800
951.000000	64.439200
950.000000	64.568600
949.000000	64.699000
948.000000	64.804700
947.000000	64.915500
946.000000	65.033200
945.000000	65.136200
944.000000	65.249100
943.000000	65.366500
942.000000	65.476400
941.000000	65.578400
940.000000	65.678600
939.000000	65.781700
938.000000	65.883100
937.000000	65.966800
936.000000	66.065000
935.000000	66.171800
934.000000	66.279800
933.000000	66.384800
932.000000	66.459500
931.000000	66.525400
930.000000	66.612200
929.000000	66.699100
928.000000	66.753500
927.000000	66.810400
926.000000	66.885100
925.000000	66.954800
924.000000	67.017800
923.000000	67.087800
922.000000	67.158800
921.000000	67.223000
920.000000	67.295500
919.000000	67.374200
918.000000	67.435700
917.000000	67.481900
916.000000	67.528200
915.000000	67.585100
914.000000	67.641800
913.000000	67.695100
912.000000	67.737900
911.000000	67.758000
910.000000	67.805400
909.000000	67.850700
908.000000	67.890900
907.000000	67.949800
906.000000	68.009200
905.000000	68.067000
904.000000	68.128600
903.000000	68.220900
902.000000	68.297500
901.000000	68.374600
900.000000	68.470500
899.000000	68.550800
898.000000	68.637800
897.000000	68.728700
896.000000	68.809900
895.000000	68.871300
894.000000	68.943600
893.000000	69.006800
892.000000	69.066600
891.000000	69.123700
890.000000	69.147500
889.000000	69.173500
888.000000	69.199400
887.000000	69.219000
886.000000	69.250700
885.000000	69.274800
884.000000	69.290100
883.000000	69.306400
882.000000	69.311700
881.000000	69.341000
880.000000	69.374800
879.000000	69.394200
878.000000	69.419500
877.000000	69.450100
876.000000	69.472500
875.000000	69.493700
874.000000	69.510800
873.000000	69.534400
872.000000	69.538800
871.000000	69.533900
870.000000	69.501200
869.000000	69.501300
868.000000	69.566200
867.000000	69.645300
866.000000	69.774600
865.000000	69.901700
864.000000	70.019200
863.000000	70.148300
862.000000	70.272000
861.000000	70.384400
860.000000	70.524600
859.000000	70.648400
858.000000	70.768700
857.000000	70.598180
856.000000	71.005207
855.000000	70.642998
854.000000	70.601254
853.000000	71.467662
852.000000	71.013933
851.000000	71.500581
850.000000	71.492351
849.000000	71.261124
848.000000	71.521403
847.000000	71.759472
846.000000	71.617186
845.000000	71.621450
844.000000	72.160451
843.000000	72.466837
842.000000	72.336351
841.000000	72.838268
840.000000	72.988982
839.000000	72.812092
838.000000	73.487529
837.000000	73.775671
836.000000	73.796791
835.000000	74.116067
834.000000	74.482044
833.000000	75.050395
832.000000	75.312658
831.000000	75.794645
830.000000	76.051256
829.000000	76.118483
828.000000	76.676918
827.000000	76.951178
826.000000	77.116468
825.000000	77.286022
824.000000	77.664393
823.000000	77.604504
822.000000	77.921599
821.000000	78.026801
820.000000	78.266457
819.000000	78.324065
818.000000	78.238694
817.000000	78.577602
816.000000	78.494412
815.000000	78.332493
814.000000	78.776406
813.000000	78.697876
812.000000	78.837287
811.000000	78.677450
810.000000	78.559060
809.000000	78.752907
808.000000	78.690241
807.000000	78.804764
806.000000	79.088543
805.000000	79.016656
804.000000	79.251057
803.000000	79.502710
802.000000	79.630122
801.000000	79.885543
800.000000	80.001157
799.000000	80.244481
798.000000	80.580911
797.000000	80.704159
796.000000	81.018577
795.000000	81.109699
794.000000	81.342315
793.000000	81.595257
792.000000	81.885381
791.000000	81.814387
790.000000	82.206938
789.000000	82.474753
788.000000	82.642026
787.000000	82.732554
786.000000	82.968639
785.000000	82.949998
784.000000	83.127088
783.000000	82.998088
782.000000	83.061249
781.000000	82.956840
780.000000	82.975084
779.000000	82.861553
778.000000	82.760019
777.000000	82.792641
776.000000	82.460772
775.000000	82.582434
774.000000	82.301729
773.000000	82.508565
772.000000	82.259886
771.000000	82.313925
770.000000	82.204162
769.000000	82.139612
768.000000	82.073080
767.000000	82.101339
766.000000	82.173226
765.000000	82.182546
764.000000	82.236387
763.000000	82.236486
762.000000	82.187603
761.000000	82.392654
760.000000	82.396322
759.000000	82.499046
758.000000	82.507077
757.000000	82.552292
756.000000	82.479413
755.000000	82.256515
754.000000	82.253243
753.000000	82.222604
752.000000	82.089242
751.000000	82.038475
750.000000	81.847802
749.000000	81.665259
748.000000	81.454755
747.000000	81.362443
746.000000	81.124176
745.000000	80.775649
744.000000	80.501885
743.000000	80.182906
742.000000	80.025351
741.000000	79.606623
740.000000	79.371430
739.000000	79.095484
738.000000	78.764508
737.000000	78.447512
736.000000	78.170178
735.000000	77.895323
734.000000	77.667368
733.000000	77.419086
732.000000	77.107842
731.000000	76.836953
730.000000	76.571617
729.000000	76.424869
728.000000	76.286350
727.000000	76.070393
726.000000	75.902624
725.000000	75.748935
724.000000	75.568277
723.000000	75.449094
722.000000	75.342007
721.000000	75.124761
720.000000	75.025309
719.000000	74.842965
718.000000	74.593493
717.000000	74.470344
716.000000	74.281456
715.000000	74.148787
714.000000	74.011856
713.000000	73.866298
712.000000	73.789850
711.000000	73.687027
710.000000	73.547021
709.000000	73.498139
708.000000	73.527686
707.000000	73.493776
706.000000	73.536908
705.000000	73.579941
704.000000	73.641813
703.000000	73.722921
702.000000	73.715286
701.000000	73.692183
700.000000	73.760004
699.000000	73.818902
698.000000	73.829313
697.000000	73.761393
696.000000	73.715881
695.000000	73.619503
694.000000	73.459568
693.000000	73.279900
692.000000	73.042724
691.000000	72.913824
690.000000	72.790079
689.000000	72.577592
688.000000	72.277354
687.000000	72.056240
686.000000	71.822534
685.000000	71.592199
684.000000	71.304752
683.000000	70.943633
682.000000	70.517568
681.000000	70.135924
680.000000	69.750413
679.000000	69.268128
678.000000	68.700471
677.000000	68.121213
676.000000	67.467193
675.000000	66.855610
674.000000	66.212497
673.000000	65.500968
672.000000	64.797569
671.000000	64.070472
670.000000	63.336038
669.000000	62.621137
668.000000	61.876887
667.000000	61.144238
666.000000	60.445202
665.000000	59.817358
664.000000	59.218468
663.000000	58.587352
662.000000	57.976563
661.000000	57.360519
660.000000	56.809719
659.000000	56.297984
658.000000	55.762751
657.000000	55.351063
656.000000	55.024846
655.000000	54.734623
654.000000	54.538595
653.000000	54.464329
652.000000	54.504783
651.000000	54.614646
650.000000	54.902689
649.000000	55.284531
648.000000	55.708811
647.000000	56.203094
646.000000	56.755878
645.000000	57.349811
644.000000	57.964467
643.000000	58.604407
642.000000	59.231358
641.000000	59.846510
640.000000	60.478319
639.000000	61.123217
638.000000	61.723397
637.000000	62.325163
636.000000	62.969069
635.000000	63.672964
634.000000	64.367141
633.000000	65.115655
632.000000	65.938535
631.000000	66.773015
630.000000	67.618105
629.000000	68.454668
628.000000	69.263467
627.000000	70.078811
626.000000	70.953251
625.000000	71.783368
624.000000	72.577295
623.000000	73.383120
622.000000	74.178633
621.000000	74.959074
620.000000	75.678834
619.000000	76.398989
618.000000	77.086127
617.000000	77.732215
616.000000	78.353018
615.000000	79.025481
614.000000	79.697151
613.000000	80.315079
612.000000	80.855865
611.000000	81.445336
610.000000	82.007539
609.000000	82.521355
608.000000	83.077709
607.000000	83.552161
606.000000	84.006088
605.000000	84.478359
604.000000	84.908787
603.000000	85.276648
602.000000	85.623291
601.000000	85.994821
600.000000	86.339381
599.000000	86.625143
598.000000	86.913682
597.000000	87.190916
596.000000	87.404494
595.000000	87.628186
594.000000	87.787030
593.000000	88.015581
592.000000	88.175615
591.000000	88.335650
590.000000	88.448190
589.000000	88.583733
588.000000	88.660181
587.000000	88.731374
586.000000	88.787891
585.000000	88.821802
584.000000	88.819026
583.000000	88.807425
582.000000	88.843517
581.000000	88.840047
580.000000	88.755766
579.000000	88.696967
578.000000	88.672476
577.000000	88.601184
576.000000	88.532966
575.000000	88.421517
574.000000	88.299954
573.000000	88.166791
572.000000	88.025000
571.000000	87.853265
570.000000	87.688571
569.000000	87.487486
568.000000	87.246542
567.000000	87.074113
566.000000	86.842588
565.000000	86.555735
564.000000	86.276716
563.000000	85.943162
562.000000	85.628447
561.000000	85.305006
560.000000	84.917611
559.000000	84.527837
558.000000	84.087196
557.000000	83.646456
556.000000	83.184299
555.000000	82.673160
554.000000	82.126821
553.000000	81.565610
552.000000	80.915853
551.000000	80.267683
550.000000	79.565871
549.000000	78.792667
548.000000	77.969689
547.000000	77.116766
546.000000	76.246689
545.000000	75.298776
544.000000	74.308425
543.000000	73.229134
542.000000	72.179885
541.000000	71.041696
540.000000	69.831422
539.000000	68.665073
538.000000	67.442305
537.000000	66.206350
536.000000	64.836437
535.000000	63.498353
534.000000	62.122988
533.000000	60.705779
532.000000	59.268640
531.000000	57.833881
530.000000	56.405071
529.000000	54.972394
528.000000	53.588303
527.000000	52.218192
526.000000	50.882190
525.000000	49.555509
524.000000	48.299822
523.000000	47.039872
522.000000	45.850519
521.000000	44.721352
520.000000	43.654851
519.000000	42.651016
518.000000	41.702508
517.000000	40.791778
516.000000	40.011436
515.000000	39.217212
514.000000	38.485158
513.000000	37.815273
512.000000	37.186438
511.000000	36.598553
510.000000	36.094653
509.000000	35.568839
508.000000	35.135337
507.000000	34.761625
506.000000	34.360250
505.000000	34.007559
504.000000	33.685804
503.000000	33.401430
502.000000	33.128856
501.000000	32.871650
500.000000	32.687918
499.000000	32.421292
498.000000	32.183323
497.000000	31.967960
496.000000	31.721166
495.000000	31.443931
494.000000	31.182858
493.000000	30.883909
492.000000	30.626802
491.000000	30.327952
490.000000	30.001339
489.000000	29.653506
488.000000	29.316779
487.000000	28.987191
486.000000	28.651951
485.000000	28.291030
484.000000	27.925945
483.000000	27.599332
482.000000	27.232363
481.000000	26.871938
480.000000	26.547902
479.000000	26.278005
478.000000	25.972710
477.000000	25.666621
476.000000	25.387701
475.000000	25.131685
474.000000	24.909382
473.000000	24.679443
472.000000	24.529225
471.000000	24.381485
470.000000	24.258039
469.000000	24.155315
468.000000	24.055665
467.000000	24.021953
466.000000	23.993694
465.000000	24.029588
464.000000	24.035933
463.000000	24.077677
462.000000	24.132708
461.000000	24.215402
460.000000	24.293734
459.000000	24.351045
458.000000	24.466857
457.000000	24.559368
456.000000	24.673097
455.000000	24.765707
454.000000	24.880627
453.000000	24.935360
452.000000	25.001991
451.000000	25.083397
450.000000	25.138031
449.000000	25.184336
448.000000	25.179576
447.000000	25.196036
446.000000	25.220824
445.000000	25.242143
444.000000	25.207439
443.000000	25.099162
442.000000	25.023111
441.000000	24.935856
440.000000	24.786530
439.000000	24.663479
438.000000	24.487084
437.000000	24.359771
436.000000	24.169791
435.000000	23.961270
434.000000	23.756319
433.000000	23.516069
432.000000	23.304077
431.000000	23.050739
430.000000	22.727497
429.000000	22.492997
428.000000	22.185719
427.000000	21.893214
426.000000	21.589506
425.000000	21.256249
424.000000	20.945797
423.000000	20.536291
422.000000	20.155639
421.000000	19.789265
420.000000	19.384617
419.000000	19.010509
418.000000	18.607447
417.000000	18.184456
416.000000	17.765431
415.000000	17.353645
414.000000	16.917862
413.000000	16.506671
412.000000	16.073169
411.000000	15.632826
410.000000	15.250190
409.000000	14.806674
408.000000	14.400341
407.000000	13.993810
406.000000	13.613950
405.000000	13.230026
404.000000	12.860974
403.000000	12.493807
402.000000	12.114642
401.000000	11.783269
400.000000	11.460027
399.000000	11.119036
398.000000	10.797182
397.000000	10.516576
396.000000	10.253818
395.000000	9.983921
394.000000	9.734052
393.000000	9.454537
392.000000	9.234911
391.000000	9.013896
390.000000	8.796848
389.000000	8.620850
388.000000	8.448024
387.000000	8.260127
386.000000	8.103761
385.000000	7.960484
384.000000	7.823552
383.000000	7.698816
382.000000	7.567635
381.000000	7.459756
380.000000	7.364271
379.000000	7.266703
378.000000	7.155750
377.000000	7.100322
376.000000	7.079401
375.000000	6.963589
374.000000	6.666424
373.000000	6.614963
372.000000	6.518685
371.000000	6.515908
370.000000	6.548134
369.000000	6.562313
368.000000	6.459787
367.000000	6.355576
366.000000	6.410607
365.000000	6.550017
364.000000	6.528204
363.000000	6.301339
362.000000	6.271097
361.000000	6.234906
360.000000	6.267825
359.000000	6.336043
358.000000	6.261182
357.000000	6.170158
356.000000	6.220925
355.000000	6.157070
354.000000	6.027476
353.000000	6.044927
352.000000	6.070508
351.000000	6.009628
350.000000	5.972842
349.000000	5.965108
348.000000	5.912854
347.000000	5.952614
346.000000	5.849097
345.000000	5.809634
344.000000	5.995052
343.000000	5.974032
342.000000	6.023906
341.000000	6.100255
340.000000	5.955093
339.000000	5.857327
338.000000	6.027872
337.000000	6.102833
336.000000	5.937543
335.000000	5.895898
334.000000	6.045522
333.000000	6.080226
332.000000	5.841363
331.000000	5.837596
330.000000	6.017957
329.000000	6.052958
328.000000	5.788514
327.000000	5.774732
326.000000	6.029360
325.000000	5.983154
324.000000	6.028170
323.000000	6.378679
322.000000	6.468711
321.000000	6.361327
320.000000	6.550811
319.000000	6.235203
318.000000	6.120780
317.000000	6.348933
316.000000	6.029161
315.000000	5.781772
314.000000	5.828275
313.000000	5.769576
312.000000	5.728130
311.000000	5.775426
310.000000	5.828077
309.000000	5.835117
308.000000	5.844239
307.000000	5.832836
306.000000	5.829267
305.000000	5.857030
304.000000	5.854353
303.000000	5.850684
302.000000	5.875968
301.000000	5.888065
300.000000	5.851675
299.000000	5.885090
298.000000	5.928421
297.000000	5.948252
296.000000	5.920092
295.000000	5.944781
294.000000	5.961935
293.000000	5.968281
292.000000	5.976312
291.000000	5.993763
290.000000	6.013197
289.000000	6.027971
288.000000	6.028765
287.000000	6.055536
286.000000	6.083795
285.000000	6.099362
284.000000	6.106601
283.000000	6.104122
282.000000	6.044728
281.000000	6.058313
280.000000	6.077152
279.000000	6.062080
278.000000	6.125539
277.000000	6.122564
276.000000	6.128414
275.000000	6.135058
274.000000	6.153401
273.000000	6.154690
272.000000	6.125737
271.000000	6.163812
270.000000	6.150724
269.000000	6.204069
268.000000	6.206548
267.000000	6.201788
266.000000	6.231634
265.000000	6.293208
264.000000	6.352007
263.000000	6.350718
262.000000	6.394048
261.000000	6.372532
260.000000	6.463555
259.000000	6.429942
258.000000	6.450070
257.000000	6.480610
256.000000	6.474859
255.000000	6.520866
254.000000	6.519081
253.000000	6.512141
252.000000	6.535343
251.000000	6.570741
250.000000	6.548927
