PE UV       SUBTECH     SPECTRUM    ASCII       PEDS        4.00        
   -1
CICIMAUCR0225-1.Sample.ASC
24/05/27
14:30:23.00
24/05/27
14:30:23.00
Vinicio Soto Monge
C. resplendens, F
250,000000
1
Lambda 1050
1050L1511233
PerkinElmer UV WinLab 6.3.2.0749 / 2.02.05 Lambda 900 UV/VIS/NIR, Aug  7 2015 09:38:08

0
0
3350/servo 860,8/2
0
0
UV/VIS
1
1
1
DoubleDePol,CommonBeamDepol,RBeamAtt,SBeamAtt,60mm sphere, WB InGaAs Detector
0
0
0
0
Program
Program
3350/servo 860,8/2
3350/0,2 860,8/0,2
3350/0,2 860,8/0,2
0
15.00
 
 
 
0
 
860,8
319,2
860,8
Front
100
on
S:100 R:100
0
0
0
0
 
0
 
 
 
0
 
 
0
0
0
0
0
 
 
 
 
0
0


0
0
#HDR
-1
-1
#GR
nm
%R
1.0
0.0
2500,000000
-1,000000
2251
8
70,476400
5,457100
#DATA
2500.000000	8.354400
2499.000000	8.491600
2498.000000	8.270400
2497.000000	8.435400
2496.000000	8.287100
2495.000000	8.267100
2494.000000	8.312500
2493.000000	8.361300
2492.000000	8.236100
2491.000000	8.204000
2490.000000	8.151700
2489.000000	8.224900
2488.000000	8.196600
2487.000000	8.158300
2486.000000	8.227700
2485.000000	8.189600
2484.000000	8.154400
2483.000000	8.182000
2482.000000	8.127500
2481.000000	8.147700
2480.000000	8.112100
2479.000000	8.125500
2478.000000	8.126700
2477.000000	8.185500
2476.000000	8.211100
2475.000000	8.137000
2474.000000	8.175700
2473.000000	8.146100
2472.000000	8.188800
2471.000000	8.163300
2470.000000	8.193300
2469.000000	8.169800
2468.000000	8.185000
2467.000000	8.201200
2466.000000	8.214100
2465.000000	8.234400
2464.000000	8.209600
2463.000000	8.286800
2462.000000	8.315800
2461.000000	8.333900
2460.000000	8.393100
2459.000000	8.450000
2458.000000	8.468000
2457.000000	8.510400
2456.000000	8.577500
2455.000000	8.622600
2454.000000	8.695000
2453.000000	8.773800
2452.000000	8.827900
2451.000000	8.887700
2450.000000	8.970400
2449.000000	9.026800
2448.000000	9.089100
2447.000000	9.140500
2446.000000	9.233000
2445.000000	9.304500
2444.000000	9.373800
2443.000000	9.467600
2442.000000	9.528500
2441.000000	9.579200
2440.000000	9.657600
2439.000000	9.704900
2438.000000	9.786100
2437.000000	9.868500
2436.000000	9.928600
2435.000000	10.002400
2434.000000	10.043400
2433.000000	10.082600
2432.000000	10.144700
2431.000000	10.234100
2430.000000	10.258500
2429.000000	10.299800
2428.000000	10.349100
2427.000000	10.405000
2426.000000	10.452000
2425.000000	10.495100
2424.000000	10.542400
2423.000000	10.573700
2422.000000	10.593100
2421.000000	10.627800
2420.000000	10.676300
2419.000000	10.722200
2418.000000	10.751900
2417.000000	10.774300
2416.000000	10.794400
2415.000000	10.829500
2414.000000	10.876300
2413.000000	10.898400
2412.000000	10.933100
2411.000000	10.958600
2410.000000	10.976900
2409.000000	11.006300
2408.000000	11.029000
2407.000000	11.060500
2406.000000	11.095800
2405.000000	11.117100
2404.000000	11.146300
2403.000000	11.180700
2402.000000	11.214800
2401.000000	11.256200
2400.000000	11.295700
2399.000000	11.332200
2398.000000	11.354100
2397.000000	11.394000
2396.000000	11.422500
2395.000000	11.451300
2394.000000	11.484800
2393.000000	11.516900
2392.000000	11.543500
2391.000000	11.571200
2390.000000	11.582100
2389.000000	11.604700
2388.000000	11.626200
2387.000000	11.646100
2386.000000	11.664200
2385.000000	11.670200
2384.000000	11.681900
2383.000000	11.686500
2382.000000	11.690900
2381.000000	11.688500
2380.000000	11.676100
2379.000000	11.670800
2378.000000	11.671700
2377.000000	11.665300
2376.000000	11.653700
2375.000000	11.638500
2374.000000	11.631800
2373.000000	11.608400
2372.000000	11.589100
2371.000000	11.567300
2370.000000	11.533500
2369.000000	11.501500
2368.000000	11.464000
2367.000000	11.423300
2366.000000	11.366800
2365.000000	11.315300
2364.000000	11.263900
2363.000000	11.201900
2362.000000	11.152200
2361.000000	11.107100
2360.000000	11.046700
2359.000000	10.977800
2358.000000	10.908700
2357.000000	10.862000
2356.000000	10.838700
2355.000000	10.801800
2354.000000	10.765500
2353.000000	10.746900
2352.000000	10.736400
2351.000000	10.742100
2350.000000	10.751900
2349.000000	10.759000
2348.000000	10.769900
2347.000000	10.804000
2346.000000	10.854700
2345.000000	10.885400
2344.000000	10.928100
2343.000000	10.983000
2342.000000	11.022200
2341.000000	11.054300
2340.000000	11.087100
2339.000000	11.110700
2338.000000	11.141400
2337.000000	11.157800
2336.000000	11.165500
2335.000000	11.170800
2334.000000	11.153200
2333.000000	11.125600
2332.000000	11.103800
2331.000000	11.069500
2330.000000	11.032800
2329.000000	10.973300
2328.000000	10.920200
2327.000000	10.873300
2326.000000	10.795800
2325.000000	10.722900
2324.000000	10.653100
2323.000000	10.564800
2322.000000	10.468200
2321.000000	10.378700
2320.000000	10.275400
2319.000000	10.159300
2318.000000	10.051500
2317.000000	9.922300
2316.000000	9.805900
2315.000000	9.693100
2314.000000	9.575500
2313.000000	9.465600
2312.000000	9.364800
2311.000000	9.258500
2310.000000	9.180800
2309.000000	9.102500
2308.000000	9.039900
2307.000000	9.001700
2306.000000	8.970100
2305.000000	8.954900
2304.000000	8.986600
2303.000000	9.014500
2302.000000	9.029000
2301.000000	9.087100
2300.000000	9.165900
2299.000000	9.242500
2298.000000	9.338300
2297.000000	9.417700
2296.000000	9.512500
2295.000000	9.614300
2294.000000	9.708900
2293.000000	9.780200
2292.000000	9.849500
2291.000000	9.892300
2290.000000	9.950800
2289.000000	9.988700
2288.000000	9.994100
2287.000000	10.008200
2286.000000	10.000400
2285.000000	9.989200
2284.000000	9.940700
2283.000000	9.906700
2282.000000	9.887000
2281.000000	9.826300
2280.000000	9.772500
2279.000000	9.719900
2278.000000	9.664600
2277.000000	9.607400
2276.000000	9.545100
2275.000000	9.500700
2274.000000	9.465400
2273.000000	9.447400
2272.000000	9.431700
2271.000000	9.435800
2270.000000	9.430900
2269.000000	9.455200
2268.000000	9.496900
2267.000000	9.570700
2266.000000	9.642700
2265.000000	9.746900
2264.000000	9.872700
2263.000000	10.031900
2262.000000	10.196900
2261.000000	10.366600
2260.000000	10.573900
2259.000000	10.807400
2258.000000	11.062400
2257.000000	11.291400
2256.000000	11.545400
2255.000000	11.799000
2254.000000	12.059400
2253.000000	12.316800
2252.000000	12.563800
2251.000000	12.791900
2250.000000	13.005000
2249.000000	13.239600
2248.000000	13.428900
2247.000000	13.611700
2246.000000	13.782100
2245.000000	13.948600
2244.000000	14.100000
2243.000000	14.223400
2242.000000	14.356500
2241.000000	14.458300
2240.000000	14.574400
2239.000000	14.697800
2238.000000	14.780600
2237.000000	14.858100
2236.000000	14.939600
2235.000000	15.009700
2234.000000	15.082200
2233.000000	15.120500
2232.000000	15.172500
2231.000000	15.222800
2230.000000	15.252700
2229.000000	15.283200
2228.000000	15.292500
2227.000000	15.312900
2226.000000	15.331200
2225.000000	15.330600
2224.000000	15.342500
2223.000000	15.314600
2222.000000	15.305500
2221.000000	15.292600
2220.000000	15.270100
2219.000000	15.231700
2218.000000	15.214600
2217.000000	15.174500
2216.000000	15.165900
2215.000000	15.127600
2214.000000	15.088800
2213.000000	15.087300
2212.000000	15.051800
2211.000000	15.017900
2210.000000	14.970600
2209.000000	14.977100
2208.000000	14.958200
2207.000000	14.928800
2206.000000	14.905500
2205.000000	14.903000
2204.000000	14.859800
2203.000000	14.856700
2202.000000	14.835300
2201.000000	14.823700
2200.000000	14.781200
2199.000000	14.795500
2198.000000	14.801300
2197.000000	14.759300
2196.000000	14.752800
2195.000000	14.758900
2194.000000	14.730500
2193.000000	14.719200
2192.000000	14.717800
2191.000000	14.723200
2190.000000	14.709000
2189.000000	14.676900
2188.000000	14.686200
2187.000000	14.676400
2186.000000	14.673400
2185.000000	14.637400
2184.000000	14.631200
2183.000000	14.605200
2182.000000	14.599300
2181.000000	14.581200
2180.000000	14.551200
2179.000000	14.552000
2178.000000	14.554200
2177.000000	14.545000
2176.000000	14.550200
2175.000000	14.526900
2174.000000	14.540100
2173.000000	14.537300
2172.000000	14.527600
2171.000000	14.532500
2170.000000	14.558100
2169.000000	14.562300
2168.000000	14.575600
2167.000000	14.588800
2166.000000	14.600200
2165.000000	14.614300
2164.000000	14.650600
2163.000000	14.661900
2162.000000	14.681600
2161.000000	14.709100
2160.000000	14.715400
2159.000000	14.762300
2158.000000	14.787700
2157.000000	14.830000
2156.000000	14.850000
2155.000000	14.888800
2154.000000	14.934700
2153.000000	14.966900
2152.000000	15.012500
2151.000000	15.051800
2150.000000	15.086700
2149.000000	15.119600
2148.000000	15.180500
2147.000000	15.216100
2146.000000	15.261900
2145.000000	15.287200
2144.000000	15.308200
2143.000000	15.347100
2142.000000	15.396800
2141.000000	15.431000
2140.000000	15.447900
2139.000000	15.489300
2138.000000	15.514400
2137.000000	15.536800
2136.000000	15.569200
2135.000000	15.592600
2134.000000	15.603400
2133.000000	15.618000
2132.000000	15.635500
2131.000000	15.645700
2130.000000	15.652100
2129.000000	15.656600
2128.000000	15.658500
2127.000000	15.670100
2126.000000	15.672000
2125.000000	15.647500
2124.000000	15.646400
2123.000000	15.648900
2122.000000	15.621700
2121.000000	15.608200
2120.000000	15.585600
2119.000000	15.579100
2118.000000	15.562800
2117.000000	15.548900
2116.000000	15.531600
2115.000000	15.498000
2114.000000	15.468100
2113.000000	15.448800
2112.000000	15.426900
2111.000000	15.406300
2110.000000	15.378500
2109.000000	15.341500
2108.000000	15.313400
2107.000000	15.290500
2106.000000	15.260600
2105.000000	15.225500
2104.000000	15.191000
2103.000000	15.157200
2102.000000	15.138600
2101.000000	15.106600
2100.000000	15.069100
2099.000000	15.038500
2098.000000	15.012000
2097.000000	14.998600
2096.000000	14.977700
2095.000000	14.948400
2094.000000	14.923900
2093.000000	14.901800
2092.000000	14.883700
2091.000000	14.858700
2090.000000	14.844400
2089.000000	14.829600
2088.000000	14.810300
2087.000000	14.795100
2086.000000	14.766900
2085.000000	14.732600
2084.000000	14.706700
2083.000000	14.686100
2082.000000	14.665600
2081.000000	14.626500
2080.000000	14.594400
2079.000000	14.566700
2078.000000	14.526400
2077.000000	14.487600
2076.000000	14.460100
2075.000000	14.418900
2074.000000	14.383800
2073.000000	14.337100
2072.000000	14.294900
2071.000000	14.265300
2070.000000	14.214900
2069.000000	14.166900
2068.000000	14.128500
2067.000000	14.083500
2066.000000	14.040800
2065.000000	13.997000
2064.000000	13.958100
2063.000000	13.924600
2062.000000	13.890800
2061.000000	13.849000
2060.000000	13.817400
2059.000000	13.803900
2058.000000	13.789600
2057.000000	13.777800
2056.000000	13.773900
2055.000000	13.780400
2054.000000	13.799300
2053.000000	13.821300
2052.000000	13.857100
2051.000000	13.901100
2050.000000	13.946000
2049.000000	14.014000
2048.000000	14.091000
2047.000000	14.158900
2046.000000	14.230500
2045.000000	14.320600
2044.000000	14.415700
2043.000000	14.492000
2042.000000	14.593700
2041.000000	14.700900
2040.000000	14.782700
2039.000000	14.871600
2038.000000	14.957000
2037.000000	15.036800
2036.000000	15.103700
2035.000000	15.175500
2034.000000	15.254900
2033.000000	15.336600
2032.000000	15.387100
2031.000000	15.444900
2030.000000	15.502000
2029.000000	15.525800
2028.000000	15.580800
2027.000000	15.627700
2026.000000	15.668100
2025.000000	15.711400
2024.000000	15.745500
2023.000000	15.774400
2022.000000	15.807900
2021.000000	15.823600
2020.000000	15.836300
2019.000000	15.858800
2018.000000	15.882100
2017.000000	15.891700
2016.000000	15.924100
2015.000000	15.930300
2014.000000	15.918400
2013.000000	15.924400
2012.000000	15.944000
2011.000000	15.918300
2010.000000	15.908500
2009.000000	15.903200
2008.000000	15.879300
2007.000000	15.846100
2006.000000	15.837000
2005.000000	15.816500
2004.000000	15.789100
2003.000000	15.747200
2002.000000	15.711500
2001.000000	15.663500
2000.000000	15.614600
1999.000000	15.574000
1998.000000	15.518500
1997.000000	15.457400
1996.000000	15.411100
1995.000000	15.345700
1994.000000	15.294600
1993.000000	15.228000
1992.000000	15.170200
1991.000000	15.095600
1990.000000	15.022600
1989.000000	14.963300
1988.000000	14.894900
1987.000000	14.795800
1986.000000	14.741600
1985.000000	14.650900
1984.000000	14.558200
1983.000000	14.487800
1982.000000	14.417700
1981.000000	14.332300
1980.000000	14.250600
1979.000000	14.175100
1978.000000	14.075500
1977.000000	13.990000
1976.000000	13.910100
1975.000000	13.831300
1974.000000	13.755100
1973.000000	13.681100
1972.000000	13.600900
1971.000000	13.526600
1970.000000	13.446700
1969.000000	13.360600
1968.000000	13.273800
1967.000000	13.214600
1966.000000	13.152600
1965.000000	13.090800
1964.000000	13.010900
1963.000000	12.931900
1962.000000	12.851600
1961.000000	12.790800
1960.000000	12.706900
1959.000000	12.630100
1958.000000	12.560700
1957.000000	12.495400
1956.000000	12.434100
1955.000000	12.364800
1954.000000	12.280000
1953.000000	12.230900
1952.000000	12.158400
1951.000000	12.089300
1950.000000	12.026200
1949.000000	11.970100
1948.000000	11.920900
1947.000000	11.885600
1946.000000	11.829500
1945.000000	11.765300
1944.000000	11.741800
1943.000000	11.724400
1942.000000	11.674800
1941.000000	11.669600
1940.000000	11.641300
1939.000000	11.622800
1938.000000	11.613000
1937.000000	11.614600
1936.000000	11.601000
1935.000000	11.627900
1934.000000	11.625000
1933.000000	11.679400
1932.000000	11.719800
1931.000000	11.737600
1930.000000	11.813900
1929.000000	11.881200
1928.000000	11.924900
1927.000000	12.027100
1926.000000	12.079200
1925.000000	12.152000
1924.000000	12.264900
1923.000000	12.381700
1922.000000	12.492800
1921.000000	12.628300
1920.000000	12.749800
1919.000000	12.870900
1918.000000	13.015900
1917.000000	13.155000
1916.000000	13.335900
1915.000000	13.505700
1914.000000	13.687800
1913.000000	13.881600
1912.000000	14.066000
1911.000000	14.253400
1910.000000	14.433700
1909.000000	14.631400
1908.000000	14.853500
1907.000000	15.062400
1906.000000	15.334900
1905.000000	15.594900
1904.000000	15.840000
1903.000000	16.079800
1902.000000	16.336900
1901.000000	16.583700
1900.000000	16.887000
1899.000000	17.200700
1898.000000	17.478600
1897.000000	17.739300
1896.000000	18.071200
1895.000000	18.344500
1894.000000	18.628600
1893.000000	18.942700
1892.000000	19.260700
1891.000000	19.622900
1890.000000	19.995100
1889.000000	20.314300
1888.000000	20.670500
1887.000000	21.061500
1886.000000	21.419600
1885.000000	21.842900
1884.000000	22.286300
1883.000000	22.743600
1882.000000	23.195200
1881.000000	23.656500
1880.000000	24.107500
1879.000000	24.498500
1878.000000	24.943300
1877.000000	25.330300
1876.000000	25.709400
1875.000000	26.089100
1874.000000	26.433800
1873.000000	26.773400
1872.000000	27.085500
1871.000000	27.380100
1870.000000	27.645500
1869.000000	27.875800
1868.000000	28.100700
1867.000000	28.255300
1866.000000	28.385100
1865.000000	28.492600
1864.000000	28.597900
1863.000000	28.666800
1862.000000	28.753400
1861.000000	28.862000
1860.000000	28.980400
1859.000000	29.058300
1858.000000	29.133000
1857.000000	29.198000
1856.000000	29.222600
1855.000000	29.234700
1854.000000	29.274300
1853.000000	29.288500
1852.000000	29.254800
1851.000000	29.264100
1850.000000	29.276100
1849.000000	29.269900
1848.000000	29.260900
1847.000000	29.266400
1846.000000	29.256000
1845.000000	29.196100
1844.000000	29.158000
1843.000000	29.120200
1842.000000	29.124100
1841.000000	29.148200
1840.000000	29.118800
1839.000000	29.107900
1838.000000	29.094200
1837.000000	29.059600
1836.000000	29.023800
1835.000000	28.998200
1834.000000	28.938700
1833.000000	28.866000
1832.000000	28.810100
1831.000000	28.753700
1830.000000	28.720600
1829.000000	28.688400
1828.000000	28.627300
1827.000000	28.566800
1826.000000	28.504600
1825.000000	28.453000
1824.000000	28.406600
1823.000000	28.370200
1822.000000	28.362500
1821.000000	28.358100
1820.000000	28.335600
1819.000000	28.322100
1818.000000	28.293900
1817.000000	28.247300
1816.000000	28.232800
1815.000000	28.239700
1814.000000	28.224000
1813.000000	28.201800
1812.000000	28.194500
1811.000000	28.184500
1810.000000	28.152400
1809.000000	28.114200
1808.000000	28.086700
1807.000000	28.055600
1806.000000	28.019100
1805.000000	27.973800
1804.000000	27.934400
1803.000000	27.906200
1802.000000	27.876400
1801.000000	27.846700
1800.000000	27.788700
1799.000000	27.733400
1798.000000	27.690200
1797.000000	27.650900
1796.000000	27.618700
1795.000000	27.586200
1794.000000	27.540500
1793.000000	27.493600
1792.000000	27.456700
1791.000000	27.416700
1790.000000	27.364600
1789.000000	27.322400
1788.000000	27.286300
1787.000000	27.240000
1786.000000	27.202800
1785.000000	27.156800
1784.000000	27.096700
1783.000000	27.031600
1782.000000	26.973600
1781.000000	26.916000
1780.000000	26.853700
1779.000000	26.799700
1778.000000	26.740000
1777.000000	26.672000
1776.000000	26.592800
1775.000000	26.513500
1774.000000	26.431300
1773.000000	26.356300
1772.000000	26.257600
1771.000000	26.157300
1770.000000	26.066600
1769.000000	25.971800
1768.000000	25.881100
1767.000000	25.787600
1766.000000	25.704600
1765.000000	25.652000
1764.000000	25.598700
1763.000000	25.560100
1762.000000	25.555000
1761.000000	25.567200
1760.000000	25.595400
1759.000000	25.625600
1758.000000	25.686900
1757.000000	25.743700
1756.000000	25.784900
1755.000000	25.831900
1754.000000	25.878900
1753.000000	25.896800
1752.000000	25.899000
1751.000000	25.897200
1750.000000	25.887500
1749.000000	25.871800
1748.000000	25.834600
1747.000000	25.771900
1746.000000	25.699800
1745.000000	25.623400
1744.000000	25.519900
1743.000000	25.392100
1742.000000	25.272400
1741.000000	25.104500
1740.000000	24.934700
1739.000000	24.749500
1738.000000	24.568700
1737.000000	24.407100
1736.000000	24.248500
1735.000000	24.125300
1734.000000	24.040100
1733.000000	24.005600
1732.000000	24.007400
1731.000000	24.021400
1730.000000	24.058000
1729.000000	24.131500
1728.000000	24.217600
1727.000000	24.305100
1726.000000	24.375300
1725.000000	24.437400
1724.000000	24.503800
1723.000000	24.539600
1722.000000	24.595900
1721.000000	24.636200
1720.000000	24.659600
1719.000000	24.692800
1718.000000	24.723800
1717.000000	24.790900
1716.000000	24.848400
1715.000000	24.905500
1714.000000	24.985900
1713.000000	25.050100
1712.000000	25.099200
1711.000000	25.150000
1710.000000	25.198800
1709.000000	25.222400
1708.000000	25.223100
1707.000000	25.219600
1706.000000	25.201200
1705.000000	25.136100
1704.000000	25.107200
1703.000000	25.066700
1702.000000	24.983300
1701.000000	24.884800
1700.000000	24.779800
1699.000000	24.648900
1698.000000	24.521500
1697.000000	24.413400
1696.000000	24.331500
1695.000000	24.290700
1694.000000	24.268300
1693.000000	24.286900
1692.000000	24.364900
1691.000000	24.473000
1690.000000	24.609400
1689.000000	24.719500
1688.000000	24.808500
1687.000000	24.867500
1686.000000	24.918200
1685.000000	24.951400
1684.000000	25.002100
1683.000000	25.107500
1682.000000	25.290400
1681.000000	25.539700
1680.000000	25.908300
1679.000000	26.281800
1678.000000	26.674200
1677.000000	27.064700
1676.000000	27.464000
1675.000000	27.814500
1674.000000	28.095800
1673.000000	28.354300
1672.000000	28.563500
1671.000000	28.767200
1670.000000	28.961900
1669.000000	29.104600
1668.000000	29.217900
1667.000000	29.311200
1666.000000	29.423900
1665.000000	29.498400
1664.000000	29.556000
1663.000000	29.671000
1662.000000	29.713100
1661.000000	29.762700
1660.000000	29.809200
1659.000000	29.852500
1658.000000	29.886700
1657.000000	29.900100
1656.000000	29.915300
1655.000000	29.934300
1654.000000	29.938600
1653.000000	29.949000
1652.000000	29.924300
1651.000000	29.923500
1650.000000	29.918200
1649.000000	29.898800
1648.000000	29.883500
1647.000000	29.839600
1646.000000	29.805000
1645.000000	29.769900
1644.000000	29.731200
1643.000000	29.698500
1642.000000	29.650000
1641.000000	29.621900
1640.000000	29.572200
1639.000000	29.529500
1638.000000	29.490700
1637.000000	29.435600
1636.000000	29.372600
1635.000000	29.353100
1634.000000	29.275300
1633.000000	29.222100
1632.000000	29.160300
1631.000000	29.114800
1630.000000	29.052900
1629.000000	28.986500
1628.000000	28.922400
1627.000000	28.861900
1626.000000	28.787800
1625.000000	28.728300
1624.000000	28.669600
1623.000000	28.591000
1622.000000	28.532900
1621.000000	28.490100
1620.000000	28.421900
1619.000000	28.358000
1618.000000	28.280200
1617.000000	28.237500
1616.000000	28.191600
1615.000000	28.141700
1614.000000	28.070700
1613.000000	28.010000
1612.000000	27.960300
1611.000000	27.919200
1610.000000	27.845000
1609.000000	27.787200
1608.000000	27.739000
1607.000000	27.679000
1606.000000	27.616100
1605.000000	27.556200
1604.000000	27.517700
1603.000000	27.443900
1602.000000	27.382500
1601.000000	27.325900
1600.000000	27.265500
1599.000000	27.210200
1598.000000	27.156800
1597.000000	27.098100
1596.000000	27.039800
1595.000000	27.008500
1594.000000	26.953900
1593.000000	26.897300
1592.000000	26.855300
1591.000000	26.809100
1590.000000	26.775300
1589.000000	26.730600
1588.000000	26.682400
1587.000000	26.639400
1586.000000	26.611600
1585.000000	26.571100
1584.000000	26.531600
1583.000000	26.494600
1582.000000	26.469100
1581.000000	26.432200
1580.000000	26.410800
1579.000000	26.401600
1578.000000	26.370600
1577.000000	26.340900
1576.000000	26.337400
1575.000000	26.318100
1574.000000	26.303700
1573.000000	26.308700
1572.000000	26.307300
1571.000000	26.292700
1570.000000	26.296400
1569.000000	26.296800
1568.000000	26.296700
1567.000000	26.309600
1566.000000	26.315000
1565.000000	26.316600
1564.000000	26.331000
1563.000000	26.343100
1562.000000	26.351400
1561.000000	26.354500
1560.000000	26.349200
1559.000000	26.349100
1558.000000	26.355600
1557.000000	26.349800
1556.000000	26.339000
1555.000000	26.335800
1554.000000	26.314800
1553.000000	26.296400
1552.000000	26.295400
1551.000000	26.276500
1550.000000	26.262000
1549.000000	26.236800
1548.000000	26.213000
1547.000000	26.193900
1546.000000	26.168600
1545.000000	26.148700
1544.000000	26.129400
1543.000000	26.111800
1542.000000	26.096400
1541.000000	26.092500
1540.000000	26.077400
1539.000000	26.060400
1538.000000	26.047500
1537.000000	26.030100
1536.000000	26.017900
1535.000000	26.002400
1534.000000	25.981300
1533.000000	25.963800
1532.000000	25.935600
1531.000000	25.911100
1530.000000	25.893800
1529.000000	25.862200
1528.000000	25.830000
1527.000000	25.803800
1526.000000	25.764000
1525.000000	25.729600
1524.000000	25.716900
1523.000000	25.692400
1522.000000	25.637700
1521.000000	25.601000
1520.000000	25.561700
1519.000000	25.531400
1518.000000	25.489300
1517.000000	25.443600
1516.000000	25.401600
1515.000000	25.366200
1514.000000	25.333500
1513.000000	25.278700
1512.000000	25.230000
1511.000000	25.182900
1510.000000	25.126800
1509.000000	25.071300
1508.000000	25.030300
1507.000000	24.989100
1506.000000	24.941100
1505.000000	24.886800
1504.000000	24.838900
1503.000000	24.786700
1502.000000	24.735000
1501.000000	24.693500
1500.000000	24.651900
1499.000000	24.612000
1498.000000	24.585800
1497.000000	24.547000
1496.000000	24.495600
1495.000000	24.454800
1494.000000	24.429400
1493.000000	24.414700
1492.000000	24.390000
1491.000000	24.365000
1490.000000	24.335700
1489.000000	24.323700
1488.000000	24.306300
1487.000000	24.277600
1486.000000	24.254000
1485.000000	24.219800
1484.000000	24.199700
1483.000000	24.198500
1482.000000	24.189400
1481.000000	24.165200
1480.000000	24.157500
1479.000000	24.152200
1478.000000	24.153200
1477.000000	24.147700
1476.000000	24.156600
1475.000000	24.155400
1474.000000	24.177400
1473.000000	24.202800
1472.000000	24.216700
1471.000000	24.227800
1470.000000	24.226500
1469.000000	24.243000
1468.000000	24.232500
1467.000000	24.262200
1466.000000	24.288700
1465.000000	24.302700
1464.000000	24.328000
1463.000000	24.366200
1462.000000	24.389900
1461.000000	24.415900
1460.000000	24.468400
1459.000000	24.517500
1458.000000	24.554300
1457.000000	24.622000
1456.000000	24.693100
1455.000000	24.751000
1454.000000	24.802200
1453.000000	24.866700
1452.000000	24.958500
1451.000000	25.045400
1450.000000	25.114900
1449.000000	25.179800
1448.000000	25.244900
1447.000000	25.334800
1446.000000	25.442500
1445.000000	25.534300
1444.000000	25.641800
1443.000000	25.708900
1442.000000	25.802500
1441.000000	25.895200
1440.000000	26.005400
1439.000000	26.097200
1438.000000	26.205400
1437.000000	26.289100
1436.000000	26.390400
1435.000000	26.498600
1434.000000	26.613600
1433.000000	26.730300
1432.000000	26.848000
1431.000000	26.973800
1430.000000	27.087300
1429.000000	27.208800
1428.000000	27.358700
1427.000000	27.494400
1426.000000	27.635200
1425.000000	27.802400
1424.000000	27.995900
1423.000000	28.182400
1422.000000	28.352800
1421.000000	28.510000
1420.000000	28.732400
1419.000000	28.952100
1418.000000	29.159200
1417.000000	29.325900
1416.000000	29.524500
1415.000000	29.745700
1414.000000	29.980200
1413.000000	30.201000
1412.000000	30.416900
1411.000000	30.631100
1410.000000	30.882400
1409.000000	31.191300
1408.000000	31.467800
1407.000000	31.781900
1406.000000	32.041000
1405.000000	32.361100
1404.000000	32.669900
1403.000000	32.970300
1402.000000	33.272600
1401.000000	33.578300
1400.000000	33.923300
1399.000000	34.222200
1398.000000	34.433400
1397.000000	34.612100
1396.000000	34.877400
1395.000000	35.153400
1394.000000	35.378700
1393.000000	35.527100
1392.000000	35.748300
1391.000000	35.963300
1390.000000	36.197300
1389.000000	36.376000
1388.000000	36.678700
1387.000000	36.990900
1386.000000	37.292300
1385.000000	37.611100
1384.000000	37.975000
1383.000000	38.359500
1382.000000	38.741500
1381.000000	39.043500
1380.000000	39.291100
1379.000000	39.470100
1378.000000	39.637700
1377.000000	39.709400
1376.000000	39.839500
1375.000000	39.966900
1374.000000	40.122700
1373.000000	40.312300
1372.000000	40.544100
1371.000000	40.796800
1370.000000	41.054200
1369.000000	41.266000
1368.000000	41.485100
1367.000000	41.701800
1366.000000	41.875700
1365.000000	42.003100
1364.000000	42.176000
1363.000000	42.279300
1362.000000	42.444000
1361.000000	42.540800
1360.000000	42.652300
1359.000000	42.640300
1358.000000	42.720500
1357.000000	42.793000
1356.000000	42.902700
1355.000000	43.094800
1354.000000	43.348300
1353.000000	43.658200
1352.000000	43.900100
1351.000000	44.263700
1350.000000	44.609300
1349.000000	44.897200
1348.000000	45.172300
1347.000000	45.448000
1346.000000	45.698500
1345.000000	45.921300
1344.000000	46.143400
1343.000000	46.391700
1342.000000	46.595600
1341.000000	46.796400
1340.000000	47.009600
1339.000000	47.211600
1338.000000	47.390100
1337.000000	47.592200
1336.000000	47.773800
1335.000000	47.953900
1334.000000	48.137000
1333.000000	48.293600
1332.000000	48.474700
1331.000000	48.629200
1330.000000	48.781900
1329.000000	48.933300
1328.000000	49.074400
1327.000000	49.203600
1326.000000	49.331200
1325.000000	49.457400
1324.000000	49.578300
1323.000000	49.686600
1322.000000	49.800100
1321.000000	49.885800
1320.000000	49.992800
1319.000000	50.094300
1318.000000	50.192400
1317.000000	50.284600
1316.000000	50.350000
1315.000000	50.430400
1314.000000	50.511600
1313.000000	50.580000
1312.000000	50.649700
1311.000000	50.713600
1310.000000	50.773100
1309.000000	50.830000
1308.000000	50.888300
1307.000000	50.939500
1306.000000	50.982400
1305.000000	51.001600
1304.000000	51.047800
1303.000000	51.087700
1302.000000	51.109500
1301.000000	51.125000
1300.000000	51.139000
1299.000000	51.155600
1298.000000	51.181500
1297.000000	51.204000
1296.000000	51.204500
1295.000000	51.203500
1294.000000	51.208400
1293.000000	51.215100
1292.000000	51.217000
1291.000000	51.217300
1290.000000	51.199300
1289.000000	51.188200
1288.000000	51.175700
1287.000000	51.155200
1286.000000	51.125700
1285.000000	51.093600
1284.000000	51.063500
1283.000000	51.030100
1282.000000	50.990800
1281.000000	50.962000
1280.000000	50.932900
1279.000000	50.906500
1278.000000	50.867200
1277.000000	50.828000
1276.000000	50.801800
1275.000000	50.766900
1274.000000	50.730800
1273.000000	50.690700
1272.000000	50.673200
1271.000000	50.658700
1270.000000	50.625900
1269.000000	50.600100
1268.000000	50.576300
1267.000000	50.551000
1266.000000	50.522300
1265.000000	50.491800
1264.000000	50.460300
1263.000000	50.430400
1262.000000	50.404500
1261.000000	50.376800
1260.000000	50.347700
1259.000000	50.318200
1258.000000	50.287700
1257.000000	50.238700
1256.000000	50.208100
1255.000000	50.186900
1254.000000	50.135500
1253.000000	50.084400
1252.000000	50.048300
1251.000000	49.993600
1250.000000	49.945600
1249.000000	49.877500
1248.000000	49.810400
1247.000000	49.761900
1246.000000	49.697300
1245.000000	49.614700
1244.000000	49.527300
1243.000000	49.455800
1242.000000	49.373000
1241.000000	49.279300
1240.000000	49.183900
1239.000000	49.085800
1238.000000	48.982000
1237.000000	48.881900
1236.000000	48.786300
1235.000000	48.682700
1234.000000	48.580100
1233.000000	48.466500
1232.000000	48.343700
1231.000000	48.230800
1230.000000	48.117700
1229.000000	47.990900
1228.000000	47.864400
1227.000000	47.741300
1226.000000	47.615600
1225.000000	47.488500
1224.000000	47.362400
1223.000000	47.243200
1222.000000	47.126200
1221.000000	47.008400
1220.000000	46.880900
1219.000000	46.754800
1218.000000	46.648600
1217.000000	46.541400
1216.000000	46.433900
1215.000000	46.342400
1214.000000	46.248400
1213.000000	46.156200
1212.000000	46.073600
1211.000000	45.991000
1210.000000	45.893200
1209.000000	45.814600
1208.000000	45.739300
1207.000000	45.677500
1206.000000	45.626100
1205.000000	45.568500
1204.000000	45.536100
1203.000000	45.509700
1202.000000	45.489600
1201.000000	45.469400
1200.000000	45.437500
1199.000000	45.398700
1198.000000	45.346400
1197.000000	45.287600
1196.000000	45.197600
1195.000000	45.061500
1194.000000	44.906500
1193.000000	44.708500
1192.000000	44.458700
1191.000000	44.178800
1190.000000	43.891300
1189.000000	43.612600
1188.000000	43.374000
1187.000000	43.204300
1186.000000	43.102700
1185.000000	43.078300
1184.000000	43.128800
1183.000000	43.260900
1182.000000	43.479800
1181.000000	43.766700
1180.000000	44.098300
1179.000000	44.431000
1178.000000	44.748400
1177.000000	45.035900
1176.000000	45.279700
1175.000000	45.505100
1174.000000	45.707600
1173.000000	45.899700
1172.000000	46.103200
1171.000000	46.326100
1170.000000	46.523500
1169.000000	46.754300
1168.000000	46.990500
1167.000000	47.218800
1166.000000	47.450500
1165.000000	47.690700
1164.000000	47.936000
1163.000000	48.176200
1162.000000	48.405800
1161.000000	48.663300
1160.000000	48.896500
1159.000000	49.121900
1158.000000	49.357900
1157.000000	49.579500
1156.000000	49.771100
1155.000000	49.942300
1154.000000	50.091600
1153.000000	50.226800
1152.000000	50.304200
1151.000000	50.350000
1150.000000	50.394900
1149.000000	50.419200
1148.000000	50.463700
1147.000000	50.519500
1146.000000	50.587100
1145.000000	50.679900
1144.000000	50.825600
1143.000000	50.990600
1142.000000	51.194400
1141.000000	51.411800
1140.000000	51.647600
1139.000000	51.863800
1138.000000	52.131600
1137.000000	52.396500
1136.000000	52.642200
1135.000000	52.922000
1134.000000	53.203300
1133.000000	53.479800
1132.000000	53.696800
1131.000000	53.903600
1130.000000	54.107300
1129.000000	54.285600
1128.000000	54.448900
1127.000000	54.572900
1126.000000	54.659700
1125.000000	54.750500
1124.000000	54.813000
1123.000000	54.870700
1122.000000	54.943900
1121.000000	54.969200
1120.000000	54.999700
1119.000000	55.014100
1118.000000	55.050300
1117.000000	55.077400
1116.000000	55.091500
1115.000000	55.082300
1114.000000	55.065600
1113.000000	55.058200
1112.000000	55.057900
1111.000000	55.064000
1110.000000	55.047600
1109.000000	55.051900
1108.000000	55.045800
1107.000000	55.053900
1106.000000	55.020900
1105.000000	55.027400
1104.000000	55.011500
1103.000000	55.022100
1102.000000	55.002900
1101.000000	55.001200
1100.000000	54.990200
1099.000000	54.971300
1098.000000	54.979300
1097.000000	54.964300
1096.000000	54.937600
1095.000000	54.903000
1094.000000	54.911200
1093.000000	54.873800
1092.000000	54.871500
1091.000000	54.831400
1090.000000	54.838200
1089.000000	54.803900
1088.000000	54.772300
1087.000000	54.744300
1086.000000	54.749800
1085.000000	54.689400
1084.000000	54.674800
1083.000000	54.646000
1082.000000	54.615500
1081.000000	54.592300
1080.000000	54.580400
1079.000000	54.547000
1078.000000	54.507000
1077.000000	54.500700
1076.000000	54.482200
1075.000000	54.465500
1074.000000	54.447800
1073.000000	54.420700
1072.000000	54.384800
1071.000000	54.384400
1070.000000	54.355800
1069.000000	54.340500
1068.000000	54.325700
1067.000000	54.284100
1066.000000	54.283200
1065.000000	54.239800
1064.000000	54.216100
1063.000000	54.192200
1062.000000	54.162700
1061.000000	54.152000
1060.000000	54.112700
1059.000000	54.080800
1058.000000	54.048600
1057.000000	54.018200
1056.000000	53.998200
1055.000000	53.964800
1054.000000	53.917800
1053.000000	53.894200
1052.000000	53.855300
1051.000000	53.823600
1050.000000	53.810000
1049.000000	53.790700
1048.000000	53.743500
1047.000000	53.725200
1046.000000	53.700600
1045.000000	53.693300
1044.000000	53.653100
1043.000000	53.637000
1042.000000	53.611500
1041.000000	53.571000
1040.000000	53.572100
1039.000000	53.534900
1038.000000	53.532400
1037.000000	53.510100
1036.000000	53.498100
1035.000000	53.460300
1034.000000	53.437500
1033.000000	53.414300
1032.000000	53.377500
1031.000000	53.357000
1030.000000	53.327000
1029.000000	53.308000
1028.000000	53.300600
1027.000000	53.280400
1026.000000	53.239500
1025.000000	53.213800
1024.000000	53.189000
1023.000000	53.166600
1022.000000	53.129600
1021.000000	53.116500
1020.000000	53.099600
1019.000000	53.097900
1018.000000	53.082400
1017.000000	53.064000
1016.000000	53.055300
1015.000000	53.060800
1014.000000	53.061200
1013.000000	53.070300
1012.000000	53.071300
1011.000000	53.074200
1010.000000	53.107900
1009.000000	53.129000
1008.000000	53.137100
1007.000000	53.154000
1006.000000	53.175100
1005.000000	53.204100
1004.000000	53.238000
1003.000000	53.248100
1002.000000	53.259600
1001.000000	53.294400
1000.000000	53.323600
999.000000	53.346000
998.000000	53.355600
997.000000	53.370400
996.000000	53.409100
995.000000	53.422300
994.000000	53.443600
993.000000	53.478700
992.000000	53.509600
991.000000	53.544500
990.000000	53.560900
989.000000	53.586800
988.000000	53.636600
987.000000	53.674400
986.000000	53.703000
985.000000	53.744900
984.000000	53.774500
983.000000	53.807800
982.000000	53.853700
981.000000	53.888400
980.000000	53.923800
979.000000	53.961100
978.000000	54.001700
977.000000	54.049100
976.000000	54.100300
975.000000	54.138800
974.000000	54.181100
973.000000	54.230400
972.000000	54.281400
971.000000	54.317600
970.000000	54.362200
969.000000	54.396300
968.000000	54.425900
967.000000	54.469100
966.000000	54.507600
965.000000	54.562300
964.000000	54.612500
963.000000	54.674200
962.000000	54.726500
961.000000	54.766300
960.000000	54.822700
959.000000	54.883100
958.000000	54.926200
957.000000	54.957800
956.000000	55.001200
955.000000	55.071400
954.000000	55.115600
953.000000	55.140900
952.000000	55.194400
951.000000	55.242800
950.000000	55.279900
949.000000	55.335800
948.000000	55.384500
947.000000	55.420200
946.000000	55.483500
945.000000	55.540400
944.000000	55.586700
943.000000	55.642000
942.000000	55.706000
941.000000	55.760000
940.000000	55.805800
939.000000	55.861500
938.000000	55.933000
937.000000	55.993100
936.000000	56.055100
935.000000	56.117700
934.000000	56.159800
933.000000	56.203300
932.000000	56.260600
931.000000	56.301900
930.000000	56.335300
929.000000	56.381000
928.000000	56.410400
927.000000	56.446600
926.000000	56.477500
925.000000	56.498200
924.000000	56.544200
923.000000	56.580900
922.000000	56.593300
921.000000	56.615300
920.000000	56.648800
919.000000	56.673200
918.000000	56.694000
917.000000	56.719200
916.000000	56.740900
915.000000	56.752300
914.000000	56.777000
913.000000	56.784400
912.000000	56.789300
911.000000	56.794800
910.000000	56.812200
909.000000	56.831200
908.000000	56.854200
907.000000	56.894400
906.000000	56.929400
905.000000	56.973700
904.000000	57.021900
903.000000	57.084100
902.000000	57.134800
901.000000	57.194800
900.000000	57.265800
899.000000	57.328100
898.000000	57.377300
897.000000	57.445400
896.000000	57.512600
895.000000	57.566500
894.000000	57.617000
893.000000	57.643700
892.000000	57.698000
891.000000	57.738000
890.000000	57.737400
889.000000	57.775200
888.000000	57.803400
887.000000	57.843300
886.000000	57.840500
885.000000	57.846300
884.000000	57.852100
883.000000	57.839500
882.000000	57.837700
881.000000	57.850600
880.000000	57.807800
879.000000	57.805000
878.000000	57.750800
877.000000	57.656100
876.000000	57.559100
875.000000	57.492300
874.000000	57.354000
873.000000	57.164700
872.000000	56.974000
871.000000	56.889900
870.000000	56.955000
869.000000	57.091100
868.000000	57.209200
867.000000	57.317400
866.000000	57.457200
865.000000	57.568700
864.000000	57.707100
863.000000	57.829800
862.000000	57.958800
861.000000	58.102700
860.000000	58.224500
859.000000	58.357300
858.000000	58.500300
857.000000	58.306220
856.000000	59.557384
855.000000	60.197887
854.000000	59.784991
853.000000	59.904359
852.000000	59.835367
851.000000	60.172843
850.000000	60.135420
849.000000	60.537570
848.000000	60.402944
847.000000	60.202685
846.000000	60.583053
845.000000	60.517419
844.000000	60.556377
843.000000	60.524712
842.000000	60.542271
841.000000	61.001611
840.000000	61.090945
839.000000	61.205612
838.000000	61.279786
837.000000	61.408078
836.000000	61.468530
835.000000	61.610640
834.000000	61.696041
833.000000	62.049637
832.000000	62.022385
831.000000	62.054818
830.000000	62.126209
829.000000	62.448908
828.000000	62.499476
827.000000	62.741092
826.000000	62.975128
825.000000	62.788686
824.000000	63.054291
823.000000	63.064174
822.000000	63.402514
821.000000	63.413836
820.000000	63.746130
819.000000	63.841414
818.000000	63.924224
817.000000	64.011543
816.000000	64.256422
815.000000	64.265633
814.000000	64.514062
813.000000	64.641395
812.000000	64.775541
811.000000	64.800490
810.000000	65.022339
809.000000	65.138349
808.000000	65.365955
807.000000	65.374016
806.000000	65.479375
805.000000	65.565831
804.000000	65.715425
803.000000	66.024786
802.000000	66.048487
801.000000	66.140892
800.000000	66.155094
799.000000	66.305072
798.000000	66.465894
797.000000	66.560218
796.000000	66.786385
795.000000	66.766618
794.000000	66.926192
793.000000	66.751361
792.000000	66.904794
791.000000	67.103902
790.000000	66.996144
789.000000	67.157637
788.000000	67.122901
787.000000	67.352619
786.000000	67.216458
785.000000	67.260117
784.000000	67.328342
783.000000	67.243997
782.000000	67.318362
781.000000	67.347821
780.000000	67.203024
779.000000	67.091140
778.000000	67.141420
777.000000	67.063121
776.000000	66.913622
775.000000	66.795117
774.000000	66.787249
773.000000	66.746468
772.000000	66.461863
771.000000	66.437203
770.000000	66.398341
769.000000	66.267937
768.000000	66.153942
767.000000	66.167472
766.000000	66.064320
765.000000	65.762827
764.000000	65.552301
763.000000	65.385530
762.000000	65.341967
761.000000	65.228643
760.000000	65.146313
759.000000	64.996431
758.000000	64.789743
757.000000	64.688414
756.000000	64.400739
755.000000	64.201343
754.000000	63.980646
753.000000	63.799578
752.000000	63.513342
751.000000	63.354824
750.000000	63.223748
749.000000	63.064174
748.000000	62.883202
747.000000	62.695225
746.000000	62.553307
745.000000	62.483739
744.000000	62.265441
743.000000	62.154420
742.000000	61.948308
741.000000	61.962797
740.000000	61.792860
739.000000	61.575904
738.000000	61.509119
737.000000	61.405679
736.000000	61.316537
735.000000	61.161089
734.000000	61.068875
733.000000	61.014181
732.000000	60.865929
731.000000	60.811523
730.000000	60.676513
729.000000	60.596198
728.000000	60.479708
727.000000	60.488824
726.000000	60.416186
725.000000	60.383081
724.000000	60.317352
723.000000	60.162575
722.000000	60.180711
721.000000	60.134940
720.000000	60.048772
719.000000	59.974599
718.000000	59.875860
717.000000	59.870103
716.000000	59.725306
715.000000	59.654299
714.000000	59.530229
713.000000	59.416329
712.000000	59.267982
711.000000	59.144296
710.000000	59.000362
709.000000	58.903063
708.000000	58.744737
707.000000	58.678144
706.000000	58.504464
705.000000	58.360339
704.000000	58.178023
703.000000	58.029005
702.000000	57.875955
701.000000	57.749678
700.000000	57.513819
699.000000	57.261072
698.000000	57.055728
697.000000	56.825338
696.000000	56.591399
695.000000	56.271099
694.000000	55.984384
693.000000	55.657464
692.000000	55.343881
691.000000	55.024349
690.000000	54.712782
689.000000	54.390179
688.000000	54.047138
687.000000	53.723480
686.000000	53.357026
685.000000	53.012738
684.000000	52.664803
683.000000	52.313702
682.000000	51.909249
681.000000	51.542507
680.000000	51.213764
679.000000	50.816988
678.000000	50.387683
677.000000	49.989179
676.000000	49.564192
675.000000	49.123373
674.000000	48.665665
673.000000	48.181473
672.000000	47.751017
671.000000	47.341479
670.000000	46.922153
669.000000	46.474808
668.000000	46.101254
667.000000	45.784121
666.000000	45.427646
665.000000	45.100342
664.000000	44.789734
663.000000	44.543704
662.000000	44.329147
661.000000	44.082925
660.000000	43.885737
659.000000	43.759651
658.000000	43.662064
657.000000	43.526191
656.000000	43.428125
655.000000	43.389551
654.000000	43.347522
653.000000	43.313362
652.000000	43.336007
651.000000	43.389551
650.000000	43.470825
649.000000	43.582613
648.000000	43.714264
647.000000	43.911357
646.000000	44.119484
645.000000	44.351889
644.000000	44.641099
643.000000	44.973584
642.000000	45.315762
641.000000	45.683559
640.000000	46.082734
639.000000	46.498701
638.000000	46.965621
637.000000	47.424000
636.000000	47.859926
635.000000	48.322624
634.000000	48.801922
633.000000	49.299739
632.000000	49.790839
631.000000	50.268986
630.000000	50.764884
629.000000	51.237657
628.000000	51.707839
627.000000	52.177829
626.000000	52.622295
625.000000	53.105047
624.000000	53.586264
623.000000	54.052800
622.000000	54.528451
621.000000	55.015617
620.000000	55.548938
619.000000	56.094157
618.000000	56.612509
617.000000	57.113493
616.000000	57.642688
615.000000	58.194816
614.000000	58.695703
613.000000	59.180375
612.000000	59.659865
611.000000	60.134173
610.000000	60.553690
609.000000	60.988081
608.000000	61.395988
607.000000	61.785855
606.000000	62.139547
605.000000	62.450155
604.000000	62.788014
603.000000	63.084997
602.000000	63.366722
601.000000	63.663992
600.000000	63.964429
599.000000	64.248649
598.000000	64.531814
597.000000	64.799626
596.000000	65.093346
595.000000	65.350027
594.000000	65.634151
593.000000	65.888529
592.000000	66.145114
591.000000	66.382124
590.000000	66.600807
589.000000	66.763356
588.000000	66.941161
587.000000	67.146794
586.000000	67.268561
585.000000	67.357800
584.000000	67.467285
583.000000	67.554701
582.000000	67.582720
581.000000	67.603542
580.000000	67.623981
579.000000	67.625996
578.000000	67.606613
577.000000	67.568806
576.000000	67.545969
575.000000	67.456059
574.000000	67.361926
573.000000	67.275566
572.000000	67.152743
571.000000	67.006603
570.000000	66.831484
569.000000	66.626907
568.000000	66.430966
567.000000	66.242893
566.000000	66.007706
565.000000	65.757934
564.000000	65.444639
563.000000	65.113401
562.000000	64.812964
561.000000	64.454762
560.000000	64.061152
559.000000	63.594425
558.000000	63.145737
557.000000	62.662792
556.000000	62.196545
555.000000	61.668693
554.000000	61.160609
553.000000	60.582381
552.000000	60.004537
551.000000	59.396275
550.000000	58.737732
549.000000	58.089361
548.000000	57.409228
547.000000	56.701940
546.000000	55.932184
545.000000	55.137097
544.000000	54.287123
543.000000	53.415367
542.000000	52.496785
541.000000	51.554502
540.000000	50.594275
539.000000	49.606125
538.000000	48.603198
537.000000	47.578393
536.000000	46.566254
535.000000	45.539146
534.000000	44.460702
533.000000	43.452593
532.000000	42.380482
531.000000	41.385520
530.000000	40.368199
529.000000	39.373908
528.000000	38.440741
527.000000	37.500952
526.000000	36.590238
525.000000	35.718195
524.000000	34.851141
523.000000	34.005677
522.000000	33.187656
521.000000	32.426729
520.000000	31.647186
519.000000	30.908712
518.000000	30.222438
517.000000	29.538851
516.000000	28.904585
515.000000	28.305247
514.000000	27.687965
513.000000	27.102828
512.000000	26.562119
511.000000	26.022081
510.000000	25.511406
509.000000	25.043911
508.000000	24.591385
507.000000	24.148742
506.000000	23.745729
505.000000	23.326499
504.000000	22.905446
503.000000	22.523543
502.000000	22.168124
501.000000	21.806755
500.000000	21.449801
499.000000	21.114340
498.000000	20.792793
497.000000	20.483913
496.000000	20.141831
495.000000	19.847056
494.000000	19.556790
493.000000	19.253091
492.000000	18.979138
491.000000	18.704418
490.000000	18.426530
489.000000	18.194702
488.000000	17.910194
487.000000	17.690360
486.000000	17.482616
485.000000	17.275928
484.000000	17.073941
483.000000	16.882318
482.000000	16.694245
481.000000	16.545802
480.000000	16.407242
479.000000	16.274152
478.000000	16.132426
477.000000	15.995785
476.000000	15.866533
475.000000	15.742750
474.000000	15.611483
473.000000	15.525795
472.000000	15.406618
471.000000	15.307784
470.000000	15.225454
469.000000	15.117504
468.000000	15.034791
467.000000	14.945456
466.000000	14.874353
465.000000	14.790200
464.000000	14.719385
463.000000	14.640126
462.000000	14.553957
461.000000	14.494081
460.000000	14.443801
459.000000	14.377879
458.000000	14.313973
457.000000	14.267530
456.000000	14.235481
455.000000	14.169272
454.000000	14.086270
453.000000	14.054029
452.000000	14.036469
451.000000	14.003365
450.000000	13.962967
449.000000	13.937347
448.000000	13.897910
447.000000	13.885243
446.000000	13.853098
445.000000	13.835443
444.000000	13.819322
443.000000	13.801954
442.000000	13.747163
441.000000	13.713963
440.000000	13.688727
439.000000	13.646122
438.000000	13.613977
437.000000	13.545561
436.000000	13.461600
435.000000	13.396926
434.000000	13.334267
433.000000	13.241766
432.000000	13.132568
431.000000	13.037860
430.000000	12.924921
429.000000	12.806607
428.000000	12.703551
427.000000	12.573819
426.000000	12.398221
425.000000	12.256878
424.000000	12.100087
423.000000	11.927751
422.000000	11.739198
421.000000	11.572428
420.000000	11.391072
419.000000	11.196186
418.000000	11.001684
417.000000	10.800849
416.000000	10.603661
415.000000	10.392654
414.000000	10.189133
413.000000	9.992328
412.000000	9.792837
411.000000	9.593153
410.000000	9.379844
409.000000	9.185150
408.000000	8.973089
407.000000	8.797106
406.000000	8.606922
405.000000	8.426046
404.000000	8.236438
403.000000	8.055562
402.000000	7.896084
401.000000	7.735742
400.000000	7.573577
399.000000	7.401721
398.000000	7.244930
397.000000	7.130359
396.000000	6.999763
395.000000	6.842876
394.000000	6.723219
393.000000	6.615941
392.000000	6.499835
391.000000	6.414243
390.000000	6.305045
389.000000	6.217054
388.000000	6.146431
387.000000	6.067939
386.000000	5.980812
385.000000	5.914218
384.000000	5.862498
383.000000	5.792835
382.000000	5.749559
381.000000	5.718661
380.000000	5.679703
379.000000	5.653411
378.000000	5.621458
377.000000	5.591424
376.000000	5.526462
375.000000	5.411220
374.000000	5.384928
373.000000	5.441158
372.000000	5.398170
371.000000	5.433097
370.000000	5.470232
369.000000	5.456990
368.000000	5.408725
367.000000	5.383968
366.000000	5.472823
365.000000	5.453344
364.000000	5.421199
363.000000	5.385887
362.000000	5.368040
361.000000	5.383393
360.000000	5.339253
359.000000	5.323516
358.000000	5.343091
357.000000	5.276882
356.000000	5.278897
355.000000	5.336662
354.000000	5.380130
353.000000	5.317855
352.000000	5.236389
351.000000	5.312673
350.000000	5.370630
349.000000	5.375332
348.000000	5.373413
347.000000	5.328986
346.000000	5.266039
345.000000	5.302886
344.000000	5.301447
343.000000	5.321693
342.000000	5.379075
341.000000	5.355182
340.000000	5.331385
339.000000	5.329274
338.000000	5.323996
337.000000	5.354798
336.000000	5.464571
335.000000	5.449986
334.000000	5.336470
333.000000	5.316128
332.000000	5.346450
331.000000	5.344531
330.000000	5.377443
329.000000	5.411795
328.000000	5.388382
327.000000	5.482515
326.000000	5.511685
325.000000	5.381569
324.000000	5.354030
323.000000	5.372070
322.000000	5.421295
321.000000	5.609752
320.000000	5.677496
319.000000	5.539608
318.000000	5.543446
317.000000	5.641321
316.000000	5.587394
315.000000	5.440006
314.000000	5.427052
313.000000	5.489231
312.000000	5.495756
311.000000	5.483858
310.000000	5.487312
309.000000	5.490671
308.000000	5.519841
307.000000	5.515043
306.000000	5.502665
305.000000	5.510438
304.000000	5.512932
303.000000	5.507367
302.000000	5.518306
301.000000	5.542391
300.000000	5.561294
299.000000	5.571945
298.000000	5.579142
297.000000	5.576551
296.000000	5.560910
295.000000	5.567723
294.000000	5.587778
293.000000	5.591712
292.000000	5.604474
291.000000	5.635276
290.000000	5.624913
289.000000	5.608696
288.000000	5.613878
287.000000	5.607161
286.000000	5.654083
285.000000	5.649093
284.000000	5.620115
283.000000	5.627311
282.000000	5.631821
281.000000	5.680759
280.000000	5.676729
279.000000	5.690738
278.000000	5.731231
277.000000	5.737852
276.000000	5.729408
275.000000	5.745145
274.000000	5.771437
273.000000	5.798400
272.000000	5.788037
271.000000	5.817495
270.000000	5.814233
269.000000	5.820662
268.000000	5.853191
267.000000	5.841580
266.000000	5.834288
265.000000	5.866145
264.000000	5.908557
263.000000	5.933793
262.000000	5.969777
261.000000	6.014300
260.000000	6.010366
259.000000	6.060743
258.000000	6.090873
257.000000	6.090681
256.000000	6.081085
255.000000	6.108145
254.000000	6.104690
253.000000	6.134436
252.000000	6.136835
251.000000	6.151708
250.000000	6.189611
