PE UV       SUBTECH     SPECTRUM    ASCII       PEDS        4.00        
   -1
CICIMAUCR0201-2.Sample.ASC
24/05/31
13:41:41.00
24/05/31
13:41:41.00
Vinicio Soto Monge
C. cupreomarginata. Sex F. Dorsal
250,000000
1
Lambda 1050
1050L1511233
PerkinElmer UV WinLab 6.3.2.0749 / 2.02.05 Lambda 900 UV/VIS/NIR, Aug  7 2015 09:38:08

0
0
3350/servo 860,8/2
0
0
UV/VIS
1
1
1
DoubleDePol,CommonBeamDepol,RBeamAtt,SBeamAtt,60mm sphere, WB InGaAs Detector
0
0
0
0
Program
Program
3350/servo 860,8/2
3350/0,2 860,8/0,2
3350/0,2 860,8/0,2
0
15.00
 
 
 
0
 
860,8
319,2
860,8
Front
100
on
S:100 R:100
0
0
0
0
 
0
 
 
 
0
 
 
0
0
0
0
0
 
 
 
 
0
0


0
0
#HDR
-1
-1
#GR
nm
%R
1.0
0.0
2500,000000
-1,000000
2251
8
68,704500
5,755300
#DATA
2500.000000	9.435900
2499.000000	9.360000
2498.000000	9.353900
2497.000000	9.167100
2496.000000	9.166600
2495.000000	9.177600
2494.000000	9.151600
2493.000000	9.164900
2492.000000	9.153900
2491.000000	9.197300
2490.000000	9.149500
2489.000000	9.113700
2488.000000	9.109200
2487.000000	9.052300
2486.000000	9.141600
2485.000000	8.988300
2484.000000	9.147400
2483.000000	9.031900
2482.000000	9.079800
2481.000000	9.083600
2480.000000	9.042900
2479.000000	9.074200
2478.000000	9.140700
2477.000000	9.018200
2476.000000	9.014100
2475.000000	9.046600
2474.000000	9.050900
2473.000000	9.119600
2472.000000	9.098900
2471.000000	9.106200
2470.000000	9.114000
2469.000000	9.133800
2468.000000	9.139300
2467.000000	9.168900
2466.000000	9.164100
2465.000000	9.233500
2464.000000	9.249900
2463.000000	9.255500
2462.000000	9.295000
2461.000000	9.348000
2460.000000	9.384100
2459.000000	9.460300
2458.000000	9.503900
2457.000000	9.569600
2456.000000	9.641800
2455.000000	9.699100
2454.000000	9.776500
2453.000000	9.866600
2452.000000	9.919200
2451.000000	10.000700
2450.000000	10.061900
2449.000000	10.172800
2448.000000	10.247700
2447.000000	10.340000
2446.000000	10.438800
2445.000000	10.504100
2444.000000	10.596600
2443.000000	10.673300
2442.000000	10.739900
2441.000000	10.848300
2440.000000	10.943700
2439.000000	10.994000
2438.000000	11.097400
2437.000000	11.174000
2436.000000	11.246700
2435.000000	11.317200
2434.000000	11.379800
2433.000000	11.465100
2432.000000	11.521400
2431.000000	11.577000
2430.000000	11.657200
2429.000000	11.727100
2428.000000	11.782800
2427.000000	11.838500
2426.000000	11.899800
2425.000000	11.939700
2424.000000	11.978900
2423.000000	12.038300
2422.000000	12.085100
2421.000000	12.129100
2420.000000	12.181100
2419.000000	12.212000
2418.000000	12.272700
2417.000000	12.307200
2416.000000	12.362500
2415.000000	12.401700
2414.000000	12.434900
2413.000000	12.474400
2412.000000	12.507000
2411.000000	12.535100
2410.000000	12.570400
2409.000000	12.607600
2408.000000	12.633800
2407.000000	12.674600
2406.000000	12.720700
2405.000000	12.744100
2404.000000	12.768600
2403.000000	12.787300
2402.000000	12.824600
2401.000000	12.875200
2400.000000	12.923200
2399.000000	12.967100
2398.000000	13.014900
2397.000000	13.079000
2396.000000	13.127800
2395.000000	13.165500
2394.000000	13.189700
2393.000000	13.203100
2392.000000	13.234100
2391.000000	13.272400
2390.000000	13.282300
2389.000000	13.319300
2388.000000	13.362900
2387.000000	13.364900
2386.000000	13.368600
2385.000000	13.389400
2384.000000	13.391600
2383.000000	13.390500
2382.000000	13.393900
2381.000000	13.401500
2380.000000	13.417800
2379.000000	13.398100
2378.000000	13.380700
2377.000000	13.374500
2376.000000	13.358100
2375.000000	13.352500
2374.000000	13.337800
2373.000000	13.320400
2372.000000	13.293000
2371.000000	13.265700
2370.000000	13.250300
2369.000000	13.222600
2368.000000	13.173400
2367.000000	13.138600
2366.000000	13.094500
2365.000000	13.035000
2364.000000	12.992100
2363.000000	12.923500
2362.000000	12.870300
2361.000000	12.827500
2360.000000	12.759300
2359.000000	12.695700
2358.000000	12.643800
2357.000000	12.592900
2356.000000	12.544300
2355.000000	12.505000
2354.000000	12.476600
2353.000000	12.448100
2352.000000	12.428800
2351.000000	12.428600
2350.000000	12.430300
2349.000000	12.446300
2348.000000	12.467800
2347.000000	12.495400
2346.000000	12.531400
2345.000000	12.568200
2344.000000	12.596500
2343.000000	12.633900
2342.000000	12.686900
2341.000000	12.729200
2340.000000	12.752500
2339.000000	12.788400
2338.000000	12.806900
2337.000000	12.821300
2336.000000	12.836200
2335.000000	12.836100
2334.000000	12.833600
2333.000000	12.817700
2332.000000	12.794300
2331.000000	12.760400
2330.000000	12.713000
2329.000000	12.665300
2328.000000	12.609600
2327.000000	12.551300
2326.000000	12.489000
2325.000000	12.401200
2324.000000	12.321800
2323.000000	12.243700
2322.000000	12.149300
2321.000000	12.054800
2320.000000	11.927900
2319.000000	11.798900
2318.000000	11.673400
2317.000000	11.551600
2316.000000	11.417800
2315.000000	11.276100
2314.000000	11.150200
2313.000000	11.024900
2312.000000	10.900000
2311.000000	10.779100
2310.000000	10.675900
2309.000000	10.598700
2308.000000	10.521300
2307.000000	10.460900
2306.000000	10.440000
2305.000000	10.421600
2304.000000	10.422800
2303.000000	10.439200
2302.000000	10.484800
2301.000000	10.552500
2300.000000	10.616100
2299.000000	10.695900
2298.000000	10.806000
2297.000000	10.898600
2296.000000	11.000400
2295.000000	11.105100
2294.000000	11.177700
2293.000000	11.260400
2292.000000	11.338800
2291.000000	11.393500
2290.000000	11.443100
2289.000000	11.491800
2288.000000	11.508200
2287.000000	11.526000
2286.000000	11.516400
2285.000000	11.503900
2284.000000	11.488600
2283.000000	11.439200
2282.000000	11.408100
2281.000000	11.368900
2280.000000	11.298400
2279.000000	11.251300
2278.000000	11.182800
2277.000000	11.115300
2276.000000	11.059200
2275.000000	11.025300
2274.000000	10.993500
2273.000000	10.962500
2272.000000	10.957600
2271.000000	10.934800
2270.000000	10.962400
2269.000000	10.993700
2268.000000	11.049600
2267.000000	11.112300
2266.000000	11.210300
2265.000000	11.338000
2264.000000	11.476200
2263.000000	11.642300
2262.000000	11.832500
2261.000000	12.040600
2260.000000	12.272200
2259.000000	12.511700
2258.000000	12.763500
2257.000000	13.060000
2256.000000	13.345300
2255.000000	13.595300
2254.000000	13.890800
2253.000000	14.184400
2252.000000	14.442800
2251.000000	14.706600
2250.000000	14.947700
2249.000000	15.202200
2248.000000	15.424100
2247.000000	15.623500
2246.000000	15.819300
2245.000000	16.007700
2244.000000	16.177600
2243.000000	16.335100
2242.000000	16.469100
2241.000000	16.583900
2240.000000	16.713400
2239.000000	16.832000
2238.000000	16.928100
2237.000000	17.019500
2236.000000	17.093800
2235.000000	17.170400
2234.000000	17.223100
2233.000000	17.276700
2232.000000	17.312700
2231.000000	17.351000
2230.000000	17.391500
2229.000000	17.395500
2228.000000	17.407200
2227.000000	17.424000
2226.000000	17.408300
2225.000000	17.399400
2224.000000	17.373500
2223.000000	17.348600
2222.000000	17.330200
2221.000000	17.319400
2220.000000	17.287500
2219.000000	17.229600
2218.000000	17.190000
2217.000000	17.160200
2216.000000	17.111100
2215.000000	17.053700
2214.000000	17.018000
2213.000000	16.974000
2212.000000	16.920000
2211.000000	16.876100
2210.000000	16.843500
2209.000000	16.800600
2208.000000	16.753700
2207.000000	16.736300
2206.000000	16.721000
2205.000000	16.692700
2204.000000	16.654900
2203.000000	16.623800
2202.000000	16.607000
2201.000000	16.556800
2200.000000	16.551600
2199.000000	16.536100
2198.000000	16.482000
2197.000000	16.478700
2196.000000	16.465700
2195.000000	16.438500
2194.000000	16.435300
2193.000000	16.433400
2192.000000	16.415700
2191.000000	16.393400
2190.000000	16.384800
2189.000000	16.349700
2188.000000	16.316300
2187.000000	16.342700
2186.000000	16.301600
2185.000000	16.285600
2184.000000	16.265900
2183.000000	16.234400
2182.000000	16.210000
2181.000000	16.200100
2180.000000	16.181200
2179.000000	16.168200
2178.000000	16.173100
2177.000000	16.140000
2176.000000	16.140700
2175.000000	16.148000
2174.000000	16.134700
2173.000000	16.137500
2172.000000	16.155400
2171.000000	16.173500
2170.000000	16.182700
2169.000000	16.184200
2168.000000	16.228000
2167.000000	16.228600
2166.000000	16.254900
2165.000000	16.274400
2164.000000	16.318200
2163.000000	16.352800
2162.000000	16.379900
2161.000000	16.410300
2160.000000	16.461200
2159.000000	16.487400
2158.000000	16.542400
2157.000000	16.590300
2156.000000	16.660400
2155.000000	16.717200
2154.000000	16.762600
2153.000000	16.823200
2152.000000	16.880100
2151.000000	16.945500
2150.000000	17.001800
2149.000000	17.059600
2148.000000	17.112300
2147.000000	17.172100
2146.000000	17.226000
2145.000000	17.285900
2144.000000	17.349000
2143.000000	17.379000
2142.000000	17.433000
2141.000000	17.473800
2140.000000	17.531100
2139.000000	17.582600
2138.000000	17.619400
2137.000000	17.653200
2136.000000	17.701100
2135.000000	17.732200
2134.000000	17.759500
2133.000000	17.773900
2132.000000	17.799600
2131.000000	17.817300
2130.000000	17.831000
2129.000000	17.832200
2128.000000	17.847600
2127.000000	17.856100
2126.000000	17.853200
2125.000000	17.844700
2124.000000	17.844200
2123.000000	17.833800
2122.000000	17.817800
2121.000000	17.808700
2120.000000	17.789200
2119.000000	17.769300
2118.000000	17.739800
2117.000000	17.713700
2116.000000	17.706700
2115.000000	17.651400
2114.000000	17.614800
2113.000000	17.594000
2112.000000	17.564200
2111.000000	17.528300
2110.000000	17.487900
2109.000000	17.445000
2108.000000	17.399000
2107.000000	17.356300
2106.000000	17.332400
2105.000000	17.312300
2104.000000	17.265100
2103.000000	17.212700
2102.000000	17.173600
2101.000000	17.135700
2100.000000	17.089600
2099.000000	17.058900
2098.000000	17.031400
2097.000000	16.994000
2096.000000	16.961600
2095.000000	16.947800
2094.000000	16.905600
2093.000000	16.865200
2092.000000	16.842500
2091.000000	16.814400
2090.000000	16.778700
2089.000000	16.745500
2088.000000	16.726100
2087.000000	16.695500
2086.000000	16.674600
2085.000000	16.651500
2084.000000	16.605100
2083.000000	16.571900
2082.000000	16.532100
2081.000000	16.487300
2080.000000	16.453300
2079.000000	16.400500
2078.000000	16.345200
2077.000000	16.301900
2076.000000	16.251800
2075.000000	16.197200
2074.000000	16.131500
2073.000000	16.063900
2072.000000	16.006400
2071.000000	15.940000
2070.000000	15.866000
2069.000000	15.805500
2068.000000	15.736000
2067.000000	15.654000
2066.000000	15.583000
2065.000000	15.524600
2064.000000	15.452200
2063.000000	15.377500
2062.000000	15.323100
2061.000000	15.254700
2060.000000	15.204700
2059.000000	15.164700
2058.000000	15.122400
2057.000000	15.080000
2056.000000	15.045100
2055.000000	15.036000
2054.000000	15.033600
2053.000000	15.031300
2052.000000	15.046600
2051.000000	15.077000
2050.000000	15.120400
2049.000000	15.185700
2048.000000	15.244800
2047.000000	15.297600
2046.000000	15.366000
2045.000000	15.467900
2044.000000	15.564400
2043.000000	15.663100
2042.000000	15.756400
2041.000000	15.850900
2040.000000	15.949500
2039.000000	16.045200
2038.000000	16.133300
2037.000000	16.221600
2036.000000	16.292800
2035.000000	16.378300
2034.000000	16.447800
2033.000000	16.523600
2032.000000	16.590500
2031.000000	16.641400
2030.000000	16.683300
2029.000000	16.742600
2028.000000	16.798900
2027.000000	16.833700
2026.000000	16.877100
2025.000000	16.894200
2024.000000	16.925100
2023.000000	16.949400
2022.000000	16.977000
2021.000000	17.004000
2020.000000	17.032300
2019.000000	17.042300
2018.000000	17.052400
2017.000000	17.038400
2016.000000	17.031600
2015.000000	17.028800
2014.000000	17.027100
2013.000000	17.012700
2012.000000	16.991700
2011.000000	16.990400
2010.000000	16.957100
2009.000000	16.936900
2008.000000	16.890900
2007.000000	16.861200
2006.000000	16.819600
2005.000000	16.775900
2004.000000	16.723900
2003.000000	16.673700
2002.000000	16.620700
2001.000000	16.567300
2000.000000	16.504900
1999.000000	16.438200
1998.000000	16.370000
1997.000000	16.280600
1996.000000	16.214300
1995.000000	16.141700
1994.000000	16.052500
1993.000000	15.980400
1992.000000	15.881500
1991.000000	15.794900
1990.000000	15.708900
1989.000000	15.626100
1988.000000	15.520300
1987.000000	15.414800
1986.000000	15.331800
1985.000000	15.237100
1984.000000	15.138000
1983.000000	15.043400
1982.000000	14.935700
1981.000000	14.829500
1980.000000	14.727800
1979.000000	14.646900
1978.000000	14.517300
1977.000000	14.432700
1976.000000	14.330000
1975.000000	14.237000
1974.000000	14.135100
1973.000000	14.048700
1972.000000	13.946200
1971.000000	13.855000
1970.000000	13.781300
1969.000000	13.670400
1968.000000	13.605500
1967.000000	13.498800
1966.000000	13.424900
1965.000000	13.355800
1964.000000	13.240100
1963.000000	13.166100
1962.000000	13.081900
1961.000000	13.008500
1960.000000	12.907500
1959.000000	12.822500
1958.000000	12.752800
1957.000000	12.667100
1956.000000	12.600600
1955.000000	12.522400
1954.000000	12.452400
1953.000000	12.374100
1952.000000	12.297500
1951.000000	12.221900
1950.000000	12.158000
1949.000000	12.089400
1948.000000	12.040300
1947.000000	11.979000
1946.000000	11.930100
1945.000000	11.881800
1944.000000	11.854100
1943.000000	11.820000
1942.000000	11.757400
1941.000000	11.743400
1940.000000	11.736600
1939.000000	11.722600
1938.000000	11.738400
1937.000000	11.725000
1936.000000	11.734600
1935.000000	11.739300
1934.000000	11.737400
1933.000000	11.767600
1932.000000	11.829600
1931.000000	11.839500
1930.000000	11.906700
1929.000000	11.975800
1928.000000	12.058900
1927.000000	12.143000
1926.000000	12.219300
1925.000000	12.323500
1924.000000	12.448400
1923.000000	12.568000
1922.000000	12.687100
1921.000000	12.836000
1920.000000	12.977400
1919.000000	13.134700
1918.000000	13.287600
1917.000000	13.466700
1916.000000	13.630500
1915.000000	13.816500
1914.000000	14.014700
1913.000000	14.244100
1912.000000	14.464200
1911.000000	14.714200
1910.000000	14.922200
1909.000000	15.139700
1908.000000	15.342900
1907.000000	15.628700
1906.000000	15.911400
1905.000000	16.234200
1904.000000	16.570800
1903.000000	16.851000
1902.000000	17.172300
1901.000000	17.488300
1900.000000	17.838700
1899.000000	18.226700
1898.000000	18.598700
1897.000000	18.972000
1896.000000	19.338700
1895.000000	19.675600
1894.000000	20.021600
1893.000000	20.401400
1892.000000	20.826600
1891.000000	21.326400
1890.000000	21.783300
1889.000000	22.241600
1888.000000	22.706400
1887.000000	23.144500
1886.000000	23.622300
1885.000000	24.111500
1884.000000	24.677500
1883.000000	25.258300
1882.000000	25.788400
1881.000000	26.364700
1880.000000	26.899000
1879.000000	27.381000
1878.000000	27.884400
1877.000000	28.408500
1876.000000	28.855800
1875.000000	29.310300
1874.000000	29.758500
1873.000000	30.184300
1872.000000	30.589100
1871.000000	30.966600
1870.000000	31.308200
1869.000000	31.609700
1868.000000	31.900800
1867.000000	32.124000
1866.000000	32.287200
1865.000000	32.433000
1864.000000	32.577100
1863.000000	32.700500
1862.000000	32.816700
1861.000000	32.971900
1860.000000	33.106600
1859.000000	33.226600
1858.000000	33.341100
1857.000000	33.439500
1856.000000	33.489600
1855.000000	33.510100
1854.000000	33.575800
1853.000000	33.606600
1852.000000	33.607500
1851.000000	33.631300
1850.000000	33.630700
1849.000000	33.630000
1848.000000	33.643400
1847.000000	33.676000
1846.000000	33.672400
1845.000000	33.609900
1844.000000	33.557700
1843.000000	33.509700
1842.000000	33.513800
1841.000000	33.562300
1840.000000	33.552200
1839.000000	33.534700
1838.000000	33.496700
1837.000000	33.468100
1836.000000	33.442200
1835.000000	33.418400
1834.000000	33.361200
1833.000000	33.287500
1832.000000	33.207800
1831.000000	33.151900
1830.000000	33.117200
1829.000000	33.073000
1828.000000	33.025000
1827.000000	32.956600
1826.000000	32.905700
1825.000000	32.853000
1824.000000	32.788200
1823.000000	32.749500
1822.000000	32.741500
1821.000000	32.738900
1820.000000	32.726600
1819.000000	32.723500
1818.000000	32.691900
1817.000000	32.658600
1816.000000	32.642800
1815.000000	32.637500
1814.000000	32.609300
1813.000000	32.587700
1812.000000	32.577900
1811.000000	32.570800
1810.000000	32.531600
1809.000000	32.484100
1808.000000	32.449200
1807.000000	32.417400
1806.000000	32.384300
1805.000000	32.340100
1804.000000	32.292500
1803.000000	32.235700
1802.000000	32.195800
1801.000000	32.159700
1800.000000	32.115700
1799.000000	32.065300
1798.000000	32.005900
1797.000000	31.953200
1796.000000	31.911300
1795.000000	31.881000
1794.000000	31.833700
1793.000000	31.782600
1792.000000	31.732700
1791.000000	31.689800
1790.000000	31.650600
1789.000000	31.591600
1788.000000	31.542800
1787.000000	31.504400
1786.000000	31.449300
1785.000000	31.395900
1784.000000	31.336200
1783.000000	31.281200
1782.000000	31.221200
1781.000000	31.155400
1780.000000	31.098000
1779.000000	31.027200
1778.000000	30.944400
1777.000000	30.870400
1776.000000	30.801100
1775.000000	30.719500
1774.000000	30.625300
1773.000000	30.525000
1772.000000	30.423400
1771.000000	30.325800
1770.000000	30.218500
1769.000000	30.114900
1768.000000	30.019400
1767.000000	29.921800
1766.000000	29.826800
1765.000000	29.757600
1764.000000	29.705600
1763.000000	29.690700
1762.000000	29.682100
1761.000000	29.688200
1760.000000	29.725900
1759.000000	29.774700
1758.000000	29.845200
1757.000000	29.902600
1756.000000	29.967100
1755.000000	30.034700
1754.000000	30.076400
1753.000000	30.110200
1752.000000	30.132700
1751.000000	30.147200
1750.000000	30.150200
1749.000000	30.140700
1748.000000	30.085300
1747.000000	30.037900
1746.000000	29.978500
1745.000000	29.883200
1744.000000	29.776500
1743.000000	29.641700
1742.000000	29.493500
1741.000000	29.325400
1740.000000	29.139100
1739.000000	28.940000
1738.000000	28.734800
1737.000000	28.551500
1736.000000	28.376100
1735.000000	28.230500
1734.000000	28.130500
1733.000000	28.076700
1732.000000	28.051000
1731.000000	28.056600
1730.000000	28.096300
1729.000000	28.171300
1728.000000	28.254400
1727.000000	28.322100
1726.000000	28.411900
1725.000000	28.493200
1724.000000	28.555100
1723.000000	28.614400
1722.000000	28.683600
1721.000000	28.734300
1720.000000	28.801300
1719.000000	28.892600
1718.000000	28.986200
1717.000000	29.072000
1716.000000	29.169300
1715.000000	29.281600
1714.000000	29.401100
1713.000000	29.517200
1712.000000	29.617400
1711.000000	29.707300
1710.000000	29.772700
1709.000000	29.819000
1708.000000	29.837800
1707.000000	29.855100
1706.000000	29.862800
1705.000000	29.853600
1704.000000	29.818300
1703.000000	29.767700
1702.000000	29.684200
1701.000000	29.595100
1700.000000	29.484700
1699.000000	29.341600
1698.000000	29.213200
1697.000000	29.090800
1696.000000	29.002800
1695.000000	28.942800
1694.000000	28.925800
1693.000000	28.942900
1692.000000	29.032700
1691.000000	29.143000
1690.000000	29.247200
1689.000000	29.365900
1688.000000	29.470600
1687.000000	29.559000
1686.000000	29.607500
1685.000000	29.678900
1684.000000	29.747700
1683.000000	29.900900
1682.000000	30.113100
1681.000000	30.422700
1680.000000	30.810100
1679.000000	31.255300
1678.000000	31.745100
1677.000000	32.208400
1676.000000	32.668900
1675.000000	33.032500
1674.000000	33.368700
1673.000000	33.694900
1672.000000	33.979600
1671.000000	34.215300
1670.000000	34.415200
1669.000000	34.622900
1668.000000	34.795200
1667.000000	34.938800
1666.000000	35.052400
1665.000000	35.178700
1664.000000	35.303900
1663.000000	35.388100
1662.000000	35.470200
1661.000000	35.573100
1660.000000	35.618600
1659.000000	35.688100
1658.000000	35.733200
1657.000000	35.782200
1656.000000	35.822100
1655.000000	35.857200
1654.000000	35.857500
1653.000000	35.875300
1652.000000	35.861800
1651.000000	35.859200
1650.000000	35.844100
1649.000000	35.813000
1648.000000	35.798300
1647.000000	35.791200
1646.000000	35.754200
1645.000000	35.717100
1644.000000	35.675600
1643.000000	35.635200
1642.000000	35.578800
1641.000000	35.555700
1640.000000	35.517700
1639.000000	35.472300
1638.000000	35.420800
1637.000000	35.356600
1636.000000	35.300700
1635.000000	35.257500
1634.000000	35.203300
1633.000000	35.124000
1632.000000	35.087800
1631.000000	35.000800
1630.000000	34.922800
1629.000000	34.861300
1628.000000	34.777600
1627.000000	34.696000
1626.000000	34.627200
1625.000000	34.547700
1624.000000	34.483500
1623.000000	34.413900
1622.000000	34.329000
1621.000000	34.259600
1620.000000	34.202400
1619.000000	34.128800
1618.000000	34.046200
1617.000000	33.994200
1616.000000	33.902500
1615.000000	33.863000
1614.000000	33.779800
1613.000000	33.699700
1612.000000	33.640800
1611.000000	33.567700
1610.000000	33.482500
1609.000000	33.425100
1608.000000	33.352500
1607.000000	33.264800
1606.000000	33.209500
1605.000000	33.126300
1604.000000	33.048400
1603.000000	32.968300
1602.000000	32.888500
1601.000000	32.811800
1600.000000	32.729200
1599.000000	32.648000
1598.000000	32.579900
1597.000000	32.503500
1596.000000	32.428500
1595.000000	32.347400
1594.000000	32.278100
1593.000000	32.209800
1592.000000	32.152000
1591.000000	32.101100
1590.000000	32.033100
1589.000000	31.961900
1588.000000	31.899700
1587.000000	31.847800
1586.000000	31.789900
1585.000000	31.734100
1584.000000	31.681000
1583.000000	31.623600
1582.000000	31.574400
1581.000000	31.530500
1580.000000	31.477600
1579.000000	31.421200
1578.000000	31.396800
1577.000000	31.363700
1576.000000	31.337800
1575.000000	31.306800
1574.000000	31.294200
1573.000000	31.267600
1572.000000	31.260000
1571.000000	31.244400
1570.000000	31.223200
1569.000000	31.216200
1568.000000	31.208000
1567.000000	31.207500
1566.000000	31.212300
1565.000000	31.209300
1564.000000	31.204200
1563.000000	31.194900
1562.000000	31.186400
1561.000000	31.179200
1560.000000	31.174800
1559.000000	31.158900
1558.000000	31.144100
1557.000000	31.113800
1556.000000	31.084900
1555.000000	31.062700
1554.000000	31.031700
1553.000000	31.002500
1552.000000	30.970600
1551.000000	30.930800
1550.000000	30.888500
1549.000000	30.847700
1548.000000	30.796400
1547.000000	30.744900
1546.000000	30.703200
1545.000000	30.652800
1544.000000	30.616200
1543.000000	30.601900
1542.000000	30.578600
1541.000000	30.549600
1540.000000	30.510600
1539.000000	30.477700
1538.000000	30.455100
1537.000000	30.434800
1536.000000	30.396000
1535.000000	30.357800
1534.000000	30.333700
1533.000000	30.295100
1532.000000	30.254700
1531.000000	30.225000
1530.000000	30.185500
1529.000000	30.140200
1528.000000	30.077200
1527.000000	30.031300
1526.000000	29.993000
1525.000000	29.931400
1524.000000	29.883400
1523.000000	29.845900
1522.000000	29.787400
1521.000000	29.729800
1520.000000	29.674900
1519.000000	29.618100
1518.000000	29.553000
1517.000000	29.482800
1516.000000	29.424100
1515.000000	29.379000
1514.000000	29.327400
1513.000000	29.255600
1512.000000	29.178700
1511.000000	29.116600
1510.000000	29.052600
1509.000000	28.981200
1508.000000	28.919800
1507.000000	28.849400
1506.000000	28.779000
1505.000000	28.720700
1504.000000	28.654600
1503.000000	28.589300
1502.000000	28.524400
1501.000000	28.462700
1500.000000	28.405400
1499.000000	28.345700
1498.000000	28.297400
1497.000000	28.262900
1496.000000	28.219300
1495.000000	28.184200
1494.000000	28.142700
1493.000000	28.097300
1492.000000	28.068400
1491.000000	28.025400
1490.000000	27.995800
1489.000000	27.976100
1488.000000	27.945000
1487.000000	27.912100
1486.000000	27.898700
1485.000000	27.870000
1484.000000	27.840500
1483.000000	27.817100
1482.000000	27.799000
1481.000000	27.786300
1480.000000	27.789500
1479.000000	27.778800
1478.000000	27.763100
1477.000000	27.756600
1476.000000	27.757000
1475.000000	27.763400
1474.000000	27.768700
1473.000000	27.790900
1472.000000	27.821100
1471.000000	27.846500
1470.000000	27.855700
1469.000000	27.855600
1468.000000	27.862500
1467.000000	27.890200
1466.000000	27.917600
1465.000000	27.938000
1464.000000	27.946300
1463.000000	27.985400
1462.000000	28.030600
1461.000000	28.083300
1460.000000	28.106700
1459.000000	28.155300
1458.000000	28.207800
1457.000000	28.254000
1456.000000	28.323700
1455.000000	28.407300
1454.000000	28.468900
1453.000000	28.548900
1452.000000	28.644000
1451.000000	28.707600
1450.000000	28.795500
1449.000000	28.869000
1448.000000	28.940200
1447.000000	29.024000
1446.000000	29.132600
1445.000000	29.237300
1444.000000	29.323400
1443.000000	29.385700
1442.000000	29.487100
1441.000000	29.610200
1440.000000	29.716800
1439.000000	29.819100
1438.000000	29.913400
1437.000000	30.022100
1436.000000	30.133100
1435.000000	30.238400
1434.000000	30.350100
1433.000000	30.479900
1432.000000	30.620200
1431.000000	30.738700
1430.000000	30.877700
1429.000000	31.011500
1428.000000	31.166000
1427.000000	31.331400
1426.000000	31.507700
1425.000000	31.694400
1424.000000	31.894600
1423.000000	32.088000
1422.000000	32.287400
1421.000000	32.489000
1420.000000	32.736700
1419.000000	32.984100
1418.000000	33.214500
1417.000000	33.439100
1416.000000	33.654300
1415.000000	33.921500
1414.000000	34.220300
1413.000000	34.500900
1412.000000	34.759800
1411.000000	35.001100
1410.000000	35.328600
1409.000000	35.699000
1408.000000	36.035200
1407.000000	36.437900
1406.000000	36.738700
1405.000000	37.139000
1404.000000	37.516300
1403.000000	37.884700
1402.000000	38.259500
1401.000000	38.645200
1400.000000	39.085700
1399.000000	39.474600
1398.000000	39.733000
1397.000000	39.979300
1396.000000	40.312000
1395.000000	40.686000
1394.000000	40.997700
1393.000000	41.222600
1392.000000	41.481200
1391.000000	41.776700
1390.000000	42.084300
1389.000000	42.334700
1388.000000	42.743900
1387.000000	43.146500
1386.000000	43.516800
1385.000000	43.937600
1384.000000	44.350000
1383.000000	44.826900
1382.000000	45.310100
1381.000000	45.720600
1380.000000	46.019800
1379.000000	46.240400
1378.000000	46.475200
1377.000000	46.574500
1376.000000	46.765200
1375.000000	46.938100
1374.000000	47.120700
1373.000000	47.336300
1372.000000	47.589600
1371.000000	47.894000
1370.000000	48.191100
1369.000000	48.413600
1368.000000	48.706000
1367.000000	48.949800
1366.000000	49.137000
1365.000000	49.289300
1364.000000	49.490700
1363.000000	49.639200
1362.000000	49.811300
1361.000000	49.933900
1360.000000	50.071500
1359.000000	50.067800
1358.000000	50.169800
1357.000000	50.268900
1356.000000	50.411900
1355.000000	50.629100
1354.000000	50.909000
1353.000000	51.249800
1352.000000	51.560400
1351.000000	51.952200
1350.000000	52.339300
1349.000000	52.666100
1348.000000	53.018700
1347.000000	53.323400
1346.000000	53.624400
1345.000000	53.911100
1344.000000	54.207400
1343.000000	54.464600
1342.000000	54.728000
1341.000000	54.985800
1340.000000	55.226600
1339.000000	55.482200
1338.000000	55.723900
1337.000000	55.957600
1336.000000	56.180400
1335.000000	56.415100
1334.000000	56.630000
1333.000000	56.843800
1332.000000	57.066200
1331.000000	57.258500
1330.000000	57.434200
1329.000000	57.628400
1328.000000	57.796800
1327.000000	57.967100
1326.000000	58.126800
1325.000000	58.298500
1324.000000	58.444000
1323.000000	58.584800
1322.000000	58.701100
1321.000000	58.844800
1320.000000	58.978300
1319.000000	59.114200
1318.000000	59.218200
1317.000000	59.318800
1316.000000	59.419300
1315.000000	59.537200
1314.000000	59.639900
1313.000000	59.754400
1312.000000	59.842200
1311.000000	59.920700
1310.000000	59.992500
1309.000000	60.080000
1308.000000	60.152600
1307.000000	60.201700
1306.000000	60.270400
1305.000000	60.349800
1304.000000	60.384200
1303.000000	60.420800
1302.000000	60.471500
1301.000000	60.512200
1300.000000	60.529600
1299.000000	60.542900
1298.000000	60.570600
1297.000000	60.599000
1296.000000	60.618200
1295.000000	60.634200
1294.000000	60.636600
1293.000000	60.643900
1292.000000	60.645800
1291.000000	60.640400
1290.000000	60.625500
1289.000000	60.615300
1288.000000	60.588800
1287.000000	60.561100
1286.000000	60.542100
1285.000000	60.510300
1284.000000	60.461700
1283.000000	60.432000
1282.000000	60.396700
1281.000000	60.351800
1280.000000	60.308200
1279.000000	60.271600
1278.000000	60.236200
1277.000000	60.196900
1276.000000	60.156100
1275.000000	60.123600
1274.000000	60.082800
1273.000000	60.045200
1272.000000	60.026500
1271.000000	60.004200
1270.000000	59.985700
1269.000000	59.958900
1268.000000	59.921300
1267.000000	59.898900
1266.000000	59.883000
1265.000000	59.861000
1264.000000	59.827300
1263.000000	59.794500
1262.000000	59.766800
1261.000000	59.749800
1260.000000	59.729700
1259.000000	59.695000
1258.000000	59.660700
1257.000000	59.633900
1256.000000	59.608700
1255.000000	59.560300
1254.000000	59.531500
1253.000000	59.488000
1252.000000	59.449000
1251.000000	59.401700
1250.000000	59.346700
1249.000000	59.299900
1248.000000	59.238300
1247.000000	59.168600
1246.000000	59.100100
1245.000000	59.026100
1244.000000	58.939500
1243.000000	58.851300
1242.000000	58.763400
1241.000000	58.672900
1240.000000	58.569400
1239.000000	58.472400
1238.000000	58.374600
1237.000000	58.275300
1236.000000	58.174800
1235.000000	58.062600
1234.000000	57.947900
1233.000000	57.833700
1232.000000	57.717700
1231.000000	57.602200
1230.000000	57.489200
1229.000000	57.364300
1228.000000	57.222500
1227.000000	57.099100
1226.000000	56.972600
1225.000000	56.848700
1224.000000	56.729500
1223.000000	56.596600
1222.000000	56.469200
1221.000000	56.333000
1220.000000	56.209100
1219.000000	56.102000
1218.000000	55.986900
1217.000000	55.880600
1216.000000	55.786200
1215.000000	55.675500
1214.000000	55.560600
1213.000000	55.472800
1212.000000	55.385600
1211.000000	55.292100
1210.000000	55.192600
1209.000000	55.101500
1208.000000	55.027700
1207.000000	54.949400
1206.000000	54.872100
1205.000000	54.823700
1204.000000	54.779500
1203.000000	54.740800
1202.000000	54.690800
1201.000000	54.663300
1200.000000	54.638200
1199.000000	54.586100
1198.000000	54.523300
1197.000000	54.433800
1196.000000	54.331500
1195.000000	54.189600
1194.000000	54.015200
1193.000000	53.781900
1192.000000	53.523300
1191.000000	53.217300
1190.000000	52.885100
1189.000000	52.571000
1188.000000	52.290500
1187.000000	52.082200
1186.000000	51.957100
1185.000000	51.911800
1184.000000	51.963000
1183.000000	52.114600
1182.000000	52.361200
1181.000000	52.675900
1180.000000	53.027600
1179.000000	53.392200
1178.000000	53.734800
1177.000000	54.073400
1176.000000	54.360800
1175.000000	54.610500
1174.000000	54.844000
1173.000000	55.054100
1172.000000	55.286000
1171.000000	55.529900
1170.000000	55.791400
1169.000000	56.038100
1168.000000	56.303700
1167.000000	56.568600
1166.000000	56.837100
1165.000000	57.111300
1164.000000	57.397400
1163.000000	57.683200
1162.000000	57.986400
1161.000000	58.266800
1160.000000	58.557400
1159.000000	58.820600
1158.000000	59.098700
1157.000000	59.358900
1156.000000	59.605300
1155.000000	59.834400
1154.000000	60.037500
1153.000000	60.175200
1152.000000	60.310500
1151.000000	60.412700
1150.000000	60.495500
1149.000000	60.563000
1148.000000	60.620100
1147.000000	60.706100
1146.000000	60.810900
1145.000000	60.938700
1144.000000	61.123100
1143.000000	61.336000
1142.000000	61.585000
1141.000000	61.870300
1140.000000	62.160700
1139.000000	62.449900
1138.000000	62.768800
1137.000000	63.089900
1136.000000	63.434600
1135.000000	63.766000
1134.000000	64.132000
1133.000000	64.445000
1132.000000	64.715700
1131.000000	64.975900
1130.000000	65.253800
1129.000000	65.488100
1128.000000	65.702200
1127.000000	65.850900
1126.000000	65.993100
1125.000000	66.112400
1124.000000	66.209100
1123.000000	66.305600
1122.000000	66.383200
1121.000000	66.442400
1120.000000	66.477300
1119.000000	66.522500
1118.000000	66.567500
1117.000000	66.590700
1116.000000	66.606200
1115.000000	66.607800
1114.000000	66.631600
1113.000000	66.633300
1112.000000	66.656400
1111.000000	66.658100
1110.000000	66.676100
1109.000000	66.672100
1108.000000	66.674700
1107.000000	66.679600
1106.000000	66.679200
1105.000000	66.685100
1104.000000	66.693800
1103.000000	66.694200
1102.000000	66.699800
1101.000000	66.700500
1100.000000	66.689000
1099.000000	66.674000
1098.000000	66.650000
1097.000000	66.663400
1096.000000	66.643100
1095.000000	66.629700
1094.000000	66.609100
1093.000000	66.580100
1092.000000	66.581200
1091.000000	66.534600
1090.000000	66.521100
1089.000000	66.497500
1088.000000	66.469700
1087.000000	66.435100
1086.000000	66.396000
1085.000000	66.358200
1084.000000	66.328200
1083.000000	66.287900
1082.000000	66.247900
1081.000000	66.204200
1080.000000	66.160500
1079.000000	66.137500
1078.000000	66.090200
1077.000000	66.021100
1076.000000	65.999200
1075.000000	65.944800
1074.000000	65.934900
1073.000000	65.875500
1072.000000	65.823300
1071.000000	65.786300
1070.000000	65.743800
1069.000000	65.707500
1068.000000	65.646100
1067.000000	65.600800
1066.000000	65.547700
1065.000000	65.516100
1064.000000	65.468400
1063.000000	65.410200
1062.000000	65.371400
1061.000000	65.337900
1060.000000	65.283600
1059.000000	65.212300
1058.000000	65.165100
1057.000000	65.126200
1056.000000	65.085400
1055.000000	65.022500
1054.000000	64.973400
1053.000000	64.932700
1052.000000	64.873200
1051.000000	64.828000
1050.000000	64.778900
1049.000000	64.740100
1048.000000	64.712700
1047.000000	64.671400
1046.000000	64.628100
1045.000000	64.585700
1044.000000	64.549600
1043.000000	64.523900
1042.000000	64.490100
1041.000000	64.457700
1040.000000	64.425500
1039.000000	64.373900
1038.000000	64.336400
1037.000000	64.307200
1036.000000	64.274200
1035.000000	64.221300
1034.000000	64.197600
1033.000000	64.150300
1032.000000	64.097300
1031.000000	64.072300
1030.000000	64.017200
1029.000000	63.948400
1028.000000	63.898800
1027.000000	63.850200
1026.000000	63.791300
1025.000000	63.743100
1024.000000	63.689900
1023.000000	63.610900
1022.000000	63.553000
1021.000000	63.513800
1020.000000	63.444400
1019.000000	63.388900
1018.000000	63.340200
1017.000000	63.283400
1016.000000	63.225900
1015.000000	63.181000
1014.000000	63.149700
1013.000000	63.100000
1012.000000	63.058200
1011.000000	63.022200
1010.000000	63.005100
1009.000000	62.982100
1008.000000	62.954200
1007.000000	62.922700
1006.000000	62.918000
1005.000000	62.895800
1004.000000	62.870300
1003.000000	62.843700
1002.000000	62.819500
1001.000000	62.799000
1000.000000	62.787000
999.000000	62.755700
998.000000	62.733600
997.000000	62.707900
996.000000	62.702600
995.000000	62.680100
994.000000	62.654800
993.000000	62.627200
992.000000	62.622300
991.000000	62.630100
990.000000	62.614100
989.000000	62.590400
988.000000	62.598900
987.000000	62.623000
986.000000	62.613600
985.000000	62.605400
984.000000	62.622200
983.000000	62.618000
982.000000	62.625300
981.000000	62.644900
980.000000	62.664500
979.000000	62.657700
978.000000	62.677900
977.000000	62.705800
976.000000	62.707300
975.000000	62.704200
974.000000	62.724500
973.000000	62.774300
972.000000	62.785400
971.000000	62.775500
970.000000	62.804500
969.000000	62.839500
968.000000	62.868000
967.000000	62.898700
966.000000	62.912700
965.000000	62.942100
964.000000	62.978900
963.000000	63.010100
962.000000	63.036700
961.000000	63.054700
960.000000	63.096200
959.000000	63.139800
958.000000	63.172300
957.000000	63.203100
956.000000	63.208700
955.000000	63.235700
954.000000	63.261600
953.000000	63.273800
952.000000	63.302400
951.000000	63.316500
950.000000	63.320700
949.000000	63.339200
948.000000	63.344100
947.000000	63.349200
946.000000	63.359900
945.000000	63.378800
944.000000	63.398100
943.000000	63.393800
942.000000	63.405600
941.000000	63.409400
940.000000	63.399400
939.000000	63.396100
938.000000	63.419400
937.000000	63.424600
936.000000	63.412400
935.000000	63.410600
934.000000	63.405200
933.000000	63.412800
932.000000	63.436000
931.000000	63.436100
930.000000	63.423300
929.000000	63.424500
928.000000	63.424900
927.000000	63.412200
926.000000	63.406200
925.000000	63.396500
924.000000	63.422800
923.000000	63.421400
922.000000	63.408700
921.000000	63.408300
920.000000	63.417900
919.000000	63.427700
918.000000	63.416100
917.000000	63.402000
916.000000	63.406400
915.000000	63.405100
914.000000	63.394800
913.000000	63.388000
912.000000	63.407000
911.000000	63.396500
910.000000	63.372900
909.000000	63.353800
908.000000	63.351200
907.000000	63.345100
906.000000	63.354900
905.000000	63.361200
904.000000	63.374400
903.000000	63.382000
902.000000	63.399100
901.000000	63.409200
900.000000	63.433500
899.000000	63.447200
898.000000	63.464300
897.000000	63.485800
896.000000	63.520800
895.000000	63.545000
894.000000	63.555200
893.000000	63.545400
892.000000	63.550000
891.000000	63.527800
890.000000	63.537600
889.000000	63.555700
888.000000	63.566200
887.000000	63.569500
886.000000	63.529300
885.000000	63.508600
884.000000	63.490500
883.000000	63.461200
882.000000	63.428200
881.000000	63.405100
880.000000	63.349400
879.000000	63.305400
878.000000	63.235800
877.000000	63.119600
876.000000	63.003400
875.000000	62.936800
874.000000	62.776900
873.000000	62.579400
872.000000	62.362500
871.000000	62.268300
870.000000	62.284800
869.000000	62.340800
868.000000	62.415100
867.000000	62.481100
866.000000	62.535200
865.000000	62.592600
864.000000	62.637700
863.000000	62.696200
862.000000	62.769500
861.000000	62.843600
860.000000	62.897100
859.000000	62.953000
858.000000	63.009400
857.000000	62.930740
856.000000	63.575933
855.000000	63.554635
854.000000	63.769226
853.000000	63.623073
852.000000	63.873161
851.000000	63.878935
850.000000	63.705237
849.000000	64.116718
848.000000	64.088793
847.000000	64.133188
846.000000	64.083587
845.000000	64.374757
844.000000	64.487401
843.000000	64.577516
842.000000	64.131295
841.000000	64.222925
840.000000	64.548929
839.000000	64.647942
838.000000	64.437800
837.000000	64.612918
836.000000	64.727360
835.000000	64.823344
834.000000	64.665453
833.000000	64.663560
832.000000	64.749321
831.000000	64.388766
830.000000	64.775825
829.000000	64.756894
828.000000	64.749700
827.000000	64.879571
826.000000	64.935514
825.000000	64.927184
824.000000	65.034717
823.000000	64.863858
822.000000	64.848145
821.000000	64.977732
820.000000	64.846441
819.000000	64.812648
818.000000	64.809240
817.000000	64.708523
816.000000	64.718936
815.000000	64.785007
814.000000	64.891214
813.000000	64.778287
812.000000	64.697353
811.000000	64.594838
810.000000	64.601654
809.000000	64.732188
808.000000	64.729253
807.000000	64.764277
806.000000	64.538138
805.000000	64.458530
804.000000	64.617651
803.000000	64.446035
802.000000	64.246778
801.000000	64.077718
800.000000	64.174743
799.000000	64.014297
798.000000	63.996123
797.000000	63.917367
796.000000	63.871173
795.000000	63.790240
794.000000	63.616068
793.000000	63.863317
792.000000	63.578299
791.000000	63.677502
790.000000	63.438678
789.000000	63.503614
788.000000	63.369672
787.000000	63.144195
786.000000	62.978164
785.000000	63.027197
784.000000	62.867697
783.000000	62.802572
782.000000	62.837501
781.000000	62.633417
780.000000	62.536392
779.000000	62.500990
778.000000	62.419678
777.000000	62.353323
776.000000	62.286588
775.000000	62.164573
774.000000	62.067454
773.000000	61.988035
772.000000	61.962477
771.000000	61.938434
770.000000	61.779975
769.000000	61.719583
768.000000	61.582991
767.000000	61.513038
766.000000	61.387616
765.000000	61.222436
764.000000	61.249319
763.000000	61.020813
762.000000	61.020529
761.000000	60.908359
760.000000	60.827142
759.000000	60.707494
758.000000	60.669535
757.000000	60.528778
756.000000	60.478514
755.000000	60.517514
754.000000	60.391523
753.000000	60.359812
752.000000	60.230414
751.000000	60.113416
750.000000	60.039582
749.000000	59.917378
748.000000	59.820069
747.000000	59.720394
746.000000	59.608507
745.000000	59.453930
744.000000	59.362016
743.000000	59.256850
742.000000	59.098960
741.000000	59.040745
740.000000	58.995214
739.000000	58.962178
738.000000	58.918446
737.000000	58.802679
736.000000	58.720893
735.000000	58.547290
734.000000	58.485099
733.000000	58.382489
732.000000	58.300893
731.000000	58.243057
730.000000	58.057999
729.000000	57.926803
728.000000	57.874172
727.000000	57.739000
726.000000	57.670751
725.000000	57.590764
724.000000	57.405612
723.000000	57.360555
722.000000	57.220744
721.000000	57.103083
720.000000	56.953807
719.000000	56.904111
718.000000	56.844003
717.000000	56.751995
716.000000	56.621366
715.000000	56.510710
714.000000	56.400527
713.000000	56.314104
712.000000	56.267816
711.000000	56.136146
710.000000	56.031643
709.000000	56.000121
708.000000	55.912846
707.000000	55.862961
706.000000	55.676768
705.000000	55.596308
704.000000	55.507234
703.000000	55.366761
702.000000	55.278918
701.000000	55.154631
700.000000	55.059783
699.000000	55.022582
698.000000	54.892994
697.000000	54.774482
696.000000	54.692886
695.000000	54.556388
694.000000	54.538309
693.000000	54.497416
692.000000	54.380797
691.000000	54.320121
690.000000	54.293806
689.000000	54.202555
688.000000	54.157686
687.000000	54.135347
686.000000	54.111588
685.000000	54.052994
684.000000	53.930979
683.000000	53.866801
682.000000	53.842757
681.000000	53.789748
680.000000	53.682500
679.000000	53.584907
678.000000	53.464123
677.000000	53.333115
676.000000	53.241581
675.000000	53.106408
674.000000	52.927787
673.000000	52.741121
672.000000	52.594778
671.000000	52.428747
670.000000	52.245109
669.000000	52.095833
668.000000	51.952898
667.000000	51.786489
666.000000	51.635319
665.000000	51.455089
664.000000	51.275427
663.000000	51.151897
662.000000	50.960592
661.000000	50.782350
660.000000	50.648030
659.000000	50.482472
658.000000	50.303851
657.000000	50.145392
656.000000	49.981633
655.000000	49.743188
654.000000	49.480416
653.000000	49.227204
652.000000	48.985730
651.000000	48.716237
650.000000	48.412004
649.000000	48.110801
648.000000	47.793032
647.000000	47.535655
646.000000	47.303741
645.000000	47.062741
644.000000	46.866135
643.000000	46.743078
642.000000	46.652206
641.000000	46.635641
640.000000	46.671422
639.000000	46.728690
638.000000	46.906270
637.000000	47.123133
636.000000	47.340658
635.000000	47.655682
634.000000	47.980266
633.000000	48.295101
632.000000	48.664080
631.000000	49.058617
630.000000	49.413965
629.000000	49.745744
628.000000	50.045149
627.000000	50.343324
626.000000	50.626163
625.000000	50.868963
624.000000	51.121512
623.000000	51.363459
622.000000	51.544636
621.000000	51.729504
620.000000	51.880201
619.000000	52.037996
618.000000	52.239241
617.000000	52.477875
616.000000	52.718686
615.000000	52.991871
614.000000	53.328477
613.000000	53.662811
612.000000	54.025638
611.000000	54.396510
610.000000	54.831561
609.000000	55.228465
608.000000	55.647991
607.000000	56.114753
606.000000	56.556619
605.000000	56.982772
604.000000	57.398513
603.000000	57.831671
602.000000	58.234443
601.000000	58.564517
600.000000	58.886262
599.000000	59.193997
598.000000	59.443707
597.000000	59.635958
596.000000	59.902327
595.000000	60.111618
594.000000	60.324126
593.000000	60.499055
592.000000	60.606682
591.000000	60.793160
590.000000	60.978596
589.000000	61.110834
588.000000	61.284627
587.000000	61.468265
586.000000	61.639123
585.000000	61.836865
584.000000	62.077298
583.000000	62.283654
582.000000	62.534594
581.000000	62.753634
580.000000	62.966994
579.000000	63.187075
578.000000	63.393905
577.000000	63.625155
576.000000	63.803303
575.000000	63.964412
574.000000	64.077150
573.000000	64.195000
572.000000	64.315974
571.000000	64.391606
570.000000	64.391228
569.000000	64.397191
568.000000	64.380247
567.000000	64.323641
566.000000	64.271674
565.000000	64.176826
564.000000	64.104791
563.000000	63.934500
562.000000	63.796866
561.000000	63.631119
560.000000	63.434040
559.000000	63.192092
558.000000	62.941152
557.000000	62.694756
556.000000	62.375283
555.000000	61.991064
554.000000	61.573241
553.000000	61.113958
552.000000	60.617568
551.000000	60.076783
550.000000	59.530887
549.000000	58.942111
548.000000	58.399622
547.000000	57.812455
546.000000	57.179473
545.000000	56.543178
544.000000	55.847816
543.000000	55.158322
542.000000	54.455577
541.000000	53.719512
540.000000	52.978998
539.000000	52.250884
538.000000	51.523811
537.000000	50.808855
536.000000	50.063607
535.000000	49.338333
534.000000	48.601321
533.000000	47.842917
532.000000	47.126635
531.000000	46.369366
530.000000	45.689055
529.000000	45.020387
528.000000	44.347648
527.000000	43.673584
526.000000	42.977275
525.000000	42.274151
524.000000	41.574340
523.000000	40.895354
522.000000	40.201696
521.000000	39.522426
520.000000	38.833785
519.000000	38.123183
518.000000	37.409173
517.000000	36.692607
516.000000	35.975947
515.000000	35.176934
514.000000	34.430835
513.000000	33.678204
512.000000	32.898123
511.000000	32.126560
510.000000	31.370806
509.000000	30.580028
508.000000	29.790007
507.000000	29.039554
506.000000	28.347126
505.000000	27.648735
504.000000	26.998525
503.000000	26.396023
502.000000	25.773075
501.000000	25.235982
500.000000	24.715360
499.000000	24.277753
498.000000	23.882838
497.000000	23.518875
496.000000	23.159457
495.000000	22.870464
494.000000	22.644987
493.000000	22.392817
492.000000	22.193466
491.000000	22.022512
490.000000	21.877401
489.000000	21.737590
488.000000	21.617468
487.000000	21.473208
486.000000	21.371734
485.000000	21.257387
484.000000	21.172857
483.000000	21.060402
482.000000	20.960064
481.000000	20.856602
480.000000	20.771599
479.000000	20.662268
478.000000	20.604242
477.000000	20.521038
476.000000	20.474939
475.000000	20.429976
474.000000	20.357089
473.000000	20.314776
472.000000	20.262336
471.000000	20.220875
470.000000	20.187177
469.000000	20.140983
468.000000	20.087028
467.000000	20.028907
466.000000	19.971828
465.000000	19.891936
464.000000	19.849245
463.000000	19.739725
462.000000	19.633519
461.000000	19.512166
460.000000	19.443917
459.000000	19.301929
458.000000	19.173667
457.000000	19.019374
456.000000	18.881835
455.000000	18.695925
454.000000	18.551476
453.000000	18.354965
452.000000	18.171895
451.000000	17.971030
450.000000	17.758900
449.000000	17.559075
448.000000	17.345147
447.000000	17.120901
446.000000	16.910001
445.000000	16.679034
444.000000	16.433490
443.000000	16.176586
442.000000	15.903402
441.000000	15.630501
440.000000	15.364700
439.000000	15.093692
438.000000	14.808296
437.000000	14.528580
436.000000	14.222265
435.000000	13.945010
434.000000	13.636044
433.000000	13.395044
432.000000	13.111352
431.000000	12.817721
430.000000	12.513772
429.000000	12.257626
428.000000	11.978194
427.000000	11.719302
426.000000	11.448957
425.000000	11.194515
424.000000	10.938464
423.000000	10.693960
422.000000	10.430715
421.000000	10.206279
420.000000	9.991783
419.000000	9.760248
418.000000	9.524454
417.000000	9.338544
416.000000	9.132567
415.000000	8.907185
414.000000	8.712567
413.000000	8.539057
412.000000	8.374068
411.000000	8.220910
410.000000	8.045224
409.000000	7.914973
408.000000	7.765413
407.000000	7.626265
406.000000	7.506048
405.000000	7.367468
404.000000	7.258516
403.000000	7.152025
402.000000	7.032471
401.000000	6.934500
400.000000	6.843154
399.000000	6.772633
398.000000	6.676744
397.000000	6.586061
396.000000	6.540625
395.000000	6.459503
394.000000	6.424195
393.000000	6.362856
392.000000	6.313634
391.000000	6.280882
390.000000	6.227873
389.000000	6.192755
388.000000	6.154607
387.000000	6.132268
386.000000	6.089956
385.000000	6.055595
384.000000	6.004857
383.000000	5.988576
382.000000	5.981382
381.000000	5.980720
380.000000	5.954878
379.000000	5.945033
378.000000	5.946264
377.000000	5.917393
376.000000	5.846588
375.000000	5.651213
374.000000	5.459056
373.000000	5.461233
372.000000	5.447886
371.000000	5.525128
370.000000	5.508184
369.000000	5.547562
368.000000	5.623667
367.000000	5.657366
366.000000	5.573593
365.000000	5.625371
364.000000	5.732051
363.000000	5.705736
362.000000	5.592430
361.000000	5.578042
360.000000	5.553809
359.000000	5.635689
358.000000	5.722775
357.000000	5.873282
356.000000	5.929225
355.000000	5.848008
354.000000	5.691254
353.000000	5.550970
352.000000	5.660490
351.000000	5.658880
350.000000	5.761585
349.000000	5.974093
348.000000	5.808630
347.000000	5.691538
346.000000	5.646575
345.000000	5.728928
344.000000	5.939638
343.000000	5.904330
342.000000	5.631145
341.000000	5.481774
340.000000	5.727886
339.000000	5.949104
338.000000	5.841950
337.000000	5.889090
336.000000	6.011957
335.000000	5.844790
334.000000	5.612403
333.000000	5.938975
332.000000	6.247657
331.000000	5.859935
330.000000	5.577190
329.000000	5.790834
328.000000	6.042437
327.000000	6.091565
326.000000	6.015554
325.000000	5.997190
324.000000	6.211403
323.000000	6.397596
322.000000	6.460071
321.000000	6.474648
320.000000	6.249739
319.000000	6.304073
318.000000	7.048753
317.000000	6.928063
316.000000	6.011200
315.000000	5.626791
314.000000	5.612876
313.000000	5.655094
312.000000	5.627548
311.000000	5.586372
310.000000	5.630672
309.000000	5.639759
308.000000	5.670050
307.000000	5.641842
306.000000	5.675635
305.000000	5.684154
304.000000	5.651308
303.000000	5.646291
302.000000	5.640422
301.000000	5.654147
300.000000	5.670334
299.000000	5.659448
298.000000	5.686710
297.000000	5.721639
296.000000	5.706020
295.000000	5.693525
294.000000	5.693431
293.000000	5.714350
292.000000	5.698826
291.000000	5.686521
290.000000	5.698921
289.000000	5.721260
288.000000	5.755811
287.000000	5.781369
286.000000	5.734418
285.000000	5.771997
284.000000	5.795189
283.000000	5.756852
282.000000	5.743032
281.000000	5.754486
280.000000	5.741801
279.000000	5.754296
278.000000	5.793580
277.000000	5.823397
276.000000	5.823208
275.000000	5.864100
274.000000	5.857190
273.000000	5.886250
272.000000	5.897420
271.000000	5.892782
270.000000	5.884168
269.000000	5.893634
268.000000	5.947305
267.000000	6.003627
266.000000	6.029753
265.000000	6.072728
264.000000	6.054269
263.000000	6.123086
262.000000	6.143816
261.000000	6.154513
260.000000	6.227495
259.000000	6.200233
258.000000	6.261950
257.000000	6.292714
256.000000	6.289875
255.000000	6.291010
254.000000	6.248603
253.000000	6.303411
252.000000	6.335500
251.000000	6.351403
250.000000	6.368820
