PE UV       SUBTECH     SPECTRUM    ASCII       PEDS        4.00        
   -1
CICIMAUCR0201-1.Sample.ASC
24/05/31
11:24:50.00
24/05/31
11:24:50.00
Vinicio Soto Monge
C. cupreomarginata. Sex F. Dorsal
250,000000
1
Lambda 1050
1050L1511233
PerkinElmer UV WinLab 6.3.2.0749 / 2.02.05 Lambda 900 UV/VIS/NIR, Aug  7 2015 09:38:08

0
0
3350/servo 860,8/2
0
0
UV/VIS
1
1
1
DoubleDePol,CommonBeamDepol,RBeamAtt,SBeamAtt,60mm sphere, WB InGaAs Detector
0
0
0
0
Program
Program
3350/servo 860,8/2
3350/0,2 860,8/0,2
3350/0,2 860,8/0,2
0
15.00
 
 
 
0
 
860,8
319,2
860,8
Front
100
on
S:100 R:100
0
0
0
0
 
0
 
 
 
0
 
 
0
0
0
0
0
 
 
 
 
0
0


0
0
#HDR
-1
-1
#GR
nm
%R
1.0
0.0
2500,000000
-1,000000
2251
8
67,473000
5,702500
#DATA
2500.000000	8.550200
2499.000000	8.647600
2498.000000	8.665200
2497.000000	8.671200
2496.000000	8.556600
2495.000000	8.575800
2494.000000	8.608000
2493.000000	8.499900
2492.000000	8.561900
2491.000000	8.481200
2490.000000	8.460800
2489.000000	8.388200
2488.000000	8.431900
2487.000000	8.381800
2486.000000	8.419300
2485.000000	8.366100
2484.000000	8.398000
2483.000000	8.422900
2482.000000	8.331000
2481.000000	8.369600
2480.000000	8.372000
2479.000000	8.374800
2478.000000	8.401500
2477.000000	8.387200
2476.000000	8.328600
2475.000000	8.344000
2474.000000	8.322700
2473.000000	8.355400
2472.000000	8.400600
2471.000000	8.417000
2470.000000	8.390200
2469.000000	8.405300
2468.000000	8.393700
2467.000000	8.402600
2466.000000	8.492800
2465.000000	8.446400
2464.000000	8.497500
2463.000000	8.502200
2462.000000	8.542300
2461.000000	8.577800
2460.000000	8.597600
2459.000000	8.654200
2458.000000	8.715300
2457.000000	8.755100
2456.000000	8.807100
2455.000000	8.884500
2454.000000	8.981400
2453.000000	9.010900
2452.000000	9.088100
2451.000000	9.168100
2450.000000	9.192900
2449.000000	9.275600
2448.000000	9.353500
2447.000000	9.441700
2446.000000	9.536400
2445.000000	9.614600
2444.000000	9.670100
2443.000000	9.736200
2442.000000	9.821100
2441.000000	9.892000
2440.000000	9.959700
2439.000000	10.040200
2438.000000	10.105500
2437.000000	10.167400
2436.000000	10.235400
2435.000000	10.305600
2434.000000	10.379000
2433.000000	10.431900
2432.000000	10.483100
2431.000000	10.535700
2430.000000	10.586000
2429.000000	10.642800
2428.000000	10.684400
2427.000000	10.726300
2426.000000	10.792500
2425.000000	10.841000
2424.000000	10.867400
2423.000000	10.913900
2422.000000	10.960100
2421.000000	10.981400
2420.000000	11.020300
2419.000000	11.065500
2418.000000	11.090700
2417.000000	11.116800
2416.000000	11.158000
2415.000000	11.197600
2414.000000	11.242700
2413.000000	11.251700
2412.000000	11.288300
2411.000000	11.315700
2410.000000	11.354500
2409.000000	11.378200
2408.000000	11.402700
2407.000000	11.447700
2406.000000	11.472000
2405.000000	11.497500
2404.000000	11.546700
2403.000000	11.580800
2402.000000	11.615500
2401.000000	11.668900
2400.000000	11.707300
2399.000000	11.728200
2398.000000	11.759400
2397.000000	11.799000
2396.000000	11.839400
2395.000000	11.873300
2394.000000	11.897900
2393.000000	11.925700
2392.000000	11.959600
2391.000000	11.975700
2390.000000	11.976800
2389.000000	12.011200
2388.000000	12.023000
2387.000000	12.033800
2386.000000	12.069500
2385.000000	12.080500
2384.000000	12.081000
2383.000000	12.085800
2382.000000	12.079700
2381.000000	12.072900
2380.000000	12.067500
2379.000000	12.069500
2378.000000	12.059900
2377.000000	12.043100
2376.000000	12.031800
2375.000000	12.003900
2374.000000	11.981600
2373.000000	11.966100
2372.000000	11.934100
2371.000000	11.918200
2370.000000	11.898200
2369.000000	11.860200
2368.000000	11.815900
2367.000000	11.772800
2366.000000	11.727700
2365.000000	11.679600
2364.000000	11.633500
2363.000000	11.571500
2362.000000	11.508700
2361.000000	11.451100
2360.000000	11.390300
2359.000000	11.337500
2358.000000	11.285100
2357.000000	11.233000
2356.000000	11.196800
2355.000000	11.152900
2354.000000	11.111400
2353.000000	11.085400
2352.000000	11.073900
2351.000000	11.079400
2350.000000	11.086300
2349.000000	11.099500
2348.000000	11.115900
2347.000000	11.140200
2346.000000	11.166500
2345.000000	11.208700
2344.000000	11.259700
2343.000000	11.291500
2342.000000	11.334100
2341.000000	11.367600
2340.000000	11.385200
2339.000000	11.420700
2338.000000	11.456100
2337.000000	11.461900
2336.000000	11.466800
2335.000000	11.466500
2334.000000	11.450900
2333.000000	11.440100
2332.000000	11.411400
2331.000000	11.378100
2330.000000	11.337300
2329.000000	11.288500
2328.000000	11.228600
2327.000000	11.182400
2326.000000	11.117300
2325.000000	11.024600
2324.000000	10.930200
2323.000000	10.855800
2322.000000	10.753100
2321.000000	10.651700
2320.000000	10.545000
2319.000000	10.422100
2318.000000	10.298000
2317.000000	10.177600
2316.000000	10.046200
2315.000000	9.921500
2314.000000	9.785200
2313.000000	9.685200
2312.000000	9.576600
2311.000000	9.460400
2310.000000	9.366700
2309.000000	9.314800
2308.000000	9.232000
2307.000000	9.190600
2306.000000	9.185300
2305.000000	9.170300
2304.000000	9.174600
2303.000000	9.199800
2302.000000	9.243300
2301.000000	9.305600
2300.000000	9.371700
2299.000000	9.452600
2298.000000	9.541400
2297.000000	9.643900
2296.000000	9.725000
2295.000000	9.809800
2294.000000	9.907100
2293.000000	9.997100
2292.000000	10.055700
2291.000000	10.099700
2290.000000	10.158900
2289.000000	10.191100
2288.000000	10.200200
2287.000000	10.211100
2286.000000	10.203200
2285.000000	10.191500
2284.000000	10.163300
2283.000000	10.127900
2282.000000	10.095200
2281.000000	10.046300
2280.000000	10.010800
2279.000000	9.957900
2278.000000	9.925500
2277.000000	9.856400
2276.000000	9.821400
2275.000000	9.781200
2274.000000	9.756400
2273.000000	9.732600
2272.000000	9.724500
2271.000000	9.737800
2270.000000	9.767800
2269.000000	9.798200
2268.000000	9.854700
2267.000000	9.933800
2266.000000	10.011900
2265.000000	10.123600
2264.000000	10.276700
2263.000000	10.422400
2262.000000	10.613200
2261.000000	10.804800
2260.000000	11.042600
2259.000000	11.249000
2258.000000	11.498000
2257.000000	11.761600
2256.000000	12.024700
2255.000000	12.275800
2254.000000	12.523100
2253.000000	12.793300
2252.000000	13.028200
2251.000000	13.284500
2250.000000	13.502800
2249.000000	13.703200
2248.000000	13.926500
2247.000000	14.120500
2246.000000	14.302200
2245.000000	14.462500
2244.000000	14.601500
2243.000000	14.745200
2242.000000	14.890100
2241.000000	14.991100
2240.000000	15.114800
2239.000000	15.206400
2238.000000	15.289700
2237.000000	15.377800
2236.000000	15.457100
2235.000000	15.520600
2234.000000	15.561700
2233.000000	15.626300
2232.000000	15.681700
2231.000000	15.701600
2230.000000	15.749300
2229.000000	15.761900
2228.000000	15.786000
2227.000000	15.779300
2226.000000	15.800300
2225.000000	15.763300
2224.000000	15.759600
2223.000000	15.746800
2222.000000	15.745400
2221.000000	15.708700
2220.000000	15.677600
2219.000000	15.661100
2218.000000	15.610100
2217.000000	15.585300
2216.000000	15.544800
2215.000000	15.501100
2214.000000	15.482400
2213.000000	15.432900
2212.000000	15.405900
2211.000000	15.378700
2210.000000	15.358500
2209.000000	15.327600
2208.000000	15.267600
2207.000000	15.254700
2206.000000	15.229000
2205.000000	15.216900
2204.000000	15.198500
2203.000000	15.168800
2202.000000	15.157500
2201.000000	15.155700
2200.000000	15.124200
2199.000000	15.094700
2198.000000	15.068900
2197.000000	15.049900
2196.000000	15.029900
2195.000000	15.017000
2194.000000	14.992900
2193.000000	14.976600
2192.000000	14.973700
2191.000000	14.963900
2190.000000	14.958800
2189.000000	14.952300
2188.000000	14.935700
2187.000000	14.921700
2186.000000	14.896200
2185.000000	14.881200
2184.000000	14.857600
2183.000000	14.841700
2182.000000	14.821900
2181.000000	14.814300
2180.000000	14.803500
2179.000000	14.783800
2178.000000	14.780000
2177.000000	14.771900
2176.000000	14.774200
2175.000000	14.776300
2174.000000	14.768400
2173.000000	14.764400
2172.000000	14.782800
2171.000000	14.809400
2170.000000	14.838100
2169.000000	14.860100
2168.000000	14.862800
2167.000000	14.881300
2166.000000	14.919700
2165.000000	14.922400
2164.000000	14.941800
2163.000000	14.983700
2162.000000	15.028300
2161.000000	15.053800
2160.000000	15.092700
2159.000000	15.113200
2158.000000	15.176500
2157.000000	15.238600
2156.000000	15.275500
2155.000000	15.326500
2154.000000	15.354200
2153.000000	15.405700
2152.000000	15.462900
2151.000000	15.527600
2150.000000	15.569200
2149.000000	15.629400
2148.000000	15.672000
2147.000000	15.711800
2146.000000	15.759200
2145.000000	15.806500
2144.000000	15.854400
2143.000000	15.894400
2142.000000	15.918600
2141.000000	15.969200
2140.000000	16.010400
2139.000000	16.052200
2138.000000	16.082200
2137.000000	16.107000
2136.000000	16.128900
2135.000000	16.143600
2134.000000	16.180300
2133.000000	16.194100
2132.000000	16.209000
2131.000000	16.225700
2130.000000	16.247600
2129.000000	16.260000
2128.000000	16.253600
2127.000000	16.239100
2126.000000	16.228300
2125.000000	16.227900
2124.000000	16.221500
2123.000000	16.226000
2122.000000	16.213200
2121.000000	16.191400
2120.000000	16.162700
2119.000000	16.151300
2118.000000	16.134300
2117.000000	16.107200
2116.000000	16.084700
2115.000000	16.062300
2114.000000	16.020500
2113.000000	15.988200
2112.000000	15.966200
2111.000000	15.919700
2110.000000	15.884300
2109.000000	15.863100
2108.000000	15.829500
2107.000000	15.792100
2106.000000	15.760900
2105.000000	15.738900
2104.000000	15.690600
2103.000000	15.654000
2102.000000	15.634400
2101.000000	15.591100
2100.000000	15.569500
2099.000000	15.545900
2098.000000	15.485500
2097.000000	15.468500
2096.000000	15.451600
2095.000000	15.430300
2094.000000	15.405600
2093.000000	15.371200
2092.000000	15.349900
2091.000000	15.333500
2090.000000	15.309300
2089.000000	15.278600
2088.000000	15.259200
2087.000000	15.246500
2086.000000	15.225400
2085.000000	15.185800
2084.000000	15.151200
2083.000000	15.122500
2082.000000	15.098400
2081.000000	15.078100
2080.000000	15.040200
2079.000000	14.997900
2078.000000	14.960100
2077.000000	14.907500
2076.000000	14.847000
2075.000000	14.806300
2074.000000	14.771600
2073.000000	14.730800
2072.000000	14.674400
2071.000000	14.614000
2070.000000	14.556300
2069.000000	14.502700
2068.000000	14.445500
2067.000000	14.366000
2066.000000	14.310600
2065.000000	14.274600
2064.000000	14.219300
2063.000000	14.152900
2062.000000	14.103200
2061.000000	14.052800
2060.000000	13.999400
2059.000000	13.954100
2058.000000	13.915300
2057.000000	13.895000
2056.000000	13.871600
2055.000000	13.844200
2054.000000	13.834600
2053.000000	13.838200
2052.000000	13.846900
2051.000000	13.883300
2050.000000	13.924100
2049.000000	13.960100
2048.000000	14.022000
2047.000000	14.082000
2046.000000	14.147600
2045.000000	14.235200
2044.000000	14.332900
2043.000000	14.428100
2042.000000	14.513900
2041.000000	14.603300
2040.000000	14.716600
2039.000000	14.813200
2038.000000	14.897000
2037.000000	14.996400
2036.000000	15.080500
2035.000000	15.156000
2034.000000	15.232500
2033.000000	15.287000
2032.000000	15.360200
2031.000000	15.428900
2030.000000	15.498500
2029.000000	15.535000
2028.000000	15.570600
2027.000000	15.604100
2026.000000	15.647200
2025.000000	15.686800
2024.000000	15.715800
2023.000000	15.748300
2022.000000	15.758900
2021.000000	15.791500
2020.000000	15.807300
2019.000000	15.824400
2018.000000	15.834600
2017.000000	15.847500
2016.000000	15.849100
2015.000000	15.857700
2014.000000	15.865000
2013.000000	15.848900
2012.000000	15.835800
2011.000000	15.835800
2010.000000	15.814700
2009.000000	15.789000
2008.000000	15.772800
2007.000000	15.758300
2006.000000	15.727100
2005.000000	15.703800
2004.000000	15.657400
2003.000000	15.617700
2002.000000	15.571100
2001.000000	15.523300
2000.000000	15.481400
1999.000000	15.430100
1998.000000	15.374800
1997.000000	15.328100
1996.000000	15.254100
1995.000000	15.194700
1994.000000	15.119100
1993.000000	15.058200
1992.000000	14.997500
1991.000000	14.923300
1990.000000	14.841700
1989.000000	14.746500
1988.000000	14.680300
1987.000000	14.609300
1986.000000	14.520300
1985.000000	14.423700
1984.000000	14.353500
1983.000000	14.279100
1982.000000	14.192900
1981.000000	14.096600
1980.000000	14.011200
1979.000000	13.936600
1978.000000	13.852500
1977.000000	13.754300
1976.000000	13.667000
1975.000000	13.594300
1974.000000	13.504000
1973.000000	13.444100
1972.000000	13.364800
1971.000000	13.279400
1970.000000	13.214200
1969.000000	13.106600
1968.000000	13.029900
1967.000000	12.971600
1966.000000	12.898000
1965.000000	12.820200
1964.000000	12.724000
1963.000000	12.689200
1962.000000	12.606500
1961.000000	12.525800
1960.000000	12.460500
1959.000000	12.395700
1958.000000	12.314400
1957.000000	12.257100
1956.000000	12.188800
1955.000000	12.117100
1954.000000	12.052000
1953.000000	11.974200
1952.000000	11.909500
1951.000000	11.849000
1950.000000	11.792800
1949.000000	11.760400
1948.000000	11.716400
1947.000000	11.649900
1946.000000	11.657600
1945.000000	11.605600
1944.000000	11.557900
1943.000000	11.545700
1942.000000	11.509400
1941.000000	11.497000
1940.000000	11.481000
1939.000000	11.472800
1938.000000	11.448700
1937.000000	11.450800
1936.000000	11.445600
1935.000000	11.463700
1934.000000	11.484200
1933.000000	11.518100
1932.000000	11.568900
1931.000000	11.624600
1930.000000	11.665300
1929.000000	11.712600
1928.000000	11.800300
1927.000000	11.875600
1926.000000	11.926400
1925.000000	12.045500
1924.000000	12.152300
1923.000000	12.280600
1922.000000	12.376100
1921.000000	12.495800
1920.000000	12.631800
1919.000000	12.754800
1918.000000	12.900400
1917.000000	13.052100
1916.000000	13.227900
1915.000000	13.382700
1914.000000	13.582700
1913.000000	13.764800
1912.000000	13.962700
1911.000000	14.152900
1910.000000	14.390500
1909.000000	14.579400
1908.000000	14.797100
1907.000000	15.048400
1906.000000	15.308300
1905.000000	15.578200
1904.000000	15.837800
1903.000000	16.107800
1902.000000	16.400700
1901.000000	16.680000
1900.000000	16.966400
1899.000000	17.275000
1898.000000	17.607900
1897.000000	17.951600
1896.000000	18.264900
1895.000000	18.577900
1894.000000	18.918600
1893.000000	19.258300
1892.000000	19.636400
1891.000000	20.053200
1890.000000	20.430300
1889.000000	20.827500
1888.000000	21.249400
1887.000000	21.672300
1886.000000	22.103500
1885.000000	22.581500
1884.000000	23.098800
1883.000000	23.620100
1882.000000	24.147800
1881.000000	24.662300
1880.000000	25.172100
1879.000000	25.654300
1878.000000	26.127900
1877.000000	26.603500
1876.000000	27.014300
1875.000000	27.440600
1874.000000	27.851800
1873.000000	28.236600
1872.000000	28.593700
1871.000000	28.931400
1870.000000	29.227400
1869.000000	29.502600
1868.000000	29.750600
1867.000000	29.950800
1866.000000	30.107300
1865.000000	30.250700
1864.000000	30.381900
1863.000000	30.508700
1862.000000	30.637000
1861.000000	30.769500
1860.000000	30.886100
1859.000000	30.987000
1858.000000	31.066400
1857.000000	31.141600
1856.000000	31.191100
1855.000000	31.214200
1854.000000	31.259600
1853.000000	31.263300
1852.000000	31.264600
1851.000000	31.280000
1850.000000	31.291000
1849.000000	31.286900
1848.000000	31.278500
1847.000000	31.278600
1846.000000	31.235200
1845.000000	31.184100
1844.000000	31.149500
1843.000000	31.129800
1842.000000	31.149400
1841.000000	31.146200
1840.000000	31.115700
1839.000000	31.092200
1838.000000	31.054500
1837.000000	31.018200
1836.000000	30.989700
1835.000000	30.945100
1834.000000	30.894500
1833.000000	30.829900
1832.000000	30.773700
1831.000000	30.728600
1830.000000	30.691200
1829.000000	30.635800
1828.000000	30.572300
1827.000000	30.494100
1826.000000	30.439000
1825.000000	30.388200
1824.000000	30.339700
1823.000000	30.308600
1822.000000	30.300000
1821.000000	30.297300
1820.000000	30.269800
1819.000000	30.242600
1818.000000	30.203900
1817.000000	30.172800
1816.000000	30.176000
1815.000000	30.181500
1814.000000	30.150100
1813.000000	30.128000
1812.000000	30.106700
1811.000000	30.090700
1810.000000	30.055900
1809.000000	30.001800
1808.000000	29.972000
1807.000000	29.938100
1806.000000	29.899600
1805.000000	29.862100
1804.000000	29.818700
1803.000000	29.775700
1802.000000	29.733900
1801.000000	29.695900
1800.000000	29.648000
1799.000000	29.579700
1798.000000	29.527300
1797.000000	29.486400
1796.000000	29.449900
1795.000000	29.418200
1794.000000	29.368700
1793.000000	29.310300
1792.000000	29.262800
1791.000000	29.208500
1790.000000	29.166300
1789.000000	29.120900
1788.000000	29.065500
1787.000000	29.018700
1786.000000	28.965000
1785.000000	28.917800
1784.000000	28.853200
1783.000000	28.781700
1782.000000	28.713900
1781.000000	28.639500
1780.000000	28.573800
1779.000000	28.511800
1778.000000	28.427000
1777.000000	28.341200
1776.000000	28.254500
1775.000000	28.158100
1774.000000	28.059900
1773.000000	27.951200
1772.000000	27.841200
1771.000000	27.734300
1770.000000	27.622700
1769.000000	27.497000
1768.000000	27.384800
1767.000000	27.270200
1766.000000	27.171500
1765.000000	27.095500
1764.000000	27.045200
1763.000000	27.016300
1762.000000	27.004700
1761.000000	27.026900
1760.000000	27.069000
1759.000000	27.125400
1758.000000	27.207400
1757.000000	27.272300
1756.000000	27.325400
1755.000000	27.383600
1754.000000	27.449600
1753.000000	27.484100
1752.000000	27.510600
1751.000000	27.529800
1750.000000	27.518700
1749.000000	27.500400
1748.000000	27.474400
1747.000000	27.427600
1746.000000	27.350900
1745.000000	27.253800
1744.000000	27.127000
1743.000000	26.992100
1742.000000	26.843000
1741.000000	26.658200
1740.000000	26.457500
1739.000000	26.235100
1738.000000	26.008200
1737.000000	25.807100
1736.000000	25.612100
1735.000000	25.464700
1734.000000	25.368000
1733.000000	25.303400
1732.000000	25.270900
1731.000000	25.279100
1730.000000	25.339900
1729.000000	25.436500
1728.000000	25.518800
1727.000000	25.614900
1726.000000	25.707200
1725.000000	25.803900
1724.000000	25.874300
1723.000000	25.943500
1722.000000	26.012300
1721.000000	26.069300
1720.000000	26.120200
1719.000000	26.192100
1718.000000	26.279700
1717.000000	26.372500
1716.000000	26.477400
1715.000000	26.587600
1714.000000	26.698500
1713.000000	26.780700
1712.000000	26.889300
1711.000000	26.962500
1710.000000	27.019600
1709.000000	27.066000
1708.000000	27.094800
1707.000000	27.102600
1706.000000	27.100800
1705.000000	27.066400
1704.000000	27.042100
1703.000000	26.996300
1702.000000	26.931800
1701.000000	26.845000
1700.000000	26.755600
1699.000000	26.639700
1698.000000	26.519400
1697.000000	26.418900
1696.000000	26.343700
1695.000000	26.312200
1694.000000	26.323500
1693.000000	26.386300
1692.000000	26.489100
1691.000000	26.609800
1690.000000	26.761500
1689.000000	26.872000
1688.000000	26.982600
1687.000000	27.065000
1686.000000	27.109900
1685.000000	27.183500
1684.000000	27.275500
1683.000000	27.422800
1682.000000	27.639600
1681.000000	27.991800
1680.000000	28.359900
1679.000000	28.821400
1678.000000	29.295500
1677.000000	29.754200
1676.000000	30.171900
1675.000000	30.546800
1674.000000	30.865400
1673.000000	31.149700
1672.000000	31.419100
1671.000000	31.632700
1670.000000	31.837800
1669.000000	32.019500
1668.000000	32.156800
1667.000000	32.275300
1666.000000	32.395900
1665.000000	32.488100
1664.000000	32.579800
1663.000000	32.644100
1662.000000	32.723900
1661.000000	32.799600
1660.000000	32.832100
1659.000000	32.902900
1658.000000	32.924800
1657.000000	32.961500
1656.000000	32.968700
1655.000000	32.993900
1654.000000	32.999100
1653.000000	32.995200
1652.000000	33.008800
1651.000000	32.971300
1650.000000	32.952100
1649.000000	32.936100
1648.000000	32.902800
1647.000000	32.865400
1646.000000	32.843100
1645.000000	32.781500
1644.000000	32.747400
1643.000000	32.692900
1642.000000	32.644200
1641.000000	32.604700
1640.000000	32.575400
1639.000000	32.501600
1638.000000	32.461800
1637.000000	32.384500
1636.000000	32.325500
1635.000000	32.268300
1634.000000	32.202400
1633.000000	32.133900
1632.000000	32.069100
1631.000000	31.992100
1630.000000	31.917400
1629.000000	31.855200
1628.000000	31.777000
1627.000000	31.708800
1626.000000	31.621700
1625.000000	31.524700
1624.000000	31.450600
1623.000000	31.377000
1622.000000	31.320200
1621.000000	31.225600
1620.000000	31.160500
1619.000000	31.080800
1618.000000	30.999800
1617.000000	30.931400
1616.000000	30.865500
1615.000000	30.804700
1614.000000	30.722700
1613.000000	30.650600
1612.000000	30.574200
1611.000000	30.515400
1610.000000	30.435500
1609.000000	30.359100
1608.000000	30.286200
1607.000000	30.210900
1606.000000	30.117900
1605.000000	30.052600
1604.000000	29.988200
1603.000000	29.916300
1602.000000	29.824900
1601.000000	29.767200
1600.000000	29.673400
1599.000000	29.598400
1598.000000	29.527500
1597.000000	29.458000
1596.000000	29.404600
1595.000000	29.338300
1594.000000	29.271400
1593.000000	29.205700
1592.000000	29.144500
1591.000000	29.086000
1590.000000	29.031900
1589.000000	28.970800
1588.000000	28.915300
1587.000000	28.858000
1586.000000	28.804900
1585.000000	28.765900
1584.000000	28.708400
1583.000000	28.675200
1582.000000	28.624200
1581.000000	28.578600
1580.000000	28.533200
1579.000000	28.492300
1578.000000	28.459500
1577.000000	28.426200
1576.000000	28.390000
1575.000000	28.374700
1574.000000	28.347300
1573.000000	28.336400
1572.000000	28.309400
1571.000000	28.304300
1570.000000	28.293200
1569.000000	28.287900
1568.000000	28.297100
1567.000000	28.288300
1566.000000	28.284900
1565.000000	28.284300
1564.000000	28.282800
1563.000000	28.292600
1562.000000	28.294100
1561.000000	28.290800
1560.000000	28.297800
1559.000000	28.274600
1558.000000	28.258000
1557.000000	28.255600
1556.000000	28.236100
1555.000000	28.219500
1554.000000	28.197800
1553.000000	28.163700
1552.000000	28.133600
1551.000000	28.104100
1550.000000	28.059000
1549.000000	28.026100
1548.000000	27.988200
1547.000000	27.948300
1546.000000	27.911100
1545.000000	27.872000
1544.000000	27.832000
1543.000000	27.791200
1542.000000	27.770000
1541.000000	27.742200
1540.000000	27.706100
1539.000000	27.682300
1538.000000	27.661300
1537.000000	27.646000
1536.000000	27.620500
1535.000000	27.584800
1534.000000	27.550800
1533.000000	27.526200
1532.000000	27.492900
1531.000000	27.462200
1530.000000	27.447200
1529.000000	27.400600
1528.000000	27.353600
1527.000000	27.322800
1526.000000	27.280700
1525.000000	27.228300
1524.000000	27.186100
1523.000000	27.133400
1522.000000	27.081700
1521.000000	27.040500
1520.000000	26.995300
1519.000000	26.950700
1518.000000	26.895500
1517.000000	26.839700
1516.000000	26.799900
1515.000000	26.755800
1514.000000	26.704400
1513.000000	26.650500
1512.000000	26.589200
1511.000000	26.538300
1510.000000	26.481100
1509.000000	26.423200
1508.000000	26.369400
1507.000000	26.318500
1506.000000	26.264300
1505.000000	26.193900
1504.000000	26.129000
1503.000000	26.081100
1502.000000	26.035700
1501.000000	25.979000
1500.000000	25.927000
1499.000000	25.896700
1498.000000	25.849100
1497.000000	25.800400
1496.000000	25.752000
1495.000000	25.724500
1494.000000	25.701700
1493.000000	25.663900
1492.000000	25.633400
1491.000000	25.610800
1490.000000	25.578000
1489.000000	25.544100
1488.000000	25.526000
1487.000000	25.506000
1486.000000	25.470400
1485.000000	25.440700
1484.000000	25.415700
1483.000000	25.395000
1482.000000	25.382800
1481.000000	25.382200
1480.000000	25.366000
1479.000000	25.349800
1478.000000	25.352300
1477.000000	25.350900
1476.000000	25.337300
1475.000000	25.331400
1474.000000	25.356800
1473.000000	25.388600
1472.000000	25.395900
1471.000000	25.403300
1470.000000	25.417000
1469.000000	25.421300
1468.000000	25.431300
1467.000000	25.452500
1466.000000	25.457400
1465.000000	25.476300
1464.000000	25.510000
1463.000000	25.533000
1462.000000	25.554600
1461.000000	25.591600
1460.000000	25.627000
1459.000000	25.678300
1458.000000	25.732200
1457.000000	25.788900
1456.000000	25.842700
1455.000000	25.890200
1454.000000	25.962100
1453.000000	26.018200
1452.000000	26.103800
1451.000000	26.164900
1450.000000	26.236400
1449.000000	26.313700
1448.000000	26.384100
1447.000000	26.465000
1446.000000	26.572500
1445.000000	26.648500
1444.000000	26.729000
1443.000000	26.801100
1442.000000	26.890100
1441.000000	26.989900
1440.000000	27.081300
1439.000000	27.182700
1438.000000	27.297900
1437.000000	27.378600
1436.000000	27.491200
1435.000000	27.600500
1434.000000	27.717000
1433.000000	27.838100
1432.000000	27.976100
1431.000000	28.078700
1430.000000	28.192200
1429.000000	28.335700
1428.000000	28.510100
1427.000000	28.657000
1426.000000	28.807500
1425.000000	29.006600
1424.000000	29.190400
1423.000000	29.376500
1422.000000	29.551300
1421.000000	29.761900
1420.000000	29.997100
1419.000000	30.208300
1418.000000	30.431700
1417.000000	30.611600
1416.000000	30.870300
1415.000000	31.124800
1414.000000	31.391800
1413.000000	31.633900
1412.000000	31.875200
1411.000000	32.147700
1410.000000	32.466600
1409.000000	32.814300
1408.000000	33.142800
1407.000000	33.498000
1406.000000	33.833400
1405.000000	34.205700
1404.000000	34.554300
1403.000000	34.927000
1402.000000	35.271700
1401.000000	35.701900
1400.000000	36.054800
1399.000000	36.364200
1398.000000	36.586800
1397.000000	36.862900
1396.000000	37.182800
1395.000000	37.510000
1394.000000	37.738300
1393.000000	37.966300
1392.000000	38.243100
1391.000000	38.509000
1390.000000	38.770300
1389.000000	39.084700
1388.000000	39.475100
1387.000000	39.840800
1386.000000	40.229800
1385.000000	40.645100
1384.000000	41.122500
1383.000000	41.597700
1382.000000	42.040300
1381.000000	42.444200
1380.000000	42.655100
1379.000000	42.915600
1378.000000	43.109000
1377.000000	43.262400
1376.000000	43.419400
1375.000000	43.585500
1374.000000	43.789800
1373.000000	44.036800
1372.000000	44.338800
1371.000000	44.621200
1370.000000	44.908900
1369.000000	45.160400
1368.000000	45.424000
1367.000000	45.669600
1366.000000	45.859100
1365.000000	46.060800
1364.000000	46.230200
1363.000000	46.361000
1362.000000	46.535200
1361.000000	46.674800
1360.000000	46.787700
1359.000000	46.803600
1358.000000	46.891200
1357.000000	47.005100
1356.000000	47.168000
1355.000000	47.406900
1354.000000	47.718300
1353.000000	48.044700
1352.000000	48.411900
1351.000000	48.822800
1350.000000	49.195900
1349.000000	49.563800
1348.000000	49.899400
1347.000000	50.222500
1346.000000	50.482000
1345.000000	50.754800
1344.000000	51.049500
1343.000000	51.305700
1342.000000	51.578900
1341.000000	51.834200
1340.000000	52.067000
1339.000000	52.323100
1338.000000	52.565400
1337.000000	52.804800
1336.000000	53.026900
1335.000000	53.249300
1334.000000	53.465300
1333.000000	53.684900
1332.000000	53.861200
1331.000000	54.079100
1330.000000	54.258700
1329.000000	54.436800
1328.000000	54.624600
1327.000000	54.783000
1326.000000	54.944400
1325.000000	55.108300
1324.000000	55.250600
1323.000000	55.399800
1322.000000	55.531000
1321.000000	55.657800
1320.000000	55.789800
1319.000000	55.899400
1318.000000	56.011900
1317.000000	56.140000
1316.000000	56.250100
1315.000000	56.353700
1314.000000	56.457300
1313.000000	56.560700
1312.000000	56.646600
1311.000000	56.720800
1310.000000	56.796600
1309.000000	56.873400
1308.000000	56.954200
1307.000000	57.013200
1306.000000	57.076600
1305.000000	57.126800
1304.000000	57.172100
1303.000000	57.208300
1302.000000	57.242000
1301.000000	57.274300
1300.000000	57.314500
1299.000000	57.333500
1298.000000	57.347000
1297.000000	57.379100
1296.000000	57.395200
1295.000000	57.408600
1294.000000	57.414100
1293.000000	57.428000
1292.000000	57.422600
1291.000000	57.422500
1290.000000	57.402600
1289.000000	57.388200
1288.000000	57.358800
1287.000000	57.336600
1286.000000	57.302900
1285.000000	57.273800
1284.000000	57.240300
1283.000000	57.215700
1282.000000	57.169500
1281.000000	57.115100
1280.000000	57.072700
1279.000000	57.040400
1278.000000	56.998900
1277.000000	56.956500
1276.000000	56.922100
1275.000000	56.886100
1274.000000	56.850500
1273.000000	56.817200
1272.000000	56.791300
1271.000000	56.774700
1270.000000	56.740900
1269.000000	56.715300
1268.000000	56.697100
1267.000000	56.666300
1266.000000	56.638700
1265.000000	56.600300
1264.000000	56.560200
1263.000000	56.535200
1262.000000	56.513100
1261.000000	56.491700
1260.000000	56.466000
1259.000000	56.439800
1258.000000	56.405900
1257.000000	56.365900
1256.000000	56.328100
1255.000000	56.290400
1254.000000	56.251100
1253.000000	56.210800
1252.000000	56.151900
1251.000000	56.103400
1250.000000	56.054800
1249.000000	56.002700
1248.000000	55.947300
1247.000000	55.864000
1246.000000	55.783800
1245.000000	55.710400
1244.000000	55.619200
1243.000000	55.523200
1242.000000	55.431700
1241.000000	55.330800
1240.000000	55.220200
1239.000000	55.108800
1238.000000	55.006600
1237.000000	54.902400
1236.000000	54.790300
1235.000000	54.660300
1234.000000	54.528900
1233.000000	54.407600
1232.000000	54.281900
1231.000000	54.149000
1230.000000	54.017000
1229.000000	53.884600
1228.000000	53.739000
1227.000000	53.590200
1226.000000	53.453200
1225.000000	53.312900
1224.000000	53.159200
1223.000000	53.013000
1222.000000	52.871500
1221.000000	52.726800
1220.000000	52.587800
1219.000000	52.449000
1218.000000	52.321600
1217.000000	52.190900
1216.000000	52.067000
1215.000000	51.977600
1214.000000	51.869900
1213.000000	51.750300
1212.000000	51.656000
1211.000000	51.566400
1210.000000	51.459200
1209.000000	51.366000
1208.000000	51.290400
1207.000000	51.214200
1206.000000	51.156200
1205.000000	51.112400
1204.000000	51.065900
1203.000000	51.025200
1202.000000	51.013000
1201.000000	50.996600
1200.000000	50.952200
1199.000000	50.898500
1198.000000	50.837600
1197.000000	50.757300
1196.000000	50.642100
1195.000000	50.484700
1194.000000	50.296200
1193.000000	50.040900
1192.000000	49.740900
1191.000000	49.424000
1190.000000	49.097500
1189.000000	48.759600
1188.000000	48.491000
1187.000000	48.296100
1186.000000	48.193000
1185.000000	48.187000
1184.000000	48.260300
1183.000000	48.441400
1182.000000	48.736800
1181.000000	49.094100
1180.000000	49.483600
1179.000000	49.872200
1178.000000	50.246100
1177.000000	50.573400
1176.000000	50.865900
1175.000000	51.131600
1174.000000	51.369500
1173.000000	51.626000
1172.000000	51.867200
1171.000000	52.127100
1170.000000	52.387100
1169.000000	52.660100
1168.000000	52.928800
1167.000000	53.188600
1166.000000	53.472100
1165.000000	53.776000
1164.000000	54.065000
1163.000000	54.367500
1162.000000	54.673500
1161.000000	54.967200
1160.000000	55.277600
1159.000000	55.574600
1158.000000	55.864500
1157.000000	56.129300
1156.000000	56.365000
1155.000000	56.578900
1154.000000	56.785500
1153.000000	56.940800
1152.000000	57.056800
1151.000000	57.142900
1150.000000	57.218900
1149.000000	57.299600
1148.000000	57.364400
1147.000000	57.431500
1146.000000	57.561300
1145.000000	57.730200
1144.000000	57.942600
1143.000000	58.162700
1142.000000	58.433100
1141.000000	58.725400
1140.000000	59.043600
1139.000000	59.356000
1138.000000	59.666700
1137.000000	60.009300
1136.000000	60.373400
1135.000000	60.740300
1134.000000	61.102300
1133.000000	61.410300
1132.000000	61.685600
1131.000000	61.957600
1130.000000	62.235500
1129.000000	62.481400
1128.000000	62.674100
1127.000000	62.836200
1126.000000	62.967600
1125.000000	63.066200
1124.000000	63.177800
1123.000000	63.272500
1122.000000	63.350800
1121.000000	63.407900
1120.000000	63.466800
1119.000000	63.509900
1118.000000	63.522200
1117.000000	63.565700
1116.000000	63.598300
1115.000000	63.599700
1114.000000	63.607800
1113.000000	63.609900
1112.000000	63.618300
1111.000000	63.628100
1110.000000	63.639900
1109.000000	63.646400
1108.000000	63.651500
1107.000000	63.659500
1106.000000	63.645700
1105.000000	63.658700
1104.000000	63.670800
1103.000000	63.671900
1102.000000	63.669400
1101.000000	63.683000
1100.000000	63.682400
1099.000000	63.672900
1098.000000	63.683200
1097.000000	63.654800
1096.000000	63.645200
1095.000000	63.621100
1094.000000	63.607900
1093.000000	63.592900
1092.000000	63.571000
1091.000000	63.558100
1090.000000	63.521400
1089.000000	63.497700
1088.000000	63.497200
1087.000000	63.456000
1086.000000	63.402400
1085.000000	63.383700
1084.000000	63.355400
1083.000000	63.317100
1082.000000	63.273100
1081.000000	63.237100
1080.000000	63.205700
1079.000000	63.182300
1078.000000	63.127300
1077.000000	63.082500
1076.000000	63.070800
1075.000000	63.027100
1074.000000	62.985400
1073.000000	62.951400
1072.000000	62.905000
1071.000000	62.892500
1070.000000	62.840800
1069.000000	62.807800
1068.000000	62.782400
1067.000000	62.733200
1066.000000	62.681800
1065.000000	62.661300
1064.000000	62.609800
1063.000000	62.564200
1062.000000	62.525400
1061.000000	62.489400
1060.000000	62.429300
1059.000000	62.408400
1058.000000	62.343400
1057.000000	62.305000
1056.000000	62.251600
1055.000000	62.197800
1054.000000	62.161800
1053.000000	62.127700
1052.000000	62.072000
1051.000000	62.032300
1050.000000	61.989700
1049.000000	61.957500
1048.000000	61.915200
1047.000000	61.903000
1046.000000	61.850500
1045.000000	61.821600
1044.000000	61.813600
1043.000000	61.766400
1042.000000	61.730800
1041.000000	61.687000
1040.000000	61.673100
1039.000000	61.645800
1038.000000	61.608900
1037.000000	61.581800
1036.000000	61.532200
1035.000000	61.502700
1034.000000	61.459500
1033.000000	61.412600
1032.000000	61.367200
1031.000000	61.318100
1030.000000	61.289700
1029.000000	61.229700
1028.000000	61.195300
1027.000000	61.142400
1026.000000	61.068700
1025.000000	61.005200
1024.000000	60.966400
1023.000000	60.901800
1022.000000	60.849300
1021.000000	60.801500
1020.000000	60.719700
1019.000000	60.654000
1018.000000	60.605700
1017.000000	60.568400
1016.000000	60.521500
1015.000000	60.487400
1014.000000	60.440100
1013.000000	60.385200
1012.000000	60.375300
1011.000000	60.364200
1010.000000	60.334200
1009.000000	60.306300
1008.000000	60.284000
1007.000000	60.274600
1006.000000	60.282800
1005.000000	60.283500
1004.000000	60.248100
1003.000000	60.213900
1002.000000	60.210700
1001.000000	60.215200
1000.000000	60.214000
999.000000	60.195100
998.000000	60.178100
997.000000	60.178000
996.000000	60.180100
995.000000	60.173200
994.000000	60.172100
993.000000	60.182400
992.000000	60.177900
991.000000	60.180300
990.000000	60.163500
989.000000	60.165000
988.000000	60.169200
987.000000	60.171500
986.000000	60.184000
985.000000	60.198800
984.000000	60.212800
983.000000	60.212200
982.000000	60.224900
981.000000	60.252700
980.000000	60.264600
979.000000	60.275300
978.000000	60.301600
977.000000	60.321300
976.000000	60.328900
975.000000	60.351800
974.000000	60.379600
973.000000	60.414600
972.000000	60.441000
971.000000	60.461000
970.000000	60.482400
969.000000	60.511100
968.000000	60.524700
967.000000	60.552000
966.000000	60.580100
965.000000	60.607400
964.000000	60.630400
963.000000	60.655300
962.000000	60.693700
961.000000	60.722000
960.000000	60.740200
959.000000	60.778300
958.000000	60.800300
957.000000	60.843400
956.000000	60.870900
955.000000	60.886100
954.000000	60.927400
953.000000	60.950500
952.000000	60.982600
951.000000	61.011600
950.000000	61.023900
949.000000	61.051700
948.000000	61.088500
947.000000	61.117400
946.000000	61.131500
945.000000	61.158000
944.000000	61.183500
943.000000	61.192400
942.000000	61.204100
941.000000	61.216500
940.000000	61.215300
939.000000	61.222000
938.000000	61.222700
937.000000	61.237500
936.000000	61.269500
935.000000	61.283000
934.000000	61.295900
933.000000	61.319500
932.000000	61.332100
931.000000	61.360900
930.000000	61.377400
929.000000	61.389700
928.000000	61.407300
927.000000	61.433400
926.000000	61.463700
925.000000	61.469700
924.000000	61.474000
923.000000	61.486000
922.000000	61.509600
921.000000	61.518600
920.000000	61.507300
919.000000	61.514100
918.000000	61.518400
917.000000	61.505100
916.000000	61.498800
915.000000	61.491200
914.000000	61.481700
913.000000	61.482200
912.000000	61.486000
911.000000	61.488600
910.000000	61.482900
909.000000	61.489400
908.000000	61.509400
907.000000	61.530400
906.000000	61.536400
905.000000	61.567300
904.000000	61.596600
903.000000	61.600800
902.000000	61.626000
901.000000	61.659300
900.000000	61.690900
899.000000	61.730400
898.000000	61.762700
897.000000	61.785000
896.000000	61.800300
895.000000	61.838700
894.000000	61.870700
893.000000	61.887900
892.000000	61.902600
891.000000	61.911000
890.000000	61.922700
889.000000	61.927000
888.000000	61.938000
887.000000	61.937200
886.000000	61.914900
885.000000	61.891900
884.000000	61.838400
883.000000	61.820700
882.000000	61.778500
881.000000	61.741900
880.000000	61.688800
879.000000	61.633100
878.000000	61.525300
877.000000	61.392300
876.000000	61.252200
875.000000	61.140100
874.000000	60.953500
873.000000	60.733100
872.000000	60.559800
871.000000	60.514000
870.000000	60.538600
869.000000	60.632300
868.000000	60.702000
867.000000	60.764200
866.000000	60.828200
865.000000	60.894600
864.000000	60.956700
863.000000	61.032500
862.000000	61.087500
861.000000	61.165200
860.000000	61.215900
859.000000	61.280600
858.000000	61.317900
857.000000	61.249240
856.000000	62.079402
855.000000	61.723550
854.000000	62.397630
853.000000	61.922562
852.000000	62.305232
851.000000	62.295945
850.000000	62.708277
849.000000	63.021957
848.000000	62.928422
847.000000	62.620238
846.000000	62.725335
845.000000	62.886155
844.000000	63.193960
843.000000	63.191685
842.000000	63.116535
841.000000	63.047734
840.000000	63.093032
839.000000	63.162497
838.000000	63.245229
837.000000	62.999308
836.000000	63.225801
835.000000	63.106869
834.000000	63.222958
833.000000	63.498921
832.000000	63.224569
831.000000	63.571039
830.000000	63.656235
829.000000	63.660878
828.000000	63.779242
827.000000	63.859416
826.000000	63.913243
825.000000	63.802555
824.000000	63.732901
823.000000	63.930017
822.000000	63.942337
821.000000	63.655666
820.000000	63.699069
819.000000	63.844916
818.000000	63.610462
817.000000	63.804640
816.000000	63.827858
815.000000	63.847096
814.000000	63.732617
813.000000	63.933334
812.000000	63.815633
811.000000	63.849749
810.000000	63.716127
809.000000	63.617380
808.000000	63.741904
807.000000	63.692151
806.000000	63.532279
805.000000	63.418937
804.000000	63.352979
803.000000	63.269300
802.000000	63.197940
801.000000	62.915533
800.000000	63.104405
799.000000	62.979312
798.000000	62.827210
797.000000	62.892789
796.000000	62.904446
795.000000	62.793189
794.000000	62.795937
793.000000	62.748743
792.000000	62.438285
791.000000	62.493345
790.000000	62.394882
789.000000	62.219752
788.000000	62.272537
787.000000	62.258417
786.000000	61.976389
785.000000	61.887498
784.000000	61.712273
783.000000	61.579220
782.000000	61.683938
781.000000	61.404753
780.000000	61.387790
779.000000	61.360876
778.000000	61.396698
777.000000	61.312165
776.000000	61.167740
775.000000	61.063970
774.000000	61.208964
773.000000	61.053166
772.000000	60.992231
771.000000	60.928737
770.000000	60.850649
769.000000	60.644056
768.000000	60.539433
767.000000	60.412445
766.000000	60.198365
765.000000	60.301188
764.000000	60.093174
763.000000	59.984097
762.000000	60.014138
761.000000	59.947990
760.000000	59.864879
759.000000	59.894162
758.000000	59.833417
757.000000	59.793993
756.000000	59.758077
755.000000	59.597351
754.000000	59.499078
753.000000	59.442122
752.000000	59.440701
751.000000	59.243301
750.000000	59.181133
749.000000	59.091578
748.000000	58.941088
747.000000	58.760082
746.000000	58.723786
745.000000	58.527997
744.000000	58.547140
743.000000	58.360638
742.000000	58.377886
741.000000	58.273073
740.000000	58.220382
739.000000	58.189773
738.000000	58.092731
737.000000	57.910020
736.000000	57.812788
735.000000	57.734321
734.000000	57.752137
733.000000	57.627329
732.000000	57.459970
731.000000	57.421494
730.000000	57.303035
729.000000	57.094168
728.000000	57.001770
727.000000	56.952680
726.000000	56.813657
725.000000	56.660987
724.000000	56.680319
723.000000	56.527649
722.000000	56.442548
721.000000	56.434872
720.000000	56.264196
719.000000	56.217476
718.000000	56.094373
717.000000	55.963120
716.000000	55.883516
715.000000	55.814241
714.000000	55.740986
713.000000	55.652947
712.000000	55.577702
711.000000	55.403046
710.000000	55.312353
709.000000	55.222135
708.000000	55.190672
707.000000	55.123008
706.000000	55.016679
705.000000	54.906370
704.000000	54.818331
703.000000	54.710676
702.000000	54.573737
701.000000	54.505884
700.000000	54.408842
699.000000	54.335776
698.000000	54.234281
697.000000	54.176472
696.000000	54.055834
695.000000	53.996888
694.000000	53.910935
693.000000	53.826497
692.000000	53.754284
691.000000	53.679608
690.000000	53.641416
689.000000	53.554894
688.000000	53.565129
687.000000	53.534803
686.000000	53.498318
685.000000	53.412174
684.000000	53.328684
683.000000	53.247943
682.000000	53.215816
681.000000	53.140003
680.000000	53.011403
679.000000	52.889817
678.000000	52.769747
677.000000	52.701514
676.000000	52.608927
675.000000	52.449244
674.000000	52.296953
673.000000	52.182569
672.000000	52.039659
671.000000	51.912671
670.000000	51.774785
669.000000	51.620504
668.000000	51.443478
667.000000	51.324451
666.000000	51.187607
665.000000	51.019016
664.000000	50.854026
663.000000	50.694912
662.000000	50.546885
661.000000	50.415632
660.000000	50.258792
659.000000	50.060729
658.000000	49.891285
657.000000	49.705351
656.000000	49.515817
655.000000	49.286859
654.000000	49.028239
653.000000	48.759953
652.000000	48.500859
651.000000	48.223949
650.000000	47.954810
649.000000	47.664633
648.000000	47.380615
647.000000	47.184257
646.000000	46.994817
645.000000	46.813907
644.000000	46.680379
643.000000	46.583432
642.000000	46.537565
641.000000	46.552728
640.000000	46.605039
639.000000	46.717528
638.000000	46.840820
637.000000	46.977759
636.000000	47.192597
635.000000	47.418522
634.000000	47.654587
633.000000	47.933298
632.000000	48.207081
631.000000	48.437365
630.000000	48.682812
629.000000	48.940295
628.000000	49.177687
627.000000	49.395842
626.000000	49.559031
625.000000	49.727053
624.000000	49.960465
623.000000	50.174829
622.000000	50.420276
621.000000	50.673873
620.000000	50.936473
619.000000	51.275835
618.000000	51.602214
617.000000	51.903574
616.000000	52.258193
615.000000	52.660291
614.000000	53.078309
613.000000	53.469508
612.000000	53.865731
611.000000	54.286497
610.000000	54.707927
609.000000	55.122155
608.000000	55.521315
607.000000	55.887591
606.000000	56.269598
605.000000	56.642602
604.000000	56.988029
603.000000	57.306352
602.000000	57.613967
601.000000	57.918643
600.000000	58.198112
599.000000	58.447445
598.000000	58.713078
597.000000	58.962884
596.000000	59.203119
595.000000	59.450178
594.000000	59.672881
593.000000	59.917570
592.000000	60.147475
591.000000	60.394913
590.000000	60.649932
589.000000	60.879268
588.000000	61.073257
587.000000	61.265540
586.000000	61.462656
585.000000	61.646031
584.000000	61.849307
583.000000	62.031449
582.000000	62.226196
581.000000	62.423502
580.000000	62.608772
579.000000	62.778500
578.000000	62.944816
577.000000	63.084977
576.000000	63.203342
575.000000	63.321896
574.000000	63.413156
573.000000	63.477219
572.000000	63.518064
571.000000	63.555686
570.000000	63.591603
569.000000	63.599848
568.000000	63.562510
567.000000	63.525550
566.000000	63.464331
565.000000	63.413251
564.000000	63.324549
563.000000	63.222674
562.000000	63.082324
561.000000	62.933444
560.000000	62.719270
559.000000	62.433642
558.000000	62.179571
557.000000	61.857456
556.000000	61.511745
555.000000	61.119598
554.000000	60.687554
553.000000	60.189647
552.000000	59.694203
551.000000	59.172320
550.000000	58.580498
549.000000	58.003460
548.000000	57.407658
547.000000	56.784184
546.000000	56.104987
545.000000	55.446923
544.000000	54.764409
543.000000	54.037259
542.000000	53.300444
541.000000	52.603430
540.000000	51.885663
539.000000	51.197273
538.000000	50.514664
537.000000	49.787704
536.000000	49.072590
535.000000	48.412536
534.000000	47.711827
533.000000	47.006284
532.000000	46.333342
531.000000	45.676130
530.000000	45.011338
529.000000	44.372701
528.000000	43.734538
527.000000	43.078369
526.000000	42.435468
525.000000	41.778067
524.000000	41.115928
523.000000	40.460044
522.000000	39.800558
521.000000	39.146285
520.000000	38.457611
519.000000	37.767894
518.000000	37.069175
517.000000	36.312648
516.000000	35.603409
515.000000	34.838448
514.000000	34.069506
513.000000	33.310515
512.000000	32.540436
511.000000	31.716150
510.000000	30.921147
509.000000	30.110413
508.000000	29.384021
507.000000	28.634602
506.000000	27.934650
505.000000	27.270047
504.000000	26.636149
503.000000	26.043190
502.000000	25.479135
501.000000	24.926168
500.000000	24.419542
499.000000	24.020477
498.000000	23.611272
497.000000	23.258074
496.000000	22.943636
495.000000	22.624081
494.000000	22.360817
493.000000	22.109305
492.000000	21.918822
491.000000	21.708250
490.000000	21.507817
489.000000	21.344154
488.000000	21.188261
487.000000	21.041846
486.000000	20.940919
485.000000	20.848521
484.000000	20.753564
483.000000	20.682962
482.000000	20.605158
481.000000	20.531808
480.000000	20.464997
479.000000	20.419130
478.000000	20.371936
477.000000	20.362270
476.000000	20.330428
475.000000	20.304367
474.000000	20.298396
473.000000	20.271293
472.000000	20.238409
471.000000	20.187234
470.000000	20.150654
469.000000	20.110662
468.000000	20.040061
467.000000	19.980926
466.000000	19.906534
465.000000	19.822001
464.000000	19.706196
463.000000	19.587547
462.000000	19.515334
461.000000	19.355841
460.000000	19.235486
459.000000	19.104139
458.000000	18.961704
457.000000	18.820785
456.000000	18.691048
455.000000	18.489573
454.000000	18.330933
453.000000	18.165469
452.000000	17.965036
451.000000	17.779008
450.000000	17.561612
449.000000	17.337203
448.000000	17.145868
447.000000	16.934157
446.000000	16.700461
445.000000	16.456625
444.000000	16.201606
443.000000	15.924601
442.000000	15.669962
441.000000	15.408404
440.000000	15.147320
439.000000	14.841032
438.000000	14.565544
437.000000	14.288160
436.000000	14.015230
435.000000	13.758790
434.000000	13.502349
433.000000	13.202600
432.000000	12.929576
431.000000	12.662901
430.000000	12.385138
429.000000	12.109649
428.000000	11.855768
427.000000	11.579426
426.000000	11.340139
425.000000	11.091185
424.000000	10.843748
423.000000	10.593846
422.000000	10.328972
421.000000	10.099351
420.000000	9.883471
419.000000	9.675267
418.000000	9.451711
417.000000	9.252226
416.000000	9.039094
415.000000	8.860553
414.000000	8.693478
413.000000	8.515789
412.000000	8.335731
411.000000	8.157000
410.000000	8.010206
409.000000	7.863032
408.000000	7.704202
407.000000	7.563852
406.000000	7.421511
405.000000	7.300493
404.000000	7.195775
403.000000	7.078454
402.000000	6.986908
401.000000	6.892615
400.000000	6.794815
399.000000	6.710093
398.000000	6.643756
397.000000	6.571449
396.000000	6.500373
395.000000	6.436879
394.000000	6.385610
393.000000	6.333677
392.000000	6.297666
391.000000	6.253030
390.000000	6.208205
389.000000	6.159116
388.000000	6.125568
387.000000	6.105762
386.000000	6.081975
385.000000	6.053735
384.000000	6.023599
383.000000	5.987492
382.000000	5.977542
381.000000	5.949586
380.000000	5.939445
379.000000	5.927979
378.000000	5.929021
377.000000	5.899075
376.000000	5.740245
375.000000	5.466083
374.000000	5.404105
373.000000	5.507401
372.000000	5.543982
371.000000	5.633821
370.000000	5.901349
369.000000	5.782795
368.000000	5.793599
367.000000	5.827051
366.000000	5.841361
365.000000	5.764505
364.000000	5.654385
363.000000	5.707266
362.000000	5.752754
361.000000	5.711530
360.000000	5.725461
359.000000	5.899548
358.000000	5.894431
357.000000	5.818712
356.000000	5.689449
355.000000	5.611172
354.000000	5.600084
353.000000	5.530335
352.000000	5.745362
351.000000	5.825251
350.000000	5.752564
349.000000	5.741477
348.000000	5.694377
347.000000	5.813215
346.000000	5.891588
345.000000	5.833211
344.000000	5.953755
343.000000	5.985787
342.000000	5.890356
341.000000	5.793599
340.000000	5.548057
339.000000	5.610508
338.000000	5.871118
337.000000	5.991283
336.000000	5.786302
335.000000	5.896800
334.000000	5.861926
333.000000	5.653627
332.000000	5.856429
331.000000	6.066813
330.000000	6.217682
329.000000	6.194938
328.000000	6.184893
327.000000	6.371963
326.000000	6.209722
325.000000	6.050892
324.000000	6.508428
323.000000	6.715684
322.000000	6.874799
321.000000	6.748190
320.000000	6.225832
319.000000	6.514778
318.000000	6.992973
317.000000	6.822582
316.000000	6.088230
315.000000	5.626713
314.000000	5.626240
313.000000	5.591934
312.000000	5.593640
311.000000	5.596293
310.000000	5.594492
309.000000	5.613825
308.000000	5.619037
307.000000	5.605675
306.000000	5.598094
305.000000	5.621217
304.000000	5.626524
303.000000	5.631736
302.000000	5.617995
301.000000	5.602453
300.000000	5.613541
299.000000	5.618848
298.000000	5.629935
297.000000	5.644435
296.000000	5.633726
295.000000	5.643866
294.000000	5.649078
293.000000	5.669643
292.000000	5.685090
291.000000	5.653817
290.000000	5.642824
289.000000	5.689260
288.000000	5.679594
287.000000	5.711435
286.000000	5.708118
285.000000	5.667558
284.000000	5.665758
283.000000	5.699116
282.000000	5.713236
281.000000	5.712099
280.000000	5.710488
279.000000	5.780236
278.000000	5.760525
277.000000	5.780900
276.000000	5.777772
275.000000	5.761472
274.000000	5.751617
273.000000	5.790661
272.000000	5.835201
271.000000	5.865243
270.000000	5.837476
269.000000	5.844299
268.000000	5.934138
267.000000	5.950344
266.000000	5.945795
265.000000	6.006541
264.000000	6.021419
263.000000	6.075531
262.000000	6.086809
261.000000	6.070888
260.000000	6.144901
259.000000	6.157884
258.000000	6.174089
257.000000	6.180439
256.000000	6.176364
255.000000	6.231329
254.000000	6.241185
253.000000	6.274637
252.000000	6.267056
251.000000	6.234456
250.000000	6.283925
