PE UV       SUBTECH     SPECTRUM    ASCII       PEDS        4.00        
   -1
CICIMAUCR0113-3.Sample.ASC
24/04/18
16:30:55.00
24/04/18
16:30:55.00
Vinicio Soto Monge
C. kalinini
250,000000
1
Lambda 1050
1050L1511233
PerkinElmer UV WinLab 6.3.2.0749 / 2.02.05 Lambda 900 UV/VIS/NIR, Aug  7 2015 09:38:08

0
0
3350/servo 860,8/2
0
0
UV/VIS
1
1
1
DoubleDePol,CommonBeamDepol,RBeamAtt,SBeamAtt,60mm sphere, WB InGaAs Detector
0
0
0
0
Program
Program
3350/servo 860,8/2
3350/0,2 860,8/0,2
3350/0,2 860,8/0,2
0
15.00
 
 
 
0
 
860,8
319,2
860,8
Front
100
on
S:100 R:100
0
0
0
0
 
0
 
 
 
0
 
 
0
0
0
0
0
 
 
 
 
0
0


0
0
#HDR
-1
-1
#GR
nm
%R
1.0
0.0
2500,000000
-1,000000
2251
8
57,813900
3,274400
#DATA
2482.000000	10.148651
2481.000000	10.170322
2480.000000	10.119821
2479.000000	10.164116
2478.000000	10.126217
2477.000000	10.135000
2476.000000	10.063210
2475.000000	10.104451
2474.000000	10.102828
2473.000000	10.080299
2472.000000	10.071516
2471.000000	10.072184
2470.000000	10.057101
2469.000000	10.052805
2468.000000	10.073711
2467.000000	10.085931
2466.000000	10.053091
2465.000000	10.065788
2464.000000	10.038867
2463.000000	10.064260
2462.000000	10.092995
2461.000000	10.120489
2460.000000	10.132422
2459.000000	10.176527
2458.000000	10.193901
2457.000000	10.217195
2456.000000	10.232755
2455.000000	10.283543
2454.000000	10.328602
2453.000000	10.385117
2452.000000	10.424639
2451.000000	10.479150
2450.000000	10.513135
2449.000000	10.561536
2448.000000	10.635043
2447.000000	10.705019
2446.000000	10.759529
2445.000000	10.781963
2444.000000	10.848025
2443.000000	10.890029
2442.000000	10.958955
2441.000000	11.021866
2440.000000	11.061006
2439.000000	11.102152
2438.000000	11.158380
2437.000000	11.210027
2436.000000	11.269692
2435.000000	11.305396
2434.000000	11.357901
2433.000000	11.393319
2432.000000	11.408593
2431.000000	11.446397
2430.000000	11.491743
2429.000000	11.516277
2428.000000	11.570883
2427.000000	11.600286
2426.000000	11.606014
2425.000000	11.635990
2424.000000	11.662052
2423.000000	11.690405
2422.000000	11.713889
2421.000000	11.766490
2420.000000	11.811167
2419.000000	11.831406
2418.000000	11.860141
2417.000000	11.897849
2416.000000	11.915415
2415.000000	11.934030
2414.000000	11.959137
2413.000000	11.985199
2412.000000	12.011929
2411.000000	12.019948
2410.000000	12.046106
2409.000000	12.063862
2408.000000	12.073409
2407.000000	12.093838
2406.000000	12.122573
2405.000000	12.130019
2404.000000	12.143957
2403.000000	12.163432
2402.000000	12.171355
2401.000000	12.180138
2400.000000	12.196844
2399.000000	12.221474
2398.000000	12.240949
2397.000000	12.255746
2396.000000	12.260806
2395.000000	12.275030
2394.000000	12.275507
2393.000000	12.286772
2392.000000	12.309302
2391.000000	12.318180
2390.000000	12.316175
2389.000000	12.305674
2388.000000	12.307774
2387.000000	12.327344
2386.000000	12.337082
2385.000000	12.326390
2384.000000	12.323812
2383.000000	12.318848
2382.000000	12.303001
2381.000000	12.287058
2380.000000	12.272070
2379.000000	12.256032
2378.000000	12.230352
2377.000000	12.215651
2376.000000	12.205436
2375.000000	12.178515
2374.000000	12.150353
2373.000000	12.116749
2372.000000	12.092883
2371.000000	12.068062
2370.000000	12.045246
2369.000000	12.015557
2368.000000	11.964961
2367.000000	11.928398
2366.000000	11.885248
2365.000000	11.837420
2364.000000	11.792838
2363.000000	11.736514
2362.000000	11.684104
2361.000000	11.635417
2360.000000	11.578902
2359.000000	11.535943
2358.000000	11.499571
2357.000000	11.445347
2356.000000	11.396469
2355.000000	11.365538
2354.000000	11.348641
2353.000000	11.330407
2352.000000	11.325061
2351.000000	11.326589
2350.000000	11.325730
2349.000000	11.323343
2348.000000	11.347114
2347.000000	11.382245
2346.000000	11.397615
2345.000000	11.416517
2344.000000	11.446874
2343.000000	11.477614
2342.000000	11.502339
2341.000000	11.511981
2340.000000	11.530406
2339.000000	11.548258
2338.000000	11.555036
2337.000000	11.553317
2336.000000	11.549403
2335.000000	11.540430
2334.000000	11.536134
2333.000000	11.520096
2332.000000	11.471027
2331.000000	11.436278
2330.000000	11.399619
2329.000000	11.352173
2328.000000	11.312269
2327.000000	11.274847
2326.000000	11.199621
2325.000000	11.112557
2324.000000	11.055183
2323.000000	11.009074
2322.000000	10.929838
2321.000000	10.852225
2320.000000	10.775567
2319.000000	10.693563
2318.000000	10.610318
2317.000000	10.535569
2316.000000	10.418625
2315.000000	10.325833
2314.000000	10.240297
2313.000000	10.166503
2312.000000	10.086886
2311.000000	10.019392
2310.000000	9.953044
2309.000000	9.889847
2308.000000	9.849179
2307.000000	9.832663
2306.000000	9.821208
2305.000000	9.814621
2304.000000	9.823308
2303.000000	9.835718
2302.000000	9.891947
2301.000000	9.959058
2300.000000	9.990371
2299.000000	10.034571
2298.000000	10.091468
2297.000000	10.166694
2296.000000	10.205166
2295.000000	10.275810
2294.000000	10.342826
2293.000000	10.382253
2292.000000	10.404401
2291.000000	10.436191
2290.000000	10.455283
2289.000000	10.475808
2288.000000	10.471799
2287.000000	10.478290
2286.000000	10.461393
2285.000000	10.441059
2284.000000	10.429603
2283.000000	10.419007
2282.000000	10.388745
2281.000000	10.346931
2280.000000	10.314187
2279.000000	10.286884
2278.000000	10.261586
2277.000000	10.232374
2276.000000	10.209080
2275.000000	10.189892
2274.000000	10.178627
2273.000000	10.148365
2272.000000	10.168699
2271.000000	10.183878
2270.000000	10.188269
2269.000000	10.211276
2268.000000	10.258054
2267.000000	10.306454
2266.000000	10.384067
2265.000000	10.459770
2264.000000	10.558099
2263.000000	10.700723
2262.000000	10.824922
2261.000000	10.983107
2260.000000	11.113416
2259.000000	11.279238
2258.000000	11.473604
2257.000000	11.675608
2256.000000	11.866919
2255.000000	12.066535
2254.000000	12.251259
2253.000000	12.455744
2252.000000	12.630731
2251.000000	12.806386
2250.000000	12.973640
2249.000000	13.137934
2248.000000	13.306143
2247.000000	13.464423
2246.000000	13.592346
2245.000000	13.716641
2244.000000	13.857356
2243.000000	13.947379
2242.000000	14.058595
2241.000000	14.151100
2240.000000	14.226708
2239.000000	14.328473
2238.000000	14.384225
2237.000000	14.450095
2236.000000	14.504701
2235.000000	14.560739
2234.000000	14.626227
2233.000000	14.661740
2232.000000	14.697158
2231.000000	14.737539
2230.000000	14.741167
2229.000000	14.766370
2228.000000	14.765510
2227.000000	14.760642
2226.000000	14.761310
2225.000000	14.779448
2224.000000	14.741740
2223.000000	14.714819
2222.000000	14.678542
2221.000000	14.677110
2220.000000	14.646180
2219.000000	14.599784
2218.000000	14.572481
2217.000000	14.565417
2216.000000	14.527422
2215.000000	14.484558
2214.000000	14.445513
2213.000000	14.405991
2212.000000	14.380597
2211.000000	14.356254
2210.000000	14.331337
2209.000000	14.330478
2208.000000	14.272818
2207.000000	14.240073
2206.000000	14.232341
2205.000000	14.223176
2204.000000	14.208474
2203.000000	14.188522
2202.000000	14.177830
2201.000000	14.158546
2200.000000	14.145945
2199.000000	14.119501
2198.000000	14.091339
2197.000000	14.113010
2196.000000	14.092676
2195.000000	14.065468
2194.000000	14.070528
2193.000000	14.044180
2192.000000	14.029383
2191.000000	14.022127
2190.000000	14.002653
2189.000000	14.001030
2188.000000	14.010003
2187.000000	13.992724
2186.000000	13.972486
2185.000000	13.950147
2184.000000	13.942319
2183.000000	13.925040
2182.000000	13.930004
2181.000000	13.913298
2180.000000	13.905374
2179.000000	13.911293
2178.000000	13.905947
2177.000000	13.894587
2176.000000	13.890386
2175.000000	13.894587
2174.000000	13.882176
2173.000000	13.879026
2172.000000	13.882272
2171.000000	13.901938
2170.000000	13.928286
2169.000000	13.942987
2168.000000	13.946806
2167.000000	13.941746
2166.000000	13.955207
2165.000000	13.995588
2164.000000	14.017450
2163.000000	14.035683
2162.000000	14.071578
2161.000000	14.114633
2160.000000	14.154250
2159.000000	14.180885
2158.000000	14.222985
2157.000000	14.281600
2156.000000	14.315013
2155.000000	14.362554
2154.000000	14.413055
2153.000000	14.456301
2152.000000	14.509188
2151.000000	14.561598
2150.000000	14.611908
2149.000000	14.659163
2148.000000	14.716442
2147.000000	14.774484
2146.000000	14.822025
2145.000000	14.868899
2144.000000	14.918922
2143.000000	14.969327
2142.000000	15.020592
2141.000000	15.067179
2140.000000	15.115102
2139.000000	15.156533
2138.000000	15.190710
2137.000000	15.244170
2136.000000	15.287033
2135.000000	15.313859
2134.000000	15.360732
2133.000000	15.383930
2132.000000	15.400255
2131.000000	15.439109
2130.000000	15.457724
2129.000000	15.473380
2128.000000	15.498201
2127.000000	15.531805
2126.000000	15.548607
2125.000000	15.547079
2124.000000	15.550516
2123.000000	15.555575
2122.000000	15.567890
2121.000000	15.569609
2120.000000	15.569036
2119.000000	15.556912
2118.000000	15.546697
2117.000000	15.547270
2116.000000	15.540110
2115.000000	15.521113
2114.000000	15.484741
2113.000000	15.484454
2112.000000	15.483309
2111.000000	15.454478
2110.000000	15.430994
2109.000000	15.411042
2108.000000	15.397009
2107.000000	15.372379
2106.000000	15.358727
2105.000000	15.336293
2104.000000	15.315768
2103.000000	15.295053
2102.000000	15.256294
2101.000000	15.242738
2100.000000	15.231282
2099.000000	15.204648
2098.000000	15.181736
2097.000000	15.160161
2096.000000	15.154624
2095.000000	15.136772
2094.000000	15.102882
2093.000000	15.079780
2092.000000	15.059732
2091.000000	15.039876
2090.000000	15.029279
2089.000000	15.020305
2088.000000	15.005890
2087.000000	14.980592
2086.000000	14.960926
2085.000000	14.944984
2084.000000	14.925604
2083.000000	14.899256
2082.000000	14.864412
2081.000000	14.827562
2080.000000	14.796727
2079.000000	14.782789
2078.000000	14.748040
2077.000000	14.699544
2076.000000	14.657635
2075.000000	14.615345
2074.000000	14.572576
2073.000000	14.533531
2072.000000	14.476825
2071.000000	14.424033
2070.000000	14.374105
2069.000000	14.331624
2068.000000	14.296397
2067.000000	14.245324
2066.000000	14.189286
2065.000000	14.144895
2064.000000	14.099549
2063.000000	14.075301
2062.000000	14.047807
2061.000000	14.016113
2060.000000	13.992629
2059.000000	13.972963
2058.000000	13.955780
2057.000000	13.966567
2056.000000	13.976782
2055.000000	13.981841
2054.000000	14.006280
2053.000000	14.060122
2052.000000	14.127234
2051.000000	14.202078
2050.000000	14.264703
2049.000000	14.340120
2048.000000	14.444654
2047.000000	14.547374
2046.000000	14.673292
2045.000000	14.790045
2044.000000	14.899829
2043.000000	15.048467
2042.000000	15.176485
2041.000000	15.303549
2040.000000	15.423261
2039.000000	15.545074
2038.000000	15.666314
2037.000000	15.792900
2036.000000	15.904785
2035.000000	16.015715
2034.000000	16.137623
2033.000000	16.245594
2032.000000	16.320915
2031.000000	16.409220
2030.000000	16.511653
2029.000000	16.597094
2028.000000	16.672989
2027.000000	16.762725
2026.000000	16.828310
2025.000000	16.899049
2024.000000	16.939526
2023.000000	17.004251
2022.000000	17.061148
2021.000000	17.123963
2020.000000	17.181815
2019.000000	17.235084
2018.000000	17.288163
2017.000000	17.316134
2016.000000	17.354988
2015.000000	17.397756
2014.000000	17.420954
2013.000000	17.451502
2012.000000	17.492743
2011.000000	17.486061
2010.000000	17.522528
2009.000000	17.541048
2008.000000	17.541717
2007.000000	17.543721
2006.000000	17.534461
2005.000000	17.542098
2004.000000	17.542385
2003.000000	17.539330
2002.000000	17.516896
2001.000000	17.489879
2000.000000	17.471168
1999.000000	17.431359
1998.000000	17.401574
1997.000000	17.357470
1996.000000	17.334272
1995.000000	17.287972
1994.000000	17.248163
1993.000000	17.206731
1992.000000	17.141147
1991.000000	17.084918
1990.000000	17.019239
1989.000000	16.973798
1988.000000	16.893035
1987.000000	16.857522
1986.000000	16.781436
1985.000000	16.733704
1984.000000	16.657332
1983.000000	16.600245
1982.000000	16.517572
1981.000000	16.446642
1980.000000	16.387645
1979.000000	16.325593
1978.000000	16.253994
1977.000000	16.175523
1976.000000	16.119867
1975.000000	16.047505
1974.000000	15.983639
1973.000000	15.912804
1972.000000	15.873282
1971.000000	15.792709
1970.000000	15.734381
1969.000000	15.680730
1968.000000	15.633379
1967.000000	15.551470
1966.000000	15.507843
1965.000000	15.446937
1964.000000	15.383930
1963.000000	15.336675
1962.000000	15.280733
1961.000000	15.227750
1960.000000	15.133049
1959.000000	15.078634
1958.000000	15.039971
1957.000000	14.957872
1956.000000	14.916153
1955.000000	14.866703
1954.000000	14.804651
1953.000000	14.750618
1952.000000	14.694294
1951.000000	14.632719
1950.000000	14.568567
1949.000000	14.535154
1948.000000	14.510906
1947.000000	14.449713
1946.000000	14.405991
1945.000000	14.388330
1944.000000	14.372578
1943.000000	14.339738
1942.000000	14.299357
1941.000000	14.286946
1940.000000	14.309762
1939.000000	14.318450
1938.000000	14.327996
1937.000000	14.360931
1936.000000	14.369714
1935.000000	14.392435
1934.000000	14.407995
1933.000000	14.435394
1932.000000	14.499451
1931.000000	14.541073
1930.000000	14.618113
1929.000000	14.696776
1928.000000	14.795582
1927.000000	14.923504
1926.000000	15.017537
1925.000000	15.110042
1924.000000	15.214194
1923.000000	15.325697
1922.000000	15.444073
1921.000000	15.639775
1920.000000	15.823258
1919.000000	15.996526
1918.000000	16.156048
1917.000000	16.272706
1916.000000	16.395855
1915.000000	16.554326
1914.000000	16.770458
1913.000000	17.048642
1912.000000	17.297327
1911.000000	17.489020
1910.000000	17.683577
1909.000000	17.857132
1908.000000	18.029636
1907.000000	18.277749
1906.000000	18.570061
1905.000000	18.898173
1904.000000	19.214256
1903.000000	19.467619
1902.000000	19.716973
1901.000000	19.982269
1900.000000	20.278591
1899.000000	20.636393
1898.000000	20.937392
1897.000000	21.261590
1896.000000	21.505407
1895.000000	21.738531
1894.000000	22.020438
1893.000000	22.332035
1892.000000	22.674562
1891.000000	23.048879
1890.000000	23.382527
1889.000000	23.680759
1888.000000	24.022904
1887.000000	24.337746
1886.000000	24.684951
1885.000000	25.075879
1884.000000	25.500410
1883.000000	25.906039
1882.000000	26.300498
1881.000000	26.717488
1880.000000	27.096769
1879.000000	27.455334
1878.000000	27.802157
1877.000000	28.139051
1876.000000	28.463249
1875.000000	28.771791
1874.000000	29.049975
1873.000000	29.311452
1872.000000	29.546868
1871.000000	29.746675
1870.000000	29.919084
1869.000000	30.059608
1868.000000	30.180275
1867.000000	30.252733
1866.000000	30.296170
1865.000000	30.341133
1864.000000	30.374355
1863.000000	30.409009
1862.000000	30.451299
1861.000000	30.502469
1860.000000	30.553733
1859.000000	30.589819
1858.000000	30.613589
1857.000000	30.612348
1856.000000	30.581131
1855.000000	30.564330
1854.000000	30.547528
1853.000000	30.497886
1852.000000	30.454927
1851.000000	30.421705
1850.000000	30.399080
1849.000000	30.394116
1848.000000	30.367100
1847.000000	30.309725
1846.000000	30.240227
1845.000000	30.156887
1844.000000	30.091112
1843.000000	30.071159
1842.000000	30.066386
1841.000000	30.057126
1840.000000	30.024955
1839.000000	29.974358
1838.000000	29.918893
1837.000000	29.870493
1836.000000	29.819992
1835.000000	29.745625
1834.000000	29.653502
1833.000000	29.572452
1832.000000	29.512978
1831.000000	29.459613
1830.000000	29.392406
1829.000000	29.334555
1828.000000	29.271643
1827.000000	29.203386
1826.000000	29.136847
1825.000000	29.059712
1824.000000	29.018089
1823.000000	29.005011
1822.000000	29.003961
1821.000000	28.998137
1820.000000	28.978185
1819.000000	28.934940
1818.000000	28.903150
1817.000000	28.891790
1816.000000	28.893031
1815.000000	28.886157
1814.000000	28.877375
1813.000000	28.868974
1812.000000	28.849976
1811.000000	28.823628
1810.000000	28.774273
1809.000000	28.736755
1808.000000	28.706684
1807.000000	28.684059
1806.000000	28.644632
1805.000000	28.600623
1804.000000	28.550313
1803.000000	28.506972
1802.000000	28.477760
1801.000000	28.450552
1800.000000	28.396519
1799.000000	28.340863
1798.000000	28.295231
1797.000000	28.264014
1796.000000	28.224683
1795.000000	28.180292
1794.000000	28.138383
1793.000000	28.095519
1792.000000	28.050078
1791.000000	28.019339
1790.000000	27.958719
1789.000000	27.909936
1788.000000	27.872323
1787.000000	27.828028
1786.000000	27.763016
1785.000000	27.697718
1784.000000	27.633471
1783.000000	27.556431
1782.000000	27.483878
1781.000000	27.422303
1780.000000	27.337053
1779.000000	27.257245
1778.000000	27.179823
1777.000000	27.075003
1776.000000	26.986698
1775.000000	26.874909
1774.000000	26.753955
1773.000000	26.636343
1772.000000	26.499638
1771.000000	26.364364
1770.000000	26.230427
1769.000000	26.107660
1768.000000	25.987661
1767.000000	25.872817
1766.000000	25.776684
1765.000000	25.698690
1764.000000	25.642079
1763.000000	25.587855
1762.000000	25.574586
1761.000000	25.588523
1760.000000	25.609048
1759.000000	25.646280
1758.000000	25.691243
1757.000000	25.718451
1756.000000	25.737639
1755.000000	25.750718
1754.000000	25.743081
1753.000000	25.725706
1752.000000	25.705468
1751.000000	25.643893
1750.000000	25.591101
1749.000000	25.517880
1748.000000	25.430720
1747.000000	25.342034
1746.000000	25.224517
1745.000000	25.099172
1744.000000	24.943756
1743.000000	24.770010
1742.000000	24.588341
1741.000000	24.377746
1740.000000	24.166769
1739.000000	23.955888
1738.000000	23.769159
1737.000000	23.595986
1736.000000	23.466918
1735.000000	23.380809
1734.000000	23.314557
1733.000000	23.309115
1732.000000	23.321716
1731.000000	23.377372
1730.000000	23.453744
1729.000000	23.521428
1728.000000	23.606678
1727.000000	23.676081
1726.000000	23.758181
1725.000000	23.806199
1724.000000	23.864242
1723.000000	23.901568
1722.000000	23.917129
1721.000000	23.937081
1720.000000	23.983573
1719.000000	24.036746
1718.000000	24.096030
1717.000000	24.151781
1716.000000	24.254978
1715.000000	24.338796
1714.000000	24.422137
1713.000000	24.510728
1712.000000	24.573162
1711.000000	24.620417
1710.000000	24.653639
1709.000000	24.678841
1708.000000	24.693447
1707.000000	24.673591
1706.000000	24.676646
1705.000000	24.642374
1704.000000	24.600751
1703.000000	24.535549
1702.000000	24.447340
1701.000000	24.339656
1700.000000	24.233308
1699.000000	24.076078
1698.000000	23.968489
1697.000000	23.883908
1696.000000	23.815173
1695.000000	23.805436
1694.000000	23.856223
1693.000000	23.934695
1692.000000	24.059371
1691.000000	24.189776
1690.000000	24.309871
1689.000000	24.406672
1688.000000	24.506050
1687.000000	24.553114
1686.000000	24.622326
1685.000000	24.685142
1684.000000	24.774497
1683.000000	25.023278
1682.000000	25.329337
1681.000000	25.733439
1680.000000	26.211716
1679.000000	26.721211
1678.000000	27.213808
1677.000000	27.706406
1676.000000	28.093133
1675.000000	28.490552
1674.000000	28.818091
1673.000000	29.112695
1672.000000	29.367872
1671.000000	29.616175
1670.000000	29.843858
1669.000000	30.034310
1668.000000	30.213211
1667.000000	30.378842
1666.000000	30.518793
1665.000000	30.628959
1664.000000	30.745808
1663.000000	30.844232
1662.000000	30.938074
1661.000000	31.035829
1660.000000	31.095495
1659.000000	31.171962
1658.000000	31.226186
1657.000000	31.280505
1656.000000	31.319073
1655.000000	31.333679
1654.000000	31.350194
1653.000000	31.354204
1652.000000	31.362032
1651.000000	31.347712
1650.000000	31.341698
1649.000000	31.309526
1648.000000	31.288620
1647.000000	31.251579
1646.000000	31.225708
1645.000000	31.180554
1644.000000	31.131962
1643.000000	31.080698
1642.000000	31.038120
1641.000000	31.001176
1640.000000	30.967286
1639.000000	30.923372
1638.000000	30.867907
1637.000000	30.800604
1636.000000	30.750008
1635.000000	30.686047
1634.000000	30.626763
1633.000000	30.574258
1632.000000	30.507910
1631.000000	30.424856
1630.000000	30.360608
1629.000000	30.297506
1628.000000	30.225621
1627.000000	30.142853
1626.000000	30.090634
1625.000000	30.011780
1624.000000	29.933595
1623.000000	29.869729
1622.000000	29.794503
1621.000000	29.726532
1620.000000	29.659516
1619.000000	29.592023
1618.000000	29.513455
1617.000000	29.444243
1616.000000	29.380664
1615.000000	29.296369
1614.000000	29.241858
1613.000000	29.171692
1612.000000	29.111454
1611.000000	29.057039
1610.000000	28.968543
1609.000000	28.900763
1608.000000	28.838139
1607.000000	28.769022
1606.000000	28.695896
1605.000000	28.618475
1604.000000	28.542485
1603.000000	28.470027
1602.000000	28.394801
1601.000000	28.325398
1600.000000	28.246926
1599.000000	28.174851
1598.000000	28.113085
1597.000000	28.050747
1596.000000	27.988790
1595.000000	27.920533
1594.000000	27.871082
1593.000000	27.811894
1592.000000	27.747265
1591.000000	27.699341
1590.000000	27.647313
1589.000000	27.599104
1588.000000	27.564545
1587.000000	27.517004
1586.000000	27.490751
1585.000000	27.455525
1584.000000	27.415525
1583.000000	27.386695
1582.000000	27.353855
1581.000000	27.328748
1580.000000	27.310419
1579.000000	27.291517
1578.000000	27.280634
1577.000000	27.295812
1576.000000	27.298676
1575.000000	27.293999
1574.000000	27.299249
1573.000000	27.308796
1572.000000	27.329702
1571.000000	27.349845
1570.000000	27.368366
1569.000000	27.392995
1568.000000	27.428222
1567.000000	27.468985
1566.000000	27.509844
1565.000000	27.549939
1564.000000	27.581824
1563.000000	27.607504
1562.000000	27.638053
1561.000000	27.650845
1560.000000	27.660869
1559.000000	27.678435
1558.000000	27.684544
1557.000000	27.673852
1556.000000	27.668315
1555.000000	27.654759
1554.000000	27.637385
1553.000000	27.620869
1552.000000	27.597003
1551.000000	27.575715
1550.000000	27.538579
1549.000000	27.504784
1548.000000	27.484641
1547.000000	27.453902
1546.000000	27.425072
1545.000000	27.404642
1544.000000	27.380108
1543.000000	27.360537
1542.000000	27.351468
1541.000000	27.342208
1540.000000	27.333235
1539.000000	27.346218
1538.000000	27.339058
1537.000000	27.334380
1536.000000	27.329798
1535.000000	27.311564
1534.000000	27.314333
1533.000000	27.291135
1532.000000	27.282925
1531.000000	27.274524
1530.000000	27.256195
1529.000000	27.241589
1528.000000	27.211995
1527.000000	27.199871
1526.000000	27.182782
1525.000000	27.147842
1524.000000	27.121208
1523.000000	27.104024
1522.000000	27.089704
1521.000000	27.069848
1520.000000	27.034430
1519.000000	26.999586
1518.000000	26.977724
1517.000000	26.947653
1516.000000	26.924646
1515.000000	26.905553
1514.000000	26.865363
1513.000000	26.830709
1512.000000	26.799206
1511.000000	26.781449
1510.000000	26.754146
1509.000000	26.736581
1508.000000	26.698777
1507.000000	26.683693
1506.000000	26.656009
1505.000000	26.630424
1504.000000	26.590711
1503.000000	26.557107
1502.000000	26.554434
1501.000000	26.529709
1500.000000	26.504697
1499.000000	26.493528
1498.000000	26.473862
1497.000000	26.481022
1496.000000	26.472048
1495.000000	26.470425
1494.000000	26.467848
1493.000000	26.484363
1492.000000	26.502788
1491.000000	26.524172
1490.000000	26.538110
1489.000000	26.549661
1488.000000	26.576773
1487.000000	26.591856
1486.000000	26.612668
1485.000000	26.643216
1484.000000	26.672238
1483.000000	26.671760
1482.000000	26.720065
1481.000000	26.755387
1480.000000	26.804838
1479.000000	26.821067
1478.000000	26.859539
1477.000000	26.908322
1476.000000	26.932474
1475.000000	26.964168
1474.000000	27.011137
1473.000000	27.065838
1472.000000	27.119012
1471.000000	27.158821
1470.000000	27.206839
1469.000000	27.254572
1468.000000	27.296385
1467.000000	27.343163
1466.000000	27.385358
1465.000000	27.440250
1464.000000	27.502493
1463.000000	27.580774
1462.000000	27.638721
1461.000000	27.714711
1460.000000	27.808648
1459.000000	27.875092
1458.000000	27.967120
1457.000000	28.067357
1456.000000	28.161104
1455.000000	28.264778
1454.000000	28.350314
1453.000000	28.464586
1452.000000	28.596709
1451.000000	28.706684
1450.000000	28.801767
1449.000000	28.882052
1448.000000	28.993746
1447.000000	29.129497
1446.000000	29.272216
1445.000000	29.375604
1444.000000	29.498372
1443.000000	29.597560
1442.000000	29.745052
1441.000000	29.873834
1440.000000	29.973022
1439.000000	30.112400
1438.000000	30.249678
1437.000000	30.359844
1436.000000	30.464187
1435.000000	30.624854
1434.000000	30.759364
1433.000000	30.881463
1432.000000	31.040889
1431.000000	31.160029
1430.000000	31.296257
1429.000000	31.479071
1428.000000	31.650430
1427.000000	31.821026
1426.000000	32.016060
1425.000000	32.242597
1424.000000	32.472953
1423.000000	32.664933
1422.000000	32.885361
1421.000000	33.102447
1420.000000	33.336049
1419.000000	33.597240
1418.000000	33.816236
1417.000000	34.013275
1416.000000	34.213464
1415.000000	34.471219
1414.000000	34.730500
1413.000000	34.917897
1412.000000	35.135557
1411.000000	35.387201
1410.000000	35.686387
1409.000000	36.039511
1408.000000	36.350535
1407.000000	36.699649
1406.000000	37.037403
1405.000000	37.405514
1404.000000	37.713960
1403.000000	38.043122
1402.000000	38.406365
1401.000000	38.794429
1400.000000	39.097338
1399.000000	39.315093
1398.000000	39.473850
1397.000000	39.759385
1396.000000	39.999096
1395.000000	40.179906
1394.000000	40.304965
1393.000000	40.463914
1392.000000	40.631072
1391.000000	40.785057
1390.000000	40.954506
1389.000000	41.222475
1388.000000	41.516984
1387.000000	41.750013
1386.000000	42.024951
1385.000000	42.377406
1384.000000	42.749909
1383.000000	43.024656
1382.000000	43.304558
1381.000000	43.468089
1380.000000	43.550189
1379.000000	43.673720
1378.000000	43.765366
1377.000000	43.854148
1376.000000	43.967751
1375.000000	44.119062
1374.000000	44.317629
1373.000000	44.574524
1372.000000	44.873806
1371.000000	45.125928
1370.000000	45.375758
1369.000000	45.622725
1368.000000	45.866637
1367.000000	46.048116
1366.000000	46.242863
1365.000000	46.429592
1364.000000	46.588445
1363.000000	46.708444
1362.000000	46.876748
1361.000000	46.974313
1360.000000	47.014599
1359.000000	47.067009
1358.000000	47.162283
1357.000000	47.297175
1356.000000	47.510347
1355.000000	47.827385
1354.000000	48.180604
1353.000000	48.541078
1352.000000	48.937447
1351.000000	49.323220
1350.000000	49.693050
1349.000000	50.029181
1348.000000	50.345550
1347.000000	50.645214
1346.000000	50.886835
1345.000000	51.154899
1344.000000	51.434420
1343.000000	51.656566
1342.000000	51.869929
1341.000000	52.082720
1340.000000	52.282145
1339.000000	52.484912
1338.000000	52.665817
1337.000000	52.826771
1336.000000	52.981805
1335.000000	53.120802
1334.000000	53.255693
1333.000000	53.400799
1332.000000	53.535405
1331.000000	53.644807
1330.000000	53.747145
1329.000000	53.837645
1328.000000	53.932728
1327.000000	54.020651
1326.000000	54.104755
1325.000000	54.188287
1324.000000	54.260458
1323.000000	54.327570
1322.000000	54.380744
1321.000000	54.442796
1320.000000	54.512962
1319.000000	54.571100
1318.000000	54.633438
1317.000000	54.683844
1316.000000	54.715538
1315.000000	54.749619
1314.000000	54.794201
1313.000000	54.836778
1312.000000	54.877446
1311.000000	54.914486
1310.000000	54.941980
1309.000000	54.963650
1308.000000	54.981598
1307.000000	54.999259
1306.000000	55.009760
1305.000000	55.015965
1304.000000	55.021502
1303.000000	55.017206
1302.000000	55.011478
1301.000000	55.004127
1300.000000	54.994676
1299.000000	54.985512
1298.000000	54.971860
1297.000000	54.963650
1296.000000	54.955727
1295.000000	54.938734
1294.000000	54.929474
1293.000000	54.905608
1292.000000	54.871145
1291.000000	54.836683
1290.000000	54.800406
1289.000000	54.765561
1288.000000	54.716493
1287.000000	54.672770
1286.000000	54.629715
1285.000000	54.584561
1284.000000	54.531005
1283.000000	54.468285
1282.000000	54.412724
1281.000000	54.367760
1280.000000	54.318596
1279.000000	54.264086
1278.000000	54.213299
1277.000000	54.168908
1276.000000	54.133013
1275.000000	54.099600
1274.000000	54.078025
1273.000000	54.051009
1272.000000	54.029338
1271.000000	54.019601
1270.000000	54.006809
1269.000000	53.988575
1268.000000	53.965664
1267.000000	53.939984
1266.000000	53.927096
1265.000000	53.901607
1264.000000	53.876022
1263.000000	53.858075
1262.000000	53.826476
1261.000000	53.786190
1260.000000	53.764520
1259.000000	53.727002
1258.000000	53.685761
1257.000000	53.634688
1256.000000	53.569772
1255.000000	53.525285
1254.000000	53.465334
1253.000000	53.405764
1252.000000	53.343712
1251.000000	53.282423
1250.000000	53.199751
1249.000000	53.124811
1248.000000	53.036029
1247.000000	52.941424
1246.000000	52.850923
1245.000000	52.746867
1244.000000	52.637846
1243.000000	52.532167
1242.000000	52.416464
1241.000000	52.301811
1240.000000	52.211215
1239.000000	52.106586
1238.000000	51.985632
1237.000000	51.888640
1236.000000	51.775515
1235.000000	51.672890
1234.000000	51.555564
1233.000000	51.416281
1232.000000	51.291032
1231.000000	51.177333
1230.000000	51.057143
1229.000000	50.919388
1228.000000	50.780869
1227.000000	50.656860
1226.000000	50.527888
1225.000000	50.398247
1224.000000	50.256673
1223.000000	50.106698
1222.000000	49.958632
1221.000000	49.824791
1220.000000	49.681117
1219.000000	49.564363
1218.000000	49.437682
1217.000000	49.319592
1216.000000	49.200070
1215.000000	49.072816
1214.000000	48.959404
1213.000000	48.846183
1212.000000	48.734394
1211.000000	48.634920
1210.000000	48.515876
1209.000000	48.420316
1208.000000	48.323419
1207.000000	48.230436
1206.000000	48.135067
1205.000000	48.071965
1204.000000	47.989293
1203.000000	47.927145
1202.000000	47.874067
1201.000000	47.799032
1200.000000	47.725906
1199.000000	47.624618
1198.000000	47.522566
1197.000000	47.387579
1196.000000	47.200373
1195.000000	47.004098
1194.000000	46.752740
1193.000000	46.467396
1192.000000	46.167637
1191.000000	45.824538
1190.000000	45.515900
1189.000000	45.233516
1188.000000	45.027122
1187.000000	44.881156
1186.000000	44.850035
1185.000000	44.899581
1184.000000	45.028363
1183.000000	45.240008
1182.000000	45.532129
1181.000000	45.872461
1180.000000	46.206873
1179.000000	46.519424
1178.000000	46.815078
1177.000000	47.065005
1176.000000	47.275122
1175.000000	47.490777
1174.000000	47.692016
1173.000000	47.900606
1172.000000	48.122657
1171.000000	48.346331
1170.000000	48.569718
1169.000000	48.806756
1168.000000	49.046372
1167.000000	49.291048
1166.000000	49.529805
1165.000000	49.783264
1164.000000	50.023739
1163.000000	50.276147
1162.000000	50.535716
1161.000000	50.771704
1160.000000	50.974471
1159.000000	51.180579
1158.000000	51.390410
1157.000000	51.588977
1156.000000	51.748784
1155.000000	51.863437
1154.000000	51.954224
1153.000000	51.999188
1152.000000	52.034224
1151.000000	52.048257
1150.000000	52.030596
1149.000000	52.026300
1148.000000	52.039952
1147.000000	52.074032
1146.000000	52.148781
1145.000000	52.229162
1144.000000	52.349161
1143.000000	52.490735
1142.000000	52.650925
1141.000000	52.823907
1140.000000	53.001089
1139.000000	53.184190
1138.000000	53.389344
1137.000000	53.603280
1136.000000	53.826190
1135.000000	54.021988
1134.000000	54.213776
1133.000000	54.374443
1132.000000	54.495110
1131.000000	54.646899
1130.000000	54.760215
1129.000000	54.878973
1128.000000	54.962982
1127.000000	55.023125
1126.000000	55.077444
1125.000000	55.118017
1124.000000	55.149425
1123.000000	55.171572
1122.000000	55.191811
1121.000000	55.181310
1120.000000	55.181883
1119.000000	55.173482
1118.000000	55.146561
1117.000000	55.130332
1116.000000	55.104747
1115.000000	55.070380
1114.000000	55.037731
1113.000000	55.000118
1112.000000	54.961168
1111.000000	54.932529
1110.000000	54.897207
1109.000000	54.864367
1108.000000	54.819690
1107.000000	54.793723
1106.000000	54.759547
1105.000000	54.715347
1104.000000	54.669810
1103.000000	54.623033
1102.000000	54.596398
1101.000000	54.547616
1100.000000	54.501888
1099.000000	54.440982
1098.000000	54.396782
1097.000000	54.359360
1096.000000	54.302749
1095.000000	54.244993
1094.000000	54.190865
1093.000000	54.140555
1092.000000	54.082512
1091.000000	54.016642
1090.000000	53.952203
1089.000000	53.896547
1088.000000	53.828385
1087.000000	53.754878
1086.000000	53.679365
1085.000000	53.611394
1084.000000	53.556120
1083.000000	53.474498
1082.000000	53.410060
1081.000000	53.343616
1080.000000	53.279846
1079.000000	53.201278
1078.000000	53.137222
1077.000000	53.074979
1076.000000	53.007103
1075.000000	52.926531
1074.000000	52.862665
1073.000000	52.791831
1072.000000	52.718991
1071.000000	52.652834
1070.000000	52.575412
1069.000000	52.506392
1068.000000	52.444435
1067.000000	52.361094
1066.000000	52.291692
1065.000000	52.213983
1064.000000	52.138089
1063.000000	52.059904
1062.000000	51.986682
1061.000000	51.926826
1060.000000	51.851504
1059.000000	51.771314
1058.000000	51.688737
1057.000000	51.605588
1056.000000	51.542295
1055.000000	51.464968
1054.000000	51.381341
1053.000000	51.306401
1052.000000	51.236235
1051.000000	51.157286
1050.000000	51.081964
1049.000000	51.008743
1048.000000	50.947932
1047.000000	50.883875
1046.000000	50.816859
1045.000000	50.749270
1044.000000	50.682158
1043.000000	50.607219
1042.000000	50.537339
1041.000000	50.484069
1040.000000	50.417721
1039.000000	50.344023
1038.000000	50.276147
1037.000000	50.214191
1036.000000	50.148320
1035.000000	50.069276
1034.000000	49.986699
1033.000000	49.923501
1032.000000	49.859826
1031.000000	49.778491
1030.000000	49.689040
1029.000000	49.601499
1028.000000	49.526941
1027.000000	49.457061
1026.000000	49.377444
1025.000000	49.293817
1024.000000	49.201980
1023.000000	49.117398
1022.000000	49.037972
1021.000000	48.955108
1020.000000	48.887615
1019.000000	48.826995
1018.000000	48.740981
1017.000000	48.649431
1016.000000	48.577164
1015.000000	48.497451
1014.000000	48.437881
1013.000000	48.385376
1012.000000	48.322655
1011.000000	48.273205
1010.000000	48.220890
1009.000000	48.176117
1008.000000	48.109006
1007.000000	48.047908
1006.000000	48.013636
1005.000000	47.970009
1004.000000	47.915594
1003.000000	47.859747
1002.000000	47.801037
1001.000000	47.738794
1000.000000	47.688388
999.000000	47.634355
998.000000	47.584237
997.000000	47.523330
996.000000	47.465574
995.000000	47.406291
994.000000	47.352544
993.000000	47.305480
992.000000	47.251351
991.000000	47.177271
990.000000	47.129061
989.000000	47.063764
988.000000	47.007821
987.000000	46.948729
986.000000	46.877417
985.000000	46.820520
984.000000	46.774601
983.000000	46.717800
982.000000	46.647347
981.000000	46.574889
980.000000	46.523147
979.000000	46.466442
978.000000	46.394843
977.000000	46.341956
976.000000	46.281527
975.000000	46.206110
974.000000	46.122292
973.000000	46.064631
972.000000	46.014608
971.000000	45.952842
970.000000	45.872556
969.000000	45.797617
968.000000	45.723918
967.000000	45.663966
966.000000	45.602869
965.000000	45.520483
964.000000	45.445925
963.000000	45.399625
962.000000	45.330031
961.000000	45.266642
960.000000	45.194567
959.000000	45.132037
958.000000	45.061489
957.000000	44.985022
956.000000	44.921633
955.000000	44.846694
954.000000	44.777673
953.000000	44.695382
952.000000	44.622447
951.000000	44.536911
950.000000	44.465312
949.000000	44.366888
948.000000	44.284598
947.000000	44.206508
946.000000	44.137869
945.000000	44.030949
944.000000	43.960782
943.000000	43.862644
942.000000	43.777776
941.000000	43.687753
940.000000	43.623410
939.000000	43.511812
938.000000	43.427708
937.000000	43.362792
936.000000	43.280597
935.000000	43.174917
934.000000	43.086326
933.000000	42.992007
932.000000	42.921268
931.000000	42.820553
930.000000	42.723370
929.000000	42.627619
928.000000	42.558789
927.000000	42.465997
926.000000	42.361368
925.000000	42.300080
924.000000	42.195451
923.000000	42.106764
922.000000	42.020750
921.000000	41.937314
920.000000	41.855406
919.000000	41.778843
918.000000	41.677269
917.000000	41.600611
916.000000	41.531685
915.000000	41.453691
914.000000	41.369873
913.000000	41.284336
912.000000	41.182285
911.000000	41.099421
910.000000	41.026009
909.000000	40.953265
908.000000	40.890449
907.000000	40.833457
906.000000	40.793935
905.000000	40.745152
904.000000	40.724627
903.000000	40.668112
902.000000	40.640237
901.000000	40.608924
900.000000	40.593936
899.000000	40.561860
898.000000	40.555751
897.000000	40.494271
896.000000	40.485107
895.000000	40.479092
894.000000	40.458663
893.000000	40.436324
892.000000	40.421814
891.000000	40.388783
890.000000	40.363103
889.000000	40.349929
888.000000	40.333127
887.000000	40.305251
886.000000	40.295609
885.000000	40.253223
884.000000	40.236708
883.000000	40.209596
882.000000	40.196135
881.000000	40.154799
880.000000	40.112413
879.000000	40.099334
878.000000	40.047211
877.000000	40.011889
876.000000	39.996137
875.000000	39.937904
874.000000	39.898668
873.000000	39.856759
872.000000	39.803680
871.000000	39.747929
870.000000	39.694182
869.000000	39.628980
868.000000	39.545449
867.000000	39.509649
866.000000	39.436237
865.000000	39.365784
864.000000	39.246835
863.000000	39.154903
862.000000	39.045214
861.000000	38.895335
860.000000	38.737341
859.000000	38.597581
858.000000	38.278633
857.000000	38.552600
856.000000	38.281100
855.000000	38.002200
854.000000	37.878100
853.000000	38.118500
852.000000	38.115100
851.000000	38.094800
850.000000	38.251900
849.000000	38.245700
848.000000	38.118300
847.000000	37.978500
846.000000	38.071500
845.000000	38.056100
844.000000	38.105300
843.000000	37.895300
842.000000	37.839100
841.000000	37.916800
840.000000	37.900800
839.000000	37.937500
838.000000	37.902200
837.000000	37.827000
836.000000	37.805700
835.000000	37.870100
834.000000	37.857200
833.000000	37.799100
832.000000	37.718100
831.000000	37.629000
830.000000	37.629500
829.000000	37.694100
828.000000	37.729500
827.000000	37.683300
826.000000	37.778900
825.000000	37.515500
824.000000	37.685900
823.000000	37.726600
822.000000	37.601800
821.000000	37.556000
820.000000	37.609400
819.000000	37.562500
818.000000	37.523600
817.000000	37.565200
816.000000	37.554200
815.000000	37.582600
814.000000	37.510300
813.000000	37.564000
812.000000	37.551700
811.000000	37.422200
810.000000	37.350500
809.000000	37.384000
808.000000	37.434900
807.000000	37.477200
806.000000	37.296200
805.000000	37.245600
804.000000	37.317000
803.000000	37.318500
802.000000	37.238400
801.000000	37.269600
800.000000	37.254500
799.000000	37.262500
798.000000	37.297400
797.000000	37.306200
796.000000	37.263500
795.000000	37.233700
794.000000	37.218300
793.000000	37.218900
792.000000	37.190200
791.000000	37.129500
790.000000	37.085200
789.000000	37.073000
788.000000	37.089800
787.000000	37.125600
786.000000	37.093700
785.000000	37.051600
784.000000	37.123000
783.000000	37.063000
782.000000	36.949100
781.000000	36.884900
780.000000	36.912000
779.000000	36.906300
778.000000	36.857600
777.000000	36.859500
776.000000	36.889400
775.000000	36.906900
774.000000	36.887700
773.000000	36.887200
772.000000	36.872500
771.000000	36.811700
770.000000	36.832700
769.000000	36.814700
768.000000	36.754900
767.000000	36.755900
766.000000	36.763100
765.000000	36.729800
764.000000	36.704400
763.000000	36.673400
762.000000	36.684900
761.000000	36.729300
760.000000	36.671200
759.000000	36.563300
758.000000	36.553500
757.000000	36.503300
756.000000	36.438300
755.000000	36.435100
754.000000	36.384600
753.000000	36.319800
752.000000	36.283700
751.000000	36.292400
750.000000	36.208600
749.000000	36.109000
748.000000	36.082500
747.000000	36.030400
746.000000	35.969200
745.000000	35.919400
744.000000	35.863100
743.000000	35.806500
742.000000	35.748300
741.000000	35.654500
740.000000	35.551200
739.000000	35.549300
738.000000	35.499500
737.000000	35.451500
736.000000	35.400300
735.000000	35.331900
734.000000	35.271000
733.000000	35.184600
732.000000	35.097400
731.000000	35.053500
730.000000	34.968700
729.000000	34.841600
728.000000	34.782100
727.000000	34.712800
726.000000	34.663000
725.000000	34.588400
724.000000	34.485300
723.000000	34.378800
722.000000	34.272300
721.000000	34.189900
720.000000	34.124500
719.000000	34.053100
718.000000	33.950800
717.000000	33.830200
716.000000	33.735700
715.000000	33.634500
714.000000	33.533500
713.000000	33.423600
712.000000	33.269700
711.000000	33.164100
710.000000	33.081400
709.000000	32.927100
708.000000	32.804800
707.000000	32.689400
706.000000	32.584000
705.000000	32.419700
704.000000	32.226900
703.000000	32.047400
702.000000	31.936600
701.000000	31.782500
700.000000	31.611100
699.000000	31.458900
698.000000	31.367300
697.000000	31.211300
696.000000	31.052900
695.000000	30.900500
694.000000	30.744700
693.000000	30.631100
692.000000	30.462600
691.000000	30.312000
690.000000	30.131400
689.000000	29.980300
688.000000	29.817000
687.000000	29.605000
686.000000	29.427000
685.000000	29.284600
684.000000	29.110500
683.000000	28.940900
682.000000	28.730200
681.000000	28.561100
680.000000	28.430300
679.000000	28.310800
678.000000	28.180800
677.000000	28.037500
676.000000	27.899700
675.000000	27.770500
674.000000	27.628200
673.000000	27.510100
672.000000	27.360300
671.000000	27.216000
670.000000	27.068000
669.000000	26.941000
668.000000	26.838600
667.000000	26.678500
666.000000	26.504800
665.000000	26.390900
664.000000	26.259900
663.000000	26.129600
662.000000	26.015600
661.000000	25.862900
660.000000	25.700500
659.000000	25.559300
658.000000	25.432800
657.000000	25.298000
656.000000	25.186500
655.000000	25.034500
654.000000	24.906200
653.000000	24.787000
652.000000	24.665000
651.000000	24.529300
650.000000	24.405400
649.000000	24.295900
648.000000	24.193100
647.000000	24.102000
646.000000	23.997300
645.000000	23.903300
644.000000	23.805800
643.000000	23.697700
642.000000	23.610500
641.000000	23.547600
640.000000	23.476600
639.000000	23.399300
638.000000	23.346300
637.000000	23.287700
636.000000	23.256500
635.000000	23.185500
634.000000	23.112500
633.000000	23.057200
632.000000	23.054300
631.000000	23.021400
630.000000	22.962900
629.000000	22.923500
628.000000	22.901700
627.000000	22.889900
626.000000	22.809200
625.000000	22.781600
624.000000	22.745600
623.000000	22.714200
622.000000	22.692700
621.000000	22.693500
620.000000	22.674800
619.000000	22.644600
618.000000	22.594600
617.000000	22.561500
616.000000	22.569400
615.000000	22.529100
614.000000	22.486600
613.000000	22.448700
612.000000	22.386100
611.000000	22.358000
610.000000	22.333200
609.000000	22.281200
608.000000	22.205500
607.000000	22.149100
606.000000	22.107700
605.000000	22.071100
604.000000	22.013100
603.000000	21.957600
602.000000	21.916600
601.000000	21.843600
600.000000	21.812000
599.000000	21.735700
598.000000	21.693000
597.000000	21.631300
596.000000	21.598800
595.000000	21.589200
594.000000	21.543200
593.000000	21.473500
592.000000	21.446900
591.000000	21.408400
590.000000	21.371300
589.000000	21.364800
588.000000	21.353000
587.000000	21.354100
586.000000	21.352500
585.000000	21.336800
584.000000	21.317400
583.000000	21.331600
582.000000	21.359100
581.000000	21.352700
580.000000	21.354600
579.000000	21.354300
578.000000	21.358000
577.000000	21.354500
576.000000	21.388900
575.000000	21.426900
574.000000	21.411100
573.000000	21.409200
572.000000	21.386000
571.000000	21.414700
570.000000	21.430200
569.000000	21.428300
568.000000	21.409500
567.000000	21.373800
566.000000	21.363300
565.000000	21.359900
564.000000	21.334300
563.000000	21.303900
562.000000	21.282300
561.000000	21.231800
560.000000	21.187500
559.000000	20.836300
558.000000	20.800300
557.000000	20.781600
556.000000	20.735200
555.000000	20.675900
554.000000	20.615100
553.000000	20.557100
552.000000	20.475400
551.000000	20.396500
550.000000	20.368000
549.000000	20.288800
548.000000	20.200300
547.000000	20.109000
546.000000	20.032700
545.000000	19.950700
544.000000	19.886200
543.000000	19.812200
542.000000	19.698400
541.000000	19.566000
540.000000	19.460300
539.000000	19.361600
538.000000	19.272100
537.000000	19.149700
536.000000	19.040000
535.000000	18.909100
534.000000	18.792800
533.000000	18.681500
532.000000	18.553500
531.000000	18.417200
530.000000	18.288500
529.000000	18.161300
528.000000	18.026400
527.000000	17.899500
526.000000	17.779200
525.000000	17.650800
524.000000	17.508700
523.000000	17.347800
522.000000	17.198100
521.000000	17.061900
520.000000	16.913100
519.000000	16.758900
518.000000	16.592900
517.000000	16.428800
516.000000	16.273400
515.000000	16.120400
514.000000	15.947100
513.000000	15.761800
512.000000	15.599400
511.000000	15.430800
510.000000	15.261100
509.000000	15.095000
508.000000	14.921800
507.000000	14.785900
506.000000	14.610300
505.000000	14.430500
504.000000	14.268800
503.000000	14.095400
502.000000	13.938000
501.000000	13.769900
500.000000	13.599600
499.000000	13.428700
498.000000	13.275000
497.000000	13.114200
496.000000	12.943400
495.000000	12.791700
494.000000	12.647100
493.000000	12.501800
492.000000	12.357000
491.000000	12.204900
490.000000	12.063900
489.000000	11.919700
488.000000	11.788200
487.000000	11.660600
486.000000	11.534900
485.000000	11.412900
484.000000	11.280700
483.000000	11.152800
482.000000	11.065300
481.000000	11.014800
480.000000	10.974300
479.000000	10.895900
478.000000	10.776900
477.000000	10.651200
476.000000	10.542000
475.000000	10.451200
474.000000	10.365400
473.000000	10.277300
472.000000	10.181000
471.000000	10.095900
470.000000	10.020400
469.000000	9.940800
468.000000	9.856100
467.000000	9.783000
466.000000	9.734100
465.000000	9.671800
464.000000	9.614500
463.000000	9.558700
462.000000	9.506700
461.000000	9.451700
460.000000	9.405900
459.000000	9.366400
458.000000	9.317100
457.000000	9.285900
456.000000	9.262500
455.000000	9.218900
454.000000	9.179700
453.000000	9.145400
452.000000	9.102100
451.000000	9.059700
450.000000	9.035400
449.000000	9.006300
448.000000	8.953600
447.000000	8.899200
446.000000	8.848100
445.000000	8.784700
444.000000	8.710600
443.000000	8.658700
442.000000	8.608500
441.000000	8.557700
440.000000	8.507600
439.000000	8.435100
438.000000	8.357100
437.000000	8.292900
436.000000	8.228600
435.000000	8.147600
434.000000	8.072900
433.000000	8.012900
432.000000	7.937400
431.000000	7.847300
430.000000	7.774700
429.000000	7.707600
428.000000	7.633800
427.000000	7.553400
426.000000	7.477200
425.000000	7.400400
424.000000	7.322800
423.000000	7.251000
422.000000	7.164200
421.000000	7.089100
420.000000	7.010100
419.000000	6.933800
418.000000	6.867700
417.000000	6.792400
416.000000	6.711900
415.000000	6.643200
414.000000	6.558900
413.000000	6.466200
412.000000	6.381700
411.000000	6.313300
410.000000	6.237900
409.000000	6.144600
408.000000	6.064100
407.000000	5.981800
406.000000	5.899600
405.000000	5.816600
404.000000	5.731100
403.000000	5.659900
402.000000	5.602100
401.000000	5.525000
400.000000	5.434700
399.000000	5.341600
398.000000	5.259000
397.000000	5.173400
396.000000	5.093400
395.000000	5.031800
394.000000	4.961300
393.000000	4.888500
392.000000	4.821100
391.000000	4.755100
390.000000	4.676500
389.000000	4.611400
388.000000	4.560900
387.000000	4.503500
386.000000	4.440900
385.000000	4.389100
384.000000	4.346000
383.000000	4.283900
382.000000	4.236500
381.000000	4.181700
380.000000	4.146000
379.000000	4.108000
378.000000	4.073700
377.000000	4.044200
376.000000	3.916300
375.000000	3.780700
374.000000	3.699900
373.000000	3.645200
372.000000	3.717200
371.000000	3.753600
370.000000	3.750200
369.000000	3.695100
368.000000	3.748700
367.000000	3.758400
366.000000	3.715900
365.000000	3.628600
364.000000	3.699200
363.000000	3.654100
362.000000	3.700200
361.000000	3.659100
360.000000	3.666100
359.000000	3.630900
358.000000	3.612700
357.000000	3.673300
356.000000	3.692900
355.000000	3.622100
354.000000	3.566600
353.000000	3.576300
352.000000	3.626400
351.000000	3.661400
350.000000	3.609500
349.000000	3.590900
348.000000	3.634700
347.000000	3.630500
346.000000	3.461600
345.000000	3.562100
344.000000	3.526700
343.000000	3.540900
342.000000	3.597700
341.000000	3.666500
340.000000	3.626100
339.000000	3.564900
338.000000	3.579100
337.000000	3.605600
336.000000	3.553100
335.000000	3.697600
334.000000	3.611300
333.000000	3.580500
332.000000	3.453400
331.000000	3.561900
330.000000	3.512700
329.000000	3.609000
328.000000	3.552500
327.000000	3.695800
326.000000	3.678900
325.000000	3.777900
324.000000	3.813200
323.000000	3.762700
322.000000	3.493300
321.000000	3.660100
320.000000	4.181900
319.000000	3.882500
318.000000	3.964000
317.000000	4.011200
316.000000	3.434600
315.000000	3.448000
314.000000	3.385500
313.000000	3.403900
312.000000	3.395400
311.000000	3.378500
310.000000	3.373100
309.000000	3.401300
308.000000	3.385300
307.000000	3.418600
306.000000	3.338000
305.000000	3.342200
304.000000	3.332800
303.000000	3.306000
302.000000	3.336300
301.000000	3.346500
300.000000	3.370300
299.000000	3.339200
298.000000	3.308300
297.000000	3.363400
296.000000	3.358500
295.000000	3.315300
294.000000	3.337900
293.000000	3.347700
292.000000	3.286300
291.000000	3.274400
290.000000	3.293300
289.000000	3.355000
288.000000	3.294300
287.000000	3.328000
286.000000	3.305300
285.000000	3.288700
284.000000	3.333300
283.000000	3.321700
282.000000	3.365200
281.000000	3.314300
280.000000	3.315900
279.000000	3.345000
278.000000	3.322800
277.000000	3.393700
276.000000	3.409600
275.000000	3.346100
274.000000	3.348900
273.000000	3.344200
272.000000	3.415200
271.000000	3.429100
270.000000	3.420100
269.000000	3.451400
268.000000	3.486500
267.000000	3.480300
266.000000	3.457700
265.000000	3.489200
264.000000	3.526800
263.000000	3.522300
262.000000	3.531600
261.000000	3.575200
260.000000	3.543800
259.000000	3.554900
258.000000	3.571100
257.000000	3.567700
256.000000	3.592200
255.000000	3.614600
254.000000	3.596800
253.000000	3.583500
252.000000	3.641500
251.000000	3.636000
250.000000	3.645700
