PE UV       SUBTECH     SPECTRUM    ASCII       PEDS        4.00        
   -1
CICIMAUCR0013-5.Sample.ASC
24/04/23
11:02:20.00
24/04/23
11:02:20.00
Vinicio Soto Monge
C. resplendens
250,000000
1
Lambda 1050
1050L1511233
PerkinElmer UV WinLab 6.3.2.0749 / 2.02.05 Lambda 900 UV/VIS/NIR, Aug  7 2015 09:38:08

0
0
3350/servo 860,8/2
0
0
UV/VIS
1
1
1
DoubleDePol,CommonBeamDepol,RBeamAtt,SBeamAtt,60mm sphere, WB InGaAs Detector
0
0
0
0
Program
Program
3350/servo 860,8/2
3350/0,2 860,8/0,2
3350/0,2 860,8/0,2
0
15.00
 
 
 
0
 
860,8
319,2
860,8
Front
100
on
S:100 R:100
0
0
0
0
 
0
 
 
 
0
 
 
0
0
0
0
0
 
 
 
 
0
0


0
0
#HDR
-1
-1
#GR
nm
%R
1.0
0.0
2500,000000
-1,000000
2251
8
89,800900
5,734500
#DATA
2482.000000	9.261458
2481.000000	9.259572
2480.000000	9.321155
2479.000000	9.343347
2478.000000	9.310281
2477.000000	9.229834
2476.000000	9.296078
2475.000000	9.303068
2474.000000	9.308062
2473.000000	9.328922
2472.000000	9.301182
2471.000000	9.304178
2470.000000	9.316717
2469.000000	9.353223
2468.000000	9.343680
2467.000000	9.335691
2466.000000	9.379742
2465.000000	9.431450
2464.000000	9.418690
2463.000000	9.441991
2462.000000	9.487152
2461.000000	9.541301
2460.000000	9.551954
2459.000000	9.592787
2458.000000	9.664579
2457.000000	9.750019
2456.000000	9.797621
2455.000000	9.845001
2454.000000	9.910135
2453.000000	9.968168
2452.000000	10.050612
2451.000000	10.135830
2450.000000	10.222046
2449.000000	10.252893
2448.000000	10.342994
2447.000000	10.436201
2446.000000	10.517313
2445.000000	10.617067
2444.000000	10.668220
2443.000000	10.756101
2442.000000	10.837879
2441.000000	10.937189
2440.000000	10.984902
2439.000000	11.045154
2438.000000	11.108069
2437.000000	11.191178
2436.000000	11.289046
2435.000000	11.340753
2434.000000	11.411657
2433.000000	11.466250
2432.000000	11.499982
2431.000000	11.563674
2430.000000	11.644675
2429.000000	11.700156
2428.000000	11.734332
2427.000000	11.769617
2426.000000	11.829647
2425.000000	11.936058
2424.000000	12.033482
2423.000000	12.079198
2422.000000	12.137563
2421.000000	12.177398
2420.000000	12.217122
2419.000000	12.264170
2418.000000	12.320427
2417.000000	12.358597
2416.000000	12.388113
2415.000000	12.430722
2414.000000	12.469558
2413.000000	12.520822
2412.000000	12.553999
2411.000000	12.577523
2410.000000	12.626568
2409.000000	12.664073
2408.000000	12.698803
2407.000000	12.726100
2406.000000	12.753507
2405.000000	12.800443
2404.000000	12.845715
2403.000000	12.876008
2402.000000	12.925052
2401.000000	12.947910
2400.000000	12.996511
2399.000000	13.040785
2398.000000	13.084725
2397.000000	13.112354
2396.000000	13.148860
2395.000000	13.192357
2394.000000	13.222538
2393.000000	13.265036
2392.000000	13.313637
2391.000000	13.329838
2390.000000	13.360352
2389.000000	13.378660
2388.000000	13.394972
2387.000000	13.409175
2386.000000	13.426817
2385.000000	13.430146
2384.000000	13.441908
2383.000000	13.455334
2382.000000	13.451895
2381.000000	13.443129
2380.000000	13.447012
2379.000000	13.434252
2378.000000	13.411727
2377.000000	13.400742
2376.000000	13.388869
2375.000000	13.378660
2374.000000	13.349145
2373.000000	13.330947
2372.000000	13.309865
2371.000000	13.274246
2370.000000	13.235854
2369.000000	13.187031
2368.000000	13.160844
2367.000000	13.126335
2366.000000	13.052768
2365.000000	12.976094
2364.000000	12.915732
2363.000000	12.839502
2362.000000	12.755615
2361.000000	12.687041
2360.000000	12.613696
2359.000000	12.541572
2358.000000	12.486868
2357.000000	12.423953
2356.000000	12.363258
2355.000000	12.332078
2354.000000	12.306668
2353.000000	12.297791
2352.000000	12.305891
2351.000000	12.306335
2350.000000	12.324199
2349.000000	12.363591
2348.000000	12.412413
2347.000000	12.462346
2346.000000	12.519601
2345.000000	12.584957
2344.000000	12.640771
2343.000000	12.691702
2342.000000	12.759721
2341.000000	12.813537
2340.000000	12.856590
2339.000000	12.885772
2338.000000	12.897867
2337.000000	12.903526
2336.000000	12.933264
2335.000000	12.928714
2334.000000	12.907743
2333.000000	12.858698
2332.000000	12.819973
2331.000000	12.778473
2330.000000	12.737529
2329.000000	12.651756
2328.000000	12.569534
2327.000000	12.508173
2326.000000	12.427726
2325.000000	12.332743
2324.000000	12.240868
2323.000000	12.134567
2322.000000	12.040029
2321.000000	11.931287
2320.000000	11.795804
2319.000000	11.667200
2318.000000	11.534824
2317.000000	11.401560
2316.000000	11.276396
2315.000000	11.164770
2314.000000	11.019744
2313.000000	10.916772
2312.000000	10.814688
2311.000000	10.710829
2310.000000	10.610409
2309.000000	10.544498
2308.000000	10.512431
2307.000000	10.484136
2306.000000	10.480585
2305.000000	10.486577
2304.000000	10.551378
2303.000000	10.598869
2302.000000	10.684309
2301.000000	10.769638
2300.000000	10.863733
2299.000000	10.964929
2298.000000	11.064017
2297.000000	11.165546
2296.000000	11.294816
2295.000000	11.390353
2294.000000	11.483338
2293.000000	11.565893
2292.000000	11.631804
2291.000000	11.674524
2290.000000	11.708700
2289.000000	11.744429
2288.000000	11.734443
2287.000000	11.735774
2286.000000	11.713582
2285.000000	11.678074
2284.000000	11.639349
2283.000000	11.588751
2282.000000	11.527612
2281.000000	11.481008
2280.000000	11.421311
2279.000000	11.364055
2278.000000	11.309795
2277.000000	11.259752
2276.000000	11.207600
2275.000000	11.167211
2274.000000	11.140691
2273.000000	11.132369
2272.000000	11.116613
2271.000000	11.129928
2270.000000	11.177308
2269.000000	11.205936
2268.000000	11.274621
2267.000000	11.347522
2266.000000	11.460591
2265.000000	11.582093
2264.000000	11.748756
2263.000000	11.962356
2262.000000	12.184278
2261.000000	12.419848
2260.000000	12.652644
2259.000000	12.930046
2258.000000	13.253829
2257.000000	13.544436
2256.000000	13.835597
2255.000000	14.104344
2254.000000	14.412261
2253.000000	14.716959
2252.000000	14.976497
2251.000000	15.243690
2250.000000	15.510662
2249.000000	15.760324
2248.000000	15.972481
2247.000000	16.170102
2246.000000	16.386587
2245.000000	16.555469
2244.000000	16.744436
2243.000000	16.879031
2242.000000	17.027941
2241.000000	17.157654
2240.000000	17.333638
2239.000000	17.418634
2238.000000	17.532591
2237.000000	17.660196
2236.000000	17.727549
2235.000000	17.841395
2234.000000	17.913630
2233.000000	17.965338
2232.000000	18.039349
2231.000000	18.078629
2230.000000	18.126342
2229.000000	18.183709
2228.000000	18.213557
2227.000000	18.234418
2226.000000	18.256166
2225.000000	18.225319
2224.000000	18.239522
2223.000000	18.258718
2222.000000	18.234862
2221.000000	18.217885
2220.000000	18.210118
2219.000000	18.187149
2218.000000	18.172502
2217.000000	18.139214
2216.000000	18.142764
2215.000000	18.103151
2214.000000	18.078407
2213.000000	18.043565
2212.000000	18.017379
2211.000000	17.988751
2210.000000	17.978098
2209.000000	17.942591
2208.000000	17.951579
2207.000000	17.932605
2206.000000	17.905308
2205.000000	17.872353
2204.000000	17.880675
2203.000000	17.868469
2202.000000	17.846721
2201.000000	17.832407
2200.000000	17.809993
2199.000000	17.789132
2198.000000	17.785914
2197.000000	17.799673
2196.000000	17.786136
2195.000000	17.785027
2194.000000	17.768937
2193.000000	17.756288
2192.000000	17.743194
2191.000000	17.728991
2190.000000	17.731322
2189.000000	17.711903
2188.000000	17.709573
2187.000000	17.671292
2186.000000	17.649211
2185.000000	17.659752
2184.000000	17.619029
2183.000000	17.611817
2182.000000	17.595173
2181.000000	17.597392
2180.000000	17.583633
2179.000000	17.547127
2178.000000	17.555892
2177.000000	17.547792
2176.000000	17.530815
2175.000000	17.536030
2174.000000	17.537140
2173.000000	17.520163
2172.000000	17.528596
2171.000000	17.552009
2170.000000	17.557779
2169.000000	17.570872
2168.000000	17.571538
2167.000000	17.601608
2166.000000	17.628794
2165.000000	17.640777
2164.000000	17.648545
2163.000000	17.681278
2162.000000	17.695037
2161.000000	17.744526
2160.000000	17.763944
2159.000000	17.793571
2158.000000	17.817094
2157.000000	17.855487
2156.000000	17.898651
2155.000000	17.938374
2154.000000	17.970664
2153.000000	18.002843
2152.000000	18.051887
2151.000000	18.099933
2150.000000	18.145982
2149.000000	18.180824
2148.000000	18.206567
2147.000000	18.250064
2146.000000	18.289233
2145.000000	18.301993
2144.000000	18.338832
2143.000000	18.362356
2142.000000	18.408516
2141.000000	18.431928
2140.000000	18.462443
2139.000000	18.483636
2138.000000	18.517812
2137.000000	18.533014
2136.000000	18.547993
2135.000000	18.585942
2134.000000	18.573958
2133.000000	18.578064
2132.000000	18.601920
2131.000000	18.619785
2130.000000	18.608689
2129.000000	18.603696
2128.000000	18.595928
2127.000000	18.600589
2126.000000	18.591268
2125.000000	18.564305
2124.000000	18.524581
2123.000000	18.502832
2122.000000	18.509601
2121.000000	18.474759
2120.000000	18.433260
2119.000000	18.411290
2118.000000	18.388543
2117.000000	18.347598
2116.000000	18.312756
2115.000000	18.292229
2114.000000	18.255833
2113.000000	18.198023
2112.000000	18.167620
2111.000000	18.132889
2110.000000	18.094718
2109.000000	18.060099
2108.000000	18.012607
2107.000000	17.980872
2106.000000	17.951024
2105.000000	17.899427
2104.000000	17.866361
2103.000000	17.838843
2102.000000	17.792461
2101.000000	17.744082
2100.000000	17.709684
2099.000000	17.675508
2098.000000	17.648212
2097.000000	17.613370
2096.000000	17.573424
2095.000000	17.543687
2094.000000	17.504518
2093.000000	17.473559
2092.000000	17.446152
2091.000000	17.412975
2090.000000	17.392003
2089.000000	17.367370
2088.000000	17.335968
2087.000000	17.315329
2086.000000	17.292028
2085.000000	17.261180
2084.000000	17.227115
2083.000000	17.188612
2082.000000	17.155768
2081.000000	17.132577
2080.000000	17.102285
2079.000000	17.066333
2078.000000	17.022393
2077.000000	16.982891
2076.000000	16.962141
2075.000000	16.920642
2074.000000	16.880141
2073.000000	16.850070
2072.000000	16.817448
2071.000000	16.774617
2070.000000	16.755421
2069.000000	16.721689
2068.000000	16.691064
2067.000000	16.656999
2066.000000	16.607732
2065.000000	16.588425
2064.000000	16.562238
2063.000000	16.539269
2062.000000	16.517521
2061.000000	16.507423
2060.000000	16.492000
2059.000000	16.490779
2058.000000	16.495107
2057.000000	16.504982
2056.000000	16.533721
2055.000000	16.558243
2054.000000	16.587426
2053.000000	16.650563
2052.000000	16.717916
2051.000000	16.787267
2050.000000	16.871819
2049.000000	16.962363
2048.000000	17.063670
2047.000000	17.162758
2046.000000	17.273608
2045.000000	17.403210
2044.000000	17.512174
2043.000000	17.648767
2042.000000	17.766940
2041.000000	17.887665
2040.000000	18.002843
2039.000000	18.118464
2038.000000	18.229869
2037.000000	18.328291
2036.000000	18.438142
2035.000000	18.522805
2034.000000	18.623447
2033.000000	18.707000
2032.000000	18.788113
2031.000000	18.862567
2030.000000	18.943791
2029.000000	19.010478
2028.000000	19.089371
2027.000000	19.155948
2026.000000	19.208099
2025.000000	19.224855
2024.000000	19.299198
2023.000000	19.349686
2022.000000	19.395069
2021.000000	19.442449
2020.000000	19.486500
2019.000000	19.509469
2018.000000	19.545642
2017.000000	19.583702
2016.000000	19.599015
2015.000000	19.620985
2014.000000	19.630305
2013.000000	19.630527
2012.000000	19.640625
2011.000000	19.640847
2010.000000	19.642511
2009.000000	19.628308
2008.000000	19.613883
2007.000000	19.609556
2006.000000	19.560289
2005.000000	19.566614
2004.000000	19.504698
2003.000000	19.498151
2002.000000	19.428246
2001.000000	19.390408
2000.000000	19.364776
1999.000000	19.284108
1998.000000	19.260473
1997.000000	19.186573
1996.000000	19.129317
1995.000000	19.050202
1994.000000	18.981517
1993.000000	18.917160
1992.000000	18.832386
1991.000000	18.775130
1990.000000	18.679482
1989.000000	18.593376
1988.000000	18.526578
1987.000000	18.451679
1986.000000	18.339276
1985.000000	18.239966
1984.000000	18.161961
1983.000000	18.081070
1982.000000	17.986531
1981.000000	17.895544
1980.000000	17.800450
1979.000000	17.704469
1978.000000	17.612815
1977.000000	17.528485
1976.000000	17.426068
1975.000000	17.341294
1974.000000	17.239987
1973.000000	17.166642
1972.000000	17.083754
1971.000000	16.997094
1970.000000	16.902888
1969.000000	16.787932
1968.000000	16.745102
1967.000000	16.659329
1966.000000	16.596636
1965.000000	16.486119
1964.000000	16.422316
1963.000000	16.337764
1962.000000	16.257761
1961.000000	16.188522
1960.000000	16.094538
1959.000000	16.041943
1958.000000	15.941634
1957.000000	15.855085
1956.000000	15.782072
1955.000000	15.727147
1954.000000	15.671999
1953.000000	15.586670
1952.000000	15.519317
1951.000000	15.427885
1950.000000	15.373625
1949.000000	15.348992
1948.000000	15.289850
1947.000000	15.241249
1946.000000	15.182551
1945.000000	15.129290
1944.000000	15.090786
1943.000000	15.070480
1942.000000	15.048954
1941.000000	15.032865
1940.000000	15.032532
1939.000000	15.033974
1938.000000	15.044959
1937.000000	15.038524
1936.000000	15.037747
1935.000000	15.099108
1934.000000	15.143715
1933.000000	15.181774
1932.000000	15.239696
1931.000000	15.311709
1930.000000	15.385831
1929.000000	15.476264
1928.000000	15.563701
1927.000000	15.664676
1926.000000	15.780963
1925.000000	15.919220
1924.000000	16.051818
1923.000000	16.188189
1922.000000	16.353854
1921.000000	16.540712
1920.000000	16.723797
1919.000000	16.880141
1918.000000	17.092409
1917.000000	17.271722
1916.000000	17.487873
1915.000000	17.718561
1914.000000	17.977322
1913.000000	18.221879
1912.000000	18.449571
1911.000000	18.705780
1910.000000	18.968757
1909.000000	19.212982
1908.000000	19.497485
1907.000000	19.804403
1906.000000	20.143277
1905.000000	20.453635
1904.000000	20.762217
1903.000000	21.070910
1902.000000	21.410783
1901.000000	21.755095
1900.000000	22.124372
1899.000000	22.483109
1898.000000	22.849834
1897.000000	23.251957
1896.000000	23.630444
1895.000000	23.999056
1894.000000	24.394964
1893.000000	24.804299
1892.000000	25.267671
1891.000000	25.716286
1890.000000	26.153805
1889.000000	26.603640
1888.000000	27.085987
1887.000000	27.569998
1886.000000	28.094510
1885.000000	28.689371
1884.000000	29.310974
1883.000000	29.945337
1882.000000	30.552848
1881.000000	31.192093
1880.000000	31.811033
1879.000000	32.407336
1878.000000	32.983556
1877.000000	33.550122
1876.000000	34.048558
1875.000000	34.525246
1874.000000	34.964873
1873.000000	35.375428
1872.000000	35.743707
1871.000000	36.057726
1870.000000	36.311605
1869.000000	36.577578
1868.000000	36.778861
1867.000000	36.937424
1866.000000	37.081340
1865.000000	37.216823
1864.000000	37.342209
1863.000000	37.474474
1862.000000	37.609846
1861.000000	37.704274
1860.000000	37.767300
1859.000000	37.794707
1858.000000	37.824112
1857.000000	37.842864
1856.000000	37.855070
1855.000000	37.857178
1854.000000	37.813571
1853.000000	37.736342
1852.000000	37.702388
1851.000000	37.711598
1850.000000	37.741668
1849.000000	37.737008
1848.000000	37.618279
1847.000000	37.467373
1846.000000	37.355746
1845.000000	37.321348
1844.000000	37.339990
1843.000000	37.371724
1842.000000	37.356301
1841.000000	37.287505
1840.000000	37.220152
1839.000000	37.169776
1838.000000	37.129275
1837.000000	37.067026
1836.000000	36.961835
1835.000000	36.841443
1834.000000	36.761440
1833.000000	36.702298
1832.000000	36.644931
1831.000000	36.573694
1830.000000	36.466506
1829.000000	36.367085
1828.000000	36.253905
1827.000000	36.149158
1826.000000	36.051956
1825.000000	35.970067
1824.000000	35.941550
1823.000000	35.978056
1822.000000	35.996587
1821.000000	35.943104
1820.000000	35.849785
1819.000000	35.783986
1818.000000	35.763902
1817.000000	35.769339
1816.000000	35.766343
1815.000000	35.746259
1814.000000	35.752473
1813.000000	35.749477
1812.000000	35.721515
1811.000000	35.666256
1810.000000	35.611996
1809.000000	35.580927
1808.000000	35.545087
1807.000000	35.496597
1806.000000	35.415485
1805.000000	35.348021
1804.000000	35.289988
1803.000000	35.251152
1802.000000	35.212870
1801.000000	35.132646
1800.000000	35.048426
1799.000000	34.986732
1798.000000	34.941127
1797.000000	34.905731
1796.000000	34.846810
1795.000000	34.790664
1794.000000	34.730856
1793.000000	34.658732
1792.000000	34.579395
1791.000000	34.508158
1790.000000	34.446575
1789.000000	34.379332
1788.000000	34.302880
1787.000000	34.220547
1786.000000	34.150531
1785.000000	34.054439
1784.000000	33.965005
1783.000000	33.870577
1782.000000	33.765386
1781.000000	33.657754
1780.000000	33.566988
1779.000000	33.454252
1778.000000	33.327756
1777.000000	33.220901
1776.000000	33.101729
1775.000000	32.944941
1774.000000	32.792592
1773.000000	32.622822
1772.000000	32.453829
1771.000000	32.305030
1770.000000	32.143027
1769.000000	31.973590
1768.000000	31.826345
1767.000000	31.709392
1766.000000	31.613189
1765.000000	31.516875
1764.000000	31.460507
1763.000000	31.456180
1762.000000	31.466832
1761.000000	31.501119
1760.000000	31.575130
1759.000000	31.653579
1758.000000	31.723041
1757.000000	31.815915
1756.000000	31.874280
1755.000000	31.900134
1754.000000	31.919996
1753.000000	31.909344
1752.000000	31.887374
1751.000000	31.841547
1750.000000	31.779187
1749.000000	31.688976
1748.000000	31.581455
1747.000000	31.462172
1746.000000	31.310932
1745.000000	31.128180
1744.000000	30.927451
1743.000000	30.691660
1742.000000	30.435562
1741.000000	30.142847
1740.000000	29.849689
1739.000000	29.586157
1738.000000	29.314635
1737.000000	29.080064
1736.000000	28.936814
1735.000000	28.838391
1734.000000	28.802995
1733.000000	28.811650
1732.000000	28.876562
1731.000000	28.989631
1730.000000	29.141426
1729.000000	29.289780
1728.000000	29.446013
1727.000000	29.591483
1726.000000	29.712763
1725.000000	29.799645
1724.000000	29.873989
1723.000000	29.912825
1722.000000	29.958430
1721.000000	29.974631
1720.000000	30.000706
1719.000000	30.037434
1718.000000	30.087700
1717.000000	30.136300
1716.000000	30.202211
1715.000000	30.252255
1714.000000	30.335919
1713.000000	30.429237
1712.000000	30.466631
1711.000000	30.501140
1710.000000	30.523887
1709.000000	30.532764
1708.000000	30.511126
1707.000000	30.480168
1706.000000	30.446214
1705.000000	30.372758
1704.000000	30.279551
1703.000000	30.168590
1702.000000	30.018571
1701.000000	29.847358
1700.000000	29.633315
1699.000000	29.437358
1698.000000	29.263704
1697.000000	29.117680
1696.000000	29.052990
1695.000000	29.058982
1694.000000	29.149526
1693.000000	29.318519
1692.000000	29.525239
1691.000000	29.741058
1690.000000	29.952660
1689.000000	30.097797
1688.000000	30.174582
1687.000000	30.212974
1686.000000	30.222184
1685.000000	30.279440
1684.000000	30.430236
1683.000000	30.708193
1682.000000	31.157584
1681.000000	31.756773
1680.000000	32.429195
1679.000000	33.113380
1678.000000	33.824861
1677.000000	34.447351
1676.000000	35.028342
1675.000000	35.497152
1674.000000	35.950205
1673.000000	36.315821
1672.000000	36.612863
1671.000000	36.912790
1670.000000	37.158569
1669.000000	37.365844
1668.000000	37.541384
1667.000000	37.706160
1666.000000	37.820450
1665.000000	37.945503
1664.000000	38.047143
1663.000000	38.142569
1662.000000	38.230229
1661.000000	38.275612
1660.000000	38.330537
1659.000000	38.377141
1658.000000	38.403217
1657.000000	38.437503
1656.000000	38.448378
1655.000000	38.441498
1654.000000	38.422635
1653.000000	38.406656
1652.000000	38.400332
1651.000000	38.370150
1650.000000	38.332645
1649.000000	38.300023
1648.000000	38.232115
1647.000000	38.159657
1646.000000	38.109392
1645.000000	38.024507
1644.000000	37.946391
1643.000000	37.883920
1642.000000	37.812683
1641.000000	37.729351
1640.000000	37.639140
1639.000000	37.557917
1638.000000	37.476361
1637.000000	37.388369
1636.000000	37.292387
1635.000000	37.205616
1634.000000	37.111188
1633.000000	37.019979
1632.000000	36.918671
1631.000000	36.804271
1630.000000	36.691313
1629.000000	36.580574
1628.000000	36.468947
1627.000000	36.360316
1626.000000	36.265556
1625.000000	36.142611
1624.000000	36.037198
1623.000000	35.931675
1622.000000	35.822933
1621.000000	35.722402
1620.000000	35.614105
1619.000000	35.517458
1618.000000	35.415263
1617.000000	35.304080
1616.000000	35.220194
1615.000000	35.110231
1614.000000	35.011032
1613.000000	34.922153
1612.000000	34.819958
1611.000000	34.716099
1610.000000	34.636762
1609.000000	34.526023
1608.000000	34.437920
1607.000000	34.353035
1606.000000	34.259938
1605.000000	34.169283
1604.000000	34.074634
1603.000000	33.985421
1602.000000	33.897984
1601.000000	33.798896
1600.000000	33.716785
1599.000000	33.627240
1598.000000	33.545018
1597.000000	33.470896
1596.000000	33.389451
1595.000000	33.302901
1594.000000	33.237101
1593.000000	33.175407
1592.000000	33.112714
1591.000000	33.055680
1590.000000	32.993875
1589.000000	32.935954
1588.000000	32.878809
1587.000000	32.837753
1586.000000	32.797142
1585.000000	32.750094
1584.000000	32.707374
1583.000000	32.668205
1582.000000	32.636137
1581.000000	32.612170
1580.000000	32.589423
1579.000000	32.568562
1578.000000	32.543929
1577.000000	32.538159
1576.000000	32.539269
1575.000000	32.535829
1574.000000	32.541155
1573.000000	32.537715
1572.000000	32.532278
1571.000000	32.551141
1570.000000	32.580324
1569.000000	32.609618
1568.000000	32.633585
1567.000000	32.659439
1566.000000	32.679967
1565.000000	32.704711
1564.000000	32.722576
1563.000000	32.745323
1562.000000	32.778167
1561.000000	32.796032
1560.000000	32.805464
1559.000000	32.814341
1558.000000	32.821886
1557.000000	32.827545
1556.000000	32.835201
1555.000000	32.835756
1554.000000	32.833315
1553.000000	32.816671
1552.000000	32.802801
1551.000000	32.791483
1550.000000	32.776392
1549.000000	32.749539
1548.000000	32.717361
1547.000000	32.704711
1546.000000	32.686181
1545.000000	32.673642
1544.000000	32.664765
1543.000000	32.659550
1542.000000	32.641796
1541.000000	32.624154
1540.000000	32.622156
1539.000000	32.591753
1538.000000	32.566676
1537.000000	32.567897
1536.000000	32.559796
1535.000000	32.530170
1534.000000	32.505758
1533.000000	32.491334
1532.000000	32.468587
1531.000000	32.428641
1530.000000	32.392135
1529.000000	32.372051
1528.000000	32.328887
1527.000000	32.280730
1526.000000	32.250327
1525.000000	32.216483
1524.000000	32.170768
1523.000000	32.130711
1522.000000	32.083220
1521.000000	32.044605
1520.000000	32.002662
1519.000000	31.953506
1518.000000	31.914781
1517.000000	31.868510
1516.000000	31.794388
1515.000000	31.745899
1514.000000	31.694635
1513.000000	31.640153
1512.000000	31.593105
1511.000000	31.553381
1510.000000	31.494572
1509.000000	31.442975
1508.000000	31.389936
1507.000000	31.325801
1506.000000	31.293955
1505.000000	31.259002
1504.000000	31.193646
1503.000000	31.154588
1502.000000	31.100106
1501.000000	31.055611
1500.000000	31.003903
1499.000000	30.973278
1498.000000	30.944761
1497.000000	30.907589
1496.000000	30.874412
1495.000000	30.863205
1494.000000	30.836131
1493.000000	30.825034
1492.000000	30.793633
1491.000000	30.781982
1490.000000	30.776101
1489.000000	30.760344
1488.000000	30.754463
1487.000000	30.748028
1486.000000	30.736377
1485.000000	30.734158
1484.000000	30.738152
1483.000000	30.754020
1482.000000	30.761454
1481.000000	30.768333
1480.000000	30.775768
1479.000000	30.778320
1478.000000	30.821595
1477.000000	30.843565
1476.000000	30.859099
1475.000000	30.904926
1474.000000	30.935884
1473.000000	30.984707
1472.000000	31.002905
1471.000000	31.029091
1470.000000	31.065487
1469.000000	31.082464
1468.000000	31.125184
1467.000000	31.182550
1466.000000	31.199305
1465.000000	31.263774
1464.000000	31.317257
1463.000000	31.386274
1462.000000	31.463836
1461.000000	31.558708
1460.000000	31.633606
1459.000000	31.729587
1458.000000	31.823793
1457.000000	31.939081
1456.000000	32.090321
1455.000000	32.186857
1454.000000	32.298262
1453.000000	32.446394
1452.000000	32.598966
1451.000000	32.751981
1450.000000	32.861166
1449.000000	32.977009
1448.000000	33.147334
1447.000000	33.333637
1446.000000	33.505183
1445.000000	33.653537
1444.000000	33.775151
1443.000000	33.974214
1442.000000	34.147535
1441.000000	34.288566
1440.000000	34.475979
1439.000000	34.631879
1438.000000	34.815852
1437.000000	34.974748
1436.000000	35.093476
1435.000000	35.322832
1434.000000	35.495820
1433.000000	35.700765
1432.000000	35.872532
1431.000000	36.070709
1430.000000	36.233932
1429.000000	36.522874
1428.000000	36.730593
1427.000000	36.976482
1426.000000	37.258101
1425.000000	37.548485
1424.000000	37.862060
1423.000000	38.130586
1422.000000	38.403217
1421.000000	38.740538
1420.000000	39.066319
1419.000000	39.362251
1418.000000	39.620457
1417.000000	39.865791
1416.000000	40.222753
1415.000000	40.595581
1414.000000	40.893511
1413.000000	41.151495
1412.000000	41.415138
1411.000000	41.822919
1410.000000	42.253780
1409.000000	42.670549
1408.000000	43.119829
1407.000000	43.593521
1406.000000	44.063440
1405.000000	44.555552
1404.000000	44.994513
1403.000000	45.489953
1402.000000	46.000040
1401.000000	46.565829
1400.000000	46.965399
1399.000000	47.247462
1398.000000	47.560593
1397.000000	47.951065
1396.000000	48.320897
1395.000000	48.545593
1394.000000	48.740884
1393.000000	48.993875
1392.000000	49.259182
1391.000000	49.501853
1390.000000	49.799783
1389.000000	50.206344
1388.000000	50.593486
1387.000000	51.000491
1386.000000	51.434348
1385.000000	51.998583
1384.000000	52.506562
1383.000000	52.954955
1382.000000	53.327118
1381.000000	53.588430
1380.000000	53.705494
1379.000000	53.829659
1378.000000	53.922977
1377.000000	54.060791
1376.000000	54.251422
1375.000000	54.496534
1374.000000	54.843841
1373.000000	55.281138
1372.000000	55.684925
1371.000000	56.098476
1370.000000	56.488614
1369.000000	56.848904
1368.000000	57.207751
1367.000000	57.500688
1366.000000	57.738477
1365.000000	57.984699
1364.000000	58.200851
1363.000000	58.429430
1362.000000	58.641366
1361.000000	58.730356
1360.000000	58.775961
1359.000000	58.857406
1358.000000	58.995442
1357.000000	59.225463
1356.000000	59.585531
1355.000000	60.071318
1354.000000	60.638328
1353.000000	61.170718
1352.000000	61.834264
1351.000000	62.430124
1350.000000	62.952860
1349.000000	63.452850
1348.000000	63.877941
1347.000000	64.267968
1346.000000	64.654778
1345.000000	65.046691
1344.000000	65.382459
1343.000000	65.704467
1342.000000	66.013382
1341.000000	66.331507
1340.000000	66.611905
1339.000000	66.876991
1338.000000	67.137749
1337.000000	67.389741
1336.000000	67.615213
1335.000000	67.834139
1334.000000	68.046740
1333.000000	68.246913
1332.000000	68.430442
1331.000000	68.614083
1330.000000	68.780524
1329.000000	68.933983
1328.000000	69.081006
1327.000000	69.227807
1326.000000	69.351639
1325.000000	69.475472
1324.000000	69.587986
1323.000000	69.687296
1322.000000	69.788159
1321.000000	69.896013
1320.000000	70.006530
1319.000000	70.100292
1318.000000	70.170531
1317.000000	70.250311
1316.000000	70.337638
1315.000000	70.420081
1314.000000	70.484106
1313.000000	70.545023
1312.000000	70.612377
1311.000000	70.676956
1310.000000	70.724225
1309.000000	70.763727
1308.000000	70.805116
1307.000000	70.838293
1306.000000	70.857600
1305.000000	70.870361
1304.000000	70.889002
1303.000000	70.904426
1302.000000	70.912304
1301.000000	70.905091
1300.000000	70.894883
1299.000000	70.898323
1298.000000	70.904426
1297.000000	70.893219
1296.000000	70.869806
1295.000000	70.849056
1294.000000	70.834409
1293.000000	70.811773
1292.000000	70.790136
1291.000000	70.768499
1290.000000	70.734766
1289.000000	70.693045
1288.000000	70.635124
1287.000000	70.576980
1286.000000	70.519835
1285.000000	70.444937
1284.000000	70.387459
1283.000000	70.323324
1282.000000	70.245207
1281.000000	70.180073
1280.000000	70.114273
1279.000000	70.060346
1278.000000	69.999762
1277.000000	69.944392
1276.000000	69.905334
1275.000000	69.858509
1274.000000	69.812127
1273.000000	69.768519
1272.000000	69.728906
1271.000000	69.709821
1270.000000	69.678530
1269.000000	69.627821
1268.000000	69.580219
1267.000000	69.549150
1266.000000	69.521077
1265.000000	69.463155
1264.000000	69.414776
1263.000000	69.372500
1262.000000	69.323344
1261.000000	69.274855
1260.000000	69.219263
1259.000000	69.165780
1258.000000	69.121840
1257.000000	69.062475
1256.000000	68.980808
1255.000000	68.913344
1254.000000	68.841109
1253.000000	68.756889
1252.000000	68.687761
1251.000000	68.600878
1250.000000	68.498572
1249.000000	68.378180
1248.000000	68.273544
1247.000000	68.152707
1246.000000	67.999582
1245.000000	67.863987
1244.000000	67.726951
1243.000000	67.561841
1242.000000	67.397175
1241.000000	67.229957
1240.000000	67.069397
1239.000000	66.894966
1238.000000	66.723643
1237.000000	66.548879
1236.000000	66.373339
1235.000000	66.190698
1234.000000	66.002175
1233.000000	65.814097
1232.000000	65.618362
1231.000000	65.422183
1230.000000	65.226004
1229.000000	65.033265
1228.000000	64.841081
1227.000000	64.641351
1226.000000	64.441511
1225.000000	64.250658
1224.000000	64.047822
1223.000000	63.853086
1222.000000	63.662677
1221.000000	63.483808
1220.000000	63.309045
1219.000000	63.148817
1218.000000	62.983929
1217.000000	62.833355
1216.000000	62.685777
1215.000000	62.552846
1214.000000	62.438113
1213.000000	62.308622
1212.000000	62.169699
1211.000000	62.053744
1210.000000	61.947777
1209.000000	61.845027
1208.000000	61.745162
1207.000000	61.658280
1206.000000	61.587820
1205.000000	61.535779
1204.000000	61.488732
1203.000000	61.455000
1202.000000	61.428924
1201.000000	61.362569
1200.000000	61.262039
1199.000000	61.178707
1198.000000	61.050769
1197.000000	60.860139
1196.000000	60.630783
1195.000000	60.320980
1194.000000	59.952812
1193.000000	59.510855
1192.000000	59.014305
1191.000000	58.494453
1190.000000	58.015435
1189.000000	57.601330
1188.000000	57.320266
1187.000000	57.167584
1186.000000	57.164477
1185.000000	57.275438
1184.000000	57.528761
1183.000000	57.959733
1182.000000	58.430318
1181.000000	58.956605
1180.000000	59.473350
1179.000000	59.983326
1178.000000	60.408084
1177.000000	60.776030
1176.000000	61.127110
1175.000000	61.423265
1174.000000	61.718532
1173.000000	62.049306
1172.000000	62.397168
1171.000000	62.728941
1170.000000	63.107540
1169.000000	63.453959
1168.000000	63.790393
1167.000000	64.169546
1166.000000	64.520515
1165.000000	64.887574
1164.000000	65.251636
1163.000000	65.654646
1162.000000	66.002064
1161.000000	66.371009
1160.000000	66.700230
1159.000000	67.012363
1158.000000	67.333595
1157.000000	67.593909
1156.000000	67.810393
1155.000000	67.974171
1154.000000	68.112318
1153.000000	68.157035
1152.000000	68.174789
1151.000000	68.190434
1150.000000	68.168131
1149.000000	68.166245
1148.000000	68.179782
1147.000000	68.245693
1146.000000	68.372521
1145.000000	68.556827
1144.000000	68.770205
1143.000000	69.060034
1142.000000	69.361404
1141.000000	69.691291
1140.000000	69.975572
1139.000000	70.314003
1138.000000	70.639451
1137.000000	71.014832
1136.000000	71.385552
1135.000000	71.714662
1134.000000	71.967320
1133.000000	72.180919
1132.000000	72.420817
1131.000000	72.638522
1130.000000	72.849014
1129.000000	72.982278
1128.000000	73.103004
1127.000000	73.170690
1126.000000	73.251026
1125.000000	73.322041
1124.000000	73.377521
1123.000000	73.399713
1122.000000	73.425123
1121.000000	73.424901
1120.000000	73.415470
1119.000000	73.441767
1118.000000	73.422793
1117.000000	73.401045
1116.000000	73.350003
1115.000000	73.320154
1114.000000	73.292303
1113.000000	73.254465
1112.000000	73.213632
1111.000000	73.164698
1110.000000	73.162590
1109.000000	73.119759
1108.000000	73.097789
1107.000000	73.064278
1106.000000	73.031878
1105.000000	72.995594
1104.000000	72.952208
1103.000000	72.916811
1102.000000	72.880749
1101.000000	72.843023
1100.000000	72.801967
1099.000000	72.762687
1098.000000	72.732506
1097.000000	72.663599
1096.000000	72.605899
1095.000000	72.557409
1094.000000	72.513802
1093.000000	72.448002
1092.000000	72.379317
1091.000000	72.324281
1090.000000	72.251601
1089.000000	72.187466
1088.000000	72.137533
1087.000000	72.066629
1086.000000	71.981412
1085.000000	71.917498
1084.000000	71.854805
1083.000000	71.789116
1082.000000	71.710556
1081.000000	71.638875
1080.000000	71.572521
1079.000000	71.500285
1078.000000	71.415733
1077.000000	71.352042
1076.000000	71.277920
1075.000000	71.211676
1074.000000	71.133116
1073.000000	71.075083
1072.000000	71.001405
1071.000000	70.927949
1070.000000	70.867698
1069.000000	70.787029
1068.000000	70.710244
1067.000000	70.638230
1066.000000	70.564885
1065.000000	70.490985
1064.000000	70.422855
1063.000000	70.350620
1062.000000	70.267510
1061.000000	70.195164
1060.000000	70.129253
1059.000000	70.039486
1058.000000	69.964365
1057.000000	69.891242
1056.000000	69.813680
1055.000000	69.745772
1054.000000	69.668766
1053.000000	69.587209
1052.000000	69.532062
1051.000000	69.455832
1050.000000	69.379269
1049.000000	69.321569
1048.000000	69.268308
1047.000000	69.200844
1046.000000	69.135266
1045.000000	69.082559
1044.000000	69.019534
1043.000000	68.949406
1042.000000	68.897810
1041.000000	68.842662
1040.000000	68.788069
1039.000000	68.743685
1038.000000	68.676443
1037.000000	68.605317
1036.000000	68.553831
1035.000000	68.485257
1034.000000	68.413355
1033.000000	68.362756
1032.000000	68.307165
1031.000000	68.244916
1030.000000	68.189657
1029.000000	68.141833
1028.000000	68.080916
1027.000000	68.020553
1026.000000	67.965295
1025.000000	67.906042
1024.000000	67.855332
1023.000000	67.808285
1022.000000	67.764899
1021.000000	67.711971
1020.000000	67.662150
1019.000000	67.630082
1018.000000	67.606225
1017.000000	67.586363
1016.000000	67.561286
1015.000000	67.527332
1014.000000	67.512020
1013.000000	67.508358
1012.000000	67.505140
1011.000000	67.518344
1010.000000	67.524003
1009.000000	67.533657
1008.000000	67.554961
1007.000000	67.571495
1006.000000	67.588472
1005.000000	67.592799
1004.000000	67.614880
1003.000000	67.653828
1002.000000	67.662150
1001.000000	67.678794
1000.000000	67.706534
999.000000	67.736382
998.000000	67.770558
997.000000	67.796967
996.000000	67.836469
995.000000	67.880853
994.000000	67.913032
993.000000	67.953755
992.000000	68.008236
991.000000	68.070153
990.000000	68.120529
989.000000	68.159587
988.000000	68.204193
987.000000	68.269438
986.000000	68.342007
985.000000	68.385614
984.000000	68.463287
983.000000	68.533192
982.000000	68.609533
981.000000	68.650922
980.000000	68.716389
979.000000	68.781079
978.000000	68.855977
977.000000	68.910903
976.000000	68.963055
975.000000	69.033626
974.000000	69.105750
973.000000	69.180982
972.000000	69.227918
971.000000	69.293496
970.000000	69.329891
969.000000	69.397577
968.000000	69.457496
967.000000	69.512977
966.000000	69.589983
965.000000	69.645242
964.000000	69.723358
963.000000	69.795705
962.000000	69.883808
961.000000	69.964476
960.000000	70.046254
959.000000	70.146230
958.000000	70.237440
957.000000	70.322769
956.000000	70.443272
955.000000	70.550793
954.000000	70.648106
953.000000	70.765946
952.000000	70.876907
951.000000	70.977882
950.000000	71.101270
949.000000	71.220553
948.000000	71.340835
947.000000	71.424832
946.000000	71.522034
945.000000	71.637988
944.000000	71.737409
943.000000	71.829617
942.000000	71.954670
941.000000	72.017918
940.000000	72.100583
939.000000	72.172153
938.000000	72.281894
937.000000	72.339704
936.000000	72.410497
935.000000	72.492830
934.000000	72.564178
933.000000	72.641296
932.000000	72.676803
931.000000	72.719079
930.000000	72.794422
929.000000	72.848127
928.000000	72.918809
927.000000	72.976730
926.000000	73.074931
925.000000	73.125640
924.000000	73.202536
923.000000	73.283981
922.000000	73.368311
921.000000	73.493031
920.000000	73.549399
919.000000	73.623410
918.000000	73.755010
917.000000	73.856095
916.000000	73.951632
915.000000	74.064258
914.000000	74.171224
913.000000	74.288842
912.000000	74.407238
911.000000	74.526631
910.000000	74.658342
909.000000	74.802369
908.000000	74.915549
907.000000	75.024180
906.000000	75.165433
905.000000	75.283384
904.000000	75.430186
903.000000	75.539815
902.000000	75.669750
901.000000	75.776383
900.000000	75.904543
899.000000	75.992091
898.000000	76.103274
897.000000	76.186051
896.000000	76.275485
895.000000	76.385337
894.000000	76.452357
893.000000	76.558657
892.000000	76.613694
891.000000	76.666400
890.000000	76.736750
889.000000	76.819415
888.000000	76.864909
887.000000	76.945356
886.000000	77.020920
885.000000	77.033570
884.000000	77.104696
883.000000	77.157402
882.000000	77.208333
881.000000	77.218985
880.000000	77.280236
879.000000	77.344038
878.000000	77.378880
877.000000	77.386425
876.000000	77.417162
875.000000	77.450561
874.000000	77.442794
873.000000	77.459771
872.000000	77.424374
871.000000	77.433140
870.000000	77.403070
869.000000	77.313302
868.000000	77.272469
867.000000	77.153962
866.000000	77.099924
865.000000	76.932596
864.000000	76.848931
863.000000	76.670284
862.000000	76.495632
861.000000	76.134121
860.000000	75.713247
859.000000	75.284050
858.000000	76.379567
857.000000	76.021900
856.000000	76.511400
855.000000	76.605400
854.000000	77.262900
853.000000	77.592900
852.000000	77.813500
851.000000	78.381700
850.000000	78.730000
849.000000	79.099300
848.000000	79.559200
847.000000	79.909000
846.000000	80.394700
845.000000	80.536600
844.000000	80.992100
843.000000	81.296100
842.000000	81.821100
841.000000	81.682800
840.000000	81.765400
839.000000	82.459000
838.000000	82.909100
837.000000	83.151300
836.000000	83.455900
835.000000	83.698500
834.000000	84.101200
833.000000	84.342100
832.000000	84.518100
831.000000	84.777500
830.000000	85.326800
829.000000	85.434900
828.000000	85.591400
827.000000	86.066600
826.000000	86.263200
825.000000	86.573000
824.000000	86.879700
823.000000	87.057800
822.000000	87.360800
821.000000	87.661500
820.000000	87.943700
819.000000	88.161000
818.000000	88.425800
817.000000	88.529600
816.000000	88.661800
815.000000	88.914600
814.000000	89.209000
813.000000	89.331700
812.000000	89.321100
811.000000	89.367600
810.000000	89.286900
809.000000	89.283000
808.000000	89.127100
807.000000	89.161700
806.000000	89.015300
805.000000	88.890800
804.000000	88.821500
803.000000	88.679400
802.000000	88.401200
801.000000	88.317300
800.000000	88.335000
799.000000	88.290100
798.000000	88.082700
797.000000	87.981000
796.000000	87.964400
795.000000	87.933000
794.000000	87.859000
793.000000	87.830000
792.000000	87.849900
791.000000	87.870700
790.000000	87.977500
789.000000	87.970000
788.000000	87.933500
787.000000	88.007600
786.000000	88.220100
785.000000	88.217500
784.000000	88.258500
783.000000	88.390500
782.000000	88.496700
781.000000	88.629700
780.000000	88.750600
779.000000	88.796600
778.000000	88.902800
777.000000	88.941100
776.000000	88.899000
775.000000	88.931300
774.000000	88.900700
773.000000	88.820800
772.000000	88.748800
771.000000	88.605900
770.000000	88.466000
769.000000	88.316600
768.000000	88.134300
767.000000	87.945300
766.000000	87.777000
765.000000	87.630800
764.000000	87.508100
763.000000	87.379500
762.000000	87.243100
761.000000	86.986500
760.000000	86.730300
759.000000	86.618700
758.000000	86.518400
757.000000	86.327300
756.000000	86.146500
755.000000	86.011800
754.000000	85.850500
753.000000	85.636000
752.000000	85.450300
751.000000	85.247300
750.000000	84.948600
749.000000	84.709200
748.000000	84.509600
747.000000	84.237900
746.000000	83.938000
745.000000	83.612200
744.000000	83.302200
743.000000	82.999900
742.000000	82.597800
741.000000	82.171500
740.000000	81.826500
739.000000	81.437300
738.000000	80.920800
737.000000	80.453000
736.000000	79.942300
735.000000	79.414900
734.000000	78.853600
733.000000	78.289300
732.000000	77.749700
731.000000	77.182100
730.000000	76.662200
729.000000	76.159900
728.000000	75.601800
727.000000	75.028600
726.000000	74.514400
725.000000	73.984600
724.000000	73.513500
723.000000	73.016900
722.000000	72.613200
721.000000	72.206800
720.000000	71.799000
719.000000	71.403000
718.000000	71.077700
717.000000	70.813700
716.000000	70.534300
715.000000	70.283000
714.000000	70.089200
713.000000	69.988000
712.000000	69.863200
711.000000	69.735100
710.000000	69.707900
709.000000	69.783500
708.000000	69.870400
707.000000	70.018000
706.000000	70.185100
705.000000	70.445400
704.000000	70.598300
703.000000	70.864700
702.000000	71.117000
701.000000	71.422100
700.000000	71.741900
699.000000	72.032400
698.000000	72.253900
697.000000	72.510900
696.000000	72.795900
695.000000	73.058400
694.000000	73.286000
693.000000	73.512700
692.000000	73.732000
691.000000	73.938100
690.000000	74.161300
689.000000	74.350500
688.000000	74.507500
687.000000	74.627900
686.000000	74.673800
685.000000	74.713600
684.000000	74.741700
683.000000	74.703900
682.000000	74.648100
681.000000	74.543000
680.000000	74.402900
679.000000	74.130500
678.000000	73.880800
677.000000	73.656600
676.000000	73.364200
675.000000	72.997400
674.000000	72.716900
673.000000	72.384100
672.000000	71.990100
671.000000	71.661400
670.000000	71.314100
669.000000	70.811600
668.000000	70.393600
667.000000	70.000700
666.000000	69.543900
665.000000	69.029200
664.000000	68.483000
663.000000	67.925000
662.000000	67.371000
661.000000	66.741900
660.000000	66.119200
659.000000	65.489300
658.000000	64.798600
657.000000	64.141100
656.000000	63.462700
655.000000	62.701800
654.000000	61.950300
653.000000	61.259100
652.000000	60.512900
651.000000	59.796200
650.000000	59.064600
649.000000	58.416600
648.000000	57.778100
647.000000	57.195000
646.000000	56.701000
645.000000	56.194900
644.000000	55.744800
643.000000	55.414000
642.000000	55.168000
641.000000	54.965000
640.000000	54.923500
639.000000	54.915100
638.000000	55.003700
637.000000	55.168400
636.000000	55.519600
635.000000	55.985500
634.000000	56.489800
633.000000	57.118200
632.000000	57.825100
631.000000	58.631200
630.000000	59.466600
629.000000	60.386200
628.000000	61.323500
627.000000	62.239300
626.000000	63.154600
625.000000	64.130100
624.000000	65.105000
623.000000	66.081200
622.000000	67.001500
621.000000	67.959700
620.000000	68.829100
619.000000	69.735200
618.000000	70.549600
617.000000	71.400500
616.000000	72.173400
615.000000	73.017100
614.000000	73.785300
613.000000	74.606600
612.000000	75.307800
611.000000	76.063400
610.000000	76.749300
609.000000	77.469700
608.000000	78.157000
607.000000	78.748600
606.000000	79.316700
605.000000	79.901600
604.000000	80.397600
603.000000	80.875200
602.000000	81.312400
601.000000	81.777500
600.000000	82.200900
599.000000	82.630800
598.000000	82.968000
597.000000	83.369600
596.000000	83.781900
595.000000	84.058100
594.000000	84.495200
593.000000	84.856200
592.000000	85.193400
591.000000	85.586000
590.000000	85.963900
589.000000	86.276300
588.000000	86.575600
587.000000	86.846700
586.000000	87.141400
585.000000	87.422200
584.000000	87.632800
583.000000	87.925600
582.000000	88.128300
581.000000	88.341500
580.000000	88.557900
579.000000	88.748500
578.000000	88.918000
577.000000	89.093400
576.000000	89.257200
575.000000	89.399300
574.000000	89.491000
573.000000	89.621900
572.000000	89.662000
571.000000	89.793000
570.000000	89.800900
569.000000	89.768400
568.000000	89.753000
567.000000	89.736900
566.000000	89.699100
565.000000	89.593100
564.000000	89.498900
563.000000	89.332600
562.000000	89.224900
561.000000	89.118200
560.000000	88.898200
559.000000	88.703300
558.000000	88.570700
557.000000	88.335100
556.000000	88.178100
555.000000	87.896300
554.000000	87.644700
553.000000	87.450000
552.000000	87.120700
551.000000	86.841600
550.000000	86.529700
549.000000	86.152200
548.000000	85.812500
547.000000	85.403900
546.000000	84.947000
545.000000	84.537800
544.000000	84.051300
543.000000	83.481900
542.000000	82.914900
541.000000	82.325800
540.000000	81.692800
539.000000	81.052600
538.000000	80.362400
537.000000	79.648000
536.000000	78.881000
535.000000	78.082000
534.000000	77.225100
533.000000	76.315400
532.000000	75.379900
531.000000	74.338700
530.000000	73.275600
529.000000	72.174700
528.000000	71.019600
527.000000	69.805000
526.000000	68.568100
525.000000	67.276600
524.000000	65.978500
523.000000	64.621500
522.000000	63.247500
521.000000	61.876400
520.000000	60.506300
519.000000	59.134200
518.000000	57.801500
517.000000	56.491200
516.000000	55.195600
515.000000	53.901900
514.000000	52.617000
513.000000	51.352100
512.000000	50.171200
511.000000	49.000900
510.000000	47.845800
509.000000	46.773000
508.000000	45.700400
507.000000	44.673600
506.000000	43.715900
505.000000	42.795700
504.000000	41.862900
503.000000	41.006600
502.000000	40.187600
501.000000	39.368200
500.000000	38.597800
499.000000	37.886600
498.000000	37.169700
497.000000	36.504500
496.000000	35.856000
495.000000	35.242800
494.000000	34.657900
493.000000	34.094600
492.000000	33.582600
491.000000	33.139600
490.000000	32.703000
489.000000	32.316600
488.000000	31.998700
487.000000	31.717400
486.000000	31.463800
485.000000	31.238500
484.000000	31.061900
483.000000	30.925800
482.000000	30.793700
481.000000	30.683900
480.000000	30.590900
479.000000	30.523900
478.000000	30.460300
477.000000	30.361800
476.000000	30.256000
475.000000	30.148300
474.000000	29.999900
473.000000	29.820200
472.000000	29.614800
471.000000	29.385600
470.000000	29.121100
469.000000	28.836200
468.000000	28.507500
467.000000	28.147500
466.000000	27.767600
465.000000	27.369400
464.000000	26.929300
463.000000	26.448800
462.000000	25.974800
461.000000	25.459000
460.000000	24.952900
459.000000	24.465400
458.000000	23.983400
457.000000	23.513600
456.000000	23.060600
455.000000	22.632400
454.000000	22.236300
453.000000	21.871500
452.000000	21.553100
451.000000	21.298000
450.000000	21.082900
449.000000	20.914800
448.000000	20.799300
447.000000	20.744900
446.000000	20.726000
445.000000	20.744200
444.000000	20.802200
443.000000	20.892400
442.000000	21.012000
441.000000	21.121200
440.000000	21.264700
439.000000	21.436100
438.000000	21.579000
437.000000	21.749500
436.000000	21.926100
435.000000	22.076300
434.000000	22.200800
433.000000	22.322300
432.000000	22.425700
431.000000	22.502500
430.000000	22.575600
429.000000	22.613800
428.000000	22.643800
427.000000	22.657100
426.000000	22.629900
425.000000	22.576700
424.000000	22.519800
423.000000	22.452200
422.000000	22.349400
421.000000	22.237800
420.000000	22.116800
419.000000	21.974100
418.000000	21.826000
417.000000	21.649000
416.000000	21.435000
415.000000	21.228900
414.000000	21.023700
413.000000	20.803900
412.000000	20.563000
411.000000	20.291300
410.000000	20.014100
409.000000	19.729600
408.000000	19.423900
407.000000	19.128900
406.000000	18.805100
405.000000	18.463100
404.000000	18.110400
403.000000	17.746000
402.000000	17.372200
401.000000	17.011900
400.000000	16.638700
399.000000	16.234700
398.000000	15.827300
397.000000	15.421700
396.000000	15.019500
395.000000	14.590400
394.000000	14.192800
393.000000	13.810800
392.000000	13.367100
391.000000	12.951600
390.000000	12.549500
389.000000	12.139500
388.000000	11.749900
387.000000	11.392800
386.000000	11.032200
385.000000	10.679200
384.000000	10.340400
383.000000	10.021900
382.000000	9.720100
381.000000	9.429200
380.000000	9.158800
379.000000	8.919400
378.000000	8.670300
377.000000	8.449600
376.000000	8.220800
375.000000	8.102700
374.000000	7.817300
373.000000	7.693300
372.000000	7.599900
371.000000	7.435700
370.000000	7.300100
369.000000	7.156500
368.000000	7.097200
367.000000	7.026700
366.000000	6.953500
365.000000	6.866000
364.000000	6.796000
363.000000	6.719600
362.000000	6.649700
361.000000	6.544300
360.000000	6.502700
359.000000	6.461600
358.000000	6.352500
357.000000	6.342600
356.000000	6.331300
355.000000	6.250800
354.000000	6.219400
353.000000	6.166300
352.000000	6.106500
351.000000	6.112900
350.000000	6.040200
349.000000	5.990200
348.000000	5.951600
347.000000	5.905400
346.000000	5.871200
345.000000	5.948100
344.000000	5.923500
343.000000	5.914000
342.000000	5.943400
341.000000	5.898100
340.000000	5.855900
339.000000	5.855100
338.000000	5.821700
337.000000	5.906600
336.000000	5.893000
335.000000	5.867000
334.000000	5.837500
333.000000	5.844200
332.000000	5.841300
331.000000	5.872400
330.000000	5.808800
329.000000	5.853800
328.000000	5.921700
327.000000	5.774400
326.000000	5.833700
325.000000	5.828200
324.000000	6.014400
323.000000	5.856500
322.000000	5.833800
321.000000	5.872700
320.000000	5.748000
319.000000	5.734500
318.000000	5.769800
317.000000	5.916200
316.000000	5.817600
315.000000	5.825900
314.000000	5.835300
313.000000	5.865000
312.000000	5.893100
311.000000	5.881000
310.000000	5.883100
309.000000	5.855200
308.000000	5.882600
307.000000	5.857400
306.000000	5.891500
305.000000	5.873900
304.000000	5.924400
303.000000	5.908200
302.000000	5.893100
301.000000	5.895400
300.000000	5.919200
299.000000	5.946100
298.000000	5.964000
297.000000	5.953700
296.000000	5.968500
295.000000	5.942800
294.000000	5.968300
293.000000	5.978200
292.000000	5.931100
291.000000	5.966400
290.000000	5.967700
289.000000	5.984100
288.000000	5.945100
287.000000	5.953900
286.000000	5.996300
285.000000	6.025600
284.000000	5.994900
283.000000	6.035500
282.000000	6.030600
281.000000	6.016900
280.000000	6.012500
279.000000	6.098800
278.000000	6.060100
277.000000	6.083600
276.000000	6.067300
275.000000	6.082200
274.000000	6.054500
273.000000	6.123700
272.000000	6.143400
271.000000	6.133800
270.000000	6.165200
269.000000	6.152700
268.000000	6.174300
267.000000	6.249500
266.000000	6.261900
265.000000	6.280400
264.000000	6.273700
263.000000	6.352400
262.000000	6.363700
261.000000	6.377100
260.000000	6.410500
259.000000	6.420600
258.000000	6.476600
257.000000	6.499600
256.000000	6.499500
255.000000	6.518700
254.000000	6.572000
253.000000	6.571500
252.000000	6.555800
251.000000	6.595200
250.000000	6.629900
