PE UV       SUBTECH     SPECTRUM    ASCII       PEDS        4.00        
   -1
CICIMAUCR0113-4.Sample.ASC
24/04/18
17:16:39.00
24/04/18
17:16:39.00
Vinicio Soto Monge
C. kalinini
250,000000
1
Lambda 1050
1050L1511233
PerkinElmer UV WinLab 6.3.2.0749 / 2.02.05 Lambda 900 UV/VIS/NIR, Aug  7 2015 09:38:08

0
0
3350/servo 860,8/2
0
0
UV/VIS
1
1
1
DoubleDePol,CommonBeamDepol,RBeamAtt,SBeamAtt,60mm sphere, WB InGaAs Detector
0
0
0
0
Program
Program
3350/servo 860,8/2
3350/0,2 860,8/0,2
3350/0,2 860,8/0,2
0
15.00
 
 
 
0
 
860,8
319,2
860,8
Front
100
on
S:100 R:100
0
0
0
0
 
0
 
 
 
0
 
 
0
0
0
0
0
 
 
 
 
0
0


0
0
#HDR
-1
-1
#GR
nm
%R
1.0
0.0
2500,000000
-1,000000
2251
8
46,046400
2,843400
#DATA
250.000000	3.649726
251.000000	3.645935
252.000000	3.662389
253.000000	3.636910
254.000000	3.630578
255.000000	3.638824
256.000000	3.620302
257.000000	3.607393
258.000000	3.614390
259.000000	3.598734
260.000000	3.586648
261.000000	3.601331
262.000000	3.577056
263.000000	3.558371
264.000000	3.546263
265.000000	3.534454
266.000000	3.510403
267.000000	3.512449
268.000000	3.510503
269.000000	3.499366
270.000000	3.488918
271.000000	3.479942
272.000000	3.455952
273.000000	3.434108
274.000000	3.435904
275.000000	3.423209
276.000000	3.427462
277.000000	3.426392
278.000000	3.418304
279.000000	3.420279
280.000000	3.405816
281.000000	3.396874
282.000000	3.402517
283.000000	3.392005
284.000000	3.397197
285.000000	3.388087
286.000000	3.412135
287.000000	3.387501
288.000000	3.386776
289.000000	3.398691
290.000000	3.400067
291.000000	3.375844
292.000000	3.407484
293.000000	3.393508
294.000000	3.419745
295.000000	3.409140
296.000000	3.422376
297.000000	3.412475
298.000000	3.398363
299.000000	3.401552
300.000000	3.399857
301.000000	3.405958
302.000000	3.379074
303.000000	3.366009
304.000000	3.371213
305.000000	3.417534
306.000000	3.386319
307.000000	3.403608
308.000000	3.411802
309.000000	3.404872
310.000000	3.414543
311.000000	3.393283
312.000000	3.426419
313.000000	3.428143
314.000000	3.412711
315.000000	3.444370
316.000000	3.471887
317.000000	3.958656
318.000000	3.853950
319.000000	3.735816
320.000000	3.908342
321.000000	3.742239
322.000000	3.630021
323.000000	3.594772
324.000000	3.743887
325.000000	3.712696
326.000000	3.583544
327.000000	3.724900
328.000000	3.557990
329.000000	3.564760
330.000000	3.543179
331.000000	3.592637
332.000000	3.499254
333.000000	3.579746
334.000000	3.656204
335.000000	3.705567
336.000000	3.677633
337.000000	3.675680
338.000000	3.669188
339.000000	3.687832
340.000000	3.656165
341.000000	3.749931
342.000000	3.686841
343.000000	3.669288
344.000000	3.678688
345.000000	3.681606
346.000000	3.614805
347.000000	3.669999
348.000000	3.739189
349.000000	3.740364
350.000000	3.768051
351.000000	3.738399
352.000000	3.706773
353.000000	3.732913
354.000000	3.741611
355.000000	3.808180
356.000000	3.849574
357.000000	3.852100
358.000000	3.880371
359.000000	3.868097
360.000000	3.906452
361.000000	3.919315
362.000000	3.912895
363.000000	3.920340
364.000000	3.965658
365.000000	3.952030
366.000000	4.003271
367.000000	4.049287
368.000000	4.016802
369.000000	4.003640
370.000000	4.041880
371.000000	4.072663
372.000000	4.045458
373.000000	4.049192
374.000000	4.067936
375.000000	4.158682
376.000000	4.290142
377.000000	4.280584
378.000000	4.318715
379.000000	4.353803
380.000000	4.403431
381.000000	4.450703
382.000000	4.503865
383.000000	4.556070
384.000000	4.616090
385.000000	4.677249
386.000000	4.740939
387.000000	4.814052
388.000000	4.887558
389.000000	4.965278
390.000000	5.038815
391.000000	5.121413
392.000000	5.219075
393.000000	5.316988
394.000000	5.415914
395.000000	5.523843
396.000000	5.628808
397.000000	5.737210
398.000000	5.857010
399.000000	5.980547
400.000000	6.110749
401.000000	6.249327
402.000000	6.380924
403.000000	6.512490
404.000000	6.646757
405.000000	6.792450
406.000000	6.937677
407.000000	7.082308
408.000000	7.231267
409.000000	7.380587
410.000000	7.543007
411.000000	7.703396
412.000000	7.859766
413.000000	8.024156
414.000000	8.192979
415.000000	8.360923
416.000000	8.521468
417.000000	8.684117
418.000000	8.848560
419.000000	9.017968
420.000000	9.190743
421.000000	9.361789
422.000000	9.527234
423.000000	9.689720
424.000000	9.857168
425.000000	10.032158
426.000000	10.204513
427.000000	10.367841
428.000000	10.529632
429.000000	10.688276
430.000000	10.851279
431.000000	11.010091
432.000000	11.167641
433.000000	11.323109
434.000000	11.474346
435.000000	11.625859
436.000000	11.773817
437.000000	11.915403
438.000000	12.055218
439.000000	12.195218
440.000000	12.333217
441.000000	12.461264
442.000000	12.586544
443.000000	12.715077
444.000000	12.838712
445.000000	12.945903
446.000000	13.035793
447.000000	13.125597
448.000000	13.218746
449.000000	13.305376
450.000000	13.382036
451.000000	13.452312
452.000000	13.535637
453.000000	13.618840
454.000000	13.676225
455.000000	13.733300
456.000000	13.793188
457.000000	13.841709
458.000000	13.890348
459.000000	13.939218
460.000000	13.987351
461.000000	14.026587
462.000000	14.068535
463.000000	14.111888
464.000000	14.149048
465.000000	14.181160
466.000000	14.222432
467.000000	14.261436
468.000000	14.300397
469.000000	14.346504
470.000000	14.392010
471.000000	14.440174
472.000000	14.495863
473.000000	14.558128
474.000000	14.624051
475.000000	14.691668
476.000000	14.760481
477.000000	14.840637
478.000000	14.934214
479.000000	15.029219
480.000000	15.144135
481.000000	15.276618
482.000000	15.423163
483.000000	15.566199
484.000000	15.696279
485.000000	15.830447
486.000000	15.972027
487.000000	16.112623
488.000000	16.254587
489.000000	16.402048
490.000000	16.562844
491.000000	16.731834
492.000000	16.904267
493.000000	17.078318
494.000000	17.253576
495.000000	17.441613
496.000000	17.634761
497.000000	17.841107
498.000000	18.057257
499.000000	18.286813
500.000000	18.535733
501.000000	18.794631
502.000000	19.068017
503.000000	19.358062
504.000000	19.658586
505.000000	19.962458
506.000000	20.283076
507.000000	20.610640
508.000000	20.935155
509.000000	21.272886
510.000000	21.619234
511.000000	21.957621
512.000000	22.305821
513.000000	22.651724
514.000000	22.993347
515.000000	23.331451
516.000000	23.661276
517.000000	23.987611
518.000000	24.298144
519.000000	24.615949
520.000000	24.926774
521.000000	25.232505
522.000000	25.527739
523.000000	25.820736
524.000000	26.119816
525.000000	26.411454
526.000000	26.688924
527.000000	26.956724
528.000000	27.230742
529.000000	27.495196
530.000000	27.757486
531.000000	28.014543
532.000000	28.270983
533.000000	28.513261
534.000000	28.760465
535.000000	29.007081
536.000000	29.246284
537.000000	29.476618
538.000000	29.698765
539.000000	29.915843
540.000000	30.114475
541.000000	30.302810
542.000000	30.492156
543.000000	30.692997
544.000000	30.884176
545.000000	31.069583
546.000000	31.235343
547.000000	31.402508
548.000000	31.572764
549.000000	31.726099
550.000000	31.886113
551.000000	32.014390
552.000000	32.168384
553.000000	32.293464
554.000000	32.413041
555.000000	32.543509
556.000000	32.658051
557.000000	32.745742
558.000000	32.836000
559.000000	32.929331
560.000000	32.906207
561.000000	32.985232
562.000000	33.075381
563.000000	33.158561
564.000000	33.225901
565.000000	33.289166
566.000000	33.349335
567.000000	33.399777
568.000000	33.451397
569.000000	33.474287
570.000000	33.495342
571.000000	33.500602
572.000000	33.497286
573.000000	33.505362
574.000000	33.500558
575.000000	33.480470
576.000000	33.453598
577.000000	33.424673
578.000000	33.390644
579.000000	33.369795
580.000000	33.353704
581.000000	33.326604
582.000000	33.275007
583.000000	33.237636
584.000000	33.194827
585.000000	33.172698
586.000000	33.123092
587.000000	33.095239
588.000000	33.040604
589.000000	32.999623
590.000000	32.948148
591.000000	32.915049
592.000000	32.881400
593.000000	32.833070
594.000000	32.810952
595.000000	32.781478
596.000000	32.732224
597.000000	32.662629
598.000000	32.629208
599.000000	32.581643
600.000000	32.535525
601.000000	32.478326
602.000000	32.431722
603.000000	32.375478
604.000000	32.315068
605.000000	32.278641
606.000000	32.225505
607.000000	32.161906
608.000000	32.109188
609.000000	32.064462
610.000000	32.025493
611.000000	31.989130
612.000000	31.936653
613.000000	31.912393
614.000000	31.876784
615.000000	31.872156
616.000000	31.851235
617.000000	31.806190
618.000000	31.808484
619.000000	31.819670
620.000000	31.822426
621.000000	31.825751
622.000000	31.831838
623.000000	31.855916
624.000000	31.883776
625.000000	31.909621
626.000000	31.942738
627.000000	31.991657
628.000000	32.011510
629.000000	32.056802
630.000000	32.113345
631.000000	32.166098
632.000000	32.230213
633.000000	32.283852
634.000000	32.345055
635.000000	32.425604
636.000000	32.510145
637.000000	32.567314
638.000000	32.633149
639.000000	32.707492
640.000000	32.772315
641.000000	32.848619
642.000000	32.915900
643.000000	32.998772
644.000000	33.092742
645.000000	33.191514
646.000000	33.281395
647.000000	33.366005
648.000000	33.466661
649.000000	33.558921
650.000000	33.675212
651.000000	33.825339
652.000000	33.934816
653.000000	34.051249
654.000000	34.178015
655.000000	34.319550
656.000000	34.481330
657.000000	34.624556
658.000000	34.793555
659.000000	34.971170
660.000000	35.147503
661.000000	35.355910
662.000000	35.566978
663.000000	35.734547
664.000000	35.932411
665.000000	36.138654
666.000000	36.339526
667.000000	36.550046
668.000000	36.781169
669.000000	36.966636
670.000000	37.171630
671.000000	37.394503
672.000000	37.604527
673.000000	37.816108
674.000000	37.996186
675.000000	38.209805
676.000000	38.407190
677.000000	38.604995
678.000000	38.811141
679.000000	39.012065
680.000000	39.208591
681.000000	39.391007
682.000000	39.593151
683.000000	39.797813
684.000000	39.985662
685.000000	40.178539
686.000000	40.357885
687.000000	40.541092
688.000000	40.678211
689.000000	40.840541
690.000000	40.998519
691.000000	41.173094
692.000000	41.334317
693.000000	41.502475
694.000000	41.644718
695.000000	41.809840
696.000000	41.976940
697.000000	42.156166
698.000000	42.316329
699.000000	42.477564
700.000000	42.649103
701.000000	42.837823
702.000000	43.018650
703.000000	43.193280
704.000000	43.399300
705.000000	43.615804
706.000000	43.822651
707.000000	44.026278
708.000000	44.217808
709.000000	44.386663
710.000000	44.583147
711.000000	44.781517
712.000000	44.979331
713.000000	45.167919
714.000000	45.357722
715.000000	45.558182
716.000000	45.723417
717.000000	45.883629
718.000000	46.084508
719.000000	46.257169
720.000000	46.401588
721.000000	46.553826
722.000000	46.713204
723.000000	46.873304
724.000000	47.037886
725.000000	47.200236
726.000000	47.331530
727.000000	47.452310
728.000000	47.590463
729.000000	47.714416
730.000000	47.847178
731.000000	47.951188
732.000000	48.043968
733.000000	48.165229
734.000000	48.285983
735.000000	48.376839
736.000000	48.479410
737.000000	48.553878
738.000000	48.603008
739.000000	48.708711
740.000000	48.775372
741.000000	48.844541
742.000000	48.930291
743.000000	48.994812
744.000000	49.065600
745.000000	49.112879
746.000000	49.139074
747.000000	49.194506
748.000000	49.243125
749.000000	49.268478
750.000000	49.341756
751.000000	49.417280
752.000000	49.398410
753.000000	49.402989
754.000000	49.470723
755.000000	49.490132
756.000000	49.482536
757.000000	49.501031
758.000000	49.546442
759.000000	49.577568
760.000000	49.603583
761.000000	49.571662
762.000000	49.560333
763.000000	49.573625
764.000000	49.553614
765.000000	49.531920
766.000000	49.532832
767.000000	49.519789
768.000000	49.527107
769.000000	49.521083
770.000000	49.459404
771.000000	49.442401
772.000000	49.414921
773.000000	49.357241
774.000000	49.329163
775.000000	49.272431
776.000000	49.240981
777.000000	49.201253
778.000000	49.144452
779.000000	49.089138
780.000000	49.020242
781.000000	48.959565
782.000000	48.937931
783.000000	48.862903
784.000000	48.815138
785.000000	48.748509
786.000000	48.689544
787.000000	48.613929
788.000000	48.517595
789.000000	48.423443
790.000000	48.342360
791.000000	48.270979
792.000000	48.196197
793.000000	48.124532
794.000000	48.008304
795.000000	47.895493
796.000000	47.819062
797.000000	47.711892
798.000000	47.567155
799.000000	47.457828
800.000000	47.374480
801.000000	47.300897
802.000000	47.140290
803.000000	47.051364
804.000000	46.924159
805.000000	46.839700
806.000000	46.725607
807.000000	46.648137
808.000000	46.573587
809.000000	46.436829
810.000000	46.260518
811.000000	46.158920
812.000000	46.102272
813.000000	46.014710
814.000000	45.926665
815.000000	45.830601
816.000000	45.709185
817.000000	45.569519
818.000000	45.433210
819.000000	45.299861
820.000000	45.184927
821.000000	45.100339
822.000000	45.054948
823.000000	44.952075
824.000000	44.783774
825.000000	44.667020
826.000000	44.621615
827.000000	44.469337
828.000000	44.398897
829.000000	44.248834
830.000000	44.115158
831.000000	43.947729
832.000000	43.832127
833.000000	43.743435
834.000000	43.617366
835.000000	43.503992
836.000000	43.417241
837.000000	43.268006
838.000000	43.158270
839.000000	43.009279
840.000000	42.923244
841.000000	42.824827
842.000000	42.611798
843.000000	42.500323
844.000000	42.402529
845.000000	42.230423
846.000000	42.136574
847.000000	41.961537
848.000000	41.828705
849.000000	41.829533
850.000000	41.719020
851.000000	41.394111
852.000000	41.348804
853.000000	41.264988
854.000000	40.997697
855.000000	40.748228
856.000000	40.687866
857.000000	40.769650
858.000000	40.882175
859.000000	40.805550
860.000000	40.720175
861.000000	40.645975
862.000000	40.546850
863.000000	40.430425
864.000000	40.298725
865.000000	40.193475
866.000000	40.068925
867.000000	39.948500
868.000000	39.817225
869.000000	39.708850
870.000000	39.590500
871.000000	39.483400
872.000000	39.372125
873.000000	39.257400
874.000000	39.156050
875.000000	39.044025
876.000000	38.944550
877.000000	38.847375
878.000000	38.725275
879.000000	38.639550
880.000000	38.546325
881.000000	38.457075
882.000000	38.356825
883.000000	38.266175
884.000000	38.183800
885.000000	38.075600
886.000000	37.991000
887.000000	37.917450
888.000000	37.844300
889.000000	37.778975
890.000000	37.699025
891.000000	37.623650
892.000000	37.539175
893.000000	37.463575
894.000000	37.386625
895.000000	37.328250
896.000000	37.256000
897.000000	37.183600
898.000000	37.131150
899.000000	37.068925
900.000000	37.019800
901.000000	36.966400
902.000000	36.897150
903.000000	36.848375
904.000000	36.821550
905.000000	36.780600
906.000000	36.734750
907.000000	36.699075
908.000000	36.657700
909.000000	36.639800
910.000000	36.626375
911.000000	36.614175
912.000000	36.606800
913.000000	36.617950
914.000000	36.593575
915.000000	36.606800
916.000000	36.602150
917.000000	36.601225
918.000000	36.593400
919.000000	36.598275
920.000000	36.599900
921.000000	36.619100
922.000000	36.620625
923.000000	36.618700
924.000000	36.622525
925.000000	36.652800
926.000000	36.667725
927.000000	36.685350
928.000000	36.695000
929.000000	36.718525
930.000000	36.741500
931.000000	36.765800
932.000000	36.794375
933.000000	36.822475
934.000000	36.826875
935.000000	36.842500
936.000000	36.868325
937.000000	36.901200
938.000000	36.921225
939.000000	36.954800
940.000000	37.004225
941.000000	37.035850
942.000000	37.086275
943.000000	37.117875
944.000000	37.167700
945.000000	37.195675
946.000000	37.236550
947.000000	37.281700
948.000000	37.341050
949.000000	37.371600
950.000000	37.428550
951.000000	37.467250
952.000000	37.512175
953.000000	37.571125
954.000000	37.607500
955.000000	37.645450
956.000000	37.705775
957.000000	37.760850
958.000000	37.792150
959.000000	37.826150
960.000000	37.875550
961.000000	37.930425
962.000000	37.983950
963.000000	38.014875
964.000000	38.046500
965.000000	38.105875
966.000000	38.166625
967.000000	38.221550
968.000000	38.265500
969.000000	38.313300
970.000000	38.367375
971.000000	38.429900
972.000000	38.476100
973.000000	38.521050
974.000000	38.571000
975.000000	38.631650
976.000000	38.677200
977.000000	38.722550
978.000000	38.779725
979.000000	38.834700
980.000000	38.879700
981.000000	38.919875
982.000000	38.967750
983.000000	39.028325
984.000000	39.071750
985.000000	39.121550
986.000000	39.162850
987.000000	39.214025
988.000000	39.272600
989.000000	39.311150
990.000000	39.362800
991.000000	39.418050
992.000000	39.472825
993.000000	39.521150
994.000000	39.571250
995.000000	39.623200
996.000000	39.676075
997.000000	39.717950
998.000000	39.768025
999.000000	39.823100
1000.000000	39.873625
1001.000000	39.921825
1002.000000	39.975675
1003.000000	40.033175
1004.000000	40.082650
1005.000000	40.128150
1006.000000	40.173700
1007.000000	40.213325
1008.000000	40.254225
1009.000000	40.296025
1010.000000	40.345300
1011.000000	40.404150
1012.000000	40.452850
1013.000000	40.507350
1014.000000	40.556600
1015.000000	40.609600
1016.000000	40.681025
1017.000000	40.751850
1018.000000	40.819950
1019.000000	40.890750
1020.000000	40.953375
1021.000000	41.014925
1022.000000	41.095950
1023.000000	41.173600
1024.000000	41.249250
1025.000000	41.332700
1026.000000	41.406125
1027.000000	41.472625
1028.000000	41.544625
1029.000000	41.616200
1030.000000	41.684450
1031.000000	41.763950
1032.000000	41.836725
1033.000000	41.905250
1034.000000	41.968050
1035.000000	42.037550
1036.000000	42.105025
1037.000000	42.164150
1038.000000	42.228250
1039.000000	42.300425
1040.000000	42.367100
1041.000000	42.426425
1042.000000	42.488725
1043.000000	42.548225
1044.000000	42.612575
1045.000000	42.683025
1046.000000	42.743300
1047.000000	42.802450
1048.000000	42.865125
1049.000000	42.925225
1050.000000	42.991150
1051.000000	43.053475
1052.000000	43.123125
1053.000000	43.188525
1054.000000	43.257750
1055.000000	43.330750
1056.000000	43.396575
1057.000000	43.459825
1058.000000	43.533800
1059.000000	43.603600
1060.000000	43.667675
1061.000000	43.734975
1062.000000	43.794625
1063.000000	43.854750
1064.000000	43.920000
1065.000000	43.978275
1066.000000	44.036675
1067.000000	44.098525
1068.000000	44.163700
1069.000000	44.218450
1070.000000	44.283850
1071.000000	44.343350
1072.000000	44.401225
1073.000000	44.462400
1074.000000	44.519000
1075.000000	44.572625
1076.000000	44.630450
1077.000000	44.688250
1078.000000	44.753750
1079.000000	44.813125
1080.000000	44.881775
1081.000000	44.937450
1082.000000	44.995200
1083.000000	45.044050
1084.000000	45.107800
1085.000000	45.171625
1086.000000	45.229100
1087.000000	45.290425
1088.000000	45.353675
1089.000000	45.417850
1090.000000	45.475150
1091.000000	45.532525
1092.000000	45.580700
1093.000000	45.642175
1094.000000	45.702650
1095.000000	45.748750
1096.000000	45.797500
1097.000000	45.850325
1098.000000	45.897825
1099.000000	45.937600
1100.000000	45.988075
1101.000000	46.032425
1102.000000	46.076150
1103.000000	46.108650
1104.000000	46.139025
1105.000000	46.192125
1106.000000	46.235050
1107.000000	46.267100
1108.000000	46.301700
1109.000000	46.337975
1110.000000	46.377000
1111.000000	46.411500
1112.000000	46.442000
1113.000000	46.481450
1114.000000	46.516725
1115.000000	46.540400
1116.000000	46.574675
1117.000000	46.596025
1118.000000	46.616650
1119.000000	46.631125
1120.000000	46.646150
1121.000000	46.654625
1122.000000	46.655825
1123.000000	46.634100
1124.000000	46.613125
1125.000000	46.604300
1126.000000	46.575100
1127.000000	46.524900
1128.000000	46.490575
1129.000000	46.413975
1130.000000	46.313850
1131.000000	46.218950
1132.000000	46.116950
1133.000000	46.015075
1134.000000	45.891500
1135.000000	45.710350
1136.000000	45.524200
1137.000000	45.348500
1138.000000	45.183800
1139.000000	45.015300
1140.000000	44.865025
1141.000000	44.704900
1142.000000	44.560875
1143.000000	44.417950
1144.000000	44.313925
1145.000000	44.197775
1146.000000	44.114575
1147.000000	44.070475
1148.000000	44.054425
1149.000000	44.058175
1150.000000	44.070750
1151.000000	44.088250
1152.000000	44.089075
1153.000000	44.068200
1154.000000	44.027550
1155.000000	43.965600
1156.000000	43.866225
1157.000000	43.732150
1158.000000	43.581925
1159.000000	43.409150
1160.000000	43.230025
1161.000000	43.042325
1162.000000	42.853675
1163.000000	42.643400
1164.000000	42.436350
1165.000000	42.233875
1166.000000	42.025950
1167.000000	41.826175
1168.000000	41.624600
1169.000000	41.420075
1170.000000	41.223675
1171.000000	41.036650
1172.000000	40.848125
1173.000000	40.670950
1174.000000	40.491500
1175.000000	40.326175
1176.000000	40.157675
1177.000000	39.978400
1178.000000	39.766325
1179.000000	39.522175
1180.000000	39.261250
1181.000000	38.973525
1182.000000	38.686350
1183.000000	38.438225
1184.000000	38.249575
1185.000000	38.123950
1186.000000	38.091100
1187.000000	38.116300
1188.000000	38.236825
1189.000000	38.420300
1190.000000	38.656075
1191.000000	38.922725
1192.000000	39.206975
1193.000000	39.467500
1194.000000	39.702550
1195.000000	39.905525
1196.000000	40.069400
1197.000000	40.201300
1198.000000	40.308100
1199.000000	40.392500
1200.000000	40.451325
1201.000000	40.500200
1202.000000	40.554700
1203.000000	40.594750
1204.000000	40.628700
1205.000000	40.674650
1206.000000	40.720900
1207.000000	40.784650
1208.000000	40.856800
1209.000000	40.932325
1210.000000	41.011575
1211.000000	41.101075
1212.000000	41.190425
1213.000000	41.270400
1214.000000	41.360000
1215.000000	41.456750
1216.000000	41.555325
1217.000000	41.648150
1218.000000	41.750800
1219.000000	41.854175
1220.000000	41.959725
1221.000000	42.066275
1222.000000	42.187900
1223.000000	42.307700
1224.000000	42.428175
1225.000000	42.544750
1226.000000	42.648100
1227.000000	42.758850
1228.000000	42.877125
1229.000000	42.989375
1230.000000	43.101250
1231.000000	43.209550
1232.000000	43.327750
1233.000000	43.435625
1234.000000	43.538150
1235.000000	43.642600
1236.000000	43.745725
1237.000000	43.843175
1238.000000	43.926550
1239.000000	44.031075
1240.000000	44.124150
1241.000000	44.210600
1242.000000	44.291750
1243.000000	44.372700
1244.000000	44.454600
1245.000000	44.545900
1246.000000	44.621525
1247.000000	44.695425
1248.000000	44.763975
1249.000000	44.831375
1250.000000	44.897300
1251.000000	44.953300
1252.000000	45.005125
1253.000000	45.045425
1254.000000	45.090175
1255.000000	45.135025
1256.000000	45.172000
1257.000000	45.208125
1258.000000	45.250500
1259.000000	45.293275
1260.000000	45.322650
1261.000000	45.345800
1262.000000	45.374275
1263.000000	45.405100
1264.000000	45.428275
1265.000000	45.450325
1266.000000	45.468150
1267.000000	45.497950
1268.000000	45.530625
1269.000000	45.547975
1270.000000	45.570625
1271.000000	45.593725
1272.000000	45.609500
1273.000000	45.627150
1274.000000	45.653150
1275.000000	45.686550
1276.000000	45.718275
1277.000000	45.751275
1278.000000	45.800575
1279.000000	45.851500
1280.000000	45.903850
1281.000000	45.953775
1282.000000	45.997300
1283.000000	46.043475
1284.000000	46.096100
1285.000000	46.146550
1286.000000	46.192650
1287.000000	46.241650
1288.000000	46.292300
1289.000000	46.334175
1290.000000	46.368275
1291.000000	46.405500
1292.000000	46.428500
1293.000000	46.454625
1294.000000	46.483275
1295.000000	46.504800
1296.000000	46.520825
1297.000000	46.537250
1298.000000	46.557450
1299.000000	46.574800
1300.000000	46.588575
1301.000000	46.601500
1302.000000	46.614700
1303.000000	46.621625
1304.000000	46.628000
1305.000000	46.628700
1306.000000	46.630150
1307.000000	46.621950
1308.000000	46.605725
1309.000000	46.594475
1310.000000	46.584000
1311.000000	46.560775
1312.000000	46.528750
1313.000000	46.495925
1314.000000	46.462650
1315.000000	46.431825
1316.000000	46.396450
1317.000000	46.351400
1318.000000	46.304075
1319.000000	46.255050
1320.000000	46.207350
1321.000000	46.157175
1322.000000	46.098875
1323.000000	46.038425
1324.000000	45.971875
1325.000000	45.906975
1326.000000	45.837025
1327.000000	45.766250
1328.000000	45.684800
1329.000000	45.596625
1330.000000	45.503675
1331.000000	45.406500
1332.000000	45.305800
1333.000000	45.186300
1334.000000	45.063625
1335.000000	44.940575
1336.000000	44.808575
1337.000000	44.666800
1338.000000	44.519325
1339.000000	44.366750
1340.000000	44.192775
1341.000000	44.016900
1342.000000	43.836775
1343.000000	43.648100
1344.000000	43.452375
1345.000000	43.215250
1346.000000	42.994650
1347.000000	42.778100
1348.000000	42.509975
1349.000000	42.229975
1350.000000	41.942100
1351.000000	41.619050
1352.000000	41.279725
1353.000000	40.939125
1354.000000	40.631400
1355.000000	40.308325
1356.000000	40.026275
1357.000000	39.862275
1358.000000	39.759200
1359.000000	39.692250
1360.000000	39.676450
1361.000000	39.631275
1362.000000	39.508600
1363.000000	39.378550
1364.000000	39.305525
1365.000000	39.163200
1366.000000	39.012150
1367.000000	38.884675
1368.000000	38.717950
1369.000000	38.505350
1370.000000	38.319425
1371.000000	38.107325
1372.000000	37.865725
1373.000000	37.629000
1374.000000	37.431750
1375.000000	37.285925
1376.000000	37.167650
1377.000000	37.088600
1378.000000	37.032450
1379.000000	36.990500
1380.000000	36.912425
1381.000000	36.858600
1382.000000	36.688350
1383.000000	36.432650
1384.000000	36.203225
1385.000000	35.911350
1386.000000	35.658225
1387.000000	35.455100
1388.000000	35.242400
1389.000000	34.981525
1390.000000	34.814250
1391.000000	34.699300
1392.000000	34.553225
1393.000000	34.400025
1394.000000	34.315925
1395.000000	34.218275
1396.000000	34.018800
1397.000000	33.788150
1398.000000	33.616400
1399.000000	33.521650
1400.000000	33.330550
1401.000000	32.991100
1402.000000	32.672100
1403.000000	32.426950
1404.000000	32.139325
1405.000000	31.853650
1406.000000	31.549875
1407.000000	31.259775
1408.000000	30.975725
1409.000000	30.694975
1410.000000	30.397450
1411.000000	30.125950
1412.000000	29.926275
1413.000000	29.738075
1414.000000	29.547150
1415.000000	29.296175
1416.000000	29.069200
1417.000000	28.893875
1418.000000	28.728325
1419.000000	28.525050
1420.000000	28.294700
1421.000000	28.064675
1422.000000	27.867050
1423.000000	27.679875
1424.000000	27.483000
1425.000000	27.287450
1426.000000	27.088025
1427.000000	26.915175
1428.000000	26.750575
1429.000000	26.584325
1430.000000	26.440575
1431.000000	26.311425
1432.000000	26.198500
1433.000000	26.053475
1434.000000	25.940425
1435.000000	25.812175
1436.000000	25.684925
1437.000000	25.581000
1438.000000	25.466925
1439.000000	25.355250
1440.000000	25.234475
1441.000000	25.131725
1442.000000	25.009650
1443.000000	24.884375
1444.000000	24.800375
1445.000000	24.699800
1446.000000	24.594000
1447.000000	24.475500
1448.000000	24.357875
1449.000000	24.279200
1450.000000	24.195650
1451.000000	24.103950
1452.000000	24.013175
1453.000000	23.904625
1454.000000	23.814000
1455.000000	23.733775
1456.000000	23.650650
1457.000000	23.571350
1458.000000	23.485800
1459.000000	23.415025
1460.000000	23.347425
1461.000000	23.273125
1462.000000	23.212125
1463.000000	23.154325
1464.000000	23.085025
1465.000000	23.043225
1466.000000	22.997200
1467.000000	22.964050
1468.000000	22.907225
1469.000000	22.872475
1470.000000	22.830425
1471.000000	22.796600
1472.000000	22.748300
1473.000000	22.702250
1474.000000	22.656250
1475.000000	22.621875
1476.000000	22.584500
1477.000000	22.556175
1478.000000	22.525075
1479.000000	22.489100
1480.000000	22.461500
1481.000000	22.437625
1482.000000	22.403075
1483.000000	22.369175
1484.000000	22.354975
1485.000000	22.346575
1486.000000	22.326825
1487.000000	22.310000
1488.000000	22.290500
1489.000000	22.271200
1490.000000	22.258100
1491.000000	22.255400
1492.000000	22.250100
1493.000000	22.235050
1494.000000	22.226225
1495.000000	22.221125
1496.000000	22.225100
1497.000000	22.235450
1498.000000	22.237400
1499.000000	22.242525
1500.000000	22.249400
1501.000000	22.262675
1502.000000	22.280900
1503.000000	22.298500
1504.000000	22.317025
1505.000000	22.341150
1506.000000	22.364025
1507.000000	22.386100
1508.000000	22.408925
1509.000000	22.438650
1510.000000	22.465750
1511.000000	22.487625
1512.000000	22.507300
1513.000000	22.532150
1514.000000	22.555700
1515.000000	22.577375
1516.000000	22.597475
1517.000000	22.613250
1518.000000	22.633775
1519.000000	22.653425
1520.000000	22.674175
1521.000000	22.698075
1522.000000	22.710575
1523.000000	22.729625
1524.000000	22.743800
1525.000000	22.764525
1526.000000	22.774975
1527.000000	22.785400
1528.000000	22.793375
1529.000000	22.806275
1530.000000	22.821575
1531.000000	22.833650
1532.000000	22.834150
1533.000000	22.836450
1534.000000	22.842925
1535.000000	22.848625
1536.000000	22.857000
1537.000000	22.856700
1538.000000	22.850200
1539.000000	22.859450
1540.000000	22.858200
1541.000000	22.854525
1542.000000	22.860550
1543.000000	22.866850
1544.000000	22.875875
1545.000000	22.889850
1546.000000	22.903675
1547.000000	22.916025
1548.000000	22.933825
1549.000000	22.954325
1550.000000	22.978875
1551.000000	22.997925
1552.000000	23.014125
1553.000000	23.034500
1554.000000	23.042750
1555.000000	23.055750
1556.000000	23.065750
1557.000000	23.067500
1558.000000	23.069500
1559.000000	23.063375
1560.000000	23.055875
1561.000000	23.051050
1562.000000	23.036375
1563.000000	23.009600
1564.000000	22.987100
1565.000000	22.959450
1566.000000	22.933825
1567.000000	22.916125
1568.000000	22.893550
1569.000000	22.872325
1570.000000	22.851400
1571.000000	22.826875
1572.000000	22.812825
1573.000000	22.811850
1574.000000	22.807400
1575.000000	22.794550
1576.000000	22.796475
1577.000000	22.807800
1578.000000	22.809375
1579.000000	22.811275
1580.000000	22.825650
1581.000000	22.844675
1582.000000	22.862175
1583.000000	22.889950
1584.000000	22.925350
1585.000000	22.958575
1586.000000	22.985750
1587.000000	23.013150
1588.000000	23.043150
1589.000000	23.072175
1590.000000	23.112250
1591.000000	23.155125
1592.000000	23.196375
1593.000000	23.243525
1594.000000	23.295150
1595.000000	23.337500
1596.000000	23.392925
1597.000000	23.437650
1598.000000	23.487925
1599.000000	23.548275
1600.000000	23.608650
1601.000000	23.673600
1602.000000	23.736725
1603.000000	23.794200
1604.000000	23.851550
1605.000000	23.915400
1606.000000	23.976825
1607.000000	24.031375
1608.000000	24.086350
1609.000000	24.136450
1610.000000	24.198725
1611.000000	24.261825
1612.000000	24.312875
1613.000000	24.363575
1614.000000	24.418675
1615.000000	24.469350
1616.000000	24.530975
1617.000000	24.575300
1618.000000	24.630625
1619.000000	24.687075
1620.000000	24.751275
1621.000000	24.803675
1622.000000	24.857800
1623.000000	24.912850
1624.000000	24.972100
1625.000000	25.028425
1626.000000	25.093325
1627.000000	25.148275
1628.000000	25.206000
1629.000000	25.259400
1630.000000	25.309150
1631.000000	25.361150
1632.000000	25.421475
1633.000000	25.473450
1634.000000	25.526750
1635.000000	25.580025
1636.000000	25.624125
1637.000000	25.662050
1638.000000	25.699000
1639.000000	25.746375
1640.000000	25.791775
1641.000000	25.818850
1642.000000	25.850425
1643.000000	25.877725
1644.000000	25.906925
1645.000000	25.947425
1646.000000	25.975725
1647.000000	25.997425
1648.000000	26.034875
1649.000000	26.058375
1650.000000	26.075275
1651.000000	26.094775
1652.000000	26.093850
1653.000000	26.086100
1654.000000	26.087350
1655.000000	26.077800
1656.000000	26.059700
1657.000000	26.030000
1658.000000	25.991150
1659.000000	25.949650
1660.000000	25.891600
1661.000000	25.829125
1662.000000	25.765750
1663.000000	25.692000
1664.000000	25.617875
1665.000000	25.520400
1666.000000	25.423500
1667.000000	25.317900
1668.000000	25.171800
1669.000000	25.027525
1670.000000	24.874275
1671.000000	24.702775
1672.000000	24.517550
1673.000000	24.312650
1674.000000	24.075025
1675.000000	23.810225
1676.000000	23.499650
1677.000000	23.169900
1678.000000	22.782400
1679.000000	22.391300
1680.000000	21.983100
1681.000000	21.584375
1682.000000	21.243625
1683.000000	20.998325
1684.000000	20.813475
1685.000000	20.731525
1686.000000	20.688250
1687.000000	20.654325
1688.000000	20.633475
1689.000000	20.572725
1690.000000	20.496550
1691.000000	20.396650
1692.000000	20.298450
1693.000000	20.202050
1694.000000	20.140975
1695.000000	20.101650
1696.000000	20.120475
1697.000000	20.175875
1698.000000	20.250850
1699.000000	20.348375
1700.000000	20.471425
1701.000000	20.564875
1702.000000	20.660750
1703.000000	20.736300
1704.000000	20.792025
1705.000000	20.830325
1706.000000	20.856275
1707.000000	20.860450
1708.000000	20.870800
1709.000000	20.862800
1710.000000	20.844450
1711.000000	20.820025
1712.000000	20.776425
1713.000000	20.727525
1714.000000	20.657150
1715.000000	20.585750
1716.000000	20.507475
1717.000000	20.444425
1718.000000	20.382575
1719.000000	20.330450
1720.000000	20.284950
1721.000000	20.257375
1722.000000	20.232200
1723.000000	20.221150
1724.000000	20.183725
1725.000000	20.161100
1726.000000	20.119825
1727.000000	20.062575
1728.000000	20.004875
1729.000000	19.940275
1730.000000	19.876100
1731.000000	19.808300
1732.000000	19.767675
1733.000000	19.756050
1734.000000	19.762075
1735.000000	19.806000
1736.000000	19.882875
1737.000000	19.985450
1738.000000	20.134125
1739.000000	20.289325
1740.000000	20.457050
1741.000000	20.621375
1742.000000	20.801150
1743.000000	20.949325
1744.000000	21.081525
1745.000000	21.202100
1746.000000	21.307900
1747.000000	21.397900
1748.000000	21.467125
1749.000000	21.535600
1750.000000	21.580225
1751.000000	21.626075
1752.000000	21.655300
1753.000000	21.671825
1754.000000	21.679900
1755.000000	21.674350
1756.000000	21.652950
1757.000000	21.628175
1758.000000	21.593375
1759.000000	21.551825
1760.000000	21.514050
1761.000000	21.490625
1762.000000	21.474200
1763.000000	21.462375
1764.000000	21.491025
1765.000000	21.530250
1766.000000	21.578425
1767.000000	21.647975
1768.000000	21.739175
1769.000000	21.830725
1770.000000	21.920625
1771.000000	22.016225
1772.000000	22.116025
1773.000000	22.223025
1774.000000	22.316925
1775.000000	22.414975
1776.000000	22.497125
1777.000000	22.571850
1778.000000	22.646100
1779.000000	22.708100
1780.000000	22.772225
1781.000000	22.829650
1782.000000	22.876050
1783.000000	22.929525
1784.000000	22.987675
1785.000000	23.040150
1786.000000	23.090575
1787.000000	23.132600
1788.000000	23.166750
1789.000000	23.207525
1790.000000	23.253575
1791.000000	23.281700
1792.000000	23.316250
1793.000000	23.353250
1794.000000	23.380000
1795.000000	23.419125
1796.000000	23.452975
1797.000000	23.481575
1798.000000	23.514725
1799.000000	23.549250
1800.000000	23.593250
1801.000000	23.627800
1802.000000	23.651650
1803.000000	23.676650
1804.000000	23.712500
1805.000000	23.751875
1806.000000	23.784925
1807.000000	23.814150
1808.000000	23.836425
1809.000000	23.865300
1810.000000	23.901475
1811.000000	23.941275
1812.000000	23.959625
1813.000000	23.974000
1814.000000	23.981900
1815.000000	23.990475
1816.000000	23.993775
1817.000000	24.001350
1818.000000	24.017150
1819.000000	24.050175
1820.000000	24.088225
1821.000000	24.102400
1822.000000	24.094550
1823.000000	24.084475
1824.000000	24.118825
1825.000000	24.166225
1826.000000	24.217575
1827.000000	24.261825
1828.000000	24.318775
1829.000000	24.385725
1830.000000	24.438000
1831.000000	24.484650
1832.000000	24.529950
1833.000000	24.582975
1834.000000	24.664025
1835.000000	24.742700
1836.000000	24.791800
1837.000000	24.825250
1838.000000	24.867250
1839.000000	24.924475
1840.000000	24.970050
1841.000000	24.996700
1842.000000	24.997600
1843.000000	24.995525
1844.000000	25.029450
1845.000000	25.099600
1846.000000	25.185550
1847.000000	25.242400
1848.000000	25.259900
1849.000000	25.277300
1850.000000	25.302100
1851.000000	25.338375
1852.000000	25.377200
1853.000000	25.425950
1854.000000	25.465250
1855.000000	25.478850
1856.000000	25.497950
1857.000000	25.514775
1858.000000	25.513300
1859.000000	25.499125
1860.000000	25.476125
1861.000000	25.442200
1862.000000	25.402550
1863.000000	25.367700
1864.000000	25.344025
1865.000000	25.319825
1866.000000	25.285025
1867.000000	25.241650
1868.000000	25.169225
1869.000000	25.062625
1870.000000	24.938100
1871.000000	24.777575
1872.000000	24.609575
1873.000000	24.414825
1874.000000	24.193400
1875.000000	23.972775
1876.000000	23.734300
1877.000000	23.477750
1878.000000	23.209850
1879.000000	22.925250
1880.000000	22.630425
1881.000000	22.320600
1882.000000	21.992475
1883.000000	21.657875
1884.000000	21.313500
1885.000000	20.966025
1886.000000	20.654700
1887.000000	20.371850
1888.000000	20.104550
1889.000000	19.825125
1890.000000	19.575250
1891.000000	19.297225
1892.000000	18.982825
1893.000000	18.692875
1894.000000	18.432225
1895.000000	18.187475
1896.000000	17.972525
1897.000000	17.749950
1898.000000	17.477825
1899.000000	17.214850
1900.000000	16.911525
1901.000000	16.642600
1902.000000	16.404975
1903.000000	16.170125
1904.000000	15.949325
1905.000000	15.681950
1906.000000	15.406300
1907.000000	15.161950
1908.000000	14.952725
1909.000000	14.782275
1910.000000	14.624200
1911.000000	14.452125
1912.000000	14.274250
1913.000000	14.066450
1914.000000	13.848550
1915.000000	13.666550
1916.000000	13.523450
1917.000000	13.399200
1918.000000	13.285825
1919.000000	13.150325
1920.000000	13.010400
1921.000000	12.870525
1922.000000	12.728375
1923.000000	12.609625
1924.000000	12.508175
1925.000000	12.433250
1926.000000	12.351725
1927.000000	12.264075
1928.000000	12.174575
1929.000000	12.097925
1930.000000	12.030950
1931.000000	11.984325
1932.000000	11.933400
1933.000000	11.877800
1934.000000	11.856375
1935.000000	11.840025
1936.000000	11.821900
1937.000000	11.817900
1938.000000	11.796500
1939.000000	11.786800
1940.000000	11.783775
1941.000000	11.776400
1942.000000	11.778450
1943.000000	11.804950
1944.000000	11.830450
1945.000000	11.857450
1946.000000	11.871050
1947.000000	11.902625
1948.000000	11.944175
1949.000000	11.977200
1950.000000	12.013775
1951.000000	12.065075
1952.000000	12.099025
1953.000000	12.139550
1954.000000	12.171050
1955.000000	12.229050
1956.000000	12.273100
1957.000000	12.318725
1958.000000	12.371825
1959.000000	12.411625
1960.000000	12.459650
1961.000000	12.532150
1962.000000	12.583525
1963.000000	12.639375
1964.000000	12.674525
1965.000000	12.729000
1966.000000	12.780100
1967.000000	12.821650
1968.000000	12.874125
1969.000000	12.927000
1970.000000	12.988700
1971.000000	13.024850
1972.000000	13.085450
1973.000000	13.137450
1974.000000	13.197375
1975.000000	13.240900
1976.000000	13.300650
1977.000000	13.366125
1978.000000	13.424650
1979.000000	13.474225
1980.000000	13.538000
1981.000000	13.600850
1982.000000	13.650425
1983.000000	13.715800
1984.000000	13.775125
1985.000000	13.817050
1986.000000	13.860975
1987.000000	13.927075
1988.000000	13.970050
1989.000000	14.034800
1990.000000	14.078675
1991.000000	14.123425
1992.000000	14.172100
1993.000000	14.219525
1994.000000	14.254200
1995.000000	14.295225
1996.000000	14.332350
1997.000000	14.364600
1998.000000	14.390750
1999.000000	14.418250
2000.000000	14.438675
2001.000000	14.456350
2002.000000	14.486550
2003.000000	14.489125
2004.000000	14.494850
2005.000000	14.502275
2006.000000	14.502300
2007.000000	14.506350
2008.000000	14.514000
2009.000000	14.504250
2010.000000	14.496350
2011.000000	14.483000
2012.000000	14.469075
2013.000000	14.447425
2014.000000	14.419550
2015.000000	14.401175
2016.000000	14.369125
2017.000000	14.333850
2018.000000	14.307525
2019.000000	14.258650
2020.000000	14.211250
2021.000000	14.175800
2022.000000	14.124950
2023.000000	14.076600
2024.000000	14.018900
2025.000000	13.971900
2026.000000	13.916875
2027.000000	13.857250
2028.000000	13.793500
2029.000000	13.730775
2030.000000	13.666500
2031.000000	13.594425
2032.000000	13.521350
2033.000000	13.440950
2034.000000	13.359600
2035.000000	13.276475
2036.000000	13.185400
2037.000000	13.092675
2038.000000	13.001850
2039.000000	12.905625
2040.000000	12.799400
2041.000000	12.700500
2042.000000	12.601900
2043.000000	12.493650
2044.000000	12.386700
2045.000000	12.290400
2046.000000	12.187100
2047.000000	12.090275
2048.000000	12.007925
2049.000000	11.922275
2050.000000	11.845650
2051.000000	11.780650
2052.000000	11.728025
2053.000000	11.681275
2054.000000	11.638975
2055.000000	11.604200
2056.000000	11.582775
2057.000000	11.577625
2058.000000	11.570125
2059.000000	11.566775
2060.000000	11.567250
2061.000000	11.573025
2062.000000	11.590625
2063.000000	11.608025
2064.000000	11.622700
2065.000000	11.647375
2066.000000	11.671900
2067.000000	11.694775
2068.000000	11.717500
2069.000000	11.740775
2070.000000	11.762550
2071.000000	11.786525
2072.000000	11.817600
2073.000000	11.839875
2074.000000	11.860700
2075.000000	11.881850
2076.000000	11.899000
2077.000000	11.928625
2078.000000	11.960050
2079.000000	11.970500
2080.000000	11.983375
2081.000000	11.998000
2082.000000	12.001900
2083.000000	12.014725
2084.000000	12.030800
2085.000000	12.041450
2086.000000	12.044775
2087.000000	12.050375
2088.000000	12.054775
2089.000000	12.065025
2090.000000	12.066450
2091.000000	12.068275
2092.000000	12.073400
2093.000000	12.078825
2094.000000	12.094600
2095.000000	12.103025
2096.000000	12.104550
2097.000000	12.109175
2098.000000	12.114900
2099.000000	12.126650
2100.000000	12.145050
2101.000000	12.154550
2102.000000	12.161650
2103.000000	12.180000
2104.000000	12.191200
2105.000000	12.197550
2106.000000	12.211950
2107.000000	12.229550
2108.000000	12.246400
2109.000000	12.259300
2110.000000	12.270375
2111.000000	12.286325
2112.000000	12.312325
2113.000000	12.325775
2114.000000	12.337400
2115.000000	12.347650
2116.000000	12.353650
2117.000000	12.370375
2118.000000	12.375675
2119.000000	12.381475
2120.000000	12.390825
2121.000000	12.394000
2122.000000	12.401025
2123.000000	12.404250
2124.000000	12.405100
2125.000000	12.409525
2126.000000	12.411575
2127.000000	12.402925
2128.000000	12.395025
2129.000000	12.390625
2130.000000	12.372050
2131.000000	12.366600
2132.000000	12.355575
2133.000000	12.338900
2134.000000	12.322100
2135.000000	12.298000
2136.000000	12.284475
2137.000000	12.266175
2138.000000	12.238950
2139.000000	12.218200
2140.000000	12.190650
2141.000000	12.164300
2142.000000	12.134425
2143.000000	12.107325
2144.000000	12.085925
2145.000000	12.047300
2146.000000	12.011125
2147.000000	11.984675
2148.000000	11.950175
2149.000000	11.921225
2150.000000	11.889750
2151.000000	11.851450
2152.000000	11.813300
2153.000000	11.783000
2154.000000	11.758325
2155.000000	11.715575
2156.000000	11.682075
2157.000000	11.669250
2158.000000	11.648225
2159.000000	11.612825
2160.000000	11.587850
2161.000000	11.567225
2162.000000	11.545425
2163.000000	11.531700
2164.000000	11.520225
2165.000000	11.502900
2166.000000	11.489050
2167.000000	11.478025
2168.000000	11.468450
2169.000000	11.458050
2170.000000	11.464950
2171.000000	11.452700
2172.000000	11.442550
2173.000000	11.440475
2174.000000	11.435925
2175.000000	11.446875
2176.000000	11.450400
2177.000000	11.458500
2178.000000	11.453675
2179.000000	11.462750
2180.000000	11.470675
2181.000000	11.492275
2182.000000	11.507750
2183.000000	11.510475
2184.000000	11.517475
2185.000000	11.524975
2186.000000	11.537525
2187.000000	11.555950
2188.000000	11.566600
2189.000000	11.576350
2190.000000	11.577775
2191.000000	11.598425
2192.000000	11.602175
2193.000000	11.613550
2194.000000	11.626150
2195.000000	11.630375
2196.000000	11.660225
2197.000000	11.671825
2198.000000	11.669375
2199.000000	11.685275
2200.000000	11.702250
2201.000000	11.705100
2202.000000	11.722850
2203.000000	11.729875
2204.000000	11.746275
2205.000000	11.760925
2206.000000	11.759825
2207.000000	11.783950
2208.000000	11.797075
2209.000000	11.825600
2210.000000	11.838325
2211.000000	11.859350
2212.000000	11.871825
2213.000000	11.902400
2214.000000	11.917775
2215.000000	11.945200
2216.000000	11.970800
2217.000000	12.003525
2218.000000	12.008550
2219.000000	12.044250
2220.000000	12.067025
2221.000000	12.102700
2222.000000	12.104825
2223.000000	12.126975
2224.000000	12.131525
2225.000000	12.145025
2226.000000	12.138550
2227.000000	12.136350
2228.000000	12.136325
2229.000000	12.128150
2230.000000	12.121575
2231.000000	12.111300
2232.000000	12.069925
2233.000000	12.039825
2234.000000	12.005600
2235.000000	11.971350
2236.000000	11.931975
2237.000000	11.875000
2238.000000	11.807650
2239.000000	11.755875
2240.000000	11.687975
2241.000000	11.617550
2242.000000	11.530675
2243.000000	11.448475
2244.000000	11.360775
2245.000000	11.268775
2246.000000	11.175825
2247.000000	11.061050
2248.000000	10.940800
2249.000000	10.803950
2250.000000	10.686800
2251.000000	10.550300
2252.000000	10.410875
2253.000000	10.255600
2254.000000	10.110925
2255.000000	9.959025
2256.000000	9.800900
2257.000000	9.642825
2258.000000	9.479825
2259.000000	9.323475
2260.000000	9.178300
2261.000000	9.058750
2262.000000	8.920025
2263.000000	8.810875
2264.000000	8.701600
2265.000000	8.609800
2266.000000	8.524050
2267.000000	8.458075
2268.000000	8.408625
2269.000000	8.362075
2270.000000	8.335500
2271.000000	8.319075
2272.000000	8.306475
2273.000000	8.295675
2274.000000	8.307775
2275.000000	8.307000
2276.000000	8.334050
2277.000000	8.347000
2278.000000	8.376775
2279.000000	8.405050
2280.000000	8.436325
2281.000000	8.463050
2282.000000	8.487925
2283.000000	8.517625
2284.000000	8.543975
2285.000000	8.556275
2286.000000	8.573225
2287.000000	8.581350
2288.000000	8.590800
2289.000000	8.593575
2290.000000	8.583625
2291.000000	8.581350
2292.000000	8.562075
2293.000000	8.537975
2294.000000	8.502575
2295.000000	8.468600
2296.000000	8.419850
2297.000000	8.374900
2298.000000	8.324175
2299.000000	8.276350
2300.000000	8.231375
2301.000000	8.186375
2302.000000	8.137875
2303.000000	8.097025
2304.000000	8.064050
2305.000000	8.053725
2306.000000	8.034700
2307.000000	8.029950
2308.000000	8.035075
2309.000000	8.054175
2310.000000	8.080850
2311.000000	8.113525
2312.000000	8.154925
2313.000000	8.199875
2314.000000	8.250300
2315.000000	8.316125
2316.000000	8.369425
2317.000000	8.442250
2318.000000	8.492375
2319.000000	8.560475
2320.000000	8.617025
2321.000000	8.671375
2322.000000	8.715925
2323.000000	8.764600
2324.000000	8.810975
2325.000000	8.847125
2326.000000	8.899975
2327.000000	8.942375
2328.000000	8.975175
2329.000000	9.006750
2330.000000	9.033300
2331.000000	9.055000
2332.000000	9.080250
2333.000000	9.111225
2334.000000	9.135650
2335.000000	9.147225
2336.000000	9.156800
2337.000000	9.170500
2338.000000	9.176525
2339.000000	9.175675
2340.000000	9.173575
2341.000000	9.168675
2342.000000	9.164650
2343.000000	9.153250
2344.000000	9.137000
2345.000000	9.123150
2346.000000	9.109600
2347.000000	9.093325
2348.000000	9.075975
2349.000000	9.063200
2350.000000	9.052450
2351.000000	9.052625
2352.000000	9.061175
2353.000000	9.060025
2354.000000	9.064225
2355.000000	9.081775
2356.000000	9.112175
2357.000000	9.143100
2358.000000	9.181350
2359.000000	9.212750
2360.000000	9.242275
2361.000000	9.278400
2362.000000	9.322000
2363.000000	9.365350
2364.000000	9.396925
2365.000000	9.432800
2366.000000	9.480525
2367.000000	9.519525
2368.000000	9.547525
2369.000000	9.576825
2370.000000	9.609800
2371.000000	9.637625
2372.000000	9.654250
2373.000000	9.676225
2374.000000	9.705375
2375.000000	9.733600
2376.000000	9.752100
2377.000000	9.769100
2378.000000	9.787000
2379.000000	9.800775
2380.000000	9.811075
2381.000000	9.833075
2382.000000	9.846700
2383.000000	9.855450
2384.000000	9.873675
2385.000000	9.886350
2386.000000	9.896400
2387.000000	9.890950
2388.000000	9.886950
2389.000000	9.894250
2390.000000	9.891900
2391.000000	9.897450
2392.000000	9.899925
2393.000000	9.891375
2394.000000	9.891175
2395.000000	9.887900
2396.000000	9.878400
2397.000000	9.867450
2398.000000	9.860650
2399.000000	9.848250
2400.000000	9.838025
2401.000000	9.831625
2402.000000	9.822250
2403.000000	9.815225
2404.000000	9.802625
2405.000000	9.790325
2406.000000	9.788925
2407.000000	9.781525
2408.000000	9.768075
2409.000000	9.756425
2410.000000	9.742725
2411.000000	9.730075
2412.000000	9.731850
2413.000000	9.716500
2414.000000	9.695000
2415.000000	9.679350
2416.000000	9.670825
2417.000000	9.653350
2418.000000	9.625300
2419.000000	9.603700
2420.000000	9.594025
2421.000000	9.581350
2422.000000	9.571725
2423.000000	9.565950
2424.000000	9.554350
2425.000000	9.524650
2426.000000	9.498075
2427.000000	9.474225
2428.000000	9.442050
2429.000000	9.404425
2430.000000	9.361400
2431.000000	9.320700
2432.000000	9.285425
2433.000000	9.255550
2434.000000	9.209500
2435.000000	9.162700
2436.000000	9.127525
2437.000000	9.077825
2438.000000	9.037025
2439.000000	8.972750
2440.000000	8.927225
2441.000000	8.879200
2442.000000	8.831000
2443.000000	8.774425
2444.000000	8.730225
2445.000000	8.664375
2446.000000	8.616300
2447.000000	8.568775
2448.000000	8.518825
2449.000000	8.450825
2450.000000	8.406600
2451.000000	8.356175
2452.000000	8.307300
2453.000000	8.256825
2454.000000	8.194625
2455.000000	8.148225
2456.000000	8.100200
2457.000000	8.067950
2458.000000	8.025025
2459.000000	7.982025
2460.000000	7.941250
2461.000000	7.908050
2462.000000	7.871725
2463.000000	7.833500
2464.000000	7.807075
2465.000000	7.806800
2466.000000	7.772600
2467.000000	7.755625
2468.000000	7.735825
2469.000000	7.724375
2470.000000	7.702725
2471.000000	7.685350
2472.000000	7.700250
2473.000000	7.680050
2474.000000	7.681100
2475.000000	7.681825
2476.000000	7.684700
2477.000000	7.702425
2478.000000	7.683950
2479.000000	7.677225
2480.000000	7.677625
2481.000000	7.704300
2482.000000	7.671975
2483.000000	7.725775
2484.000000	7.695125
2485.000000	7.728350
2486.000000	7.708775
2487.000000	7.702125
2488.000000	7.765625
2489.000000	7.751275
2490.000000	7.715050
2491.000000	7.772275
2492.000000	7.750700
2493.000000	7.778575
2494.000000	7.773325
2495.000000	7.888675
2496.000000	7.869275
2497.000000	7.841875
2498.000000	7.905825
2499.000000	7.926025
2500.000000	7.963625
