PE UV       SUBTECH     SPECTRUM    ASCII       PEDS        4.00        
   -1
CICIMAUCR0071-3.Sample.ASC
24/04/18
16:44:28.00
24/04/18
16:44:28.00
Vinicio Soto Monge
C. resplendens
250,000000
1
Lambda 1050
1050L1511233
PerkinElmer UV WinLab 6.3.2.0749 / 2.02.05 Lambda 900 UV/VIS/NIR, Aug  7 2015 09:38:08

0
0
3350/servo 860,8/2
0
0
UV/VIS
1
1
1
DoubleDePol,CommonBeamDepol,RBeamAtt,SBeamAtt,60mm sphere, WB InGaAs Detector
0
0
0
0
Program
Program
3350/servo 860,8/2
3350/0,2 860,8/0,2
3350/0,2 860,8/0,2
0
15.00
 
 
 
0
 
860,8
319,2
860,8
Front
100
on
S:100 R:100
0
0
0
0
 
0
 
 
 
0
 
 
0
0
0
0
0
 
 
 
 
0
0


0
0
#HDR
-1
-1
#GR
nm
%R
1.0
0.0
2500,000000
-1,000000
2251
8
72,832800
4,915400
#DATA
250.000000	5.985045
251.000000	5.957429
252.000000	5.959193
253.000000	5.924955
254.000000	5.912240
255.000000	5.871055
256.000000	5.882402
257.000000	5.880417
258.000000	5.856531
259.000000	5.824666
260.000000	5.816400
261.000000	5.798403
262.000000	5.725721
263.000000	5.739022
264.000000	5.701361
265.000000	5.657802
266.000000	5.629011
267.000000	5.624702
268.000000	5.602493
269.000000	5.572044
270.000000	5.578329
271.000000	5.560154
272.000000	5.501156
273.000000	5.526367
274.000000	5.492044
275.000000	5.500674
276.000000	5.482721
277.000000	5.448908
278.000000	5.422551
279.000000	5.440714
280.000000	5.439068
281.000000	5.406514
282.000000	5.424298
283.000000	5.390334
284.000000	5.391359
285.000000	5.384519
286.000000	5.361111
287.000000	5.371402
288.000000	5.368216
289.000000	5.363148
290.000000	5.369177
291.000000	5.412734
292.000000	5.381158
293.000000	5.390095
294.000000	5.398790
295.000000	5.413607
296.000000	5.387281
297.000000	5.382554
298.000000	5.387722
299.000000	5.358467
300.000000	5.387915
301.000000	5.379210
302.000000	5.403334
303.000000	5.391237
304.000000	5.371426
305.000000	5.377571
306.000000	5.366728
307.000000	5.367459
308.000000	5.362934
309.000000	5.359946
310.000000	5.375831
311.000000	5.358983
312.000000	5.339402
313.000000	5.372579
314.000000	5.346989
315.000000	5.319560
316.000000	5.375758
317.000000	5.741609
318.000000	5.758427
319.000000	5.700611
320.000000	5.584702
321.000000	5.757555
322.000000	5.560658
323.000000	5.627351
324.000000	5.504766
325.000000	5.508755
326.000000	5.585287
327.000000	5.522158
328.000000	5.461614
329.000000	5.509651
330.000000	5.564893
331.000000	5.468306
332.000000	5.418093
333.000000	5.519344
334.000000	5.608825
335.000000	5.597250
336.000000	5.550181
337.000000	5.540757
338.000000	5.506775
339.000000	5.512122
340.000000	5.511208
341.000000	5.554567
342.000000	5.557906
343.000000	5.517643
344.000000	5.517725
345.000000	5.531702
346.000000	5.539862
347.000000	5.549610
348.000000	5.582153
349.000000	5.593402
350.000000	5.556628
351.000000	5.666673
352.000000	5.647480
353.000000	5.720853
354.000000	5.716783
355.000000	5.755406
356.000000	5.773455
357.000000	5.830534
358.000000	5.868246
359.000000	5.901307
360.000000	5.949529
361.000000	5.991733
362.000000	6.032555
363.000000	6.048357
364.000000	6.095490
365.000000	6.101623
366.000000	6.124432
367.000000	6.162647
368.000000	6.230535
369.000000	6.286538
370.000000	6.296379
371.000000	6.343784
372.000000	6.431239
373.000000	6.475870
374.000000	6.453730
375.000000	6.536062
376.000000	6.798228
377.000000	6.854881
378.000000	6.943697
379.000000	7.044281
380.000000	7.150799
381.000000	7.270991
382.000000	7.399251
383.000000	7.525221
384.000000	7.660666
385.000000	7.811285
386.000000	7.957581
387.000000	8.134199
388.000000	8.306517
389.000000	8.486258
390.000000	8.683536
391.000000	8.888189
392.000000	9.102969
393.000000	9.334672
394.000000	9.577575
395.000000	9.828024
396.000000	10.085227
397.000000	10.345913
398.000000	10.618367
399.000000	10.907421
400.000000	11.204014
401.000000	11.506876
402.000000	11.824483
403.000000	12.147460
404.000000	12.469017
405.000000	12.804567
406.000000	13.151626
407.000000	13.497652
408.000000	13.847027
409.000000	14.197454
410.000000	14.559089
411.000000	14.921793
412.000000	15.283807
413.000000	15.647582
414.000000	16.017296
415.000000	16.368705
416.000000	16.719870
417.000000	17.065892
418.000000	17.404623
419.000000	17.731099
420.000000	18.057966
421.000000	18.385640
422.000000	18.712514
423.000000	19.022493
424.000000	19.310169
425.000000	19.593607
426.000000	19.879736
427.000000	20.150112
428.000000	20.402315
429.000000	20.651621
430.000000	20.893664
431.000000	21.130666
432.000000	21.364083
433.000000	21.577301
434.000000	21.789783
435.000000	21.998430
436.000000	22.189829
437.000000	22.385070
438.000000	22.572496
439.000000	22.751846
440.000000	22.934638
441.000000	23.104451
442.000000	23.267839
443.000000	23.422470
444.000000	23.556110
445.000000	23.675542
446.000000	23.789827
447.000000	23.905876
448.000000	23.997090
449.000000	24.084213
450.000000	24.182452
451.000000	24.264599
452.000000	24.339027
453.000000	24.413949
454.000000	24.478329
455.000000	24.541268
456.000000	24.596230
457.000000	24.638402
458.000000	24.687781
459.000000	24.738483
460.000000	24.797461
461.000000	24.851601
462.000000	24.915475
463.000000	24.990467
464.000000	25.061727
465.000000	25.148997
466.000000	25.235566
467.000000	25.342716
468.000000	25.468740
469.000000	25.596410
470.000000	25.745795
471.000000	25.918303
472.000000	26.101860
473.000000	26.304861
474.000000	26.524330
475.000000	26.768855
476.000000	27.016906
477.000000	27.276573
478.000000	27.569752
479.000000	27.881706
480.000000	28.209756
481.000000	28.551513
482.000000	28.915235
483.000000	29.302597
484.000000	29.703777
485.000000	30.124882
486.000000	30.543447
487.000000	30.970076
488.000000	31.416704
489.000000	31.877304
490.000000	32.359517
491.000000	32.844341
492.000000	33.328648
493.000000	33.825228
494.000000	34.338288
495.000000	34.861362
496.000000	35.390443
497.000000	35.939743
498.000000	36.506372
499.000000	37.080517
500.000000	37.668082
501.000000	38.279353
502.000000	38.921387
503.000000	39.573212
504.000000	40.253224
505.000000	40.926706
506.000000	41.637546
507.000000	42.372456
508.000000	43.110893
509.000000	43.862335
510.000000	44.661793
511.000000	45.465664
512.000000	46.300331
513.000000	47.141126
514.000000	48.001349
515.000000	48.843218
516.000000	49.699881
517.000000	50.560913
518.000000	51.433886
519.000000	52.322123
520.000000	53.224040
521.000000	54.124477
522.000000	55.011257
523.000000	55.885061
524.000000	56.752759
525.000000	57.601339
526.000000	58.422881
527.000000	59.213211
528.000000	59.962895
529.000000	60.689967
530.000000	61.396578
531.000000	62.078237
532.000000	62.753452
533.000000	63.410938
534.000000	64.025273
535.000000	64.628045
536.000000	65.212297
537.000000	65.782255
538.000000	66.321095
539.000000	66.840596
540.000000	67.344913
541.000000	67.838392
542.000000	68.287718
543.000000	68.742639
544.000000	69.189719
545.000000	69.581636
546.000000	69.966865
547.000000	70.328871
548.000000	70.681869
549.000000	71.014011
550.000000	71.330947
551.000000	71.647709
552.000000	71.942654
553.000000	72.248914
554.000000	72.538839
555.000000	72.804190
556.000000	73.051416
557.000000	73.295147
558.000000	73.521069
559.000000	73.720826
560.000000	73.813388
561.000000	74.000607
562.000000	74.176399
563.000000	74.332681
564.000000	74.477445
565.000000	74.594822
566.000000	74.711228
567.000000	74.823175
568.000000	74.905455
569.000000	74.959045
570.000000	75.030031
571.000000	75.053931
572.000000	75.083029
573.000000	75.063845
574.000000	75.076744
575.000000	75.045982
576.000000	75.009623
577.000000	74.970806
578.000000	74.955485
579.000000	74.885053
580.000000	74.810050
581.000000	74.711610
582.000000	74.616051
583.000000	74.529453
584.000000	74.413914
585.000000	74.298991
586.000000	74.162795
587.000000	74.027440
588.000000	73.875044
589.000000	73.690225
590.000000	73.468088
591.000000	73.272582
592.000000	73.023391
593.000000	72.778241
594.000000	72.486448
595.000000	72.231080
596.000000	71.917395
597.000000	71.603466
598.000000	71.229274
599.000000	70.892482
600.000000	70.542215
601.000000	70.130660
602.000000	69.728283
603.000000	69.336744
604.000000	68.905482
605.000000	68.472506
606.000000	68.058864
607.000000	67.626814
608.000000	67.176856
609.000000	66.699390
610.000000	66.254167
611.000000	65.764615
612.000000	65.339005
613.000000	64.820900
614.000000	64.342926
615.000000	63.861879
616.000000	63.359196
617.000000	62.884228
618.000000	62.414267
619.000000	61.940329
620.000000	61.479396
621.000000	61.020810
622.000000	60.579541
623.000000	60.155356
624.000000	59.711883
625.000000	59.319490
626.000000	58.941723
627.000000	58.583332
628.000000	58.254625
629.000000	57.931464
630.000000	57.652092
631.000000	57.390909
632.000000	57.206727
633.000000	57.001949
634.000000	56.859600
635.000000	56.732154
636.000000	56.666208
637.000000	56.656922
638.000000	56.669846
639.000000	56.747326
640.000000	56.852055
641.000000	57.018483
642.000000	57.210194
643.000000	57.463400
644.000000	57.763029
645.000000	58.118281
646.000000	58.503259
647.000000	58.924403
648.000000	59.398449
649.000000	59.907578
650.000000	60.445974
651.000000	61.018415
652.000000	61.620900
653.000000	62.215837
654.000000	62.863445
655.000000	63.473713
656.000000	64.088467
657.000000	64.730021
658.000000	65.338255
659.000000	65.932016
660.000000	66.535523
661.000000	67.102699
662.000000	67.652032
663.000000	68.200647
664.000000	68.680353
665.000000	69.191681
666.000000	69.659138
667.000000	70.072952
668.000000	70.489961
669.000000	70.896528
670.000000	71.275106
671.000000	71.624398
672.000000	71.978584
673.000000	72.303761
674.000000	72.609487
675.000000	72.922552
676.000000	73.189647
677.000000	73.440596
678.000000	73.687858
679.000000	73.948402
680.000000	74.188421
681.000000	74.409853
682.000000	74.593473
683.000000	74.810050
684.000000	74.981562
685.000000	75.143697
686.000000	75.330556
687.000000	75.492518
688.000000	75.635384
689.000000	75.834124
690.000000	75.985153
691.000000	76.156421
692.000000	76.332541
693.000000	76.513563
694.000000	76.665861
695.000000	76.856655
696.000000	77.016595
697.000000	77.215660
698.000000	77.358811
699.000000	77.535696
700.000000	77.732143
701.000000	77.911394
702.000000	78.068329
703.000000	78.228439
704.000000	78.374271
705.000000	78.537193
706.000000	78.718085
707.000000	78.861048
708.000000	79.020062
709.000000	79.149210
710.000000	79.262930
711.000000	79.364036
712.000000	79.511929
713.000000	79.648266
714.000000	79.718135
715.000000	79.794272
716.000000	79.928156
717.000000	80.027286
718.000000	80.097672
719.000000	80.215589
720.000000	80.317365
721.000000	80.375875
722.000000	80.456197
723.000000	80.554721
724.000000	80.628119
725.000000	80.722474
726.000000	80.839277
727.000000	80.974858
728.000000	81.070052
729.000000	81.156425
730.000000	81.237369
731.000000	81.346392
732.000000	81.434813
733.000000	81.501621
734.000000	81.563121
735.000000	81.654368
736.000000	81.733227
737.000000	81.765350
738.000000	81.772527
739.000000	81.786283
740.000000	81.818700
741.000000	81.820539
742.000000	81.753516
743.000000	81.686932
744.000000	81.654523
745.000000	81.595908
746.000000	81.518742
747.000000	81.416681
748.000000	81.344289
749.000000	81.271074
750.000000	81.124234
751.000000	80.985384
752.000000	80.844132
753.000000	80.693161
754.000000	80.562285
755.000000	80.448939
756.000000	80.335556
757.000000	80.199070
758.000000	80.105482
759.000000	80.003727
760.000000	79.879453
761.000000	79.761589
762.000000	79.649672
763.000000	79.562277
764.000000	79.443121
765.000000	79.333500
766.000000	79.236260
767.000000	79.103505
768.000000	78.983570
769.000000	78.944439
770.000000	78.864515
771.000000	78.740477
772.000000	78.601005
773.000000	78.453169
774.000000	78.345986
775.000000	78.223671
776.000000	78.114775
777.000000	77.948012
778.000000	77.800584
779.000000	77.705718
780.000000	77.570797
781.000000	77.366561
782.000000	77.184920
783.000000	76.982921
784.000000	76.799424
785.000000	76.657295
786.000000	76.457665
787.000000	76.207631
788.000000	76.026794
789.000000	75.829874
790.000000	75.628430
791.000000	75.383509
792.000000	75.223093
793.000000	75.063376
794.000000	74.841807
795.000000	74.700669
796.000000	74.571944
797.000000	74.434219
798.000000	74.255603
799.000000	74.091758
800.000000	73.926429
801.000000	73.794952
802.000000	73.711191
803.000000	73.565234
804.000000	73.450654
805.000000	73.253344
806.000000	73.139037
807.000000	72.990498
808.000000	72.905488
809.000000	72.822262
810.000000	72.561043
811.000000	72.388849
812.000000	72.268220
813.000000	72.095477
814.000000	71.927541
815.000000	71.757125
816.000000	71.496626
817.000000	71.310704
818.000000	71.155836
819.000000	70.915534
820.000000	70.785381
821.000000	70.474403
822.000000	70.368653
823.000000	70.261836
824.000000	70.016761
825.000000	69.876138
826.000000	69.722596
827.000000	69.623511
828.000000	69.505809
829.000000	69.332847
830.000000	69.113079
831.000000	69.170302
832.000000	69.050835
833.000000	68.928338
834.000000	68.807422
835.000000	68.780353
836.000000	68.711038
837.000000	68.795175
838.000000	68.646400
839.000000	68.566978
840.000000	68.506965
841.000000	68.483035
842.000000	68.450704
843.000000	68.442858
844.000000	68.313192
845.000000	68.383749
846.000000	68.267233
847.000000	68.230082
848.000000	68.060677
849.000000	68.071824
850.000000	68.210336
851.000000	68.081663
852.000000	68.107165
853.000000	67.974853
854.000000	67.880881
855.000000	67.804015
856.000000	67.700662
857.000000	67.807693
858.000000	68.072267
859.000000	67.595000
860.000000	67.790400
861.000000	67.976433
862.000000	68.131167
863.000000	68.230000
864.000000	68.335500
865.000000	68.402667
866.000000	68.456633
867.000000	68.503733
868.000000	68.548333
869.000000	68.587800
870.000000	68.597500
871.000000	68.596833
872.000000	68.632533
873.000000	68.651533
874.000000	68.683233
875.000000	68.674967
876.000000	68.680033
877.000000	68.682400
878.000000	68.695433
879.000000	68.688533
880.000000	68.696933
881.000000	68.704133
882.000000	68.698200
883.000000	68.688333
884.000000	68.687600
885.000000	68.682400
886.000000	68.681300
887.000000	68.689767
888.000000	68.673200
889.000000	68.684900
890.000000	68.659633
891.000000	68.655033
892.000000	68.656500
893.000000	68.642367
894.000000	68.629833
895.000000	68.609833
896.000000	68.591767
897.000000	68.580267
898.000000	68.555667
899.000000	68.540400
900.000000	68.520200
901.000000	68.487633
902.000000	68.465767
903.000000	68.429467
904.000000	68.403400
905.000000	68.360500
906.000000	68.330833
907.000000	68.302367
908.000000	68.273567
909.000000	68.252233
910.000000	68.199700
911.000000	68.147233
912.000000	68.106900
913.000000	68.076233
914.000000	68.028567
915.000000	67.987300
916.000000	67.956367
917.000000	67.893967
918.000000	67.849567
919.000000	67.805900
920.000000	67.785200
921.000000	67.705800
922.000000	67.668100
923.000000	67.636233
924.000000	67.571600
925.000000	67.538633
926.000000	67.507100
927.000000	67.453933
928.000000	67.405333
929.000000	67.363633
930.000000	67.325433
931.000000	67.278633
932.000000	67.249667
933.000000	67.190400
934.000000	67.141533
935.000000	67.100767
936.000000	67.046567
937.000000	67.005400
938.000000	66.943500
939.000000	66.909233
940.000000	66.876533
941.000000	66.851667
942.000000	66.799467
943.000000	66.762233
944.000000	66.739400
945.000000	66.690233
946.000000	66.632833
947.000000	66.612533
948.000000	66.560133
949.000000	66.526400
950.000000	66.496933
951.000000	66.461100
952.000000	66.425367
953.000000	66.382167
954.000000	66.344400
955.000000	66.317100
956.000000	66.282100
957.000000	66.233600
958.000000	66.212700
959.000000	66.167767
960.000000	66.129300
961.000000	66.108733
962.000000	66.088833
963.000000	66.051467
964.000000	66.021300
965.000000	65.998300
966.000000	65.978767
967.000000	65.946067
968.000000	65.933500
969.000000	65.908000
970.000000	65.893067
971.000000	65.875267
972.000000	65.854400
973.000000	65.837733
974.000000	65.828533
975.000000	65.821800
976.000000	65.794400
977.000000	65.784933
978.000000	65.783433
979.000000	65.779600
980.000000	65.757967
981.000000	65.751500
982.000000	65.740333
983.000000	65.735967
984.000000	65.729500
985.000000	65.731133
986.000000	65.732333
987.000000	65.735733
988.000000	65.745700
989.000000	65.752000
990.000000	65.759600
991.000000	65.770667
992.000000	65.775700
993.000000	65.785067
994.000000	65.802967
995.000000	65.822667
996.000000	65.839733
997.000000	65.852900
998.000000	65.874400
999.000000	65.882200
1000.000000	65.907567
1001.000000	65.935500
1002.000000	65.967633
1003.000000	65.984233
1004.000000	65.996000
1005.000000	66.021800
1006.000000	66.053267
1007.000000	66.090000
1008.000000	66.120667
1009.000000	66.151367
1010.000000	66.188167
1011.000000	66.216467
1012.000000	66.244667
1013.000000	66.287333
1014.000000	66.326467
1015.000000	66.358167
1016.000000	66.400500
1017.000000	66.437533
1018.000000	66.477933
1019.000000	66.530500
1020.000000	66.576633
1021.000000	66.625800
1022.000000	66.681733
1023.000000	66.723567
1024.000000	66.763967
1025.000000	66.816700
1026.000000	66.867700
1027.000000	66.915467
1028.000000	66.965533
1029.000000	67.003967
1030.000000	67.051533
1031.000000	67.109033
1032.000000	67.157000
1033.000000	67.206667
1034.000000	67.258900
1035.000000	67.302467
1036.000000	67.348567
1037.000000	67.394900
1038.000000	67.440133
1039.000000	67.493367
1040.000000	67.541933
1041.000000	67.584467
1042.000000	67.628067
1043.000000	67.675000
1044.000000	67.722200
1045.000000	67.773700
1046.000000	67.825400
1047.000000	67.873567
1048.000000	67.915467
1049.000000	67.971333
1050.000000	68.025933
1051.000000	68.075567
1052.000000	68.128433
1053.000000	68.177600
1054.000000	68.237967
1055.000000	68.298333
1056.000000	68.354067
1057.000000	68.411767
1058.000000	68.470367
1059.000000	68.528367
1060.000000	68.590500
1061.000000	68.655400
1062.000000	68.719367
1063.000000	68.779333
1064.000000	68.835100
1065.000000	68.894533
1066.000000	68.962800
1067.000000	69.021967
1068.000000	69.072400
1069.000000	69.126933
1070.000000	69.186333
1071.000000	69.248233
1072.000000	69.299100
1073.000000	69.369233
1074.000000	69.426900
1075.000000	69.478500
1076.000000	69.528667
1077.000000	69.588300
1078.000000	69.640867
1079.000000	69.689367
1080.000000	69.741733
1081.000000	69.788000
1082.000000	69.844033
1083.000000	69.900767
1084.000000	69.948000
1085.000000	69.988967
1086.000000	70.036267
1087.000000	70.079067
1088.000000	70.119167
1089.000000	70.174900
1090.000000	70.214800
1091.000000	70.265333
1092.000000	70.295267
1093.000000	70.338400
1094.000000	70.375133
1095.000000	70.412400
1096.000000	70.440667
1097.000000	70.465867
1098.000000	70.512167
1099.000000	70.541400
1100.000000	70.570433
1101.000000	70.601300
1102.000000	70.634633
1103.000000	70.666433
1104.000000	70.694367
1105.000000	70.724700
1106.000000	70.746500
1107.000000	70.784967
1108.000000	70.805500
1109.000000	70.841167
1110.000000	70.868500
1111.000000	70.887233
1112.000000	70.913033
1113.000000	70.927500
1114.000000	70.948267
1115.000000	70.979367
1116.000000	71.004900
1117.000000	71.026500
1118.000000	71.036067
1119.000000	71.050100
1120.000000	71.067033
1121.000000	71.069133
1122.000000	71.086400
1123.000000	71.069633
1124.000000	71.041967
1125.000000	71.017233
1126.000000	70.983433
1127.000000	70.938567
1128.000000	70.900100
1129.000000	70.844900
1130.000000	70.764733
1131.000000	70.686033
1132.000000	70.580000
1133.000000	70.518867
1134.000000	70.479133
1135.000000	70.365867
1136.000000	70.251500
1137.000000	70.113567
1138.000000	69.997700
1139.000000	69.892233
1140.000000	69.803967
1141.000000	69.719233
1142.000000	69.625600
1143.000000	69.559900
1144.000000	69.493333
1145.000000	69.435267
1146.000000	69.354367
1147.000000	69.285833
1148.000000	69.197433
1149.000000	69.120267
1150.000000	69.042200
1151.000000	68.980400
1152.000000	68.898500
1153.000000	68.808767
1154.000000	68.717000
1155.000000	68.587367
1156.000000	68.470467
1157.000000	68.343833
1158.000000	68.204667
1159.000000	68.070800
1160.000000	67.922267
1161.000000	67.767300
1162.000000	67.607033
1163.000000	67.460867
1164.000000	67.303933
1165.000000	67.171533
1166.000000	67.021133
1167.000000	66.878267
1168.000000	66.757267
1169.000000	66.653733
1170.000000	66.543800
1171.000000	66.449633
1172.000000	66.356000
1173.000000	66.292533
1174.000000	66.225533
1175.000000	66.161033
1176.000000	66.098800
1177.000000	66.039600
1178.000000	65.964167
1179.000000	65.905067
1180.000000	65.840967
1181.000000	65.781967
1182.000000	65.734033
1183.000000	65.677867
1184.000000	65.638700
1185.000000	65.609600
1186.000000	65.604133
1187.000000	65.608167
1188.000000	65.622733
1189.000000	65.663167
1190.000000	65.719667
1191.000000	65.768633
1192.000000	65.841400
1193.000000	65.922267
1194.000000	65.998067
1195.000000	66.068167
1196.000000	66.150467
1197.000000	66.225533
1198.000000	66.288667
1199.000000	66.353100
1200.000000	66.411267
1201.000000	66.460833
1202.000000	66.520900
1203.000000	66.571800
1204.000000	66.645133
1205.000000	66.690267
1206.000000	66.740133
1207.000000	66.785633
1208.000000	66.839433
1209.000000	66.903467
1210.000000	66.972833
1211.000000	67.033000
1212.000000	67.080667
1213.000000	67.141900
1214.000000	67.203867
1215.000000	67.266900
1216.000000	67.318833
1217.000000	67.379200
1218.000000	67.444500
1219.000000	67.522933
1220.000000	67.592267
1221.000000	67.665100
1222.000000	67.740700
1223.000000	67.807967
1224.000000	67.874100
1225.000000	67.948567
1226.000000	68.012700
1227.000000	68.081333
1228.000000	68.148867
1229.000000	68.201400
1230.000000	68.259600
1231.000000	68.321367
1232.000000	68.379667
1233.000000	68.430767
1234.000000	68.488367
1235.000000	68.542033
1236.000000	68.592433
1237.000000	68.644667
1238.000000	68.699400
1239.000000	68.751533
1240.000000	68.816767
1241.000000	68.873100
1242.000000	68.927433
1243.000000	68.986667
1244.000000	69.059167
1245.000000	69.117767
1246.000000	69.177700
1247.000000	69.232067
1248.000000	69.288367
1249.000000	69.335900
1250.000000	69.384300
1251.000000	69.431033
1252.000000	69.469933
1253.000000	69.495167
1254.000000	69.501567
1255.000000	69.516333
1256.000000	69.541067
1257.000000	69.548467
1258.000000	69.548067
1259.000000	69.552067
1260.000000	69.561400
1261.000000	69.563433
1262.000000	69.565433
1263.000000	69.566067
1264.000000	69.574200
1265.000000	69.571000
1266.000000	69.564333
1267.000000	69.559867
1268.000000	69.551700
1269.000000	69.554467
1270.000000	69.553433
1271.000000	69.543167
1272.000000	69.532567
1273.000000	69.527600
1274.000000	69.528867
1275.000000	69.531800
1276.000000	69.537300
1277.000000	69.540100
1278.000000	69.553067
1279.000000	69.573800
1280.000000	69.594067
1281.000000	69.612867
1282.000000	69.643333
1283.000000	69.674233
1284.000000	69.705200
1285.000000	69.730667
1286.000000	69.758467
1287.000000	69.785567
1288.000000	69.811567
1289.000000	69.835867
1290.000000	69.860367
1291.000000	69.878400
1292.000000	69.893333
1293.000000	69.910733
1294.000000	69.919667
1295.000000	69.922700
1296.000000	69.923067
1297.000000	69.923667
1298.000000	69.927400
1299.000000	69.924500
1300.000000	69.918367
1301.000000	69.916167
1302.000000	69.903200
1303.000000	69.878433
1304.000000	69.855600
1305.000000	69.839333
1306.000000	69.822167
1307.000000	69.792333
1308.000000	69.757267
1309.000000	69.729533
1310.000000	69.692867
1311.000000	69.648700
1312.000000	69.608533
1313.000000	69.571967
1314.000000	69.526100
1315.000000	69.471533
1316.000000	69.423833
1317.000000	69.363733
1318.000000	69.306767
1319.000000	69.256500
1320.000000	69.194733
1321.000000	69.131500
1322.000000	69.071133
1323.000000	69.001700
1324.000000	68.926567
1325.000000	68.852167
1326.000000	68.774233
1327.000000	68.694867
1328.000000	68.613233
1329.000000	68.522767
1330.000000	68.424333
1331.000000	68.319467
1332.000000	68.211933
1333.000000	68.084633
1334.000000	67.962833
1335.000000	67.835167
1336.000000	67.700800
1337.000000	67.550567
1338.000000	67.401733
1339.000000	67.252367
1340.000000	67.095633
1341.000000	66.935700
1342.000000	66.755633
1343.000000	66.583833
1344.000000	66.397500
1345.000000	66.174167
1346.000000	65.985767
1347.000000	65.808000
1348.000000	65.594367
1349.000000	65.352733
1350.000000	65.141600
1351.000000	64.943200
1352.000000	64.747067
1353.000000	64.583933
1354.000000	64.464667
1355.000000	64.321767
1356.000000	64.157200
1357.000000	64.033167
1358.000000	63.933000
1359.000000	63.845267
1360.000000	63.816667
1361.000000	63.785900
1362.000000	63.692867
1363.000000	63.533333
1364.000000	63.444333
1365.000000	63.335833
1366.000000	63.178700
1367.000000	63.058767
1368.000000	62.957533
1369.000000	62.769900
1370.000000	62.629833
1371.000000	62.508933
1372.000000	62.343567
1373.000000	62.171400
1374.000000	62.003267
1375.000000	61.900167
1376.000000	61.757833
1377.000000	61.621767
1378.000000	61.494300
1379.000000	61.357400
1380.000000	61.176967
1381.000000	61.081400
1382.000000	60.913133
1383.000000	60.635500
1384.000000	60.386200
1385.000000	60.022000
1386.000000	59.720767
1387.000000	59.429600
1388.000000	59.122733
1389.000000	58.696667
1390.000000	58.344500
1391.000000	58.054900
1392.000000	57.714033
1393.000000	57.357133
1394.000000	57.073533
1395.000000	56.803967
1396.000000	56.378533
1397.000000	55.892767
1398.000000	55.474667
1399.000000	55.237667
1400.000000	54.908100
1401.000000	54.392200
1402.000000	53.865500
1403.000000	53.434100
1404.000000	52.998800
1405.000000	52.611967
1406.000000	52.137733
1407.000000	51.711133
1408.000000	51.274033
1409.000000	50.841400
1410.000000	50.347300
1411.000000	49.893067
1412.000000	49.496400
1413.000000	49.152467
1414.000000	48.814233
1415.000000	48.386533
1416.000000	48.010933
1417.000000	47.665133
1418.000000	47.420300
1419.000000	47.134400
1420.000000	46.797900
1421.000000	46.465300
1422.000000	46.189567
1423.000000	45.957533
1424.000000	45.712333
1425.000000	45.462733
1426.000000	45.196667
1427.000000	44.995500
1428.000000	44.801500
1429.000000	44.586133
1430.000000	44.391300
1431.000000	44.236600
1432.000000	44.088233
1433.000000	43.912400
1434.000000	43.755333
1435.000000	43.583000
1436.000000	43.450600
1437.000000	43.326833
1438.000000	43.211500
1439.000000	43.071267
1440.000000	42.952900
1441.000000	42.845200
1442.000000	42.728067
1443.000000	42.599367
1444.000000	42.512100
1445.000000	42.438667
1446.000000	42.334200
1447.000000	42.214533
1448.000000	42.087267
1449.000000	42.010733
1450.000000	41.952100
1451.000000	41.858000
1452.000000	41.757567
1453.000000	41.633000
1454.000000	41.533467
1455.000000	41.447367
1456.000000	41.347233
1457.000000	41.255333
1458.000000	41.153167
1459.000000	41.066467
1460.000000	40.977133
1461.000000	40.879633
1462.000000	40.797100
1463.000000	40.711800
1464.000000	40.624667
1465.000000	40.540900
1466.000000	40.477700
1467.000000	40.384567
1468.000000	40.295367
1469.000000	40.230767
1470.000000	40.180633
1471.000000	40.124967
1472.000000	40.053967
1473.000000	39.979900
1474.000000	39.910833
1475.000000	39.854800
1476.000000	39.825367
1477.000000	39.780167
1478.000000	39.750233
1479.000000	39.725500
1480.000000	39.701433
1481.000000	39.684767
1482.000000	39.659300
1483.000000	39.637600
1484.000000	39.618800
1485.000000	39.607900
1486.000000	39.594300
1487.000000	39.581600
1488.000000	39.570367
1489.000000	39.561367
1490.000000	39.548767
1491.000000	39.547333
1492.000000	39.535833
1493.000000	39.532567
1494.000000	39.541333
1495.000000	39.556333
1496.000000	39.573867
1497.000000	39.587567
1498.000000	39.620500
1499.000000	39.662067
1500.000000	39.703700
1501.000000	39.746667
1502.000000	39.802267
1503.000000	39.864167
1504.000000	39.935533
1505.000000	39.997467
1506.000000	40.058867
1507.000000	40.133933
1508.000000	40.208200
1509.000000	40.268833
1510.000000	40.346667
1511.000000	40.428900
1512.000000	40.508333
1513.000000	40.581733
1514.000000	40.651967
1515.000000	40.719400
1516.000000	40.793567
1517.000000	40.870067
1518.000000	40.935700
1519.000000	41.008533
1520.000000	41.081633
1521.000000	41.138833
1522.000000	41.199033
1523.000000	41.267333
1524.000000	41.330967
1525.000000	41.394733
1526.000000	41.457933
1527.000000	41.521933
1528.000000	41.574233
1529.000000	41.637400
1530.000000	41.696100
1531.000000	41.755700
1532.000000	41.802800
1533.000000	41.851200
1534.000000	41.909600
1535.000000	41.962467
1536.000000	42.006300
1537.000000	42.048500
1538.000000	42.091067
1539.000000	42.131867
1540.000000	42.169633
1541.000000	42.211967
1542.000000	42.253233
1543.000000	42.307400
1544.000000	42.363867
1545.000000	42.420567
1546.000000	42.483267
1547.000000	42.551567
1548.000000	42.630033
1549.000000	42.709633
1550.000000	42.792533
1551.000000	42.879800
1552.000000	42.953033
1553.000000	43.014333
1554.000000	43.080900
1555.000000	43.147200
1556.000000	43.197333
1557.000000	43.233867
1558.000000	43.274167
1559.000000	43.299500
1560.000000	43.313467
1561.000000	43.330400
1562.000000	43.337800
1563.000000	43.334600
1564.000000	43.335567
1565.000000	43.326367
1566.000000	43.303133
1567.000000	43.290200
1568.000000	43.280233
1569.000000	43.269300
1570.000000	43.256533
1571.000000	43.247100
1572.000000	43.246000
1573.000000	43.246933
1574.000000	43.256300
1575.000000	43.268567
1576.000000	43.277567
1577.000000	43.296667
1578.000000	43.315400
1579.000000	43.344933
1580.000000	43.381067
1581.000000	43.415867
1582.000000	43.461300
1583.000000	43.508367
1584.000000	43.546767
1585.000000	43.589567
1586.000000	43.645967
1587.000000	43.688200
1588.000000	43.732533
1589.000000	43.782500
1590.000000	43.827933
1591.000000	43.875233
1592.000000	43.931733
1593.000000	43.983900
1594.000000	44.039333
1595.000000	44.099433
1596.000000	44.160233
1597.000000	44.219600
1598.000000	44.282100
1599.000000	44.353000
1600.000000	44.425167
1601.000000	44.493333
1602.000000	44.565133
1603.000000	44.644200
1604.000000	44.720067
1605.000000	44.791433
1606.000000	44.861367
1607.000000	44.923967
1608.000000	44.983833
1609.000000	45.047433
1610.000000	45.101200
1611.000000	45.149433
1612.000000	45.190333
1613.000000	45.236567
1614.000000	45.270933
1615.000000	45.306000
1616.000000	45.347200
1617.000000	45.381167
1618.000000	45.425767
1619.000000	45.455333
1620.000000	45.487000
1621.000000	45.521533
1622.000000	45.565000
1623.000000	45.603500
1624.000000	45.640567
1625.000000	45.675100
1626.000000	45.708700
1627.000000	45.750400
1628.000000	45.787000
1629.000000	45.829033
1630.000000	45.870367
1631.000000	45.893933
1632.000000	45.923800
1633.000000	45.951433
1634.000000	45.976600
1635.000000	46.002900
1636.000000	46.023467
1637.000000	46.031933
1638.000000	46.049267
1639.000000	46.056500
1640.000000	46.066300
1641.000000	46.076700
1642.000000	46.066033
1643.000000	46.064400
1644.000000	46.068267
1645.000000	46.069667
1646.000000	46.070467
1647.000000	46.075800
1648.000000	46.070100
1649.000000	46.064933
1650.000000	46.051900
1651.000000	46.028633
1652.000000	45.994733
1653.000000	45.950833
1654.000000	45.913367
1655.000000	45.863167
1656.000000	45.788167
1657.000000	45.705333
1658.000000	45.626333
1659.000000	45.508900
1660.000000	45.398100
1661.000000	45.273833
1662.000000	45.137933
1663.000000	44.997000
1664.000000	44.846033
1665.000000	44.692833
1666.000000	44.538733
1667.000000	44.389033
1668.000000	44.221500
1669.000000	44.042167
1670.000000	43.859600
1671.000000	43.691767
1672.000000	43.531400
1673.000000	43.370500
1674.000000	43.197300
1675.000000	43.048900
1676.000000	42.882633
1677.000000	42.720633
1678.000000	42.530167
1679.000000	42.342133
1680.000000	42.137200
1681.000000	41.908267
1682.000000	41.694867
1683.000000	41.467200
1684.000000	41.272300
1685.000000	41.100233
1686.000000	40.965100
1687.000000	40.864733
1688.000000	40.825067
1689.000000	40.825867
1690.000000	40.869400
1691.000000	40.935133
1692.000000	41.024167
1693.000000	41.107767
1694.000000	41.170200
1695.000000	41.227167
1696.000000	41.278867
1697.000000	41.291833
1698.000000	41.291000
1699.000000	41.268367
1700.000000	41.236767
1701.000000	41.208967
1702.000000	41.171633
1703.000000	41.119567
1704.000000	41.066267
1705.000000	41.003067
1706.000000	40.921567
1707.000000	40.829867
1708.000000	40.727467
1709.000000	40.604800
1710.000000	40.472167
1711.000000	40.333300
1712.000000	40.177233
1713.000000	39.997867
1714.000000	39.799333
1715.000000	39.579667
1716.000000	39.362200
1717.000000	39.138100
1718.000000	38.902200
1719.000000	38.692567
1720.000000	38.511900
1721.000000	38.351700
1722.000000	38.240967
1723.000000	38.168000
1724.000000	38.138400
1725.000000	38.150733
1726.000000	38.173400
1727.000000	38.204900
1728.000000	38.264333
1729.000000	38.318900
1730.000000	38.383633
1731.000000	38.448600
1732.000000	38.526467
1733.000000	38.608400
1734.000000	38.687300
1735.000000	38.780700
1736.000000	38.866400
1737.000000	38.951033
1738.000000	39.042600
1739.000000	39.135833
1740.000000	39.236967
1741.000000	39.328033
1742.000000	39.421267
1743.000000	39.510633
1744.000000	39.577733
1745.000000	39.654333
1746.000000	39.721400
1747.000000	39.768267
1748.000000	39.814067
1749.000000	39.843067
1750.000000	39.861667
1751.000000	39.872200
1752.000000	39.879833
1753.000000	39.874733
1754.000000	39.868400
1755.000000	39.863967
1756.000000	39.845600
1757.000000	39.837867
1758.000000	39.821133
1759.000000	39.818200
1760.000000	39.810933
1761.000000	39.805333
1762.000000	39.796667
1763.000000	39.818433
1764.000000	39.836633
1765.000000	39.861333
1766.000000	39.897433
1767.000000	39.954267
1768.000000	39.999667
1769.000000	40.057100
1770.000000	40.102933
1771.000000	40.147333
1772.000000	40.196767
1773.000000	40.243000
1774.000000	40.294933
1775.000000	40.339733
1776.000000	40.384867
1777.000000	40.423767
1778.000000	40.454667
1779.000000	40.484367
1780.000000	40.518367
1781.000000	40.541967
1782.000000	40.557467
1783.000000	40.554733
1784.000000	40.563067
1785.000000	40.572800
1786.000000	40.572233
1787.000000	40.561267
1788.000000	40.553967
1789.000000	40.559767
1790.000000	40.558700
1791.000000	40.565800
1792.000000	40.584467
1793.000000	40.604367
1794.000000	40.616133
1795.000000	40.640867
1796.000000	40.661633
1797.000000	40.676933
1798.000000	40.695000
1799.000000	40.719133
1800.000000	40.761900
1801.000000	40.798000
1802.000000	40.821833
1803.000000	40.820933
1804.000000	40.829400
1805.000000	40.861333
1806.000000	40.901300
1807.000000	40.919667
1808.000000	40.939500
1809.000000	40.963267
1810.000000	40.992933
1811.000000	41.041833
1812.000000	41.072500
1813.000000	41.089267
1814.000000	41.098533
1815.000000	41.120333
1816.000000	41.130433
1817.000000	41.130533
1818.000000	41.144900
1819.000000	41.183000
1820.000000	41.217800
1821.000000	41.225167
1822.000000	41.184633
1823.000000	41.131933
1824.000000	41.133100
1825.000000	41.165133
1826.000000	41.191500
1827.000000	41.208567
1828.000000	41.253933
1829.000000	41.298900
1830.000000	41.328367
1831.000000	41.347467
1832.000000	41.361900
1833.000000	41.399867
1834.000000	41.465200
1835.000000	41.535233
1836.000000	41.583700
1837.000000	41.614000
1838.000000	41.643000
1839.000000	41.687733
1840.000000	41.730867
1841.000000	41.762900
1842.000000	41.743500
1843.000000	41.706500
1844.000000	41.713367
1845.000000	41.742100
1846.000000	41.811233
1847.000000	41.865300
1848.000000	41.852667
1849.000000	41.824267
1850.000000	41.780900
1851.000000	41.740533
1852.000000	41.710400
1853.000000	41.701667
1854.000000	41.688567
1855.000000	41.640233
1856.000000	41.596367
1857.000000	41.551800
1858.000000	41.492133
1859.000000	41.421133
1860.000000	41.333133
1861.000000	41.215100
1862.000000	41.099833
1863.000000	41.000467
1864.000000	40.922500
1865.000000	40.836467
1866.000000	40.761900
1867.000000	40.696400
1868.000000	40.579733
1869.000000	40.416400
1870.000000	40.245767
1871.000000	40.046467
1872.000000	39.813100
1873.000000	39.551900
1874.000000	39.270033
1875.000000	38.999267
1876.000000	38.704833
1877.000000	38.392100
1878.000000	38.063233
1879.000000	37.723800
1880.000000	37.393500
1881.000000	37.037733
1882.000000	36.654367
1883.000000	36.258900
1884.000000	35.792133
1885.000000	35.287467
1886.000000	34.801467
1887.000000	34.320733
1888.000000	33.838367
1889.000000	33.292500
1890.000000	32.765500
1891.000000	32.191100
1892.000000	31.549367
1893.000000	30.927600
1894.000000	30.355167
1895.000000	29.818633
1896.000000	29.335733
1897.000000	28.824133
1898.000000	28.243267
1899.000000	27.685600
1900.000000	27.074533
1901.000000	26.516933
1902.000000	26.030733
1903.000000	25.557667
1904.000000	25.131133
1905.000000	24.634233
1906.000000	24.111100
1907.000000	23.665133
1908.000000	23.284967
1909.000000	22.955733
1910.000000	22.684800
1911.000000	22.387467
1912.000000	22.093400
1913.000000	21.774300
1914.000000	21.454233
1915.000000	21.167967
1916.000000	20.954033
1917.000000	20.747000
1918.000000	20.569300
1919.000000	20.389100
1920.000000	20.200933
1921.000000	19.992967
1922.000000	19.821633
1923.000000	19.642133
1924.000000	19.526667
1925.000000	19.418767
1926.000000	19.310933
1927.000000	19.201833
1928.000000	19.115867
1929.000000	19.020100
1930.000000	18.953867
1931.000000	18.889067
1932.000000	18.831533
1933.000000	18.802167
1934.000000	18.760667
1935.000000	18.749800
1936.000000	18.737667
1937.000000	18.739600
1938.000000	18.747433
1939.000000	18.761400
1940.000000	18.774400
1941.000000	18.792500
1942.000000	18.819933
1943.000000	18.869067
1944.000000	18.901233
1945.000000	18.966800
1946.000000	19.014700
1947.000000	19.074700
1948.000000	19.148100
1949.000000	19.204967
1950.000000	19.288933
1951.000000	19.362733
1952.000000	19.435033
1953.000000	19.525000
1954.000000	19.609433
1955.000000	19.693200
1956.000000	19.786833
1957.000000	19.867033
1958.000000	19.955200
1959.000000	20.040267
1960.000000	20.129033
1961.000000	20.239900
1962.000000	20.315033
1963.000000	20.406800
1964.000000	20.494667
1965.000000	20.572200
1966.000000	20.665900
1967.000000	20.759700
1968.000000	20.847633
1969.000000	20.940033
1970.000000	21.027800
1971.000000	21.116233
1972.000000	21.227600
1973.000000	21.305000
1974.000000	21.393867
1975.000000	21.503400
1976.000000	21.596267
1977.000000	21.686467
1978.000000	21.788400
1979.000000	21.894300
1980.000000	21.992667
1981.000000	22.087000
1982.000000	22.181767
1983.000000	22.303800
1984.000000	22.410600
1985.000000	22.501233
1986.000000	22.606900
1987.000000	22.712200
1988.000000	22.808100
1989.000000	22.909467
1990.000000	23.000933
1991.000000	23.099633
1992.000000	23.178633
1993.000000	23.280200
1994.000000	23.373767
1995.000000	23.450967
1996.000000	23.534067
1997.000000	23.617033
1998.000000	23.688400
1999.000000	23.752767
2000.000000	23.821467
2001.000000	23.893567
2002.000000	23.951000
2003.000000	24.007567
2004.000000	24.067833
2005.000000	24.104733
2006.000000	24.150700
2007.000000	24.187267
2008.000000	24.205800
2009.000000	24.236467
2010.000000	24.250633
2011.000000	24.254700
2012.000000	24.264867
2013.000000	24.263833
2014.000000	24.275333
2015.000000	24.262767
2016.000000	24.241500
2017.000000	24.224567
2018.000000	24.203333
2019.000000	24.180767
2020.000000	24.141433
2021.000000	24.099100
2022.000000	24.065600
2023.000000	24.017533
2024.000000	23.954967
2025.000000	23.898067
2026.000000	23.829767
2027.000000	23.757233
2028.000000	23.696100
2029.000000	23.626100
2030.000000	23.542367
2031.000000	23.449400
2032.000000	23.362700
2033.000000	23.270367
2034.000000	23.167467
2035.000000	23.055067
2036.000000	22.947933
2037.000000	22.827567
2038.000000	22.708067
2039.000000	22.579267
2040.000000	22.440567
2041.000000	22.309233
2042.000000	22.186333
2043.000000	22.046800
2044.000000	21.912033
2045.000000	21.786900
2046.000000	21.661867
2047.000000	21.555967
2048.000000	21.448800
2049.000000	21.359633
2050.000000	21.284333
2051.000000	21.231767
2052.000000	21.196900
2053.000000	21.178367
2054.000000	21.174667
2055.000000	21.187333
2056.000000	21.220367
2057.000000	21.276333
2058.000000	21.342867
2059.000000	21.414967
2060.000000	21.483433
2061.000000	21.580533
2062.000000	21.683733
2063.000000	21.786167
2064.000000	21.893633
2065.000000	21.999200
2066.000000	22.109200
2067.000000	22.219967
2068.000000	22.320033
2069.000000	22.412967
2070.000000	22.513900
2071.000000	22.612967
2072.000000	22.700833
2073.000000	22.783533
2074.000000	22.866267
2075.000000	22.938400
2076.000000	23.001867
2077.000000	23.057367
2078.000000	23.099133
2079.000000	23.151667
2080.000000	23.190367
2081.000000	23.220200
2082.000000	23.235633
2083.000000	23.254067
2084.000000	23.268733
2085.000000	23.281367
2086.000000	23.282800
2087.000000	23.270300
2088.000000	23.264733
2089.000000	23.243933
2090.000000	23.223967
2091.000000	23.213167
2092.000000	23.188833
2093.000000	23.168933
2094.000000	23.153100
2095.000000	23.141633
2096.000000	23.135933
2097.000000	23.130633
2098.000000	23.120667
2099.000000	23.113167
2100.000000	23.115800
2101.000000	23.112800
2102.000000	23.109267
2103.000000	23.109600
2104.000000	23.106667
2105.000000	23.107533
2106.000000	23.109667
2107.000000	23.105400
2108.000000	23.108433
2109.000000	23.106233
2110.000000	23.095100
2111.000000	23.087867
2112.000000	23.083533
2113.000000	23.071933
2114.000000	23.049867
2115.000000	23.034000
2116.000000	23.023767
2117.000000	23.000733
2118.000000	22.975933
2119.000000	22.952167
2120.000000	22.921367
2121.000000	22.894867
2122.000000	22.851167
2123.000000	22.808567
2124.000000	22.772767
2125.000000	22.712700
2126.000000	22.662933
2127.000000	22.613900
2128.000000	22.546600
2129.000000	22.490933
2130.000000	22.432033
2131.000000	22.354867
2132.000000	22.280533
2133.000000	22.212000
2134.000000	22.139633
2135.000000	22.051933
2136.000000	21.967267
2137.000000	21.887067
2138.000000	21.800300
2139.000000	21.707333
2140.000000	21.608733
2141.000000	21.512767
2142.000000	21.422500
2143.000000	21.320900
2144.000000	21.222567
2145.000000	21.122633
2146.000000	21.019900
2147.000000	20.922800
2148.000000	20.830700
2149.000000	20.720000
2150.000000	20.620300
2151.000000	20.523400
2152.000000	20.423967
2153.000000	20.319767
2154.000000	20.229533
2155.000000	20.146933
2156.000000	20.060300
2157.000000	19.985767
2158.000000	19.906733
2159.000000	19.838467
2160.000000	19.773267
2161.000000	19.710167
2162.000000	19.670267
2163.000000	19.628233
2164.000000	19.577067
2165.000000	19.542267
2166.000000	19.509100
2167.000000	19.476667
2168.000000	19.458833
2169.000000	19.436133
2170.000000	19.414667
2171.000000	19.403033
2172.000000	19.390567
2173.000000	19.389967
2174.000000	19.388800
2175.000000	19.397967
2176.000000	19.406800
2177.000000	19.415967
2178.000000	19.418700
2179.000000	19.439767
2180.000000	19.463700
2181.000000	19.497200
2182.000000	19.511967
2183.000000	19.530700
2184.000000	19.557900
2185.000000	19.581900
2186.000000	19.600433
2187.000000	19.625000
2188.000000	19.651667
2189.000000	19.665567
2190.000000	19.702367
2191.000000	19.720300
2192.000000	19.746267
2193.000000	19.767700
2194.000000	19.796633
2195.000000	19.818867
2196.000000	19.856900
2197.000000	19.896800
2198.000000	19.931067
2199.000000	19.972600
2200.000000	20.016967
2201.000000	20.062967
2202.000000	20.101433
2203.000000	20.141233
2204.000000	20.178367
2205.000000	20.231900
2206.000000	20.280433
2207.000000	20.329167
2208.000000	20.394767
2209.000000	20.447367
2210.000000	20.507333
2211.000000	20.572833
2212.000000	20.651133
2213.000000	20.698267
2214.000000	20.774267
2215.000000	20.856500
2216.000000	20.921167
2217.000000	21.007033
2218.000000	21.071800
2219.000000	21.150000
2220.000000	21.214500
2221.000000	21.281067
2222.000000	21.352767
2223.000000	21.414867
2224.000000	21.485133
2225.000000	21.529033
2226.000000	21.574867
2227.000000	21.609333
2228.000000	21.649800
2229.000000	21.673000
2230.000000	21.693400
2231.000000	21.722867
2232.000000	21.728567
2233.000000	21.730767
2234.000000	21.727333
2235.000000	21.699667
2236.000000	21.670567
2237.000000	21.645633
2238.000000	21.614033
2239.000000	21.570600
2240.000000	21.494133
2241.000000	21.420333
2242.000000	21.355033
2243.000000	21.276933
2244.000000	21.178200
2245.000000	21.069833
2246.000000	20.946600
2247.000000	20.825367
2248.000000	20.706033
2249.000000	20.589400
2250.000000	20.429900
2251.000000	20.280600
2252.000000	20.139733
2253.000000	19.996867
2254.000000	19.867167
2255.000000	19.706833
2256.000000	19.569600
2257.000000	19.428333
2258.000000	19.304767
2259.000000	19.186167
2260.000000	19.059467
2261.000000	18.961667
2262.000000	18.861967
2263.000000	18.790833
2264.000000	18.705500
2265.000000	18.637067
2266.000000	18.584267
2267.000000	18.534933
2268.000000	18.480467
2269.000000	18.442700
2270.000000	18.413667
2271.000000	18.392767
2272.000000	18.349000
2273.000000	18.328633
2274.000000	18.295633
2275.000000	18.278833
2276.000000	18.254967
2277.000000	18.232667
2278.000000	18.202733
2279.000000	18.172367
2280.000000	18.146767
2281.000000	18.100867
2282.000000	18.074533
2283.000000	18.033300
2284.000000	17.996967
2285.000000	17.968833
2286.000000	17.928733
2287.000000	17.893633
2288.000000	17.864333
2289.000000	17.832400
2290.000000	17.813867
2291.000000	17.783567
2292.000000	17.746433
2293.000000	17.725700
2294.000000	17.706267
2295.000000	17.683933
2296.000000	17.670967
2297.000000	17.657367
2298.000000	17.644267
2299.000000	17.637700
2300.000000	17.636700
2301.000000	17.634033
2302.000000	17.634333
2303.000000	17.635433
2304.000000	17.645567
2305.000000	17.658233
2306.000000	17.677767
2307.000000	17.693700
2308.000000	17.716467
2309.000000	17.752700
2310.000000	17.778800
2311.000000	17.817000
2312.000000	17.852000
2313.000000	17.894233
2314.000000	17.933400
2315.000000	17.969733
2316.000000	17.997700
2317.000000	18.031933
2318.000000	18.058567
2319.000000	18.083067
2320.000000	18.095833
2321.000000	18.102333
2322.000000	18.099600
2323.000000	18.107033
2324.000000	18.098800
2325.000000	18.082900
2326.000000	18.072400
2327.000000	18.050100
2328.000000	18.035833
2329.000000	18.023033
2330.000000	18.014800
2331.000000	18.000567
2332.000000	17.988433
2333.000000	17.980000
2334.000000	17.975633
2335.000000	17.979733
2336.000000	17.973833
2337.000000	17.969433
2338.000000	17.980000
2339.000000	17.982933
2340.000000	17.977867
2341.000000	17.982167
2342.000000	17.985300
2343.000000	18.002700
2344.000000	18.013733
2345.000000	18.024833
2346.000000	18.041400
2347.000000	18.052000
2348.000000	18.064467
2349.000000	18.081833
2350.000000	18.101533
2351.000000	18.131600
2352.000000	18.155733
2353.000000	18.177133
2354.000000	18.198267
2355.000000	18.216333
2356.000000	18.238633
2357.000000	18.252967
2358.000000	18.275800
2359.000000	18.290867
2360.000000	18.297833
2361.000000	18.308967
2362.000000	18.315633
2363.000000	18.329500
2364.000000	18.331733
2365.000000	18.329967
2366.000000	18.344000
2367.000000	18.354933
2368.000000	18.358533
2369.000000	18.361233
2370.000000	18.364200
2371.000000	18.365200
2372.000000	18.380733
2373.000000	18.399500
2374.000000	18.401100
2375.000000	18.408633
2376.000000	18.428467
2377.000000	18.445567
2378.000000	18.455500
2379.000000	18.462067
2380.000000	18.465333
2381.000000	18.478933
2382.000000	18.485900
2383.000000	18.496600
2384.000000	18.497000
2385.000000	18.490967
2386.000000	18.495033
2387.000000	18.488567
2388.000000	18.484133
2389.000000	18.475167
2390.000000	18.469000
2391.000000	18.465267
2392.000000	18.449267
2393.000000	18.444533
2394.000000	18.438933
2395.000000	18.414933
2396.000000	18.408333
2397.000000	18.409233
2398.000000	18.387700
2399.000000	18.369533
2400.000000	18.348533
2401.000000	18.328567
2402.000000	18.322900
2403.000000	18.304167
2404.000000	18.275933
2405.000000	18.249433
2406.000000	18.231867
2407.000000	18.211267
2408.000000	18.182133
2409.000000	18.145633
2410.000000	18.111200
2411.000000	18.086800
2412.000000	18.046100
2413.000000	18.005833
2414.000000	17.964867
2415.000000	17.926033
2416.000000	17.873900
2417.000000	17.819267
2418.000000	17.768433
2419.000000	17.702500
2420.000000	17.639233
2421.000000	17.590867
2422.000000	17.536067
2423.000000	17.483600
2424.000000	17.418267
2425.000000	17.343700
2426.000000	17.262500
2427.000000	17.189833
2428.000000	17.104933
2429.000000	17.025767
2430.000000	16.944433
2431.000000	16.861267
2432.000000	16.776067
2433.000000	16.678600
2434.000000	16.590567
2435.000000	16.503267
2436.000000	16.418500
2437.000000	16.322100
2438.000000	16.223167
2439.000000	16.127233
2440.000000	16.034567
2441.000000	15.940067
2442.000000	15.855000
2443.000000	15.746567
2444.000000	15.661233
2445.000000	15.569367
2446.000000	15.474100
2447.000000	15.383633
2448.000000	15.297233
2449.000000	15.203200
2450.000000	15.105867
2451.000000	15.030600
2452.000000	14.950733
2453.000000	14.865700
2454.000000	14.777067
2455.000000	14.707500
2456.000000	14.658067
2457.000000	14.587933
2458.000000	14.513500
2459.000000	14.447967
2460.000000	14.381100
2461.000000	14.325800
2462.000000	14.296133
2463.000000	14.257600
2464.000000	14.209333
2465.000000	14.144633
2466.000000	14.116433
2467.000000	14.082833
2468.000000	14.050500
2469.000000	14.016667
2470.000000	13.992200
2471.000000	13.960033
2472.000000	13.910333
2473.000000	13.899533
2474.000000	13.881933
2475.000000	13.867967
2476.000000	13.822133
2477.000000	13.810967
2478.000000	13.781733
2479.000000	13.778433
2480.000000	13.743133
2481.000000	13.740367
2482.000000	13.757300
2483.000000	13.744900
2484.000000	13.740367
2485.000000	13.748367
2486.000000	13.697567
2487.000000	13.712333
2488.000000	13.726467
2489.000000	13.790333
2490.000000	13.706567
2491.000000	13.749967
2492.000000	13.782267
2493.000000	13.778300
2494.000000	13.781300
2495.000000	13.812467
2496.000000	13.856900
2497.000000	13.866767
2498.000000	13.893067
2499.000000	13.959800
2500.000000	13.996367
