PE UV       SUBTECH     SPECTRUM    ASCII       PEDS        4.00        
   -1
CICIMAUCR0112-3.Sample.ASC
24/04/22
10:19:40.00
24/04/22
10:19:40.00
Vinicio Soto Monge
C. resplendens
250,000000
1
Lambda 1050
1050L1511233
PerkinElmer UV WinLab 6.3.2.0749 / 2.02.05 Lambda 900 UV/VIS/NIR, Aug  7 2015 09:38:08

0
0
3350/servo 860,8/2
0
0
UV/VIS
1
1
1
DoubleDePol,CommonBeamDepol,RBeamAtt,SBeamAtt,60mm sphere, WB InGaAs Detector
0
0
0
0
Program
Program
3350/servo 860,8/2
3350/0,2 860,8/0,2
3350/0,2 860,8/0,2
0
15.00
 
 
 
0
 
860,8
319,2
860,8
Front
100
on
S:100 R:100
0
0
0
0
 
0
 
 
 
0
 
 
0
0
0
0
0
 
 
 
 
0
0


0
0
#HDR
-1
-1
#GR
nm
%R
1.0
0.0
2500,000000
-1,000000
2251
8
88,787000
5,681000
#DATA
250.000000	6.123697
251.000000	6.128167
252.000000	6.108501
253.000000	6.086225
254.000000	6.075934
255.000000	6.049477
256.000000	6.073504
257.000000	6.052546
258.000000	6.033303
259.000000	6.009224
260.000000	5.963277
261.000000	5.936225
262.000000	5.911347
263.000000	5.899448
264.000000	5.901508
265.000000	5.889795
266.000000	5.839515
267.000000	5.840436
268.000000	5.793495
269.000000	5.773937
270.000000	5.752417
271.000000	5.727368
272.000000	5.697719
273.000000	5.697569
274.000000	5.693560
275.000000	5.668297
276.000000	5.653935
277.000000	5.658883
278.000000	5.618591
279.000000	5.618458
280.000000	5.604992
281.000000	5.563081
282.000000	5.600251
283.000000	5.557861
284.000000	5.568294
285.000000	5.555922
286.000000	5.539314
287.000000	5.515151
288.000000	5.515356
289.000000	5.524480
290.000000	5.523563
291.000000	5.510351
292.000000	5.534167
293.000000	5.531728
294.000000	5.511760
295.000000	5.512016
296.000000	5.493061
297.000000	5.512070
298.000000	5.487348
299.000000	5.486027
300.000000	5.478136
301.000000	5.498542
302.000000	5.465830
303.000000	5.500825
304.000000	5.479817
305.000000	5.479995
306.000000	5.475826
307.000000	5.476055
308.000000	5.496988
309.000000	5.506223
310.000000	5.467276
311.000000	5.489092
312.000000	5.487113
313.000000	5.464833
314.000000	5.450681
315.000000	5.448619
316.000000	5.437118
317.000000	5.425501
318.000000	5.393608
319.000000	5.547751
320.000000	5.468542
321.000000	5.375234
322.000000	5.582771
323.000000	5.471744
324.000000	5.462246
325.000000	5.527120
326.000000	5.472612
327.000000	5.468510
328.000000	5.477516
329.000000	5.475766
330.000000	5.428177
331.000000	5.435549
332.000000	5.488873
333.000000	5.404886
334.000000	5.456440
335.000000	5.514349
336.000000	5.478849
337.000000	5.470074
338.000000	5.399753
339.000000	5.465967
340.000000	5.443385
341.000000	5.470422
342.000000	5.483468
343.000000	5.484409
344.000000	5.431081
345.000000	5.458489
346.000000	5.474825
347.000000	5.477915
348.000000	5.471600
349.000000	5.469535
350.000000	5.475398
351.000000	5.541336
352.000000	5.542168
353.000000	5.545764
354.000000	5.576439
355.000000	5.576546
356.000000	5.581623
357.000000	5.620071
358.000000	5.651348
359.000000	5.676350
360.000000	5.675334
361.000000	5.684371
362.000000	5.686614
363.000000	5.681832
364.000000	5.726288
365.000000	5.762435
366.000000	5.780485
367.000000	5.789361
368.000000	5.819901
369.000000	5.798976
370.000000	5.832168
371.000000	5.859845
372.000000	5.836515
373.000000	5.841515
374.000000	5.852420
375.000000	5.886428
376.000000	5.928171
377.000000	5.984782
378.000000	6.010036
379.000000	6.034055
380.000000	6.051787
381.000000	6.079977
382.000000	6.102905
383.000000	6.131089
384.000000	6.165609
385.000000	6.193254
386.000000	6.216028
387.000000	6.242519
388.000000	6.280830
389.000000	6.310695
390.000000	6.333013
391.000000	6.369446
392.000000	6.409633
393.000000	6.452057
394.000000	6.488212
395.000000	6.532504
396.000000	6.580395
397.000000	6.625557
398.000000	6.677938
399.000000	6.734256
400.000000	6.801715
401.000000	6.874151
402.000000	6.952182
403.000000	7.037590
404.000000	7.136760
405.000000	7.243478
406.000000	7.352026
407.000000	7.473359
408.000000	7.609880
409.000000	7.763968
410.000000	7.936420
411.000000	8.117594
412.000000	8.317168
413.000000	8.534234
414.000000	8.766924
415.000000	9.014395
416.000000	9.287707
417.000000	9.583281
418.000000	9.891282
419.000000	10.221925
420.000000	10.567620
421.000000	10.931842
422.000000	11.322951
423.000000	11.727150
424.000000	12.148691
425.000000	12.591046
426.000000	13.045800
427.000000	13.509256
428.000000	13.982042
429.000000	14.473248
430.000000	14.978146
431.000000	15.481876
432.000000	15.983958
433.000000	16.496734
434.000000	17.016532
435.000000	17.520830
436.000000	18.022571
437.000000	18.519528
438.000000	19.006887
439.000000	19.493211
440.000000	19.967042
441.000000	20.431298
442.000000	20.883850
443.000000	21.314424
444.000000	21.740879
445.000000	22.154360
446.000000	22.545937
447.000000	22.916295
448.000000	23.257245
449.000000	23.600503
450.000000	23.929041
451.000000	24.238347
452.000000	24.539021
453.000000	24.818406
454.000000	25.087475
455.000000	25.352410
456.000000	25.596321
457.000000	25.823959
458.000000	26.057524
459.000000	26.282682
460.000000	26.483827
461.000000	26.694474
462.000000	26.891582
463.000000	27.071894
464.000000	27.263328
465.000000	27.446888
466.000000	27.616763
467.000000	27.775443
468.000000	27.931299
469.000000	28.087333
470.000000	28.250929
471.000000	28.400651
472.000000	28.545455
473.000000	28.690727
474.000000	28.824993
475.000000	28.948507
476.000000	29.067911
477.000000	29.182931
478.000000	29.279145
479.000000	29.360523
480.000000	29.447642
481.000000	29.525477
482.000000	29.589313
483.000000	29.640262
484.000000	29.666604
485.000000	29.683482
486.000000	29.694831
487.000000	29.705466
488.000000	29.718345
489.000000	29.736958
490.000000	29.760587
491.000000	29.797385
492.000000	29.852204
493.000000	29.929871
494.000000	30.023368
495.000000	30.139461
496.000000	30.293873
497.000000	30.490669
498.000000	30.709271
499.000000	30.982752
500.000000	31.307444
501.000000	31.701138
502.000000	32.160235
503.000000	32.689761
504.000000	33.300069
505.000000	34.000076
506.000000	34.775048
507.000000	35.634945
508.000000	36.569717
509.000000	37.587178
510.000000	38.669564
511.000000	39.839820
512.000000	41.042223
513.000000	42.278687
514.000000	43.552557
515.000000	44.812650
516.000000	46.090042
517.000000	47.380894
518.000000	48.634208
519.000000	49.890484
520.000000	51.133133
521.000000	52.399238
522.000000	53.635281
523.000000	54.874821
524.000000	56.106175
525.000000	57.314067
526.000000	58.498923
527.000000	59.646016
528.000000	60.800223
529.000000	61.932676
530.000000	63.040614
531.000000	64.145365
532.000000	65.220646
533.000000	66.259005
534.000000	67.289968
535.000000	68.291546
536.000000	69.232989
537.000000	70.135916
538.000000	70.988495
539.000000	71.844278
540.000000	72.656404
541.000000	73.460052
542.000000	74.228578
543.000000	74.972984
544.000000	75.665080
545.000000	76.363448
546.000000	77.034132
547.000000	77.660779
548.000000	78.269118
549.000000	78.862571
550.000000	79.421024
551.000000	79.982128
552.000000	80.516635
553.000000	80.987968
554.000000	81.472052
555.000000	81.911181
556.000000	82.329113
557.000000	82.678759
558.000000	83.051409
559.000000	83.367723
560.000000	83.722630
561.000000	83.999141
562.000000	84.272202
563.000000	84.513124
564.000000	84.723361
565.000000	84.943516
566.000000	85.118687
567.000000	85.305417
568.000000	85.463448
569.000000	85.608159
570.000000	85.745568
571.000000	85.861252
572.000000	85.948923
573.000000	86.067296
574.000000	86.163733
575.000000	86.253626
576.000000	86.317211
577.000000	86.362613
578.000000	86.381171
579.000000	86.413042
580.000000	86.392398
581.000000	86.378271
582.000000	86.377275
583.000000	86.307778
584.000000	86.209980
585.000000	86.103156
586.000000	85.973194
587.000000	85.841242
588.000000	85.641989
589.000000	85.481132
590.000000	85.240115
591.000000	84.974640
592.000000	84.674295
593.000000	84.391709
594.000000	84.049529
595.000000	83.689375
596.000000	83.296940
597.000000	82.856917
598.000000	82.434562
599.000000	81.933956
600.000000	81.453954
601.000000	80.897447
602.000000	80.352115
603.000000	79.752395
604.000000	79.156011
605.000000	78.541916
606.000000	77.928764
607.000000	77.267001
608.000000	76.590394
609.000000	75.918079
610.000000	75.168038
611.000000	74.428985
612.000000	73.608289
613.000000	72.738129
614.000000	71.839811
615.000000	70.856215
616.000000	69.886054
617.000000	68.838377
618.000000	67.788067
619.000000	66.744409
620.000000	65.687673
621.000000	64.627197
622.000000	63.621427
623.000000	62.664820
624.000000	61.754281
625.000000	60.920270
626.000000	60.118509
627.000000	59.362601
628.000000	58.645293
629.000000	57.936596
630.000000	57.206564
631.000000	56.458386
632.000000	55.741446
633.000000	54.974895
634.000000	54.232925
635.000000	53.499241
636.000000	52.799759
637.000000	52.174205
638.000000	51.578122
639.000000	51.083309
640.000000	50.704681
641.000000	50.441113
642.000000	50.282489
643.000000	50.287686
644.000000	50.409638
645.000000	50.639539
646.000000	50.969970
647.000000	51.369710
648.000000	51.820681
649.000000	52.302375
650.000000	52.798641
651.000000	53.339153
652.000000	53.826433
653.000000	54.308855
654.000000	54.791649
655.000000	55.280265
656.000000	55.736463
657.000000	56.205853
658.000000	56.716942
659.000000	57.250279
660.000000	57.821324
661.000000	58.409013
662.000000	59.053653
663.000000	59.719822
664.000000	60.380874
665.000000	61.059585
666.000000	61.718029
667.000000	62.326655
668.000000	62.917507
669.000000	63.454161
670.000000	63.919010
671.000000	64.336130
672.000000	64.667930
673.000000	64.998524
674.000000	65.237492
675.000000	65.437079
676.000000	65.597438
677.000000	65.748519
678.000000	65.932808
679.000000	66.128511
680.000000	66.290504
681.000000	66.490792
682.000000	66.709447
683.000000	66.893098
684.000000	67.139575
685.000000	67.375390
686.000000	67.596138
687.000000	67.792276
688.000000	67.950368
689.000000	68.079865
690.000000	68.194454
691.000000	68.257886
692.000000	68.262601
693.000000	68.253276
694.000000	68.228617
695.000000	68.182522
696.000000	68.110375
697.000000	68.071225
698.000000	67.996968
699.000000	67.949445
700.000000	67.936583
701.000000	67.930564
702.000000	67.937541
703.000000	67.955612
704.000000	68.026921
705.000000	68.065610
706.000000	68.134937
707.000000	68.188333
708.000000	68.249118
709.000000	68.351406
710.000000	68.437349
711.000000	68.514752
712.000000	68.583164
713.000000	68.677027
714.000000	68.762441
715.000000	68.853741
716.000000	68.968065
717.000000	69.080624
718.000000	69.223848
719.000000	69.397858
720.000000	69.624759
721.000000	69.895676
722.000000	70.156521
723.000000	70.443161
724.000000	70.760647
725.000000	71.113563
726.000000	71.484474
727.000000	71.862741
728.000000	72.256827
729.000000	72.680951
730.000000	73.117715
731.000000	73.571677
732.000000	73.997588
733.000000	74.443138
734.000000	74.900473
735.000000	75.321050
736.000000	75.739245
737.000000	76.148008
738.000000	76.544008
739.000000	76.939281
740.000000	77.341828
741.000000	77.749881
742.000000	78.173121
743.000000	78.609836
744.000000	79.008218
745.000000	79.388473
746.000000	79.804527
747.000000	80.185952
748.000000	80.576479
749.000000	80.973864
750.000000	81.322246
751.000000	81.673279
752.000000	82.026555
753.000000	82.363741
754.000000	82.618171
755.000000	82.868768
756.000000	83.125108
757.000000	83.322941
758.000000	83.543356
759.000000	83.719883
760.000000	83.913488
761.000000	84.129060
762.000000	84.291473
763.000000	84.454161
764.000000	84.562925
765.000000	84.620327
766.000000	84.692698
767.000000	84.802144
768.000000	84.914445
769.000000	84.990117
770.000000	85.061327
771.000000	85.090113
772.000000	85.180002
773.000000	85.280218
774.000000	85.276164
775.000000	85.308370
776.000000	85.379829
777.000000	85.378867
778.000000	85.415369
779.000000	85.526370
780.000000	85.563752
781.000000	85.579309
782.000000	85.607011
783.000000	85.672787
784.000000	85.747971
785.000000	85.804295
786.000000	85.868186
787.000000	85.877541
788.000000	85.977811
789.000000	86.075440
790.000000	86.095703
791.000000	86.213972
792.000000	86.275732
793.000000	86.231173
794.000000	86.284323
795.000000	86.353706
796.000000	86.392896
797.000000	86.419276
798.000000	86.460394
799.000000	86.516118
800.000000	86.556177
801.000000	86.500881
802.000000	86.485321
803.000000	86.492030
804.000000	86.460140
805.000000	86.499350
806.000000	86.519870
807.000000	86.502942
808.000000	86.408344
809.000000	86.412737
810.000000	86.482671
811.000000	86.413949
812.000000	86.336260
813.000000	86.352321
814.000000	86.300452
815.000000	86.309116
816.000000	86.431527
817.000000	86.378087
818.000000	86.364869
819.000000	86.327350
820.000000	86.350068
821.000000	86.366754
822.000000	86.324256
823.000000	86.371356
824.000000	86.491732
825.000000	86.541778
826.000000	86.505572
827.000000	86.532003
828.000000	86.453890
829.000000	86.426909
830.000000	86.376695
831.000000	86.392974
832.000000	86.364705
833.000000	86.245120
834.000000	86.322439
835.000000	86.234172
836.000000	85.941260
837.000000	85.853047
838.000000	85.681686
839.000000	85.591310
840.000000	85.497025
841.000000	85.189311
842.000000	84.972477
843.000000	84.957072
844.000000	84.636601
845.000000	84.385082
846.000000	84.181152
847.000000	84.023508
848.000000	83.760028
849.000000	83.377645
850.000000	83.155972
851.000000	83.077282
852.000000	82.800988
853.000000	82.392454
854.000000	82.333064
855.000000	82.096112
856.000000	81.860964
857.000000	81.513080
858.000000	81.728800
859.000000	81.462600
860.000000	81.458000
861.000000	81.426367
862.000000	81.331200
863.000000	81.249867
864.000000	81.161933
865.000000	81.059967
866.000000	80.966867
867.000000	80.856033
868.000000	80.770500
869.000000	80.684067
870.000000	80.594433
871.000000	80.509633
872.000000	80.465433
873.000000	80.412333
874.000000	80.379300
875.000000	80.342267
876.000000	80.303967
877.000000	80.252367
878.000000	80.217333
879.000000	80.205300
880.000000	80.180367
881.000000	80.160733
882.000000	80.147900
883.000000	80.102367
884.000000	80.068067
885.000000	80.036467
886.000000	80.017800
887.000000	79.975567
888.000000	79.918300
889.000000	79.870933
890.000000	79.798200
891.000000	79.731067
892.000000	79.643867
893.000000	79.567367
894.000000	79.494900
895.000000	79.417600
896.000000	79.336467
897.000000	79.227800
898.000000	79.131633
899.000000	79.031500
900.000000	78.919533
901.000000	78.815533
902.000000	78.709233
903.000000	78.607733
904.000000	78.498767
905.000000	78.433033
906.000000	78.326333
907.000000	78.258100
908.000000	78.168700
909.000000	78.109933
910.000000	78.049100
911.000000	77.996367
912.000000	77.949267
913.000000	77.891300
914.000000	77.875333
915.000000	77.778967
916.000000	77.743000
917.000000	77.732433
918.000000	77.700933
919.000000	77.672000
920.000000	77.585433
921.000000	77.542967
922.000000	77.495533
923.000000	77.453800
924.000000	77.413533
925.000000	77.395700
926.000000	77.318267
927.000000	77.278267
928.000000	77.242133
929.000000	77.224000
930.000000	77.153367
931.000000	77.111033
932.000000	77.095500
933.000000	77.027967
934.000000	76.982800
935.000000	76.938833
936.000000	76.906400
937.000000	76.847700
938.000000	76.777600
939.000000	76.757367
940.000000	76.732000
941.000000	76.652400
942.000000	76.612500
943.000000	76.584567
944.000000	76.545967
945.000000	76.507667
946.000000	76.467067
947.000000	76.419300
948.000000	76.362333
949.000000	76.322000
950.000000	76.267567
951.000000	76.202900
952.000000	76.162800
953.000000	76.080767
954.000000	76.030900
955.000000	75.976600
956.000000	75.897133
957.000000	75.811367
958.000000	75.734800
959.000000	75.649433
960.000000	75.551833
961.000000	75.466933
962.000000	75.378767
963.000000	75.278633
964.000000	75.200267
965.000000	75.109433
966.000000	75.026200
967.000000	74.949533
968.000000	74.872200
969.000000	74.782900
970.000000	74.707567
971.000000	74.630267
972.000000	74.549567
973.000000	74.460633
974.000000	74.378800
975.000000	74.295333
976.000000	74.209867
977.000000	74.118867
978.000000	74.041800
979.000000	73.954400
980.000000	73.859667
981.000000	73.776000
982.000000	73.694367
983.000000	73.620667
984.000000	73.539067
985.000000	73.446033
986.000000	73.360400
987.000000	73.283133
988.000000	73.202400
989.000000	73.121867
990.000000	73.053633
991.000000	72.976733
992.000000	72.901200
993.000000	72.837533
994.000000	72.765700
995.000000	72.700533
996.000000	72.630400
997.000000	72.559067
998.000000	72.500467
999.000000	72.438433
1000.000000	72.384000
1001.000000	72.335667
1002.000000	72.281267
1003.000000	72.218800
1004.000000	72.162267
1005.000000	72.113233
1006.000000	72.056533
1007.000000	71.998000
1008.000000	71.940000
1009.000000	71.879267
1010.000000	71.829000
1011.000000	71.777567
1012.000000	71.737800
1013.000000	71.703000
1014.000000	71.669700
1015.000000	71.651667
1016.000000	71.638167
1017.000000	71.628767
1018.000000	71.627833
1019.000000	71.622633
1020.000000	71.616300
1021.000000	71.630033
1022.000000	71.649433
1023.000000	71.662833
1024.000000	71.679433
1025.000000	71.693333
1026.000000	71.710567
1027.000000	71.740867
1028.000000	71.761433
1029.000000	71.770133
1030.000000	71.786600
1031.000000	71.815633
1032.000000	71.833733
1033.000000	71.835767
1034.000000	71.853200
1035.000000	71.875233
1036.000000	71.879267
1037.000000	71.893333
1038.000000	71.911400
1039.000000	71.914433
1040.000000	71.917733
1041.000000	71.930300
1042.000000	71.943033
1043.000000	71.947300
1044.000000	71.956500
1045.000000	71.976900
1046.000000	72.001133
1047.000000	72.014767
1048.000000	72.025900
1049.000000	72.054467
1050.000000	72.090300
1051.000000	72.114833
1052.000000	72.143433
1053.000000	72.185567
1054.000000	72.237900
1055.000000	72.285067
1056.000000	72.323633
1057.000000	72.370533
1058.000000	72.432400
1059.000000	72.489133
1060.000000	72.535800
1061.000000	72.586500
1062.000000	72.639733
1063.000000	72.687833
1064.000000	72.736033
1065.000000	72.790033
1066.000000	72.841467
1067.000000	72.886733
1068.000000	72.941900
1069.000000	72.994733
1070.000000	73.047267
1071.000000	73.105033
1072.000000	73.153300
1073.000000	73.198233
1074.000000	73.239900
1075.000000	73.293733
1076.000000	73.353267
1077.000000	73.408367
1078.000000	73.465200
1079.000000	73.510200
1080.000000	73.560800
1081.000000	73.622900
1082.000000	73.682300
1083.000000	73.733167
1084.000000	73.784000
1085.000000	73.839267
1086.000000	73.902067
1087.000000	73.957867
1088.000000	74.008033
1089.000000	74.053200
1090.000000	74.114333
1091.000000	74.165033
1092.000000	74.219200
1093.000000	74.268067
1094.000000	74.315833
1095.000000	74.359733
1096.000000	74.402167
1097.000000	74.448433
1098.000000	74.473300
1099.000000	74.504067
1100.000000	74.544833
1101.000000	74.584300
1102.000000	74.606433
1103.000000	74.630967
1104.000000	74.665067
1105.000000	74.691267
1106.000000	74.711467
1107.000000	74.727300
1108.000000	74.738100
1109.000000	74.759433
1110.000000	74.792333
1111.000000	74.812200
1112.000000	74.826333
1113.000000	74.857800
1114.000000	74.864000
1115.000000	74.889167
1116.000000	74.905500
1117.000000	74.922367
1118.000000	74.931000
1119.000000	74.945200
1120.000000	74.925167
1121.000000	74.898100
1122.000000	74.875733
1123.000000	74.831233
1124.000000	74.773233
1125.000000	74.706133
1126.000000	74.639400
1127.000000	74.543100
1128.000000	74.429967
1129.000000	74.289900
1130.000000	74.114133
1131.000000	73.886967
1132.000000	73.626733
1133.000000	73.350267
1134.000000	73.123167
1135.000000	72.807200
1136.000000	72.434600
1137.000000	72.033533
1138.000000	71.629433
1139.000000	71.257167
1140.000000	70.905900
1141.000000	70.565033
1142.000000	70.211000
1143.000000	69.880133
1144.000000	69.594300
1145.000000	69.329200
1146.000000	69.125233
1147.000000	68.993300
1148.000000	68.941933
1149.000000	68.916600
1150.000000	68.929267
1151.000000	68.944900
1152.000000	68.956433
1153.000000	68.942033
1154.000000	68.861567
1155.000000	68.730700
1156.000000	68.541967
1157.000000	68.302433
1158.000000	68.015333
1159.000000	67.677567
1160.000000	67.317767
1161.000000	66.969700
1162.000000	66.582500
1163.000000	66.200967
1164.000000	65.798767
1165.000000	65.403100
1166.000000	65.008667
1167.000000	64.617033
1168.000000	64.248967
1169.000000	63.869467
1170.000000	63.501733
1171.000000	63.144033
1172.000000	62.786667
1173.000000	62.443233
1174.000000	62.143900
1175.000000	61.830633
1176.000000	61.534800
1177.000000	61.226500
1178.000000	60.875167
1179.000000	60.465367
1180.000000	60.023800
1181.000000	59.518233
1182.000000	59.023633
1183.000000	58.559400
1184.000000	58.175933
1185.000000	57.914467
1186.000000	57.789733
1187.000000	57.778433
1188.000000	57.895300
1189.000000	58.154067
1190.000000	58.506033
1191.000000	58.946300
1192.000000	59.414733
1193.000000	59.873333
1194.000000	60.281033
1195.000000	60.630667
1196.000000	60.930133
1197.000000	61.145067
1198.000000	61.319833
1199.000000	61.457567
1200.000000	61.553233
1201.000000	61.625400
1202.000000	61.676600
1203.000000	61.715167
1204.000000	61.746800
1205.000000	61.772433
1206.000000	61.820967
1207.000000	61.864667
1208.000000	61.944333
1209.000000	62.012700
1210.000000	62.113167
1211.000000	62.215533
1212.000000	62.327667
1213.000000	62.436500
1214.000000	62.549200
1215.000000	62.673267
1216.000000	62.792567
1217.000000	62.924933
1218.000000	63.057833
1219.000000	63.191267
1220.000000	63.343933
1221.000000	63.515633
1222.000000	63.678100
1223.000000	63.845067
1224.000000	64.016200
1225.000000	64.217467
1226.000000	64.408433
1227.000000	64.588100
1228.000000	64.774700
1229.000000	64.964433
1230.000000	65.156833
1231.000000	65.350500
1232.000000	65.545200
1233.000000	65.738267
1234.000000	65.930767
1235.000000	66.123067
1236.000000	66.301233
1237.000000	66.489100
1238.000000	66.678667
1239.000000	66.860433
1240.000000	67.020000
1241.000000	67.203267
1242.000000	67.379567
1243.000000	67.532333
1244.000000	67.692867
1245.000000	67.850067
1246.000000	67.997933
1247.000000	68.133600
1248.000000	68.261767
1249.000000	68.373867
1250.000000	68.477500
1251.000000	68.579167
1252.000000	68.672700
1253.000000	68.751767
1254.000000	68.837067
1255.000000	68.900167
1256.000000	68.972600
1257.000000	69.035767
1258.000000	69.098167
1259.000000	69.160267
1260.000000	69.210467
1261.000000	69.260067
1262.000000	69.310733
1263.000000	69.362133
1264.000000	69.420567
1265.000000	69.478567
1266.000000	69.538967
1267.000000	69.593500
1268.000000	69.640400
1269.000000	69.704800
1270.000000	69.755867
1271.000000	69.806233
1272.000000	69.865267
1273.000000	69.920033
1274.000000	69.972033
1275.000000	70.029967
1276.000000	70.100267
1277.000000	70.169333
1278.000000	70.248067
1279.000000	70.328433
1280.000000	70.411667
1281.000000	70.498933
1282.000000	70.587533
1283.000000	70.677367
1284.000000	70.771033
1285.000000	70.856200
1286.000000	70.940000
1287.000000	71.025167
1288.000000	71.097100
1289.000000	71.162733
1290.000000	71.226967
1291.000000	71.280233
1292.000000	71.327267
1293.000000	71.373733
1294.000000	71.408433
1295.000000	71.439767
1296.000000	71.473567
1297.000000	71.504033
1298.000000	71.519567
1299.000000	71.529033
1300.000000	71.548767
1301.000000	71.565700
1302.000000	71.573700
1303.000000	71.581000
1304.000000	71.583400
1305.000000	71.581067
1306.000000	71.570433
1307.000000	71.551667
1308.000000	71.528300
1309.000000	71.499433
1310.000000	71.461633
1311.000000	71.420100
1312.000000	71.370367
1313.000000	71.319567
1314.000000	71.263367
1315.000000	71.197833
1316.000000	71.126967
1317.000000	71.053533
1318.000000	70.978600
1319.000000	70.897833
1320.000000	70.816733
1321.000000	70.729200
1322.000000	70.633100
1323.000000	70.538867
1324.000000	70.443067
1325.000000	70.334100
1326.000000	70.209667
1327.000000	70.078967
1328.000000	69.948067
1329.000000	69.804633
1330.000000	69.661833
1331.000000	69.506933
1332.000000	69.329333
1333.000000	69.145467
1334.000000	68.946400
1335.000000	68.735800
1336.000000	68.524933
1337.000000	68.297933
1338.000000	68.049167
1339.000000	67.790233
1340.000000	67.528133
1341.000000	67.233967
1342.000000	66.928667
1343.000000	66.614133
1344.000000	66.279033
1345.000000	65.911200
1346.000000	65.515267
1347.000000	65.149967
1348.000000	64.742933
1349.000000	64.280700
1350.000000	63.785533
1351.000000	63.240200
1352.000000	62.644333
1353.000000	62.013933
1354.000000	61.476633
1355.000000	60.941300
1356.000000	60.474900
1357.000000	60.125867
1358.000000	59.914300
1359.000000	59.780167
1360.000000	59.693867
1361.000000	59.700467
1362.000000	59.631867
1363.000000	59.467833
1364.000000	59.267567
1365.000000	59.111767
1366.000000	58.893067
1367.000000	58.663500
1368.000000	58.449533
1369.000000	58.156967
1370.000000	57.816633
1371.000000	57.489233
1372.000000	57.136933
1373.000000	56.758100
1374.000000	56.387667
1375.000000	56.101333
1376.000000	55.906100
1377.000000	55.760633
1378.000000	55.661300
1379.000000	55.618567
1380.000000	55.553967
1381.000000	55.498167
1382.000000	55.343967
1383.000000	55.081900
1384.000000	54.718467
1385.000000	54.343800
1386.000000	53.909133
1387.000000	53.555500
1388.000000	53.274500
1389.000000	52.956200
1390.000000	52.651800
1391.000000	52.443567
1392.000000	52.290467
1393.000000	52.094333
1394.000000	51.908467
1395.000000	51.800533
1396.000000	51.657567
1397.000000	51.334833
1398.000000	51.016867
1399.000000	50.788633
1400.000000	50.570200
1401.000000	50.236200
1402.000000	49.720033
1403.000000	49.247167
1404.000000	48.841233
1405.000000	48.424833
1406.000000	47.979833
1407.000000	47.545967
1408.000000	47.128633
1409.000000	46.706833
1410.000000	46.327400
1411.000000	45.924333
1412.000000	45.550133
1413.000000	45.292900
1414.000000	45.066200
1415.000000	44.789967
1416.000000	44.434067
1417.000000	44.096300
1418.000000	43.868067
1419.000000	43.617100
1420.000000	43.334667
1421.000000	42.992167
1422.000000	42.664333
1423.000000	42.389500
1424.000000	42.125400
1425.000000	41.826833
1426.000000	41.536900
1427.000000	41.259733
1428.000000	41.021733
1429.000000	40.783833
1430.000000	40.543833
1431.000000	40.327000
1432.000000	40.160833
1433.000000	39.993367
1434.000000	39.786067
1435.000000	39.610167
1436.000000	39.426100
1437.000000	39.257233
1438.000000	39.127467
1439.000000	38.950033
1440.000000	38.783933
1441.000000	38.611200
1442.000000	38.456100
1443.000000	38.284100
1444.000000	38.109667
1445.000000	37.982767
1446.000000	37.840233
1447.000000	37.647200
1448.000000	37.464500
1449.000000	37.287067
1450.000000	37.183567
1451.000000	37.057167
1452.000000	36.898200
1453.000000	36.741167
1454.000000	36.581167
1455.000000	36.447233
1456.000000	36.321433
1457.000000	36.176500
1458.000000	36.042967
1459.000000	35.914667
1460.000000	35.793533
1461.000000	35.687600
1462.000000	35.568667
1463.000000	35.453867
1464.000000	35.352067
1465.000000	35.254067
1466.000000	35.172933
1467.000000	35.093700
1468.000000	34.996933
1469.000000	34.907967
1470.000000	34.841800
1471.000000	34.788500
1472.000000	34.705067
1473.000000	34.611333
1474.000000	34.527200
1475.000000	34.441800
1476.000000	34.361267
1477.000000	34.300067
1478.000000	34.244833
1479.000000	34.178100
1480.000000	34.122067
1481.000000	34.085433
1482.000000	34.034200
1483.000000	33.981433
1484.000000	33.941933
1485.000000	33.909433
1486.000000	33.883667
1487.000000	33.867433
1488.000000	33.835233
1489.000000	33.818800
1490.000000	33.784533
1491.000000	33.764900
1492.000000	33.752867
1493.000000	33.734067
1494.000000	33.712200
1495.000000	33.699733
1496.000000	33.709333
1497.000000	33.710167
1498.000000	33.710133
1499.000000	33.726567
1500.000000	33.739200
1501.000000	33.761967
1502.000000	33.782633
1503.000000	33.814933
1504.000000	33.853167
1505.000000	33.895567
1506.000000	33.933933
1507.000000	33.977000
1508.000000	34.018100
1509.000000	34.066600
1510.000000	34.103500
1511.000000	34.148800
1512.000000	34.198233
1513.000000	34.252533
1514.000000	34.291300
1515.000000	34.324200
1516.000000	34.364033
1517.000000	34.405433
1518.000000	34.446167
1519.000000	34.481033
1520.000000	34.521267
1521.000000	34.569467
1522.000000	34.605367
1523.000000	34.632967
1524.000000	34.674200
1525.000000	34.708633
1526.000000	34.733100
1527.000000	34.763100
1528.000000	34.797833
1529.000000	34.823633
1530.000000	34.852967
1531.000000	34.877767
1532.000000	34.901833
1533.000000	34.921300
1534.000000	34.939367
1535.000000	34.953367
1536.000000	34.963167
1537.000000	34.963067
1538.000000	34.972867
1539.000000	34.982700
1540.000000	34.983833
1541.000000	34.982133
1542.000000	34.983233
1543.000000	34.993267
1544.000000	35.000800
1545.000000	35.015400
1546.000000	35.048133
1547.000000	35.072567
1548.000000	35.095900
1549.000000	35.132833
1550.000000	35.162533
1551.000000	35.193367
1552.000000	35.225100
1553.000000	35.244367
1554.000000	35.261867
1555.000000	35.278967
1556.000000	35.284300
1557.000000	35.285900
1558.000000	35.285700
1559.000000	35.274600
1560.000000	35.255600
1561.000000	35.235000
1562.000000	35.210533
1563.000000	35.179833
1564.000000	35.143400
1565.000000	35.106533
1566.000000	35.069400
1567.000000	35.026800
1568.000000	34.983000
1569.000000	34.939700
1570.000000	34.905433
1571.000000	34.868600
1572.000000	34.834367
1573.000000	34.806300
1574.000000	34.780133
1575.000000	34.766100
1576.000000	34.755900
1577.000000	34.747600
1578.000000	34.747300
1579.000000	34.753000
1580.000000	34.762133
1581.000000	34.776967
1582.000000	34.796400
1583.000000	34.822833
1584.000000	34.858500
1585.000000	34.891000
1586.000000	34.933700
1587.000000	34.975233
1588.000000	35.022967
1589.000000	35.070500
1590.000000	35.121533
1591.000000	35.169000
1592.000000	35.224633
1593.000000	35.281367
1594.000000	35.340533
1595.000000	35.409167
1596.000000	35.482167
1597.000000	35.556633
1598.000000	35.637300
1599.000000	35.719667
1600.000000	35.803967
1601.000000	35.885767
1602.000000	35.977900
1603.000000	36.071067
1604.000000	36.154167
1605.000000	36.246700
1606.000000	36.352333
1607.000000	36.444567
1608.000000	36.535100
1609.000000	36.624167
1610.000000	36.710300
1611.000000	36.805233
1612.000000	36.887733
1613.000000	36.967867
1614.000000	37.051700
1615.000000	37.147600
1616.000000	37.238667
1617.000000	37.334767
1618.000000	37.430267
1619.000000	37.509333
1620.000000	37.593467
1621.000000	37.690933
1622.000000	37.778700
1623.000000	37.873033
1624.000000	37.977067
1625.000000	38.073733
1626.000000	38.177433
1627.000000	38.282767
1628.000000	38.381600
1629.000000	38.476833
1630.000000	38.579267
1631.000000	38.683600
1632.000000	38.777700
1633.000000	38.870800
1634.000000	38.960267
1635.000000	39.051633
1636.000000	39.138200
1637.000000	39.216467
1638.000000	39.298833
1639.000000	39.370400
1640.000000	39.441367
1641.000000	39.510733
1642.000000	39.585000
1643.000000	39.649900
1644.000000	39.716533
1645.000000	39.782400
1646.000000	39.840933
1647.000000	39.900767
1648.000000	39.958400
1649.000000	40.009033
1650.000000	40.052667
1651.000000	40.097100
1652.000000	40.128633
1653.000000	40.140200
1654.000000	40.163533
1655.000000	40.184267
1656.000000	40.175167
1657.000000	40.159300
1658.000000	40.132633
1659.000000	40.100633
1660.000000	40.059400
1661.000000	40.007400
1662.000000	39.924100
1663.000000	39.845033
1664.000000	39.748867
1665.000000	39.628267
1666.000000	39.499233
1667.000000	39.369800
1668.000000	39.199200
1669.000000	39.005767
1670.000000	38.775000
1671.000000	38.530967
1672.000000	38.258033
1673.000000	37.954200
1674.000000	37.601733
1675.000000	37.203533
1676.000000	36.748067
1677.000000	36.234733
1678.000000	35.673700
1679.000000	35.054167
1680.000000	34.415767
1681.000000	33.771333
1682.000000	33.200767
1683.000000	32.735367
1684.000000	32.398133
1685.000000	32.192200
1686.000000	32.074667
1687.000000	32.018200
1688.000000	31.971167
1689.000000	31.912933
1690.000000	31.785000
1691.000000	31.670833
1692.000000	31.521267
1693.000000	31.358700
1694.000000	31.257900
1695.000000	31.202133
1696.000000	31.203833
1697.000000	31.251533
1698.000000	31.351700
1699.000000	31.503733
1700.000000	31.669400
1701.000000	31.823967
1702.000000	31.969367
1703.000000	32.094933
1704.000000	32.184767
1705.000000	32.244733
1706.000000	32.288467
1707.000000	32.304133
1708.000000	32.307200
1709.000000	32.291533
1710.000000	32.283900
1711.000000	32.214967
1712.000000	32.152267
1713.000000	32.070400
1714.000000	31.957233
1715.000000	31.829867
1716.000000	31.707800
1717.000000	31.564533
1718.000000	31.436433
1719.000000	31.343600
1720.000000	31.249700
1721.000000	31.170400
1722.000000	31.115600
1723.000000	31.065700
1724.000000	31.033933
1725.000000	30.994967
1726.000000	30.936000
1727.000000	30.870600
1728.000000	30.788233
1729.000000	30.705133
1730.000000	30.596733
1731.000000	30.511133
1732.000000	30.448233
1733.000000	30.407000
1734.000000	30.402667
1735.000000	30.448000
1736.000000	30.552067
1737.000000	30.708400
1738.000000	30.907567
1739.000000	31.144367
1740.000000	31.415233
1741.000000	31.695400
1742.000000	31.974433
1743.000000	32.229967
1744.000000	32.478200
1745.000000	32.698200
1746.000000	32.886667
1747.000000	33.052733
1748.000000	33.195333
1749.000000	33.310733
1750.000000	33.401800
1751.000000	33.478233
1752.000000	33.539500
1753.000000	33.573333
1754.000000	33.598533
1755.000000	33.596567
1756.000000	33.580800
1757.000000	33.542900
1758.000000	33.496233
1759.000000	33.432933
1760.000000	33.357533
1761.000000	33.302900
1762.000000	33.274267
1763.000000	33.261633
1764.000000	33.273733
1765.000000	33.311333
1766.000000	33.405900
1767.000000	33.515700
1768.000000	33.638067
1769.000000	33.778133
1770.000000	33.932633
1771.000000	34.085300
1772.000000	34.240533
1773.000000	34.397400
1774.000000	34.568067
1775.000000	34.720733
1776.000000	34.868567
1777.000000	35.008733
1778.000000	35.142900
1779.000000	35.254167
1780.000000	35.360300
1781.000000	35.457667
1782.000000	35.560600
1783.000000	35.637700
1784.000000	35.730700
1785.000000	35.827933
1786.000000	35.909333
1787.000000	35.994333
1788.000000	36.061000
1789.000000	36.122333
1790.000000	36.186400
1791.000000	36.254667
1792.000000	36.322233
1793.000000	36.381600
1794.000000	36.452800
1795.000000	36.513867
1796.000000	36.570533
1797.000000	36.627967
1798.000000	36.677433
1799.000000	36.730533
1800.000000	36.788600
1801.000000	36.870733
1802.000000	36.946467
1803.000000	36.993433
1804.000000	37.033367
1805.000000	37.093800
1806.000000	37.171567
1807.000000	37.234533
1808.000000	37.275067
1809.000000	37.319633
1810.000000	37.372033
1811.000000	37.437300
1812.000000	37.490000
1813.000000	37.519467
1814.000000	37.540500
1815.000000	37.554967
1816.000000	37.577667
1817.000000	37.573967
1818.000000	37.572633
1819.000000	37.610800
1820.000000	37.672833
1821.000000	37.723333
1822.000000	37.741867
1823.000000	37.719567
1824.000000	37.697167
1825.000000	37.751267
1826.000000	37.838433
1827.000000	37.914267
1828.000000	38.001300
1829.000000	38.110900
1830.000000	38.202000
1831.000000	38.295000
1832.000000	38.380300
1833.000000	38.453833
1834.000000	38.535433
1835.000000	38.658400
1836.000000	38.783633
1837.000000	38.882500
1838.000000	38.963067
1839.000000	39.018500
1840.000000	39.088733
1841.000000	39.163033
1842.000000	39.235133
1843.000000	39.246667
1844.000000	39.224933
1845.000000	39.269100
1846.000000	39.364633
1847.000000	39.498433
1848.000000	39.633433
1849.000000	39.724533
1850.000000	39.732100
1851.000000	39.750233
1852.000000	39.798867
1853.000000	39.862733
1854.000000	39.956667
1855.000000	40.022800
1856.000000	40.055567
1857.000000	40.085167
1858.000000	40.109267
1859.000000	40.125467
1860.000000	40.134833
1861.000000	40.104200
1862.000000	40.057867
1863.000000	39.997233
1864.000000	39.929600
1865.000000	39.881033
1866.000000	39.837833
1867.000000	39.791600
1868.000000	39.727800
1869.000000	39.606800
1870.000000	39.456800
1871.000000	39.298667
1872.000000	39.077300
1873.000000	38.797967
1874.000000	38.495867
1875.000000	38.165100
1876.000000	37.805367
1877.000000	37.423700
1878.000000	36.994133
1879.000000	36.553600
1880.000000	36.093400
1881.000000	35.644967
1882.000000	35.143033
1883.000000	34.648733
1884.000000	34.155067
1885.000000	33.635100
1886.000000	33.143733
1887.000000	32.696967
1888.000000	32.290567
1889.000000	31.880967
1890.000000	31.491167
1891.000000	31.109267
1892.000000	30.692333
1893.000000	30.245800
1894.000000	29.824867
1895.000000	29.424000
1896.000000	29.051500
1897.000000	28.707667
1898.000000	28.324567
1899.000000	27.910667
1900.000000	27.504133
1901.000000	27.068167
1902.000000	26.665400
1903.000000	26.308167
1904.000000	25.945567
1905.000000	25.569000
1906.000000	25.159667
1907.000000	24.743500
1908.000000	24.377567
1909.000000	24.041933
1910.000000	23.759033
1911.000000	23.470367
1912.000000	23.192433
1913.000000	22.885733
1914.000000	22.570700
1915.000000	22.244333
1916.000000	21.963733
1917.000000	21.709200
1918.000000	21.479000
1919.000000	21.255900
1920.000000	21.054333
1921.000000	20.832433
1922.000000	20.601567
1923.000000	20.396633
1924.000000	20.204600
1925.000000	20.048867
1926.000000	19.894000
1927.000000	19.738200
1928.000000	19.618000
1929.000000	19.483733
1930.000000	19.369467
1931.000000	19.267200
1932.000000	19.177900
1933.000000	19.074433
1934.000000	19.012000
1935.000000	18.950733
1936.000000	18.914433
1937.000000	18.892667
1938.000000	18.866000
1939.000000	18.851900
1940.000000	18.842533
1941.000000	18.852733
1942.000000	18.855967
1943.000000	18.862400
1944.000000	18.892400
1945.000000	18.926267
1946.000000	18.977433
1947.000000	19.017267
1948.000000	19.083500
1949.000000	19.128567
1950.000000	19.193200
1951.000000	19.255067
1952.000000	19.327233
1953.000000	19.396000
1954.000000	19.483867
1955.000000	19.560700
1956.000000	19.647300
1957.000000	19.726700
1958.000000	19.817233
1959.000000	19.889200
1960.000000	19.974400
1961.000000	20.056367
1962.000000	20.144467
1963.000000	20.216100
1964.000000	20.307367
1965.000000	20.386767
1966.000000	20.462133
1967.000000	20.556967
1968.000000	20.622700
1969.000000	20.710900
1970.000000	20.794100
1971.000000	20.886000
1972.000000	20.975833
1973.000000	21.051167
1974.000000	21.145533
1975.000000	21.222067
1976.000000	21.316867
1977.000000	21.395067
1978.000000	21.496967
1979.000000	21.575267
1980.000000	21.686567
1981.000000	21.768733
1982.000000	21.861633
1983.000000	21.954033
1984.000000	22.039433
1985.000000	22.133133
1986.000000	22.215167
1987.000000	22.294167
1988.000000	22.377300
1989.000000	22.454933
1990.000000	22.531100
1991.000000	22.604700
1992.000000	22.676833
1993.000000	22.729267
1994.000000	22.792867
1995.000000	22.852600
1996.000000	22.898133
1997.000000	22.947367
1998.000000	22.987800
1999.000000	23.032467
2000.000000	23.052167
2001.000000	23.066000
2002.000000	23.064900
2003.000000	23.092300
2004.000000	23.102700
2005.000000	23.094500
2006.000000	23.093967
2007.000000	23.085333
2008.000000	23.068300
2009.000000	23.051233
2010.000000	23.010700
2011.000000	22.971067
2012.000000	22.941500
2013.000000	22.891033
2014.000000	22.835267
2015.000000	22.776200
2016.000000	22.705833
2017.000000	22.641500
2018.000000	22.564467
2019.000000	22.480833
2020.000000	22.398133
2021.000000	22.309300
2022.000000	22.211800
2023.000000	22.126733
2024.000000	22.014967
2025.000000	21.909033
2026.000000	21.799133
2027.000000	21.690500
2028.000000	21.586267
2029.000000	21.455600
2030.000000	21.322067
2031.000000	21.195067
2032.000000	21.051533
2033.000000	20.909967
2034.000000	20.755033
2035.000000	20.594200
2036.000000	20.429300
2037.000000	20.255467
2038.000000	20.084400
2039.000000	19.911667
2040.000000	19.721600
2041.000000	19.535667
2042.000000	19.325967
2043.000000	19.136800
2044.000000	18.947933
2045.000000	18.766100
2046.000000	18.581867
2047.000000	18.403267
2048.000000	18.235267
2049.000000	18.092067
2050.000000	17.960700
2051.000000	17.830933
2052.000000	17.727000
2053.000000	17.649900
2054.000000	17.574033
2055.000000	17.527133
2056.000000	17.491133
2057.000000	17.461000
2058.000000	17.450767
2059.000000	17.462833
2060.000000	17.482933
2061.000000	17.510800
2062.000000	17.546367
2063.000000	17.592400
2064.000000	17.647833
2065.000000	17.694733
2066.000000	17.751633
2067.000000	17.808400
2068.000000	17.864067
2069.000000	17.929167
2070.000000	17.990933
2071.000000	18.042967
2072.000000	18.104200
2073.000000	18.163267
2074.000000	18.216600
2075.000000	18.263467
2076.000000	18.308733
2077.000000	18.357067
2078.000000	18.396867
2079.000000	18.436933
2080.000000	18.482700
2081.000000	18.517100
2082.000000	18.545267
2083.000000	18.567500
2084.000000	18.588933
2085.000000	18.610967
2086.000000	18.636067
2087.000000	18.649533
2088.000000	18.655367
2089.000000	18.667200
2090.000000	18.672300
2091.000000	18.676533
2092.000000	18.687933
2093.000000	18.706800
2094.000000	18.721733
2095.000000	18.731533
2096.000000	18.745633
2097.000000	18.762900
2098.000000	18.786033
2099.000000	18.812633
2100.000000	18.840833
2101.000000	18.873767
2102.000000	18.897967
2103.000000	18.925567
2104.000000	18.960833
2105.000000	18.993800
2106.000000	19.026333
2107.000000	19.055667
2108.000000	19.082000
2109.000000	19.106467
2110.000000	19.130267
2111.000000	19.164867
2112.000000	19.196267
2113.000000	19.219933
2114.000000	19.247567
2115.000000	19.276100
2116.000000	19.301267
2117.000000	19.320333
2118.000000	19.337433
2119.000000	19.363700
2120.000000	19.384133
2121.000000	19.403933
2122.000000	19.410133
2123.000000	19.410700
2124.000000	19.412400
2125.000000	19.415267
2126.000000	19.411967
2127.000000	19.406500
2128.000000	19.398933
2129.000000	19.369733
2130.000000	19.353667
2131.000000	19.340500
2132.000000	19.310500
2133.000000	19.277033
2134.000000	19.249267
2135.000000	19.206133
2136.000000	19.172100
2137.000000	19.124567
2138.000000	19.075700
2139.000000	19.028400
2140.000000	18.964333
2141.000000	18.912600
2142.000000	18.867167
2143.000000	18.806100
2144.000000	18.742267
2145.000000	18.680833
2146.000000	18.618667
2147.000000	18.558000
2148.000000	18.486700
2149.000000	18.419633
2150.000000	18.361567
2151.000000	18.283767
2152.000000	18.202800
2153.000000	18.133400
2154.000000	18.067400
2155.000000	17.993900
2156.000000	17.937033
2157.000000	17.873867
2158.000000	17.793933
2159.000000	17.736567
2160.000000	17.689867
2161.000000	17.643667
2162.000000	17.593767
2163.000000	17.549533
2164.000000	17.513200
2165.000000	17.470400
2166.000000	17.448100
2167.000000	17.407233
2168.000000	17.376167
2169.000000	17.362800
2170.000000	17.344000
2171.000000	17.320233
2172.000000	17.308633
2173.000000	17.299033
2174.000000	17.295733
2175.000000	17.283467
2176.000000	17.287167
2177.000000	17.300700
2178.000000	17.300567
2179.000000	17.299767
2180.000000	17.312500
2181.000000	17.325067
2182.000000	17.346733
2183.000000	17.364267
2184.000000	17.381667
2185.000000	17.394267
2186.000000	17.408367
2187.000000	17.441133
2188.000000	17.438300
2189.000000	17.451800
2190.000000	17.472600
2191.000000	17.483267
2192.000000	17.493700
2193.000000	17.493533
2194.000000	17.509633
2195.000000	17.515633
2196.000000	17.529767
2197.000000	17.538700
2198.000000	17.552600
2199.000000	17.567933
2200.000000	17.587300
2201.000000	17.598033
2202.000000	17.619133
2203.000000	17.634567
2204.000000	17.665767
2205.000000	17.684433
2206.000000	17.714633
2207.000000	17.757667
2208.000000	17.780533
2209.000000	17.818000
2210.000000	17.848967
2211.000000	17.891367
2212.000000	17.937900
2213.000000	17.973533
2214.000000	18.024333
2215.000000	18.070600
2216.000000	18.121567
2217.000000	18.177800
2218.000000	18.219967
2219.000000	18.267300
2220.000000	18.320933
2221.000000	18.349167
2222.000000	18.410200
2223.000000	18.447200
2224.000000	18.470300
2225.000000	18.499633
2226.000000	18.508233
2227.000000	18.531533
2228.000000	18.537067
2229.000000	18.537033
2230.000000	18.519300
2231.000000	18.492333
2232.000000	18.466733
2233.000000	18.419333
2234.000000	18.369900
2235.000000	18.313833
2236.000000	18.234000
2237.000000	18.151433
2238.000000	18.064600
2239.000000	17.964467
2240.000000	17.854267
2241.000000	17.742800
2242.000000	17.601267
2243.000000	17.459600
2244.000000	17.312367
2245.000000	17.141467
2246.000000	16.955867
2247.000000	16.764100
2248.000000	16.553200
2249.000000	16.339400
2250.000000	16.111900
2251.000000	15.852867
2252.000000	15.592900
2253.000000	15.341733
2254.000000	15.050167
2255.000000	14.765533
2256.000000	14.481633
2257.000000	14.185667
2258.000000	13.910800
2259.000000	13.650067
2260.000000	13.392167
2261.000000	13.142867
2262.000000	12.926933
2263.000000	12.717100
2264.000000	12.528567
2265.000000	12.363433
2266.000000	12.227033
2267.000000	12.118200
2268.000000	12.017700
2269.000000	11.952733
2270.000000	11.884433
2271.000000	11.852133
2272.000000	11.816733
2273.000000	11.816600
2274.000000	11.820633
2275.000000	11.825333
2276.000000	11.854533
2277.000000	11.880433
2278.000000	11.910933
2279.000000	11.944900
2280.000000	11.982800
2281.000000	12.029167
2282.000000	12.056733
2283.000000	12.086433
2284.000000	12.112633
2285.000000	12.137167
2286.000000	12.161167
2287.000000	12.168667
2288.000000	12.169333
2289.000000	12.165633
2290.000000	12.148100
2291.000000	12.121800
2292.000000	12.083000
2293.000000	12.039667
2294.000000	11.984700
2295.000000	11.915800
2296.000000	11.834600
2297.000000	11.754900
2298.000000	11.671433
2299.000000	11.582967
2300.000000	11.510767
2301.000000	11.435667
2302.000000	11.371500
2303.000000	11.311433
2304.000000	11.277100
2305.000000	11.249867
2306.000000	11.239633
2307.000000	11.267233
2308.000000	11.293300
2309.000000	11.337133
2310.000000	11.400833
2311.000000	11.480833
2312.000000	11.561200
2313.000000	11.652433
2314.000000	11.756400
2315.000000	11.873333
2316.000000	11.994400
2317.000000	12.099567
2318.000000	12.227467
2319.000000	12.336667
2320.000000	12.441667
2321.000000	12.549133
2322.000000	12.641333
2323.000000	12.739367
2324.000000	12.823667
2325.000000	12.906233
2326.000000	12.981367
2327.000000	13.043867
2328.000000	13.105433
2329.000000	13.173967
2330.000000	13.227067
2331.000000	13.278567
2332.000000	13.325667
2333.000000	13.356200
2334.000000	13.390267
2335.000000	13.419033
2336.000000	13.441133
2337.000000	13.460900
2338.000000	13.466767
2339.000000	13.470933
2340.000000	13.461067
2341.000000	13.446800
2342.000000	13.435100
2343.000000	13.411133
2344.000000	13.379033
2345.000000	13.346833
2346.000000	13.316900
2347.000000	13.288933
2348.000000	13.259033
2349.000000	13.242367
2350.000000	13.238500
2351.000000	13.230500
2352.000000	13.231533
2353.000000	13.244267
2354.000000	13.262133
2355.000000	13.298533
2356.000000	13.337333
2357.000000	13.375133
2358.000000	13.437400
2359.000000	13.505067
2360.000000	13.574967
2361.000000	13.644833
2362.000000	13.710467
2363.000000	13.776700
2364.000000	13.848667
2365.000000	13.921800
2366.000000	13.981967
2367.000000	14.038300
2368.000000	14.096767
2369.000000	14.148800
2370.000000	14.196800
2371.000000	14.244867
2372.000000	14.293500
2373.000000	14.339933
2374.000000	14.373433
2375.000000	14.400433
2376.000000	14.436500
2377.000000	14.473533
2378.000000	14.502067
2379.000000	14.534767
2380.000000	14.565467
2381.000000	14.588800
2382.000000	14.605967
2383.000000	14.626533
2384.000000	14.644800
2385.000000	14.656700
2386.000000	14.663467
2387.000000	14.663867
2388.000000	14.663733
2389.000000	14.662933
2390.000000	14.659967
2391.000000	14.652600
2392.000000	14.633133
2393.000000	14.620633
2394.000000	14.611133
2395.000000	14.579600
2396.000000	14.556467
2397.000000	14.536867
2398.000000	14.515067
2399.000000	14.497200
2400.000000	14.472733
2401.000000	14.443433
2402.000000	14.416500
2403.000000	14.398300
2404.000000	14.373900
2405.000000	14.348300
2406.000000	14.321300
2407.000000	14.288500
2408.000000	14.275167
2409.000000	14.251033
2410.000000	14.213267
2411.000000	14.184533
2412.000000	14.157233
2413.000000	14.122767
2414.000000	14.103433
2415.000000	14.072500
2416.000000	14.041000
2417.000000	13.994800
2418.000000	13.959367
2419.000000	13.915867
2420.000000	13.861533
2421.000000	13.825333
2422.000000	13.781367
2423.000000	13.752700
2424.000000	13.708733
2425.000000	13.658667
2426.000000	13.609267
2427.000000	13.548833
2428.000000	13.487167
2429.000000	13.422600
2430.000000	13.347200
2431.000000	13.275267
2432.000000	13.203967
2433.000000	13.124667
2434.000000	13.046200
2435.000000	12.958300
2436.000000	12.867433
2437.000000	12.784200
2438.000000	12.700967
2439.000000	12.600767
2440.000000	12.505933
2441.000000	12.418200
2442.000000	12.327200
2443.000000	12.218833
2444.000000	12.121800
2445.000000	12.029967
2446.000000	11.914267
2447.000000	11.826300
2448.000000	11.722933
2449.000000	11.639600
2450.000000	11.549100
2451.000000	11.446533
2452.000000	11.345500
2453.000000	11.260733
2454.000000	11.172833
2455.000000	11.091500
2456.000000	11.024733
2457.000000	10.947700
2458.000000	10.883333
2459.000000	10.798000
2460.000000	10.737700
2461.000000	10.714900
2462.000000	10.633567
2463.000000	10.603233
2464.000000	10.564933
2465.000000	10.533100
2466.000000	10.506933
2467.000000	10.472500
2468.000000	10.442967
2469.000000	10.442167
2470.000000	10.407267
2471.000000	10.392100
2472.000000	10.385467
2473.000000	10.388667
2474.000000	10.363267
2475.000000	10.362067
2476.000000	10.330100
2477.000000	10.352067
2478.000000	10.359733
2479.000000	10.350700
2480.000000	10.333167
2481.000000	10.353200
2482.000000	10.337500
2483.000000	10.358900
2484.000000	10.342700
2485.000000	10.315000
2486.000000	10.389133
2487.000000	10.380567
2488.000000	10.405700
2489.000000	10.438433
2490.000000	10.379800
2491.000000	10.494267
2492.000000	10.454233
2493.000000	10.518633
2494.000000	10.554833
2495.000000	10.513067
2496.000000	10.547767
2497.000000	10.547633
2498.000000	10.634433
2499.000000	10.691633
2500.000000	10.668700
