PE UV       SUBTECH     SPECTRUM    ASCII       PEDS        4.00        
   -1
CICIMAUCR0097-3.Sample.ASC
24/04/18
13:31:23.00
24/04/18
13:31:23.00
Vinicio Soto Monge
C. kalinini
250,000000
1
Lambda 1050
1050L1511233
PerkinElmer UV WinLab 6.3.2.0749 / 2.02.05 Lambda 900 UV/VIS/NIR, Aug  7 2015 09:38:08

0
0
3350/servo 860,8/2
0
0
UV/VIS
1
1
1
DoubleDePol,CommonBeamDepol,RBeamAtt,SBeamAtt,60mm sphere, WB InGaAs Detector
0
0
0
0
Program
Program
3350/servo 860,8/2
3350/0,2 860,8/0,2
3350/0,2 860,8/0,2
0
15.00
 
 
 
0
 
860,8
319,2
860,8
Front
100
on
S:100 R:100
0
0
0
0
 
0
 
 
 
0
 
 
0
0
0
0
0
 
 
 
 
0
0


0
0
#HDR
-1
-1
#GR
nm
%R
1.0
0.0
2500,000000
-1,000000
2251
8
97,988000
5,671400
#DATA
250.000000	5.353328
251.000000	5.330548
252.000000	5.327408
253.000000	5.325602
254.000000	5.290053
255.000000	5.290606
256.000000	5.283591
257.000000	5.294156
258.000000	5.278946
259.000000	5.237836
260.000000	5.217449
261.000000	5.195500
262.000000	5.152213
263.000000	5.153211
264.000000	5.135858
265.000000	5.136100
266.000000	5.133060
267.000000	5.066613
268.000000	5.039544
269.000000	5.017809
270.000000	4.995779
271.000000	5.019640
272.000000	4.984187
273.000000	4.965522
274.000000	4.940793
275.000000	4.931863
276.000000	4.949127
277.000000	4.896155
278.000000	4.876069
279.000000	4.879327
280.000000	4.891995
281.000000	4.874764
282.000000	4.849344
283.000000	4.869209
284.000000	4.848637
285.000000	4.837931
286.000000	4.819821
287.000000	4.832070
288.000000	4.833018
289.000000	4.818171
290.000000	4.811559
291.000000	4.807150
292.000000	4.788490
293.000000	4.820211
294.000000	4.791924
295.000000	4.791577
296.000000	4.811444
297.000000	4.823855
298.000000	4.799608
299.000000	4.794236
300.000000	4.797784
301.000000	4.769538
302.000000	4.752352
303.000000	4.767959
304.000000	4.797786
305.000000	4.773343
306.000000	4.785812
307.000000	4.760202
308.000000	4.766686
309.000000	4.748989
310.000000	4.744339
311.000000	4.762172
312.000000	4.744917
313.000000	4.788857
314.000000	4.749034
315.000000	4.758209
316.000000	4.800837
317.000000	5.027430
318.000000	4.906359
319.000000	4.890054
320.000000	4.868779
321.000000	4.948618
322.000000	4.894292
323.000000	4.979521
324.000000	4.871534
325.000000	4.722038
326.000000	4.815779
327.000000	4.965603
328.000000	4.852742
329.000000	4.833608
330.000000	4.863475
331.000000	4.910711
332.000000	4.853662
333.000000	4.910769
334.000000	4.858309
335.000000	4.857341
336.000000	4.917171
337.000000	4.949148
338.000000	4.900816
339.000000	4.927705
340.000000	5.122570
341.000000	4.927285
342.000000	4.878187
343.000000	4.919921
344.000000	4.938076
345.000000	4.897488
346.000000	4.904139
347.000000	4.936237
348.000000	4.870892
349.000000	4.905560
350.000000	4.968768
351.000000	4.946997
352.000000	4.986176
353.000000	5.004304
354.000000	5.079618
355.000000	5.090544
356.000000	5.061498
357.000000	5.087621
358.000000	5.070451
359.000000	5.111687
360.000000	5.172406
361.000000	5.141269
362.000000	5.167101
363.000000	5.211121
364.000000	5.205564
365.000000	5.239394
366.000000	5.199617
367.000000	5.210622
368.000000	5.248201
369.000000	5.304520
370.000000	5.280777
371.000000	5.293300
372.000000	5.348965
373.000000	5.388719
374.000000	5.390247
375.000000	5.413020
376.000000	5.485695
377.000000	5.406177
378.000000	5.434072
379.000000	5.474631
380.000000	5.510042
381.000000	5.540827
382.000000	5.572476
383.000000	5.615619
384.000000	5.664530
385.000000	5.700369
386.000000	5.736318
387.000000	5.786910
388.000000	5.838779
389.000000	5.886288
390.000000	5.938088
391.000000	5.990936
392.000000	6.050739
393.000000	6.123053
394.000000	6.193681
395.000000	6.275392
396.000000	6.368035
397.000000	6.452972
398.000000	6.537766
399.000000	6.635384
400.000000	6.746051
401.000000	6.861414
402.000000	6.983061
403.000000	7.117027
404.000000	7.257045
405.000000	7.405513
406.000000	7.567203
407.000000	7.738701
408.000000	7.918161
409.000000	8.108334
410.000000	8.313392
411.000000	8.532888
412.000000	8.761777
413.000000	9.002990
414.000000	9.255607
415.000000	9.522029
416.000000	9.796916
417.000000	10.082418
418.000000	10.383959
419.000000	10.690101
420.000000	11.009992
421.000000	11.344575
422.000000	11.691037
423.000000	12.042451
424.000000	12.402139
425.000000	12.764009
426.000000	13.127512
427.000000	13.493526
428.000000	13.863665
429.000000	14.234648
430.000000	14.607723
431.000000	14.994851
432.000000	15.372002
433.000000	15.742766
434.000000	16.116866
435.000000	16.484925
436.000000	16.840816
437.000000	17.190632
438.000000	17.533931
439.000000	17.872041
440.000000	18.204447
441.000000	18.531582
442.000000	18.853171
443.000000	19.159450
444.000000	19.456153
445.000000	19.744434
446.000000	20.024550
447.000000	20.291494
448.000000	20.545669
449.000000	20.789919
450.000000	21.026755
451.000000	21.250339
452.000000	21.472423
453.000000	21.684198
454.000000	21.876915
455.000000	22.065238
456.000000	22.244411
457.000000	22.409044
458.000000	22.568867
459.000000	22.724840
460.000000	22.869113
461.000000	23.002988
462.000000	23.129048
463.000000	23.249064
464.000000	23.358563
465.000000	23.464994
466.000000	23.557611
467.000000	23.642627
468.000000	23.716105
469.000000	23.774394
470.000000	23.834621
471.000000	23.886557
472.000000	23.921769
473.000000	23.951483
474.000000	23.972637
475.000000	23.979549
476.000000	23.970026
477.000000	23.961918
478.000000	23.950769
479.000000	23.923601
480.000000	23.903926
481.000000	23.879016
482.000000	23.846491
483.000000	23.799180
484.000000	23.741789
485.000000	23.681104
486.000000	23.637796
487.000000	23.592386
488.000000	23.536758
489.000000	23.491454
490.000000	23.465449
491.000000	23.446870
492.000000	23.444681
493.000000	23.449623
494.000000	23.478685
495.000000	23.525143
496.000000	23.603842
497.000000	23.704825
498.000000	23.820389
499.000000	23.983180
500.000000	24.190300
501.000000	24.411913
502.000000	24.671299
503.000000	24.956441
504.000000	25.285713
505.000000	25.639779
506.000000	26.010425
507.000000	26.416833
508.000000	26.843461
509.000000	27.295543
510.000000	27.767616
511.000000	28.259916
512.000000	28.770575
513.000000	29.295218
514.000000	29.831100
515.000000	30.368451
516.000000	30.918341
517.000000	31.479397
518.000000	32.045071
519.000000	32.598097
520.000000	33.176662
521.000000	33.757352
522.000000	34.343639
523.000000	34.941584
524.000000	35.546873
525.000000	36.147147
526.000000	36.734871
527.000000	37.335884
528.000000	37.934512
529.000000	38.540032
530.000000	39.151820
531.000000	39.757091
532.000000	40.362017
533.000000	40.971948
534.000000	41.580078
535.000000	42.191615
536.000000	42.793571
537.000000	43.393879
538.000000	43.991695
539.000000	44.588802
540.000000	45.199243
541.000000	45.795668
542.000000	46.385941
543.000000	46.981901
544.000000	47.577762
545.000000	48.152983
546.000000	48.721851
547.000000	49.277492
548.000000	49.838759
549.000000	50.376515
550.000000	50.899424
551.000000	51.425357
552.000000	51.919598
553.000000	52.424565
554.000000	52.893686
555.000000	53.373882
556.000000	53.830959
557.000000	54.278106
558.000000	54.688152
559.000000	55.105532
560.000000	55.498079
561.000000	55.874620
562.000000	56.252168
563.000000	56.633933
564.000000	56.966424
565.000000	57.307138
566.000000	57.641911
567.000000	57.947593
568.000000	58.264255
569.000000	58.545372
570.000000	58.816867
571.000000	59.096213
572.000000	59.361551
573.000000	59.621188
574.000000	59.835412
575.000000	60.061532
576.000000	60.245510
577.000000	60.446050
578.000000	60.632798
579.000000	60.815531
580.000000	60.974414
581.000000	61.145192
582.000000	61.323297
583.000000	61.470450
584.000000	61.612203
585.000000	61.712654
586.000000	61.848363
587.000000	61.979397
588.000000	62.075395
589.000000	62.181946
590.000000	62.288945
591.000000	62.349612
592.000000	62.447197
593.000000	62.451625
594.000000	62.509666
595.000000	62.549764
596.000000	62.576910
597.000000	62.565515
598.000000	62.561951
599.000000	62.501220
600.000000	62.465621
601.000000	62.409947
602.000000	62.297367
603.000000	62.189554
604.000000	62.061896
605.000000	61.910908
606.000000	61.761704
607.000000	61.556475
608.000000	61.361454
609.000000	61.140665
610.000000	60.901012
611.000000	60.673864
612.000000	60.401124
613.000000	60.148404
614.000000	59.843373
615.000000	59.535456
616.000000	59.277997
617.000000	58.951657
618.000000	58.664539
619.000000	58.351351
620.000000	58.032842
621.000000	57.707948
622.000000	57.388336
623.000000	57.045953
624.000000	56.704066
625.000000	56.392541
626.000000	56.034021
627.000000	55.690116
628.000000	55.320756
629.000000	54.960664
630.000000	54.605630
631.000000	54.291590
632.000000	53.949649
633.000000	53.612181
634.000000	53.295320
635.000000	53.012164
636.000000	52.725135
637.000000	52.492052
638.000000	52.280289
639.000000	52.073443
640.000000	51.918409
641.000000	51.816140
642.000000	51.705895
643.000000	51.662887
644.000000	51.633547
645.000000	51.636502
646.000000	51.685691
647.000000	51.726443
648.000000	51.828636
649.000000	51.938498
650.000000	52.056996
651.000000	52.177702
652.000000	52.323688
653.000000	52.439712
654.000000	52.589298
655.000000	52.745670
656.000000	52.876795
657.000000	53.039643
658.000000	53.188119
659.000000	53.341669
660.000000	53.478063
661.000000	53.623610
662.000000	53.794568
663.000000	53.965301
664.000000	54.122571
665.000000	54.278022
666.000000	54.458868
667.000000	54.651522
668.000000	54.829855
669.000000	55.021680
670.000000	55.208445
671.000000	55.430950
672.000000	55.646080
673.000000	55.860723
674.000000	56.051695
675.000000	56.269313
676.000000	56.482948
677.000000	56.682928
678.000000	56.900509
679.000000	57.077533
680.000000	57.291758
681.000000	57.485343
682.000000	57.668972
683.000000	57.868034
684.000000	58.096435
685.000000	58.307396
686.000000	58.493117
687.000000	58.720082
688.000000	58.921176
689.000000	59.131322
690.000000	59.368481
691.000000	59.633233
692.000000	59.882096
693.000000	60.132403
694.000000	60.424040
695.000000	60.711314
696.000000	60.978817
697.000000	61.255502
698.000000	61.547521
699.000000	61.847988
700.000000	62.143389
701.000000	62.440095
702.000000	62.793225
703.000000	63.136964
704.000000	63.440990
705.000000	63.778795
706.000000	64.083679
707.000000	64.392150
708.000000	64.738724
709.000000	65.092747
710.000000	65.447469
711.000000	65.776598
712.000000	66.125697
713.000000	66.470928
714.000000	66.849665
715.000000	67.247629
716.000000	67.624211
717.000000	67.949617
718.000000	68.336028
719.000000	68.753383
720.000000	69.147616
721.000000	69.582988
722.000000	69.989144
723.000000	70.402297
724.000000	70.853002
725.000000	71.301865
726.000000	71.715782
727.000000	72.070019
728.000000	72.491609
729.000000	72.914064
730.000000	73.308329
731.000000	73.744684
732.000000	74.158033
733.000000	74.539537
734.000000	74.909289
735.000000	75.268388
736.000000	75.609100
737.000000	75.980304
738.000000	76.338515
739.000000	76.651989
740.000000	76.938482
741.000000	77.226617
742.000000	77.528555
743.000000	77.780334
744.000000	78.021522
745.000000	78.277839
746.000000	78.518490
747.000000	78.747901
748.000000	78.979336
749.000000	79.190359
750.000000	79.356261
751.000000	79.517697
752.000000	79.706878
753.000000	79.884804
754.000000	80.045641
755.000000	80.218669
756.000000	80.345693
757.000000	80.446940
758.000000	80.607905
759.000000	80.741537
760.000000	80.805185
761.000000	80.905100
762.000000	81.023731
763.000000	81.108530
764.000000	81.167280
765.000000	81.170186
766.000000	81.184139
767.000000	81.230530
768.000000	81.260164
769.000000	81.271606
770.000000	81.327403
771.000000	81.390777
772.000000	81.403732
773.000000	81.398799
774.000000	81.440477
775.000000	81.434714
776.000000	81.447393
777.000000	81.487945
778.000000	81.508144
779.000000	81.554470
780.000000	81.647807
781.000000	81.698932
782.000000	81.713269
783.000000	81.747007
784.000000	81.786349
785.000000	81.838923
786.000000	81.875649
787.000000	81.913632
788.000000	81.976244
789.000000	81.995402
790.000000	82.031158
791.000000	82.082794
792.000000	82.039563
793.000000	82.134632
794.000000	82.167146
795.000000	82.142645
796.000000	82.238888
797.000000	82.225676
798.000000	82.232420
799.000000	82.304015
800.000000	82.325634
801.000000	82.326528
802.000000	82.438663
803.000000	82.512479
804.000000	82.469979
805.000000	82.466192
806.000000	82.477228
807.000000	82.456487
808.000000	82.467303
809.000000	82.498601
810.000000	82.423610
811.000000	82.422025
812.000000	82.413228
813.000000	82.446118
814.000000	82.495919
815.000000	82.456255
816.000000	82.342486
817.000000	82.420757
818.000000	82.318319
819.000000	82.293550
820.000000	82.228851
821.000000	82.112023
822.000000	81.991317
823.000000	82.024346
824.000000	81.960807
825.000000	81.843261
826.000000	81.647148
827.000000	81.551655
828.000000	81.320019
829.000000	81.263792
830.000000	81.128641
831.000000	80.956812
832.000000	80.833759
833.000000	80.729289
834.000000	80.406930
835.000000	80.237772
836.000000	79.948120
837.000000	79.802405
838.000000	79.627633
839.000000	79.346096
840.000000	78.994523
841.000000	78.915183
842.000000	78.706279
843.000000	78.326943
844.000000	77.933253
845.000000	77.644774
846.000000	77.404697
847.000000	77.214248
848.000000	76.980291
849.000000	76.511995
850.000000	76.160160
851.000000	75.848115
852.000000	75.475969
853.000000	75.349274
854.000000	74.898427
855.000000	74.424242
856.000000	74.294651
857.000000	73.923013
858.000000	74.738767
859.000000	73.668700
860.000000	73.735867
861.000000	73.796433
862.000000	73.879233
863.000000	73.880267
864.000000	73.841633
865.000000	73.795233
866.000000	73.747467
867.000000	73.681667
868.000000	73.613300
869.000000	73.549533
870.000000	73.483233
871.000000	73.366033
872.000000	73.317133
873.000000	73.186133
874.000000	73.111167
875.000000	73.014833
876.000000	72.924300
877.000000	72.823367
878.000000	72.670300
879.000000	72.519833
880.000000	72.401533
881.000000	72.251700
882.000000	72.156267
883.000000	72.048667
884.000000	71.903133
885.000000	71.786500
886.000000	71.636333
887.000000	71.493100
888.000000	71.339833
889.000000	71.223500
890.000000	71.082300
891.000000	70.953367
892.000000	70.802600
893.000000	70.694200
894.000000	70.563467
895.000000	70.418133
896.000000	70.276100
897.000000	70.138500
898.000000	70.024533
899.000000	69.869333
900.000000	69.731700
901.000000	69.602667
902.000000	69.478400
903.000000	69.334500
904.000000	69.204700
905.000000	69.065100
906.000000	68.965900
907.000000	68.839767
908.000000	68.694500
909.000000	68.555533
910.000000	68.452933
911.000000	68.289367
912.000000	68.164633
913.000000	68.048700
914.000000	67.938967
915.000000	67.821933
916.000000	67.664467
917.000000	67.534533
918.000000	67.421367
919.000000	67.274533
920.000000	67.148700
921.000000	67.001600
922.000000	66.871067
923.000000	66.733033
924.000000	66.574600
925.000000	66.449067
926.000000	66.307600
927.000000	66.171533
928.000000	66.012167
929.000000	65.879600
930.000000	65.718767
931.000000	65.593133
932.000000	65.413233
933.000000	65.276533
934.000000	65.120867
935.000000	64.951133
936.000000	64.770233
937.000000	64.607367
938.000000	64.441567
939.000000	64.286067
940.000000	64.137367
941.000000	63.945100
942.000000	63.777900
943.000000	63.614200
944.000000	63.426300
945.000000	63.279333
946.000000	63.103033
947.000000	62.921300
948.000000	62.764367
949.000000	62.592900
950.000000	62.435133
951.000000	62.256767
952.000000	62.071333
953.000000	61.899633
954.000000	61.750767
955.000000	61.580867
956.000000	61.412367
957.000000	61.230467
958.000000	61.052500
959.000000	60.888567
960.000000	60.720733
961.000000	60.546533
962.000000	60.362733
963.000000	60.181733
964.000000	60.023400
965.000000	59.851400
966.000000	59.656567
967.000000	59.469500
968.000000	59.306967
969.000000	59.133733
970.000000	58.940667
971.000000	58.773433
972.000000	58.598667
973.000000	58.421367
974.000000	58.255900
975.000000	58.069000
976.000000	57.884867
977.000000	57.707967
978.000000	57.541367
979.000000	57.363567
980.000000	57.175067
981.000000	56.987300
982.000000	56.819567
983.000000	56.644700
984.000000	56.463100
985.000000	56.289433
986.000000	56.126600
987.000000	55.958300
988.000000	55.778900
989.000000	55.591267
990.000000	55.427900
991.000000	55.264467
992.000000	55.101067
993.000000	54.936533
994.000000	54.773600
995.000000	54.610033
996.000000	54.450267
997.000000	54.302133
998.000000	54.152567
999.000000	54.000167
1000.000000	53.852767
1001.000000	53.708600
1002.000000	53.561067
1003.000000	53.406500
1004.000000	53.264067
1005.000000	53.129967
1006.000000	52.995400
1007.000000	52.864033
1008.000000	52.737433
1009.000000	52.610733
1010.000000	52.481200
1011.000000	52.353200
1012.000000	52.240400
1013.000000	52.130667
1014.000000	52.027900
1015.000000	51.919300
1016.000000	51.815667
1017.000000	51.720500
1018.000000	51.623633
1019.000000	51.528433
1020.000000	51.444900
1021.000000	51.369567
1022.000000	51.294333
1023.000000	51.222700
1024.000000	51.153600
1025.000000	51.091633
1026.000000	51.029933
1027.000000	50.967400
1028.000000	50.914333
1029.000000	50.870033
1030.000000	50.826800
1031.000000	50.789467
1032.000000	50.754467
1033.000000	50.713100
1034.000000	50.680733
1035.000000	50.665200
1036.000000	50.646833
1037.000000	50.622433
1038.000000	50.594600
1039.000000	50.574467
1040.000000	50.555333
1041.000000	50.544833
1042.000000	50.536100
1043.000000	50.529267
1044.000000	50.525867
1045.000000	50.520500
1046.000000	50.513733
1047.000000	50.512600
1048.000000	50.514433
1049.000000	50.513267
1050.000000	50.516600
1051.000000	50.528700
1052.000000	50.543767
1053.000000	50.555900
1054.000000	50.561933
1055.000000	50.579267
1056.000000	50.603733
1057.000000	50.630400
1058.000000	50.657433
1059.000000	50.675467
1060.000000	50.694767
1061.000000	50.719867
1062.000000	50.743500
1063.000000	50.769867
1064.000000	50.795533
1065.000000	50.826000
1066.000000	50.851567
1067.000000	50.877900
1068.000000	50.915967
1069.000000	50.955667
1070.000000	50.988667
1071.000000	51.029567
1072.000000	51.061367
1073.000000	51.094133
1074.000000	51.133233
1075.000000	51.170333
1076.000000	51.202333
1077.000000	51.232967
1078.000000	51.283133
1079.000000	51.321200
1080.000000	51.363600
1081.000000	51.405567
1082.000000	51.448933
1083.000000	51.486667
1084.000000	51.522200
1085.000000	51.574167
1086.000000	51.613200
1087.000000	51.661667
1088.000000	51.708633
1089.000000	51.745000
1090.000000	51.789267
1091.000000	51.838933
1092.000000	51.880533
1093.000000	51.929900
1094.000000	51.973833
1095.000000	52.018000
1096.000000	52.060733
1097.000000	52.103733
1098.000000	52.154200
1099.000000	52.199333
1100.000000	52.242033
1101.000000	52.276067
1102.000000	52.315300
1103.000000	52.363833
1104.000000	52.407633
1105.000000	52.438967
1106.000000	52.479433
1107.000000	52.528267
1108.000000	52.572033
1109.000000	52.614200
1110.000000	52.648800
1111.000000	52.686667
1112.000000	52.729200
1113.000000	52.768533
1114.000000	52.811033
1115.000000	52.847033
1116.000000	52.882067
1117.000000	52.924233
1118.000000	52.956600
1119.000000	52.990800
1120.000000	53.038067
1121.000000	53.068133
1122.000000	53.110233
1123.000000	53.129033
1124.000000	53.148633
1125.000000	53.164600
1126.000000	53.167967
1127.000000	53.180433
1128.000000	53.194867
1129.000000	53.204033
1130.000000	53.185267
1131.000000	53.158100
1132.000000	53.136533
1133.000000	53.122567
1134.000000	53.143267
1135.000000	53.099567
1136.000000	53.043900
1137.000000	52.985867
1138.000000	52.941233
1139.000000	52.897600
1140.000000	52.857867
1141.000000	52.821367
1142.000000	52.781100
1143.000000	52.756767
1144.000000	52.742900
1145.000000	52.726733
1146.000000	52.721067
1147.000000	52.726767
1148.000000	52.725600
1149.000000	52.738800
1150.000000	52.759500
1151.000000	52.790100
1152.000000	52.800667
1153.000000	52.806967
1154.000000	52.804733
1155.000000	52.782033
1156.000000	52.750633
1157.000000	52.704433
1158.000000	52.646767
1159.000000	52.593267
1160.000000	52.522200
1161.000000	52.455000
1162.000000	52.383100
1163.000000	52.310733
1164.000000	52.218800
1165.000000	52.124367
1166.000000	52.056200
1167.000000	51.985600
1168.000000	51.891400
1169.000000	51.825700
1170.000000	51.755433
1171.000000	51.686633
1172.000000	51.619067
1173.000000	51.554700
1174.000000	51.501867
1175.000000	51.444500
1176.000000	51.390467
1177.000000	51.317267
1178.000000	51.242300
1179.000000	51.161467
1180.000000	51.070800
1181.000000	50.953467
1182.000000	50.843133
1183.000000	50.764567
1184.000000	50.702500
1185.000000	50.667333
1186.000000	50.687000
1187.000000	50.727800
1188.000000	50.796500
1189.000000	50.914033
1190.000000	51.058100
1191.000000	51.208233
1192.000000	51.365300
1193.000000	51.517400
1194.000000	51.647233
1195.000000	51.766867
1196.000000	51.870667
1197.000000	51.952767
1198.000000	52.023100
1199.000000	52.074333
1200.000000	52.116700
1201.000000	52.169133
1202.000000	52.213567
1203.000000	52.245833
1204.000000	52.291133
1205.000000	52.322700
1206.000000	52.363467
1207.000000	52.407200
1208.000000	52.462267
1209.000000	52.517733
1210.000000	52.559633
1211.000000	52.616767
1212.000000	52.662133
1213.000000	52.726667
1214.000000	52.775600
1215.000000	52.835733
1216.000000	52.890200
1217.000000	52.939367
1218.000000	52.996533
1219.000000	53.038900
1220.000000	53.099433
1221.000000	53.159900
1222.000000	53.221933
1223.000000	53.265300
1224.000000	53.327467
1225.000000	53.383967
1226.000000	53.448800
1227.000000	53.507267
1228.000000	53.571467
1229.000000	53.630767
1230.000000	53.695267
1231.000000	53.755867
1232.000000	53.814667
1233.000000	53.878000
1234.000000	53.932667
1235.000000	53.994300
1236.000000	54.060233
1237.000000	54.113233
1238.000000	54.162567
1239.000000	54.229400
1240.000000	54.291500
1241.000000	54.346600
1242.000000	54.403500
1243.000000	54.466600
1244.000000	54.520200
1245.000000	54.582033
1246.000000	54.645067
1247.000000	54.696967
1248.000000	54.748567
1249.000000	54.799200
1250.000000	54.840100
1251.000000	54.887033
1252.000000	54.932200
1253.000000	54.974333
1254.000000	55.006233
1255.000000	55.040167
1256.000000	55.063733
1257.000000	55.098400
1258.000000	55.141933
1259.000000	55.168567
1260.000000	55.194100
1261.000000	55.218867
1262.000000	55.255333
1263.000000	55.285000
1264.000000	55.309400
1265.000000	55.337900
1266.000000	55.370833
1267.000000	55.400000
1268.000000	55.429167
1269.000000	55.461133
1270.000000	55.484233
1271.000000	55.503267
1272.000000	55.525467
1273.000000	55.551167
1274.000000	55.570967
1275.000000	55.597700
1276.000000	55.624467
1277.000000	55.656233
1278.000000	55.695300
1279.000000	55.722333
1280.000000	55.751567
1281.000000	55.781800
1282.000000	55.812833
1283.000000	55.846300
1284.000000	55.887767
1285.000000	55.922600
1286.000000	55.949067
1287.000000	55.978100
1288.000000	56.003800
1289.000000	56.020900
1290.000000	56.044367
1291.000000	56.074600
1292.000000	56.097233
1293.000000	56.116567
1294.000000	56.136367
1295.000000	56.150933
1296.000000	56.162767
1297.000000	56.175967
1298.000000	56.191300
1299.000000	56.208267
1300.000000	56.220733
1301.000000	56.227767
1302.000000	56.234867
1303.000000	56.244500
1304.000000	56.247100
1305.000000	56.254733
1306.000000	56.263300
1307.000000	56.258833
1308.000000	56.252333
1309.000000	56.254367
1310.000000	56.251133
1311.000000	56.237833
1312.000000	56.232200
1313.000000	56.226067
1314.000000	56.216933
1315.000000	56.204900
1316.000000	56.182900
1317.000000	56.165867
1318.000000	56.153433
1319.000000	56.139533
1320.000000	56.118933
1321.000000	56.094467
1322.000000	56.070200
1323.000000	56.043300
1324.000000	56.012200
1325.000000	55.990300
1326.000000	55.956433
1327.000000	55.919067
1328.000000	55.885133
1329.000000	55.842900
1330.000000	55.801033
1331.000000	55.758267
1332.000000	55.705867
1333.000000	55.648200
1334.000000	55.583800
1335.000000	55.513800
1336.000000	55.448033
1337.000000	55.369700
1338.000000	55.285200
1339.000000	55.197267
1340.000000	55.107667
1341.000000	55.002733
1342.000000	54.888667
1343.000000	54.785367
1344.000000	54.672567
1345.000000	54.531367
1346.000000	54.385600
1347.000000	54.288400
1348.000000	54.144833
1349.000000	53.971500
1350.000000	53.801400
1351.000000	53.615300
1352.000000	53.412233
1353.000000	53.245100
1354.000000	53.107633
1355.000000	52.919300
1356.000000	52.757767
1357.000000	52.667900
1358.000000	52.620433
1359.000000	52.607733
1360.000000	52.618567
1361.000000	52.625500
1362.000000	52.561000
1363.000000	52.425833
1364.000000	52.375400
1365.000000	52.290633
1366.000000	52.164167
1367.000000	52.076900
1368.000000	51.992100
1369.000000	51.830867
1370.000000	51.706733
1371.000000	51.593700
1372.000000	51.420533
1373.000000	51.252200
1374.000000	51.109933
1375.000000	51.008300
1376.000000	50.914567
1377.000000	50.851267
1378.000000	50.806467
1379.000000	50.786067
1380.000000	50.733867
1381.000000	50.704333
1382.000000	50.568133
1383.000000	50.367333
1384.000000	50.133433
1385.000000	49.889100
1386.000000	49.682767
1387.000000	49.504767
1388.000000	49.347233
1389.000000	49.072267
1390.000000	48.874533
1391.000000	48.766767
1392.000000	48.632733
1393.000000	48.431933
1394.000000	48.328567
1395.000000	48.239400
1396.000000	48.011367
1397.000000	47.705600
1398.000000	47.485000
1399.000000	47.417533
1400.000000	47.254767
1401.000000	46.950900
1402.000000	46.555067
1403.000000	46.315933
1404.000000	46.040533
1405.000000	45.800200
1406.000000	45.490167
1407.000000	45.214133
1408.000000	44.940400
1409.000000	44.675100
1410.000000	44.357467
1411.000000	44.064767
1412.000000	43.816767
1413.000000	43.641633
1414.000000	43.448300
1415.000000	43.168067
1416.000000	42.906033
1417.000000	42.698933
1418.000000	42.557467
1419.000000	42.376500
1420.000000	42.125833
1421.000000	41.895167
1422.000000	41.713467
1423.000000	41.541600
1424.000000	41.368633
1425.000000	41.160033
1426.000000	40.996700
1427.000000	40.819667
1428.000000	40.676367
1429.000000	40.520633
1430.000000	40.374700
1431.000000	40.258900
1432.000000	40.142367
1433.000000	40.024700
1434.000000	39.897133
1435.000000	39.766400
1436.000000	39.659167
1437.000000	39.557700
1438.000000	39.471333
1439.000000	39.353600
1440.000000	39.248067
1441.000000	39.170133
1442.000000	39.064433
1443.000000	38.952100
1444.000000	38.874300
1445.000000	38.803067
1446.000000	38.705667
1447.000000	38.580300
1448.000000	38.471467
1449.000000	38.388000
1450.000000	38.340667
1451.000000	38.257600
1452.000000	38.158333
1453.000000	38.048167
1454.000000	37.953933
1455.000000	37.878567
1456.000000	37.788067
1457.000000	37.701200
1458.000000	37.609633
1459.000000	37.522233
1460.000000	37.446800
1461.000000	37.364300
1462.000000	37.287467
1463.000000	37.220033
1464.000000	37.147833
1465.000000	37.083233
1466.000000	37.029200
1467.000000	36.959467
1468.000000	36.888700
1469.000000	36.827633
1470.000000	36.792333
1471.000000	36.745867
1472.000000	36.687900
1473.000000	36.629567
1474.000000	36.570267
1475.000000	36.501833
1476.000000	36.457200
1477.000000	36.427000
1478.000000	36.392867
1479.000000	36.352000
1480.000000	36.325300
1481.000000	36.298100
1482.000000	36.267833
1483.000000	36.236600
1484.000000	36.212067
1485.000000	36.188033
1486.000000	36.172267
1487.000000	36.151700
1488.000000	36.130267
1489.000000	36.113000
1490.000000	36.088533
1491.000000	36.085267
1492.000000	36.072767
1493.000000	36.060533
1494.000000	36.061100
1495.000000	36.054933
1496.000000	36.062900
1497.000000	36.071600
1498.000000	36.086633
1499.000000	36.102300
1500.000000	36.130733
1501.000000	36.167800
1502.000000	36.201967
1503.000000	36.238733
1504.000000	36.274033
1505.000000	36.314033
1506.000000	36.360533
1507.000000	36.401967
1508.000000	36.451300
1509.000000	36.495300
1510.000000	36.547133
1511.000000	36.592067
1512.000000	36.642167
1513.000000	36.689767
1514.000000	36.731833
1515.000000	36.779133
1516.000000	36.821100
1517.000000	36.866033
1518.000000	36.909033
1519.000000	36.956467
1520.000000	36.997300
1521.000000	37.037567
1522.000000	37.077767
1523.000000	37.110467
1524.000000	37.155333
1525.000000	37.197833
1526.000000	37.227067
1527.000000	37.257333
1528.000000	37.296567
1529.000000	37.329867
1530.000000	37.360033
1531.000000	37.389233
1532.000000	37.419500
1533.000000	37.440000
1534.000000	37.455667
1535.000000	37.474633
1536.000000	37.496233
1537.000000	37.506200
1538.000000	37.518400
1539.000000	37.535600
1540.000000	37.544333
1541.000000	37.554833
1542.000000	37.568267
1543.000000	37.578200
1544.000000	37.593667
1545.000000	37.615500
1546.000000	37.640400
1547.000000	37.670500
1548.000000	37.705733
1549.000000	37.744900
1550.000000	37.776567
1551.000000	37.812233
1552.000000	37.846900
1553.000000	37.870967
1554.000000	37.893033
1555.000000	37.910667
1556.000000	37.918933
1557.000000	37.932533
1558.000000	37.942500
1559.000000	37.937433
1560.000000	37.924767
1561.000000	37.915133
1562.000000	37.896767
1563.000000	37.878433
1564.000000	37.854433
1565.000000	37.824500
1566.000000	37.798067
1567.000000	37.770367
1568.000000	37.737100
1569.000000	37.700900
1570.000000	37.673167
1571.000000	37.657067
1572.000000	37.633567
1573.000000	37.614967
1574.000000	37.608700
1575.000000	37.609233
1576.000000	37.598533
1577.000000	37.593667
1578.000000	37.595033
1579.000000	37.598300
1580.000000	37.616500
1581.000000	37.636033
1582.000000	37.652167
1583.000000	37.676733
1584.000000	37.703200
1585.000000	37.727033
1586.000000	37.763767
1587.000000	37.796400
1588.000000	37.821567
1589.000000	37.854633
1590.000000	37.894433
1591.000000	37.932433
1592.000000	37.969033
1593.000000	38.006033
1594.000000	38.047567
1595.000000	38.101700
1596.000000	38.150467
1597.000000	38.196433
1598.000000	38.247233
1599.000000	38.298267
1600.000000	38.353300
1601.000000	38.423367
1602.000000	38.483800
1603.000000	38.540300
1604.000000	38.607800
1605.000000	38.662333
1606.000000	38.711633
1607.000000	38.769233
1608.000000	38.827233
1609.000000	38.881133
1610.000000	38.933100
1611.000000	38.979267
1612.000000	39.028567
1613.000000	39.076100
1614.000000	39.112167
1615.000000	39.155467
1616.000000	39.200500
1617.000000	39.231200
1618.000000	39.272267
1619.000000	39.306833
1620.000000	39.342567
1621.000000	39.386400
1622.000000	39.429433
1623.000000	39.469067
1624.000000	39.508133
1625.000000	39.550700
1626.000000	39.604167
1627.000000	39.655300
1628.000000	39.711400
1629.000000	39.742733
1630.000000	39.783900
1631.000000	39.822167
1632.000000	39.858033
1633.000000	39.895300
1634.000000	39.935533
1635.000000	39.976567
1636.000000	40.014633
1637.000000	40.030900
1638.000000	40.071367
1639.000000	40.088867
1640.000000	40.110167
1641.000000	40.139933
1642.000000	40.175167
1643.000000	40.196600
1644.000000	40.226967
1645.000000	40.250833
1646.000000	40.268333
1647.000000	40.289433
1648.000000	40.313100
1649.000000	40.319633
1650.000000	40.322167
1651.000000	40.325367
1652.000000	40.329300
1653.000000	40.326967
1654.000000	40.304100
1655.000000	40.283333
1656.000000	40.254267
1657.000000	40.213300
1658.000000	40.174000
1659.000000	40.129200
1660.000000	40.070167
1661.000000	39.994600
1662.000000	39.921567
1663.000000	39.855767
1664.000000	39.752867
1665.000000	39.659000
1666.000000	39.545400
1667.000000	39.436667
1668.000000	39.275733
1669.000000	39.122433
1670.000000	38.958167
1671.000000	38.783933
1672.000000	38.594967
1673.000000	38.396100
1674.000000	38.189267
1675.000000	37.944400
1676.000000	37.694500
1677.000000	37.413167
1678.000000	37.091567
1679.000000	36.770467
1680.000000	36.439400
1681.000000	36.124567
1682.000000	35.838700
1683.000000	35.590667
1684.000000	35.420000
1685.000000	35.260133
1686.000000	35.154267
1687.000000	35.081033
1688.000000	35.018267
1689.000000	34.973233
1690.000000	34.928400
1691.000000	34.889667
1692.000000	34.848167
1693.000000	34.836033
1694.000000	34.821533
1695.000000	34.829867
1696.000000	34.841433
1697.000000	34.861467
1698.000000	34.895100
1699.000000	34.927767
1700.000000	34.981033
1701.000000	35.028400
1702.000000	35.063733
1703.000000	35.074133
1704.000000	35.081300
1705.000000	35.077333
1706.000000	35.063733
1707.000000	35.033900
1708.000000	34.995733
1709.000000	34.933100
1710.000000	34.868533
1711.000000	34.793867
1712.000000	34.698767
1713.000000	34.599333
1714.000000	34.465767
1715.000000	34.338833
1716.000000	34.197700
1717.000000	34.056200
1718.000000	33.914333
1719.000000	33.802167
1720.000000	33.686600
1721.000000	33.597533
1722.000000	33.517167
1723.000000	33.475967
1724.000000	33.453367
1725.000000	33.429233
1726.000000	33.419100
1727.000000	33.395033
1728.000000	33.382667
1729.000000	33.362733
1730.000000	33.345833
1731.000000	33.337067
1732.000000	33.314867
1733.000000	33.323133
1734.000000	33.351200
1735.000000	33.384467
1736.000000	33.445467
1737.000000	33.523233
1738.000000	33.616800
1739.000000	33.719333
1740.000000	33.846133
1741.000000	33.971233
1742.000000	34.096833
1743.000000	34.215033
1744.000000	34.318867
1745.000000	34.416067
1746.000000	34.494567
1747.000000	34.556933
1748.000000	34.620900
1749.000000	34.668767
1750.000000	34.703233
1751.000000	34.736567
1752.000000	34.753533
1753.000000	34.762567
1754.000000	34.762967
1755.000000	34.760533
1756.000000	34.742733
1757.000000	34.730067
1758.000000	34.701633
1759.000000	34.674067
1760.000000	34.652933
1761.000000	34.628033
1762.000000	34.609133
1763.000000	34.615233
1764.000000	34.628633
1765.000000	34.647100
1766.000000	34.680633
1767.000000	34.727967
1768.000000	34.789900
1769.000000	34.849933
1770.000000	34.908433
1771.000000	34.967667
1772.000000	35.040900
1773.000000	35.110300
1774.000000	35.170233
1775.000000	35.225167
1776.000000	35.285467
1777.000000	35.348533
1778.000000	35.396833
1779.000000	35.434300
1780.000000	35.466967
1781.000000	35.501767
1782.000000	35.539400
1783.000000	35.568867
1784.000000	35.592467
1785.000000	35.620633
1786.000000	35.644033
1787.000000	35.654367
1788.000000	35.663067
1789.000000	35.679600
1790.000000	35.692467
1791.000000	35.719067
1792.000000	35.739300
1793.000000	35.767100
1794.000000	35.786100
1795.000000	35.812233
1796.000000	35.834800
1797.000000	35.851500
1798.000000	35.866967
1799.000000	35.886700
1800.000000	35.921600
1801.000000	35.960833
1802.000000	35.972033
1803.000000	35.979400
1804.000000	36.006000
1805.000000	36.044167
1806.000000	36.075233
1807.000000	36.083100
1808.000000	36.099500
1809.000000	36.118600
1810.000000	36.148233
1811.000000	36.193300
1812.000000	36.200033
1813.000000	36.207167
1814.000000	36.218667
1815.000000	36.232133
1816.000000	36.225467
1817.000000	36.211267
1818.000000	36.228900
1819.000000	36.276833
1820.000000	36.312900
1821.000000	36.293033
1822.000000	36.248067
1823.000000	36.225467
1824.000000	36.254800
1825.000000	36.300467
1826.000000	36.341067
1827.000000	36.361433
1828.000000	36.412067
1829.000000	36.477800
1830.000000	36.518200
1831.000000	36.538167
1832.000000	36.563300
1833.000000	36.622100
1834.000000	36.707933
1835.000000	36.791633
1836.000000	36.838900
1837.000000	36.858533
1838.000000	36.874600
1839.000000	36.921233
1840.000000	36.975767
1841.000000	37.004267
1842.000000	36.979767
1843.000000	36.942400
1844.000000	36.965833
1845.000000	37.041700
1846.000000	37.134533
1847.000000	37.191167
1848.000000	37.183300
1849.000000	37.164967
1850.000000	37.155300
1851.000000	37.173333
1852.000000	37.190067
1853.000000	37.215767
1854.000000	37.231133
1855.000000	37.207733
1856.000000	37.201967
1857.000000	37.217767
1858.000000	37.205700
1859.000000	37.169433
1860.000000	37.123233
1861.000000	37.065700
1862.000000	36.988667
1863.000000	36.931333
1864.000000	36.899733
1865.000000	36.852700
1866.000000	36.798000
1867.000000	36.764467
1868.000000	36.681367
1869.000000	36.558367
1870.000000	36.405833
1871.000000	36.227033
1872.000000	36.027000
1873.000000	35.801400
1874.000000	35.552700
1875.000000	35.318300
1876.000000	35.075833
1877.000000	34.815467
1878.000000	34.537767
1879.000000	34.231400
1880.000000	33.939367
1881.000000	33.629733
1882.000000	33.297533
1883.000000	32.946633
1884.000000	32.570733
1885.000000	32.173533
1886.000000	31.795733
1887.000000	31.436200
1888.000000	31.094167
1889.000000	30.722900
1890.000000	30.365167
1891.000000	29.961667
1892.000000	29.529267
1893.000000	29.091100
1894.000000	28.688300
1895.000000	28.315700
1896.000000	27.993600
1897.000000	27.654767
1898.000000	27.263933
1899.000000	26.851533
1900.000000	26.405333
1901.000000	25.999633
1902.000000	25.654100
1903.000000	25.307133
1904.000000	24.970667
1905.000000	24.610033
1906.000000	24.226500
1907.000000	23.876200
1908.000000	23.565533
1909.000000	23.299967
1910.000000	23.084267
1911.000000	22.829433
1912.000000	22.578267
1913.000000	22.317267
1914.000000	22.038267
1915.000000	21.772567
1916.000000	21.573267
1917.000000	21.402067
1918.000000	21.218933
1919.000000	21.033233
1920.000000	20.879500
1921.000000	20.683233
1922.000000	20.501067
1923.000000	20.347867
1924.000000	20.241167
1925.000000	20.128233
1926.000000	20.010367
1927.000000	19.912000
1928.000000	19.819933
1929.000000	19.720867
1930.000000	19.657700
1931.000000	19.597233
1932.000000	19.538767
1933.000000	19.482133
1934.000000	19.451067
1935.000000	19.419567
1936.000000	19.401933
1937.000000	19.389667
1938.000000	19.397633
1939.000000	19.405300
1940.000000	19.418733
1941.000000	19.427800
1942.000000	19.448333
1943.000000	19.484200
1944.000000	19.522367
1945.000000	19.560933
1946.000000	19.612900
1947.000000	19.655367
1948.000000	19.720533
1949.000000	19.766867
1950.000000	19.820100
1951.000000	19.898467
1952.000000	19.951667
1953.000000	20.037433
1954.000000	20.099933
1955.000000	20.168700
1956.000000	20.240900
1957.000000	20.307367
1958.000000	20.392733
1959.000000	20.457400
1960.000000	20.529067
1961.000000	20.610033
1962.000000	20.680333
1963.000000	20.735433
1964.000000	20.827233
1965.000000	20.884033
1966.000000	20.949533
1967.000000	21.028400
1968.000000	21.085433
1969.000000	21.166733
1970.000000	21.222800
1971.000000	21.299100
1972.000000	21.370633
1973.000000	21.444267
1974.000000	21.511400
1975.000000	21.588833
1976.000000	21.651967
1977.000000	21.731367
1978.000000	21.810133
1979.000000	21.876233
1980.000000	21.954933
1981.000000	22.027233
1982.000000	22.101267
1983.000000	22.176733
1984.000000	22.249867
1985.000000	22.322100
1986.000000	22.384233
1987.000000	22.454167
1988.000000	22.529733
1989.000000	22.594633
1990.000000	22.655967
1991.000000	22.715067
1992.000000	22.782000
1993.000000	22.826867
1994.000000	22.896133
1995.000000	22.938400
1996.000000	22.986333
1997.000000	23.040100
1998.000000	23.087800
1999.000000	23.133033
2000.000000	23.167933
2001.000000	23.202733
2002.000000	23.240300
2003.000000	23.269767
2004.000000	23.293300
2005.000000	23.311400
2006.000000	23.332000
2007.000000	23.340000
2008.000000	23.336167
2009.000000	23.349033
2010.000000	23.346933
2011.000000	23.332433
2012.000000	23.331733
2013.000000	23.309733
2014.000000	23.285033
2015.000000	23.253567
2016.000000	23.224567
2017.000000	23.203733
2018.000000	23.162967
2019.000000	23.103133
2020.000000	23.069900
2021.000000	23.022233
2022.000000	22.983133
2023.000000	22.917033
2024.000000	22.850433
2025.000000	22.804333
2026.000000	22.737800
2027.000000	22.669433
2028.000000	22.585400
2029.000000	22.506700
2030.000000	22.434833
2031.000000	22.347000
2032.000000	22.253233
2033.000000	22.158133
2034.000000	22.052567
2035.000000	21.955867
2036.000000	21.841000
2037.000000	21.734533
2038.000000	21.611700
2039.000000	21.485700
2040.000000	21.370467
2041.000000	21.236167
2042.000000	21.106033
2043.000000	20.991867
2044.000000	20.862167
2045.000000	20.727467
2046.000000	20.610500
2047.000000	20.494833
2048.000000	20.393033
2049.000000	20.298767
2050.000000	20.230100
2051.000000	20.138967
2052.000000	20.089467
2053.000000	20.067867
2054.000000	20.039167
2055.000000	20.035867
2056.000000	20.043533
2057.000000	20.064867
2058.000000	20.096867
2059.000000	20.135900
2060.000000	20.181067
2061.000000	20.233500
2062.000000	20.301600
2063.000000	20.368500
2064.000000	20.440000
2065.000000	20.524467
2066.000000	20.602633
2067.000000	20.680500
2068.000000	20.755433
2069.000000	20.825500
2070.000000	20.896333
2071.000000	20.975200
2072.000000	21.050933
2073.000000	21.106867
2074.000000	21.159600
2075.000000	21.215733
2076.000000	21.269867
2077.000000	21.314900
2078.000000	21.355833
2079.000000	21.399700
2080.000000	21.437600
2081.000000	21.474400
2082.000000	21.501500
2083.000000	21.516000
2084.000000	21.530400
2085.000000	21.539667
2086.000000	21.545567
2087.000000	21.549933
2088.000000	21.549600
2089.000000	21.542367
2090.000000	21.540167
2091.000000	21.537967
2092.000000	21.528200
2093.000000	21.519167
2094.000000	21.518767
2095.000000	21.518533
2096.000000	21.518200
2097.000000	21.513000
2098.000000	21.501867
2099.000000	21.502000
2100.000000	21.515167
2101.000000	21.530467
2102.000000	21.526033
2103.000000	21.522600
2104.000000	21.522133
2105.000000	21.529433
2106.000000	21.543700
2107.000000	21.545367
2108.000000	21.548733
2109.000000	21.551267
2110.000000	21.549500
2111.000000	21.552433
2112.000000	21.547533
2113.000000	21.544167
2114.000000	21.545933
2115.000000	21.540933
2116.000000	21.539300
2117.000000	21.534933
2118.000000	21.518933
2119.000000	21.509367
2120.000000	21.497467
2121.000000	21.485500
2122.000000	21.468733
2123.000000	21.444667
2124.000000	21.427233
2125.000000	21.390300
2126.000000	21.356300
2127.000000	21.340967
2128.000000	21.309667
2129.000000	21.268167
2130.000000	21.229433
2131.000000	21.191067
2132.000000	21.140267
2133.000000	21.087667
2134.000000	21.034933
2135.000000	20.988200
2136.000000	20.937867
2137.000000	20.870967
2138.000000	20.805000
2139.000000	20.737267
2140.000000	20.670200
2141.000000	20.602933
2142.000000	20.538667
2143.000000	20.464633
2144.000000	20.395800
2145.000000	20.322133
2146.000000	20.248167
2147.000000	20.170800
2148.000000	20.095033
2149.000000	20.020533
2150.000000	19.955333
2151.000000	19.880733
2152.000000	19.803733
2153.000000	19.735733
2154.000000	19.666400
2155.000000	19.592833
2156.000000	19.522967
2157.000000	19.462833
2158.000000	19.392500
2159.000000	19.336567
2160.000000	19.275800
2161.000000	19.225900
2162.000000	19.183100
2163.000000	19.127600
2164.000000	19.092733
2165.000000	19.060500
2166.000000	19.028733
2167.000000	18.991967
2168.000000	18.969367
2169.000000	18.951700
2170.000000	18.921000
2171.000000	18.908633
2172.000000	18.894800
2173.000000	18.886800
2174.000000	18.881267
2175.000000	18.874500
2176.000000	18.872900
2177.000000	18.870000
2178.000000	18.886167
2179.000000	18.888700
2180.000000	18.907667
2181.000000	18.912833
2182.000000	18.926233
2183.000000	18.936800
2184.000000	18.952533
2185.000000	18.966667
2186.000000	18.977100
2187.000000	18.981967
2188.000000	19.002233
2189.000000	19.019433
2190.000000	19.036233
2191.000000	19.042233
2192.000000	19.053500
2193.000000	19.066100
2194.000000	19.087800
2195.000000	19.101967
2196.000000	19.116767
2197.000000	19.132267
2198.000000	19.140067
2199.000000	19.153700
2200.000000	19.188133
2201.000000	19.205833
2202.000000	19.237433
2203.000000	19.269833
2204.000000	19.304133
2205.000000	19.321900
2206.000000	19.348167
2207.000000	19.374400
2208.000000	19.410233
2209.000000	19.442767
2210.000000	19.492967
2211.000000	19.535000
2212.000000	19.574800
2213.000000	19.626400
2214.000000	19.681200
2215.000000	19.738067
2216.000000	19.801033
2217.000000	19.849500
2218.000000	19.901967
2219.000000	19.953800
2220.000000	20.000200
2221.000000	20.062100
2222.000000	20.115800
2223.000000	20.152200
2224.000000	20.197067
2225.000000	20.229000
2226.000000	20.262267
2227.000000	20.295967
2228.000000	20.327367
2229.000000	20.343433
2230.000000	20.353500
2231.000000	20.357633
2232.000000	20.362933
2233.000000	20.362767
2234.000000	20.361367
2235.000000	20.330333
2236.000000	20.298900
2237.000000	20.266667
2238.000000	20.231400
2239.000000	20.192367
2240.000000	20.129000
2241.000000	20.060433
2242.000000	19.979200
2243.000000	19.901400
2244.000000	19.816333
2245.000000	19.723967
2246.000000	19.616700
2247.000000	19.492067
2248.000000	19.376133
2249.000000	19.249033
2250.000000	19.110333
2251.000000	18.963133
2252.000000	18.809733
2253.000000	18.663633
2254.000000	18.507633
2255.000000	18.351567
2256.000000	18.199567
2257.000000	18.045333
2258.000000	17.894367
2259.000000	17.762100
2260.000000	17.616600
2261.000000	17.484533
2262.000000	17.378100
2263.000000	17.274967
2264.000000	17.178067
2265.000000	17.092733
2266.000000	17.013800
2267.000000	16.961933
2268.000000	16.910233
2269.000000	16.865300
2270.000000	16.817933
2271.000000	16.789433
2272.000000	16.757600
2273.000000	16.739700
2274.000000	16.720600
2275.000000	16.705300
2276.000000	16.701800
2277.000000	16.686933
2278.000000	16.665467
2279.000000	16.657800
2280.000000	16.652867
2281.000000	16.643867
2282.000000	16.615900
2283.000000	16.609233
2284.000000	16.603967
2285.000000	16.581900
2286.000000	16.546233
2287.000000	16.545233
2288.000000	16.519200
2289.000000	16.498333
2290.000000	16.467000
2291.000000	16.451600
2292.000000	16.428467
2293.000000	16.404667
2294.000000	16.376067
2295.000000	16.357867
2296.000000	16.340500
2297.000000	16.303867
2298.000000	16.282833
2299.000000	16.267700
2300.000000	16.246733
2301.000000	16.232933
2302.000000	16.229733
2303.000000	16.229433
2304.000000	16.231367
2305.000000	16.239133
2306.000000	16.249600
2307.000000	16.278400
2308.000000	16.291500
2309.000000	16.310133
2310.000000	16.351300
2311.000000	16.392067
2312.000000	16.431233
2313.000000	16.474633
2314.000000	16.505533
2315.000000	16.542167
2316.000000	16.578700
2317.000000	16.608633
2318.000000	16.643400
2319.000000	16.670933
2320.000000	16.686900
2321.000000	16.710600
2322.000000	16.741967
2323.000000	16.750333
2324.000000	16.744433
2325.000000	16.754000
2326.000000	16.763567
2327.000000	16.762433
2328.000000	16.755533
2329.000000	16.732800
2330.000000	16.721200
2331.000000	16.736167
2332.000000	16.743800
2333.000000	16.732967
2334.000000	16.717467
2335.000000	16.711167
2336.000000	16.713333
2337.000000	16.717167
2338.000000	16.715300
2339.000000	16.700167
2340.000000	16.686300
2341.000000	16.687233
2342.000000	16.696967
2343.000000	16.698533
2344.000000	16.676000
2345.000000	16.656600
2346.000000	16.645600
2347.000000	16.645633
2348.000000	16.652533
2349.000000	16.650500
2350.000000	16.636400
2351.000000	16.639300
2352.000000	16.650900
2353.000000	16.651433
2354.000000	16.662433
2355.000000	16.677200
2356.000000	16.691500
2357.000000	16.698667
2358.000000	16.709767
2359.000000	16.733933
2360.000000	16.751233
2361.000000	16.769633
2362.000000	16.783400
2363.000000	16.792567
2364.000000	16.810500
2365.000000	16.828367
2366.000000	16.839433
2367.000000	16.848767
2368.000000	16.865967
2369.000000	16.879300
2370.000000	16.887467
2371.000000	16.893667
2372.000000	16.898333
2373.000000	16.913167
2374.000000	16.938500
2375.000000	16.953333
2376.000000	16.965767
2377.000000	16.976333
2378.000000	16.987633
2379.000000	16.993400
2380.000000	17.000800
2381.000000	17.017733
2382.000000	17.009900
2383.000000	17.010300
2384.000000	17.019933
2385.000000	17.024900
2386.000000	17.014633
2387.000000	17.006467
2388.000000	17.006867
2389.000000	16.993300
2390.000000	16.982467
2391.000000	16.963833
2392.000000	16.946200
2393.000000	16.935167
2394.000000	16.914133
2395.000000	16.889900
2396.000000	16.871867
2397.000000	16.851933
2398.000000	16.823133
2399.000000	16.791733
2400.000000	16.769200
2401.000000	16.757367
2402.000000	16.718900
2403.000000	16.679133
2404.000000	16.655300
2405.000000	16.625733
2406.000000	16.600267
2407.000000	16.561167
2408.000000	16.511067
2409.000000	16.480267
2410.000000	16.444033
2411.000000	16.403000
2412.000000	16.357400
2413.000000	16.313900
2414.000000	16.262733
2415.000000	16.217467
2416.000000	16.166933
2417.000000	16.107067
2418.000000	16.055067
2419.000000	16.003667
2420.000000	15.955100
2421.000000	15.889167
2422.000000	15.809400
2423.000000	15.732400
2424.000000	15.653333
2425.000000	15.589800
2426.000000	15.527667
2427.000000	15.464733
2428.000000	15.405000
2429.000000	15.337533
2430.000000	15.282500
2431.000000	15.220267
2432.000000	15.150667
2433.000000	15.075100
2434.000000	15.009400
2435.000000	14.942100
2436.000000	14.866233
2437.000000	14.795767
2438.000000	14.716767
2439.000000	14.623967
2440.000000	14.549133
2441.000000	14.475500
2442.000000	14.396133
2443.000000	14.319933
2444.000000	14.237600
2445.000000	14.145800
2446.000000	14.069833
2447.000000	13.998033
2448.000000	13.913133
2449.000000	13.842100
2450.000000	13.763100
2451.000000	13.660633
2452.000000	13.601600
2453.000000	13.531233
2454.000000	13.458300
2455.000000	13.407733
2456.000000	13.346800
2457.000000	13.267033
2458.000000	13.203400
2459.000000	13.159367
2460.000000	13.122500
2461.000000	13.076267
2462.000000	13.029000
2463.000000	12.993300
2464.000000	12.930033
2465.000000	12.905000
2466.000000	12.868200
2467.000000	12.857833
2468.000000	12.799500
2469.000000	12.803767
2470.000000	12.754867
2471.000000	12.757333
2472.000000	12.725933
2473.000000	12.684567
2474.000000	12.666433
2475.000000	12.636033
2476.000000	12.620067
2477.000000	12.633300
2478.000000	12.598633
2479.000000	12.590800
2480.000000	12.597900
2481.000000	12.598233
2482.000000	12.574967
2483.000000	12.593400
2484.000000	12.579733
2485.000000	12.584467
2486.000000	12.586767
2487.000000	12.532600
2488.000000	12.592000
2489.000000	12.562967
2490.000000	12.596400
2491.000000	12.614467
2492.000000	12.587667
2493.000000	12.616200
2494.000000	12.643467
2495.000000	12.623333
2496.000000	12.706033
2497.000000	12.694933
2498.000000	12.702100
2499.000000	12.713733
2500.000000	12.768300
