PE UV       SUBTECH     SPECTRUM    ASCII       PEDS        4.00        
   -1
CICIMAUCR0104-3.Sample.ASC
24/04/22
09:54:19.00
24/04/22
09:54:19.00
Vinicio Soto Monge
C. resplendens
250,000000
1
Lambda 1050
1050L1511233
PerkinElmer UV WinLab 6.3.2.0749 / 2.02.05 Lambda 900 UV/VIS/NIR, Aug  7 2015 09:38:08

0
0
3350/servo 860,8/2
0
0
UV/VIS
1
1
1
DoubleDePol,CommonBeamDepol,RBeamAtt,SBeamAtt,60mm sphere, WB InGaAs Detector
0
0
0
0
Program
Program
3350/servo 860,8/2
3350/0,2 860,8/0,2
3350/0,2 860,8/0,2
0
15.00
 
 
 
0
 
860,8
319,2
860,8
Front
100
on
S:100 R:100
0
0
0
0
 
0
 
 
 
0
 
 
0
0
0
0
0
 
 
 
 
0
0


0
0
#HDR
-1
-1
#GR
nm
%R
1.0
0.0
2500,000000
-1,000000
2251
8
90,434600
6,014800
#DATA
250.000000	6.058921
251.000000	6.074509
252.000000	6.043916
253.000000	6.041888
254.000000	6.019726
255.000000	6.001950
256.000000	5.998368
257.000000	5.999370
258.000000	5.976247
259.000000	5.975360
260.000000	5.971880
261.000000	5.945327
262.000000	5.880237
263.000000	5.880125
264.000000	5.844768
265.000000	5.825457
266.000000	5.811169
267.000000	5.797833
268.000000	5.809131
269.000000	5.803517
270.000000	5.738916
271.000000	5.749082
272.000000	5.702968
273.000000	5.728852
274.000000	5.704041
275.000000	5.701688
276.000000	5.706939
277.000000	5.689499
278.000000	5.704221
279.000000	5.663463
280.000000	5.660889
281.000000	5.688771
282.000000	5.680734
283.000000	5.678322
284.000000	5.671644
285.000000	5.633866
286.000000	5.632369
287.000000	5.632700
288.000000	5.627878
289.000000	5.604062
290.000000	5.636267
291.000000	5.607975
292.000000	5.612792
293.000000	5.603037
294.000000	5.579491
295.000000	5.586698
296.000000	5.593023
297.000000	5.536799
298.000000	5.538460
299.000000	5.551719
300.000000	5.534626
301.000000	5.557307
302.000000	5.565466
303.000000	5.547659
304.000000	5.552943
305.000000	5.518871
306.000000	5.500026
307.000000	5.466894
308.000000	5.509168
309.000000	5.509483
310.000000	5.530046
311.000000	5.487349
312.000000	5.472252
313.000000	5.466458
314.000000	5.463409
315.000000	5.449634
316.000000	5.467292
317.000000	5.652461
318.000000	5.618259
319.000000	5.664300
320.000000	5.686757
321.000000	5.619945
322.000000	5.686951
323.000000	5.657341
324.000000	5.567709
325.000000	5.612890
326.000000	5.662698
327.000000	5.580261
328.000000	5.577767
329.000000	5.561885
330.000000	5.512607
331.000000	5.618204
332.000000	5.591706
333.000000	5.548669
334.000000	5.516246
335.000000	5.591055
336.000000	5.606158
337.000000	5.640032
338.000000	5.606898
339.000000	5.581414
340.000000	5.660739
341.000000	5.645576
342.000000	5.648232
343.000000	5.685939
344.000000	5.683052
345.000000	5.706296
346.000000	5.688948
347.000000	5.719231
348.000000	5.694863
349.000000	5.752135
350.000000	5.711242
351.000000	5.783219
352.000000	5.818487
353.000000	5.889296
354.000000	5.922686
355.000000	5.952635
356.000000	5.964105
357.000000	6.059319
358.000000	6.066773
359.000000	6.128133
360.000000	6.147277
361.000000	6.178935
362.000000	6.262655
363.000000	6.278132
364.000000	6.292414
365.000000	6.387932
366.000000	6.441504
367.000000	6.486984
368.000000	6.520910
369.000000	6.540802
370.000000	6.600660
371.000000	6.740480
372.000000	6.759655
373.000000	6.831390
374.000000	6.892319
375.000000	6.950075
376.000000	7.145243
377.000000	7.285909
378.000000	7.403582
379.000000	7.537932
380.000000	7.676341
381.000000	7.830377
382.000000	7.996020
383.000000	8.182181
384.000000	8.383547
385.000000	8.583044
386.000000	8.787425
387.000000	9.021086
388.000000	9.273831
389.000000	9.531731
390.000000	9.811878
391.000000	10.111989
392.000000	10.429547
393.000000	10.759175
394.000000	11.099440
395.000000	11.466577
396.000000	11.842354
397.000000	12.223982
398.000000	12.628387
399.000000	13.040298
400.000000	13.462996
401.000000	13.894205
402.000000	14.335825
403.000000	14.791456
404.000000	15.239029
405.000000	15.702282
406.000000	16.177526
407.000000	16.624957
408.000000	17.062081
409.000000	17.523118
410.000000	17.973101
411.000000	18.420053
412.000000	18.873993
413.000000	19.303593
414.000000	19.723437
415.000000	20.138871
416.000000	20.540027
417.000000	20.921887
418.000000	21.284453
419.000000	21.643795
420.000000	21.994759
421.000000	22.331758
422.000000	22.658485
423.000000	22.968380
424.000000	23.263439
425.000000	23.538548
426.000000	23.801998
427.000000	24.045387
428.000000	24.270257
429.000000	24.480833
430.000000	24.686302
431.000000	24.878791
432.000000	25.048706
433.000000	25.199963
434.000000	25.331671
435.000000	25.448282
436.000000	25.553576
437.000000	25.632416
438.000000	25.688319
439.000000	25.735535
440.000000	25.755987
441.000000	25.744544
442.000000	25.720139
443.000000	25.679696
444.000000	25.606616
445.000000	25.490231
446.000000	25.338472
447.000000	25.175516
448.000000	25.004922
449.000000	24.813759
450.000000	24.598182
451.000000	24.366621
452.000000	24.126015
453.000000	23.875975
454.000000	23.626362
455.000000	23.373232
456.000000	23.120943
457.000000	22.893667
458.000000	22.702691
459.000000	22.538715
460.000000	22.403594
461.000000	22.320453
462.000000	22.291673
463.000000	22.323586
464.000000	22.424282
465.000000	22.590472
466.000000	22.828853
467.000000	23.128284
468.000000	23.500441
469.000000	23.951689
470.000000	24.439552
471.000000	24.981149
472.000000	25.581571
473.000000	26.208843
474.000000	26.855754
475.000000	27.518296
476.000000	28.185464
477.000000	28.842719
478.000000	29.477782
479.000000	30.091419
480.000000	30.686193
481.000000	31.253312
482.000000	31.775919
483.000000	32.259084
484.000000	32.697594
485.000000	33.085209
486.000000	33.424996
487.000000	33.729058
488.000000	33.977627
489.000000	34.171301
490.000000	34.330843
491.000000	34.439458
492.000000	34.482817
493.000000	34.494916
494.000000	34.458535
495.000000	34.418976
496.000000	34.351752
497.000000	34.256489
498.000000	34.152495
499.000000	34.058373
500.000000	33.997543
501.000000	33.950274
502.000000	33.942187
503.000000	34.005902
504.000000	34.105589
505.000000	34.281157
506.000000	34.531834
507.000000	34.842711
508.000000	35.238016
509.000000	35.721729
510.000000	36.286521
511.000000	36.951613
512.000000	37.686714
513.000000	38.505280
514.000000	39.402588
515.000000	40.373990
516.000000	41.414375
517.000000	42.496455
518.000000	43.621942
519.000000	44.807178
520.000000	46.041650
521.000000	47.302394
522.000000	48.586688
523.000000	49.896993
524.000000	51.210823
525.000000	52.524889
526.000000	53.840815
527.000000	55.130696
528.000000	56.413029
529.000000	57.678387
530.000000	58.922890
531.000000	60.131554
532.000000	61.305351
533.000000	62.440706
534.000000	63.527062
535.000000	64.549285
536.000000	65.529654
537.000000	66.459860
538.000000	67.331356
539.000000	68.189801
540.000000	69.015293
541.000000	69.819436
542.000000	70.568089
543.000000	71.308861
544.000000	72.048915
545.000000	72.718457
546.000000	73.391370
547.000000	74.049412
548.000000	74.658596
549.000000	75.263083
550.000000	75.847070
551.000000	76.408700
552.000000	76.942429
553.000000	77.443766
554.000000	77.930523
555.000000	78.371109
556.000000	78.783175
557.000000	79.129588
558.000000	79.526329
559.000000	79.842802
560.000000	80.151729
561.000000	80.456007
562.000000	80.718831
563.000000	80.987131
564.000000	81.242774
565.000000	81.487047
566.000000	81.717996
567.000000	81.933048
568.000000	82.146593
569.000000	82.363747
570.000000	82.536713
571.000000	82.715706
572.000000	82.881266
573.000000	83.044828
574.000000	83.216712
575.000000	83.357744
576.000000	83.485071
577.000000	83.625622
578.000000	83.708087
579.000000	83.808945
580.000000	83.854641
581.000000	83.966731
582.000000	83.987493
583.000000	84.018213
584.000000	84.060310
585.000000	84.039534
586.000000	84.065535
587.000000	84.060622
588.000000	83.996187
589.000000	83.964974
590.000000	83.887207
591.000000	83.776463
592.000000	83.687353
593.000000	83.589110
594.000000	83.439803
595.000000	83.278553
596.000000	83.074791
597.000000	82.881961
598.000000	82.661322
599.000000	82.403433
600.000000	82.157251
601.000000	81.847901
602.000000	81.552684
603.000000	81.214066
604.000000	80.829257
605.000000	80.452094
606.000000	80.046603
607.000000	79.620473
608.000000	79.185244
609.000000	78.682041
610.000000	78.211125
611.000000	77.632367
612.000000	77.059786
613.000000	76.442894
614.000000	75.840413
615.000000	75.178246
616.000000	74.504557
617.000000	73.816647
618.000000	73.148027
619.000000	72.419582
620.000000	71.689386
621.000000	70.963582
622.000000	70.226433
623.000000	69.462236
624.000000	68.668066
625.000000	67.904306
626.000000	67.089873
627.000000	66.295496
628.000000	65.465462
629.000000	64.599934
630.000000	63.756804
631.000000	62.892894
632.000000	62.022755
633.000000	61.161859
634.000000	60.257762
635.000000	59.413730
636.000000	58.573726
637.000000	57.761156
638.000000	56.983295
639.000000	56.232024
640.000000	55.546131
641.000000	54.926513
642.000000	54.355073
643.000000	53.836007
644.000000	53.441616
645.000000	53.184838
646.000000	52.988927
647.000000	52.945389
648.000000	52.992038
649.000000	53.137773
650.000000	53.391133
651.000000	53.775292
652.000000	54.248512
653.000000	54.787661
654.000000	55.399007
655.000000	56.069422
656.000000	56.781556
657.000000	57.517322
658.000000	58.273257
659.000000	59.088391
660.000000	59.901170
661.000000	60.735587
662.000000	61.545126
663.000000	62.365297
664.000000	63.146945
665.000000	63.937131
666.000000	64.637199
667.000000	65.332646
668.000000	65.984478
669.000000	66.613812
670.000000	67.219731
671.000000	67.747528
672.000000	68.257404
673.000000	68.724504
674.000000	69.133086
675.000000	69.500754
676.000000	69.837865
677.000000	70.163061
678.000000	70.432279
679.000000	70.665735
680.000000	70.892657
681.000000	71.061670
682.000000	71.232069
683.000000	71.407857
684.000000	71.536397
685.000000	71.652371
686.000000	71.759184
687.000000	71.900616
688.000000	71.987435
689.000000	72.070906
690.000000	72.149824
691.000000	72.258355
692.000000	72.337059
693.000000	72.420979
694.000000	72.492445
695.000000	72.551332
696.000000	72.635887
697.000000	72.745553
698.000000	72.818050
699.000000	72.900161
700.000000	72.990134
701.000000	73.110642
702.000000	73.208022
703.000000	73.277542
704.000000	73.334501
705.000000	73.446631
706.000000	73.601815
707.000000	73.710712
708.000000	73.834735
709.000000	73.971039
710.000000	74.134722
711.000000	74.288850
712.000000	74.451995
713.000000	74.618803
714.000000	74.813103
715.000000	75.038347
716.000000	75.245577
717.000000	75.483173
718.000000	75.726771
719.000000	75.980318
720.000000	76.282487
721.000000	76.555807
722.000000	76.838192
723.000000	77.178980
724.000000	77.517788
725.000000	77.809663
726.000000	78.072860
727.000000	78.374190
728.000000	78.682427
729.000000	78.982124
730.000000	79.226329
731.000000	79.543146
732.000000	79.835670
733.000000	80.074784
734.000000	80.342079
735.000000	80.603961
736.000000	80.895491
737.000000	81.121795
738.000000	81.297399
739.000000	81.488095
740.000000	81.682920
741.000000	81.869999
742.000000	82.065183
743.000000	82.238343
744.000000	82.381615
745.000000	82.520294
746.000000	82.643230
747.000000	82.773289
748.000000	82.917210
749.000000	82.983844
750.000000	83.079803
751.000000	83.189340
752.000000	83.234113
753.000000	83.269974
754.000000	83.306856
755.000000	83.335633
756.000000	83.368833
757.000000	83.363989
758.000000	83.334065
759.000000	83.312816
760.000000	83.287432
761.000000	83.254019
762.000000	83.225789
763.000000	83.165201
764.000000	83.037691
765.000000	82.928966
766.000000	82.820455
767.000000	82.703876
768.000000	82.590190
769.000000	82.472598
770.000000	82.336482
771.000000	82.210955
772.000000	82.106733
773.000000	81.951215
774.000000	81.844684
775.000000	81.718297
776.000000	81.578489
777.000000	81.471437
778.000000	81.392779
779.000000	81.350843
780.000000	81.263272
781.000000	81.136210
782.000000	81.000115
783.000000	80.892060
784.000000	80.823368
785.000000	80.818554
786.000000	80.702123
787.000000	80.586546
788.000000	80.580886
789.000000	80.470021
790.000000	80.388343
791.000000	80.368118
792.000000	80.286398
793.000000	80.226050
794.000000	80.197367
795.000000	80.073978
796.000000	79.970525
797.000000	79.934074
798.000000	79.795209
799.000000	79.657176
800.000000	79.580106
801.000000	79.443636
802.000000	79.299009
803.000000	79.121518
804.000000	78.966718
805.000000	78.890486
806.000000	78.651261
807.000000	78.551479
808.000000	78.446052
809.000000	78.173443
810.000000	78.005264
811.000000	77.948853
812.000000	77.742304
813.000000	77.481393
814.000000	77.346386
815.000000	77.125946
816.000000	76.970073
817.000000	76.871396
818.000000	76.686115
819.000000	76.484982
820.000000	76.272467
821.000000	76.148382
822.000000	75.976112
823.000000	75.773276
824.000000	75.570793
825.000000	75.387721
826.000000	75.202152
827.000000	74.956260
828.000000	74.772189
829.000000	74.459071
830.000000	74.210174
831.000000	74.030852
832.000000	73.797215
833.000000	73.536324
834.000000	73.300960
835.000000	72.863044
836.000000	72.670044
837.000000	72.492202
838.000000	72.164485
839.000000	71.906471
840.000000	71.655609
841.000000	71.223873
842.000000	70.894389
843.000000	70.712966
844.000000	70.650414
845.000000	70.374458
846.000000	69.988258
847.000000	69.814234
848.000000	69.695417
849.000000	69.549335
850.000000	69.253441
851.000000	69.177092
852.000000	68.957292
853.000000	69.015967
854.000000	68.697333
855.000000	68.768148
856.000000	68.712817
857.000000	68.602087
858.000000	69.305033
859.000000	68.206300
860.000000	68.499700
861.000000	68.886833
862.000000	69.279333
863.000000	69.568100
864.000000	69.838033
865.000000	70.107433
866.000000	70.363700
867.000000	70.559800
868.000000	70.771567
869.000000	70.928733
870.000000	71.109933
871.000000	71.204700
872.000000	71.366533
873.000000	71.469733
874.000000	71.519867
875.000000	71.624367
876.000000	71.677833
877.000000	71.758967
878.000000	71.785633
879.000000	71.774733
880.000000	71.802633
881.000000	71.811433
882.000000	71.782133
883.000000	71.786667
884.000000	71.770467
885.000000	71.723633
886.000000	71.640500
887.000000	71.597367
888.000000	71.527100
889.000000	71.460933
890.000000	71.389167
891.000000	71.292867
892.000000	71.193567
893.000000	71.111867
894.000000	71.023967
895.000000	70.919367
896.000000	70.810400
897.000000	70.724400
898.000000	70.628067
899.000000	70.546133
900.000000	70.455767
901.000000	70.335767
902.000000	70.200467
903.000000	70.120100
904.000000	70.029133
905.000000	69.945867
906.000000	69.884467
907.000000	69.788300
908.000000	69.732400
909.000000	69.599567
910.000000	69.533600
911.000000	69.489067
912.000000	69.424900
913.000000	69.395367
914.000000	69.318100
915.000000	69.238367
916.000000	69.182067
917.000000	69.130867
918.000000	69.064667
919.000000	69.013133
920.000000	68.956100
921.000000	68.904167
922.000000	68.834700
923.000000	68.773000
924.000000	68.692733
925.000000	68.617967
926.000000	68.543867
927.000000	68.487967
928.000000	68.400000
929.000000	68.316067
930.000000	68.250500
931.000000	68.152067
932.000000	68.043133
933.000000	67.963167
934.000000	67.865933
935.000000	67.754433
936.000000	67.640433
937.000000	67.532167
938.000000	67.429400
939.000000	67.341367
940.000000	67.226367
941.000000	67.116000
942.000000	67.031733
943.000000	66.919300
944.000000	66.811867
945.000000	66.726167
946.000000	66.623933
947.000000	66.520300
948.000000	66.423400
949.000000	66.322667
950.000000	66.230067
951.000000	66.155800
952.000000	66.062167
953.000000	65.958733
954.000000	65.854133
955.000000	65.777167
956.000000	65.687933
957.000000	65.592400
958.000000	65.505633
959.000000	65.421600
960.000000	65.340500
961.000000	65.264567
962.000000	65.183367
963.000000	65.111300
964.000000	65.054733
965.000000	64.992433
966.000000	64.920300
967.000000	64.857233
968.000000	64.808367
969.000000	64.759833
970.000000	64.701167
971.000000	64.646533
972.000000	64.588433
973.000000	64.539867
974.000000	64.484933
975.000000	64.442567
976.000000	64.382700
977.000000	64.334000
978.000000	64.293267
979.000000	64.249133
980.000000	64.203000
981.000000	64.160267
982.000000	64.109867
983.000000	64.071467
984.000000	64.032567
985.000000	63.983233
986.000000	63.944267
987.000000	63.909900
988.000000	63.873233
989.000000	63.840733
990.000000	63.803233
991.000000	63.768400
992.000000	63.727700
993.000000	63.697533
994.000000	63.667733
995.000000	63.640667
996.000000	63.602100
997.000000	63.570367
998.000000	63.544600
999.000000	63.515167
1000.000000	63.494900
1001.000000	63.462367
1002.000000	63.435200
1003.000000	63.420033
1004.000000	63.394167
1005.000000	63.364833
1006.000000	63.333033
1007.000000	63.300900
1008.000000	63.274033
1009.000000	63.251600
1010.000000	63.219500
1011.000000	63.196933
1012.000000	63.180367
1013.000000	63.156567
1014.000000	63.145233
1015.000000	63.147933
1016.000000	63.145900
1017.000000	63.152100
1018.000000	63.161900
1019.000000	63.171833
1020.000000	63.191167
1021.000000	63.213633
1022.000000	63.227800
1023.000000	63.254633
1024.000000	63.279200
1025.000000	63.308367
1026.000000	63.347500
1027.000000	63.384433
1028.000000	63.420467
1029.000000	63.463100
1030.000000	63.504367
1031.000000	63.544433
1032.000000	63.587933
1033.000000	63.631033
1034.000000	63.671000
1035.000000	63.715000
1036.000000	63.764467
1037.000000	63.807333
1038.000000	63.855600
1039.000000	63.905600
1040.000000	63.956733
1041.000000	64.003900
1042.000000	64.052300
1043.000000	64.110900
1044.000000	64.170567
1045.000000	64.219200
1046.000000	64.276467
1047.000000	64.340967
1048.000000	64.401600
1049.000000	64.465700
1050.000000	64.525133
1051.000000	64.588767
1052.000000	64.661067
1053.000000	64.728867
1054.000000	64.798133
1055.000000	64.872033
1056.000000	64.944000
1057.000000	65.016133
1058.000000	65.084967
1059.000000	65.152500
1060.000000	65.224467
1061.000000	65.295500
1062.000000	65.366500
1063.000000	65.428133
1064.000000	65.495167
1065.000000	65.555233
1066.000000	65.612367
1067.000000	65.677100
1068.000000	65.733667
1069.000000	65.782433
1070.000000	65.841867
1071.000000	65.902333
1072.000000	65.956100
1073.000000	66.009900
1074.000000	66.062967
1075.000000	66.113233
1076.000000	66.173000
1077.000000	66.221100
1078.000000	66.264800
1079.000000	66.317833
1080.000000	66.366467
1081.000000	66.421000
1082.000000	66.470667
1083.000000	66.524133
1084.000000	66.583133
1085.000000	66.635167
1086.000000	66.688133
1087.000000	66.742867
1088.000000	66.801167
1089.000000	66.852767
1090.000000	66.901900
1091.000000	66.946967
1092.000000	67.001300
1093.000000	67.053667
1094.000000	67.102967
1095.000000	67.153833
1096.000000	67.205733
1097.000000	67.252533
1098.000000	67.295233
1099.000000	67.343967
1100.000000	67.382333
1101.000000	67.427467
1102.000000	67.473733
1103.000000	67.509200
1104.000000	67.552700
1105.000000	67.586233
1106.000000	67.630200
1107.000000	67.660867
1108.000000	67.702733
1109.000000	67.733200
1110.000000	67.764100
1111.000000	67.808067
1112.000000	67.847700
1113.000000	67.881333
1114.000000	67.920233
1115.000000	67.966833
1116.000000	68.011133
1117.000000	68.043800
1118.000000	68.074200
1119.000000	68.101900
1120.000000	68.110467
1121.000000	68.119367
1122.000000	68.125500
1123.000000	68.127033
1124.000000	68.108533
1125.000000	68.081533
1126.000000	68.053100
1127.000000	68.000600
1128.000000	67.950200
1129.000000	67.872467
1130.000000	67.773533
1131.000000	67.620433
1132.000000	67.454467
1133.000000	67.278733
1134.000000	67.133100
1135.000000	66.938833
1136.000000	66.695067
1137.000000	66.427633
1138.000000	66.147633
1139.000000	65.900267
1140.000000	65.654167
1141.000000	65.426467
1142.000000	65.203900
1143.000000	64.979867
1144.000000	64.772867
1145.000000	64.603133
1146.000000	64.466100
1147.000000	64.392600
1148.000000	64.347400
1149.000000	64.346833
1150.000000	64.361100
1151.000000	64.380533
1152.000000	64.389833
1153.000000	64.380967
1154.000000	64.322867
1155.000000	64.238467
1156.000000	64.106067
1157.000000	63.932500
1158.000000	63.718800
1159.000000	63.473333
1160.000000	63.232167
1161.000000	62.964733
1162.000000	62.675300
1163.000000	62.398267
1164.000000	62.099100
1165.000000	61.801067
1166.000000	61.498100
1167.000000	61.220833
1168.000000	60.941867
1169.000000	60.655367
1170.000000	60.360300
1171.000000	60.096533
1172.000000	59.813733
1173.000000	59.555400
1174.000000	59.311300
1175.000000	59.074700
1176.000000	58.833767
1177.000000	58.595233
1178.000000	58.295667
1179.000000	57.976600
1180.000000	57.617767
1181.000000	57.200667
1182.000000	56.815467
1183.000000	56.451367
1184.000000	56.162567
1185.000000	55.949067
1186.000000	55.858433
1187.000000	55.870967
1188.000000	55.968333
1189.000000	56.186600
1190.000000	56.473367
1191.000000	56.829967
1192.000000	57.206633
1193.000000	57.591633
1194.000000	57.922867
1195.000000	58.200633
1196.000000	58.434967
1197.000000	58.603900
1198.000000	58.763533
1199.000000	58.874033
1200.000000	58.970300
1201.000000	59.031400
1202.000000	59.088133
1203.000000	59.135500
1204.000000	59.180300
1205.000000	59.219167
1206.000000	59.273733
1207.000000	59.341633
1208.000000	59.414767
1209.000000	59.499300
1210.000000	59.590033
1211.000000	59.702667
1212.000000	59.813200
1213.000000	59.915433
1214.000000	60.024767
1215.000000	60.137367
1216.000000	60.255500
1217.000000	60.380000
1218.000000	60.502367
1219.000000	60.641867
1220.000000	60.776800
1221.000000	60.913267
1222.000000	61.060000
1223.000000	61.206933
1224.000000	61.363700
1225.000000	61.511933
1226.000000	61.666767
1227.000000	61.817467
1228.000000	61.984933
1229.000000	62.129867
1230.000000	62.278133
1231.000000	62.424033
1232.000000	62.577133
1233.000000	62.727900
1234.000000	62.870133
1235.000000	63.005933
1236.000000	63.155333
1237.000000	63.289533
1238.000000	63.413333
1239.000000	63.547700
1240.000000	63.672867
1241.000000	63.799500
1242.000000	63.928900
1243.000000	64.042467
1244.000000	64.166033
1245.000000	64.268567
1246.000000	64.379833
1247.000000	64.483400
1248.000000	64.576200
1249.000000	64.669433
1250.000000	64.750767
1251.000000	64.815767
1252.000000	64.884033
1253.000000	64.954667
1254.000000	65.004900
1255.000000	65.066933
1256.000000	65.131200
1257.000000	65.177067
1258.000000	65.213733
1259.000000	65.270133
1260.000000	65.319900
1261.000000	65.363333
1262.000000	65.400333
1263.000000	65.434733
1264.000000	65.478567
1265.000000	65.523667
1266.000000	65.562233
1267.000000	65.599100
1268.000000	65.642900
1269.000000	65.676167
1270.000000	65.715333
1271.000000	65.761833
1272.000000	65.803133
1273.000000	65.839967
1274.000000	65.890267
1275.000000	65.932133
1276.000000	65.982433
1277.000000	66.036900
1278.000000	66.092733
1279.000000	66.162500
1280.000000	66.227400
1281.000000	66.288767
1282.000000	66.359133
1283.000000	66.420300
1284.000000	66.488667
1285.000000	66.568533
1286.000000	66.625833
1287.000000	66.685967
1288.000000	66.750800
1289.000000	66.807000
1290.000000	66.854767
1291.000000	66.890267
1292.000000	66.928067
1293.000000	66.965667
1294.000000	66.998267
1295.000000	67.027700
1296.000000	67.050600
1297.000000	67.067733
1298.000000	67.085467
1299.000000	67.104967
1300.000000	67.111900
1301.000000	67.118700
1302.000000	67.129767
1303.000000	67.132800
1304.000000	67.132800
1305.000000	67.133867
1306.000000	67.125000
1307.000000	67.109400
1308.000000	67.089867
1309.000000	67.056200
1310.000000	67.023333
1311.000000	66.990867
1312.000000	66.938300
1313.000000	66.890233
1314.000000	66.847500
1315.000000	66.790700
1316.000000	66.731200
1317.000000	66.666633
1318.000000	66.592700
1319.000000	66.526167
1320.000000	66.462500
1321.000000	66.387733
1322.000000	66.296967
1323.000000	66.209467
1324.000000	66.125367
1325.000000	66.032233
1326.000000	65.931600
1327.000000	65.826100
1328.000000	65.710867
1329.000000	65.595967
1330.000000	65.475700
1331.000000	65.347933
1332.000000	65.203667
1333.000000	65.052533
1334.000000	64.888633
1335.000000	64.719667
1336.000000	64.554867
1337.000000	64.364667
1338.000000	64.171200
1339.000000	63.969767
1340.000000	63.752900
1341.000000	63.527133
1342.000000	63.288367
1343.000000	63.053033
1344.000000	62.811300
1345.000000	62.530000
1346.000000	62.219367
1347.000000	61.941467
1348.000000	61.639967
1349.000000	61.285767
1350.000000	60.907867
1351.000000	60.496533
1352.000000	60.047033
1353.000000	59.567267
1354.000000	59.146833
1355.000000	58.735867
1356.000000	58.384333
1357.000000	58.104200
1358.000000	57.935500
1359.000000	57.842600
1360.000000	57.776900
1361.000000	57.777967
1362.000000	57.733567
1363.000000	57.587233
1364.000000	57.418567
1365.000000	57.286233
1366.000000	57.098400
1367.000000	56.916833
1368.000000	56.725867
1369.000000	56.482233
1370.000000	56.198300
1371.000000	55.934033
1372.000000	55.644033
1373.000000	55.340167
1374.000000	55.008200
1375.000000	54.755567
1376.000000	54.585067
1377.000000	54.461567
1378.000000	54.375133
1379.000000	54.314767
1380.000000	54.213700
1381.000000	54.161600
1382.000000	54.008833
1383.000000	53.754933
1384.000000	53.426733
1385.000000	53.065133
1386.000000	52.654767
1387.000000	52.331800
1388.000000	52.063867
1389.000000	51.791200
1390.000000	51.490000
1391.000000	51.260933
1392.000000	51.081033
1393.000000	50.867100
1394.000000	50.682100
1395.000000	50.554300
1396.000000	50.391633
1397.000000	50.068800
1398.000000	49.737033
1399.000000	49.492233
1400.000000	49.261733
1401.000000	48.965700
1402.000000	48.476000
1403.000000	48.030967
1404.000000	47.630700
1405.000000	47.275667
1406.000000	46.862000
1407.000000	46.453100
1408.000000	46.074933
1409.000000	45.686500
1410.000000	45.346467
1411.000000	44.965800
1412.000000	44.605800
1413.000000	44.357200
1414.000000	44.143567
1415.000000	43.880200
1416.000000	43.552567
1417.000000	43.240800
1418.000000	43.024233
1419.000000	42.788033
1420.000000	42.517533
1421.000000	42.225033
1422.000000	41.926400
1423.000000	41.683600
1424.000000	41.469733
1425.000000	41.204400
1426.000000	40.945467
1427.000000	40.694600
1428.000000	40.508033
1429.000000	40.304433
1430.000000	40.096967
1431.000000	39.919467
1432.000000	39.775733
1433.000000	39.616900
1434.000000	39.457267
1435.000000	39.313867
1436.000000	39.150200
1437.000000	39.028800
1438.000000	38.905800
1439.000000	38.772767
1440.000000	38.624033
1441.000000	38.491767
1442.000000	38.363267
1443.000000	38.214200
1444.000000	38.077033
1445.000000	37.974833
1446.000000	37.873200
1447.000000	37.728200
1448.000000	37.584900
1449.000000	37.452567
1450.000000	37.365833
1451.000000	37.279633
1452.000000	37.162000
1453.000000	37.039067
1454.000000	36.917767
1455.000000	36.829333
1456.000000	36.730967
1457.000000	36.640167
1458.000000	36.541100
1459.000000	36.441000
1460.000000	36.359600
1461.000000	36.290733
1462.000000	36.208833
1463.000000	36.145600
1464.000000	36.070467
1465.000000	35.999067
1466.000000	35.958300
1467.000000	35.905867
1468.000000	35.843933
1469.000000	35.792667
1470.000000	35.752333
1471.000000	35.720167
1472.000000	35.674967
1473.000000	35.623033
1474.000000	35.558767
1475.000000	35.498833
1476.000000	35.442667
1477.000000	35.407900
1478.000000	35.368767
1479.000000	35.325033
1480.000000	35.287867
1481.000000	35.258500
1482.000000	35.211300
1483.000000	35.173300
1484.000000	35.132767
1485.000000	35.108467
1486.000000	35.080133
1487.000000	35.054200
1488.000000	35.027967
1489.000000	34.990367
1490.000000	34.963733
1491.000000	34.933800
1492.000000	34.910867
1493.000000	34.893233
1494.000000	34.870200
1495.000000	34.857533
1496.000000	34.846467
1497.000000	34.834267
1498.000000	34.825933
1499.000000	34.842533
1500.000000	34.844400
1501.000000	34.849300
1502.000000	34.863033
1503.000000	34.872033
1504.000000	34.890800
1505.000000	34.917267
1506.000000	34.938367
1507.000000	34.968933
1508.000000	34.993033
1509.000000	35.020367
1510.000000	35.041733
1511.000000	35.067467
1512.000000	35.097700
1513.000000	35.126367
1514.000000	35.153367
1515.000000	35.181800
1516.000000	35.216200
1517.000000	35.238500
1518.000000	35.255600
1519.000000	35.282367
1520.000000	35.311433
1521.000000	35.336200
1522.000000	35.367633
1523.000000	35.401000
1524.000000	35.422367
1525.000000	35.443800
1526.000000	35.474867
1527.000000	35.508300
1528.000000	35.533433
1529.000000	35.550233
1530.000000	35.569033
1531.000000	35.596133
1532.000000	35.619167
1533.000000	35.634167
1534.000000	35.646100
1535.000000	35.656200
1536.000000	35.676467
1537.000000	35.691400
1538.000000	35.694967
1539.000000	35.701633
1540.000000	35.714567
1541.000000	35.738033
1542.000000	35.746000
1543.000000	35.749333
1544.000000	35.766200
1545.000000	35.788600
1546.000000	35.812633
1547.000000	35.841633
1548.000000	35.873167
1549.000000	35.901567
1550.000000	35.934300
1551.000000	35.971767
1552.000000	35.999400
1553.000000	36.022833
1554.000000	36.051867
1555.000000	36.086333
1556.000000	36.102833
1557.000000	36.103367
1558.000000	36.113300
1559.000000	36.121233
1560.000000	36.124700
1561.000000	36.123867
1562.000000	36.112933
1563.000000	36.102400
1564.000000	36.082467
1565.000000	36.057600
1566.000000	36.041900
1567.000000	36.021100
1568.000000	36.001200
1569.000000	35.986833
1570.000000	35.975267
1571.000000	35.957100
1572.000000	35.938100
1573.000000	35.927600
1574.000000	35.915100
1575.000000	35.902367
1576.000000	35.906200
1577.000000	35.916133
1578.000000	35.925367
1579.000000	35.943067
1580.000000	35.961400
1581.000000	35.973567
1582.000000	35.993867
1583.000000	36.010700
1584.000000	36.035200
1585.000000	36.067967
1586.000000	36.106667
1587.000000	36.136900
1588.000000	36.170067
1589.000000	36.215933
1590.000000	36.261200
1591.000000	36.305233
1592.000000	36.348167
1593.000000	36.399533
1594.000000	36.448967
1595.000000	36.499467
1596.000000	36.551400
1597.000000	36.612167
1598.000000	36.669567
1599.000000	36.720733
1600.000000	36.786133
1601.000000	36.851167
1602.000000	36.918600
1603.000000	36.992233
1604.000000	37.052133
1605.000000	37.112500
1606.000000	37.189467
1607.000000	37.256200
1608.000000	37.314067
1609.000000	37.376433
1610.000000	37.443033
1611.000000	37.504967
1612.000000	37.561300
1613.000000	37.622533
1614.000000	37.684967
1615.000000	37.746267
1616.000000	37.803467
1617.000000	37.861200
1618.000000	37.925800
1619.000000	37.998267
1620.000000	38.061167
1621.000000	38.118000
1622.000000	38.180367
1623.000000	38.248933
1624.000000	38.326000
1625.000000	38.385633
1626.000000	38.459767
1627.000000	38.537933
1628.000000	38.603700
1629.000000	38.677133
1630.000000	38.754467
1631.000000	38.824667
1632.000000	38.888600
1633.000000	38.964833
1634.000000	39.032700
1635.000000	39.091567
1636.000000	39.150833
1637.000000	39.214433
1638.000000	39.269000
1639.000000	39.323933
1640.000000	39.377167
1641.000000	39.421400
1642.000000	39.477900
1643.000000	39.531767
1644.000000	39.578867
1645.000000	39.621100
1646.000000	39.668633
1647.000000	39.712300
1648.000000	39.758900
1649.000000	39.798100
1650.000000	39.826633
1651.000000	39.848600
1652.000000	39.858133
1653.000000	39.875433
1654.000000	39.885667
1655.000000	39.877267
1656.000000	39.871500
1657.000000	39.861400
1658.000000	39.831667
1659.000000	39.788133
1660.000000	39.756700
1661.000000	39.697200
1662.000000	39.627333
1663.000000	39.541733
1664.000000	39.481667
1665.000000	39.373867
1666.000000	39.262633
1667.000000	39.141433
1668.000000	38.994800
1669.000000	38.826300
1670.000000	38.648200
1671.000000	38.447267
1672.000000	38.230200
1673.000000	37.979067
1674.000000	37.699300
1675.000000	37.361467
1676.000000	36.994400
1677.000000	36.566233
1678.000000	36.091967
1679.000000	35.597433
1680.000000	35.055600
1681.000000	34.550400
1682.000000	34.110400
1683.000000	33.763100
1684.000000	33.517733
1685.000000	33.388033
1686.000000	33.312467
1687.000000	33.278600
1688.000000	33.233767
1689.000000	33.176233
1690.000000	33.088967
1691.000000	32.969067
1692.000000	32.831133
1693.000000	32.734200
1694.000000	32.635600
1695.000000	32.602233
1696.000000	32.612067
1697.000000	32.671900
1698.000000	32.771767
1699.000000	32.901467
1700.000000	33.047867
1701.000000	33.177900
1702.000000	33.302033
1703.000000	33.396167
1704.000000	33.474867
1705.000000	33.518500
1706.000000	33.547633
1707.000000	33.577033
1708.000000	33.582033
1709.000000	33.581867
1710.000000	33.567967
1711.000000	33.521200
1712.000000	33.477767
1713.000000	33.397300
1714.000000	33.322633
1715.000000	33.222767
1716.000000	33.123133
1717.000000	33.013533
1718.000000	32.915833
1719.000000	32.848000
1720.000000	32.784600
1721.000000	32.728733
1722.000000	32.680433
1723.000000	32.632500
1724.000000	32.578333
1725.000000	32.532967
1726.000000	32.459267
1727.000000	32.371133
1728.000000	32.279100
1729.000000	32.187300
1730.000000	32.080067
1731.000000	31.995833
1732.000000	31.919867
1733.000000	31.883633
1734.000000	31.859633
1735.000000	31.888267
1736.000000	31.964400
1737.000000	32.078967
1738.000000	32.227333
1739.000000	32.412467
1740.000000	32.613967
1741.000000	32.817767
1742.000000	33.027367
1743.000000	33.214833
1744.000000	33.405167
1745.000000	33.561133
1746.000000	33.690100
1747.000000	33.806033
1748.000000	33.896833
1749.000000	33.974400
1750.000000	34.033967
1751.000000	34.085967
1752.000000	34.123733
1753.000000	34.141667
1754.000000	34.151300
1755.000000	34.147333
1756.000000	34.117300
1757.000000	34.072533
1758.000000	34.029500
1759.000000	33.967033
1760.000000	33.909133
1761.000000	33.855800
1762.000000	33.817933
1763.000000	33.804267
1764.000000	33.812900
1765.000000	33.845433
1766.000000	33.908933
1767.000000	33.988433
1768.000000	34.089400
1769.000000	34.190200
1770.000000	34.303367
1771.000000	34.419900
1772.000000	34.536033
1773.000000	34.660633
1774.000000	34.779967
1775.000000	34.900567
1776.000000	35.016767
1777.000000	35.119200
1778.000000	35.212133
1779.000000	35.305033
1780.000000	35.393567
1781.000000	35.460767
1782.000000	35.527967
1783.000000	35.596000
1784.000000	35.671500
1785.000000	35.746400
1786.000000	35.818700
1787.000000	35.881967
1788.000000	35.933667
1789.000000	35.984100
1790.000000	36.036667
1791.000000	36.099367
1792.000000	36.147033
1793.000000	36.199267
1794.000000	36.250033
1795.000000	36.299200
1796.000000	36.350267
1797.000000	36.401000
1798.000000	36.444867
1799.000000	36.489500
1800.000000	36.540700
1801.000000	36.612167
1802.000000	36.681133
1803.000000	36.730367
1804.000000	36.767400
1805.000000	36.810633
1806.000000	36.876667
1807.000000	36.942833
1808.000000	36.980233
1809.000000	37.011133
1810.000000	37.054467
1811.000000	37.119767
1812.000000	37.181067
1813.000000	37.210167
1814.000000	37.220400
1815.000000	37.233833
1816.000000	37.262600
1817.000000	37.275967
1818.000000	37.281200
1819.000000	37.315133
1820.000000	37.375633
1821.000000	37.445833
1822.000000	37.495067
1823.000000	37.485233
1824.000000	37.467233
1825.000000	37.510533
1826.000000	37.584300
1827.000000	37.662467
1828.000000	37.750167
1829.000000	37.849633
1830.000000	37.943433
1831.000000	38.031767
1832.000000	38.103200
1833.000000	38.167567
1834.000000	38.247800
1835.000000	38.345900
1836.000000	38.445500
1837.000000	38.538167
1838.000000	38.609600
1839.000000	38.653367
1840.000000	38.712800
1841.000000	38.780667
1842.000000	38.846200
1843.000000	38.852233
1844.000000	38.824267
1845.000000	38.848467
1846.000000	38.906933
1847.000000	39.015500
1848.000000	39.143200
1849.000000	39.232233
1850.000000	39.257400
1851.000000	39.251333
1852.000000	39.255367
1853.000000	39.309200
1854.000000	39.382333
1855.000000	39.423767
1856.000000	39.445967
1857.000000	39.461367
1858.000000	39.453700
1859.000000	39.456633
1860.000000	39.448133
1861.000000	39.410000
1862.000000	39.347600
1863.000000	39.261300
1864.000000	39.185000
1865.000000	39.116533
1866.000000	39.035500
1867.000000	38.958500
1868.000000	38.868400
1869.000000	38.733633
1870.000000	38.558033
1871.000000	38.380933
1872.000000	38.153200
1873.000000	37.887467
1874.000000	37.583867
1875.000000	37.254567
1876.000000	36.894200
1877.000000	36.520133
1878.000000	36.114467
1879.000000	35.673267
1880.000000	35.224067
1881.000000	34.778033
1882.000000	34.289433
1883.000000	33.819533
1884.000000	33.350300
1885.000000	32.864267
1886.000000	32.402533
1887.000000	31.966633
1888.000000	31.569433
1889.000000	31.181033
1890.000000	30.816200
1891.000000	30.433267
1892.000000	30.017133
1893.000000	29.590400
1894.000000	29.176233
1895.000000	28.782533
1896.000000	28.415533
1897.000000	28.066333
1898.000000	27.681200
1899.000000	27.268767
1900.000000	26.875000
1901.000000	26.451567
1902.000000	26.057233
1903.000000	25.696700
1904.000000	25.342333
1905.000000	24.992033
1906.000000	24.614367
1907.000000	24.228533
1908.000000	23.883333
1909.000000	23.581867
1910.000000	23.311733
1911.000000	23.039667
1912.000000	22.769567
1913.000000	22.486333
1914.000000	22.188300
1915.000000	21.898567
1916.000000	21.658767
1917.000000	21.437900
1918.000000	21.237233
1919.000000	21.008400
1920.000000	20.829233
1921.000000	20.633167
1922.000000	20.419200
1923.000000	20.229167
1924.000000	20.077867
1925.000000	19.937100
1926.000000	19.795667
1927.000000	19.670933
1928.000000	19.549167
1929.000000	19.434200
1930.000000	19.336433
1931.000000	19.248733
1932.000000	19.168833
1933.000000	19.088633
1934.000000	19.044067
1935.000000	19.003167
1936.000000	18.965267
1937.000000	18.937167
1938.000000	18.925333
1939.000000	18.931900
1940.000000	18.916967
1941.000000	18.930100
1942.000000	18.939800
1943.000000	18.956100
1944.000000	18.976200
1945.000000	19.025700
1946.000000	19.073533
1947.000000	19.115133
1948.000000	19.169433
1949.000000	19.221500
1950.000000	19.290533
1951.000000	19.334500
1952.000000	19.418967
1953.000000	19.483033
1954.000000	19.567567
1955.000000	19.642200
1956.000000	19.718100
1957.000000	19.786767
1958.000000	19.878167
1959.000000	19.950400
1960.000000	20.028567
1961.000000	20.099400
1962.000000	20.201467
1963.000000	20.284000
1964.000000	20.348933
1965.000000	20.429367
1966.000000	20.514500
1967.000000	20.594100
1968.000000	20.668867
1969.000000	20.756733
1970.000000	20.832200
1971.000000	20.909600
1972.000000	20.994333
1973.000000	21.083267
1974.000000	21.171567
1975.000000	21.252800
1976.000000	21.334667
1977.000000	21.430833
1978.000000	21.518800
1979.000000	21.608100
1980.000000	21.707400
1981.000000	21.799900
1982.000000	21.889167
1983.000000	21.989233
1984.000000	22.066900
1985.000000	22.152133
1986.000000	22.239067
1987.000000	22.329833
1988.000000	22.416367
1989.000000	22.498433
1990.000000	22.597733
1991.000000	22.663633
1992.000000	22.740700
1993.000000	22.821667
1994.000000	22.889600
1995.000000	22.947233
1996.000000	23.017867
1997.000000	23.066467
1998.000000	23.121167
1999.000000	23.177333
2000.000000	23.238733
2001.000000	23.273633
2002.000000	23.312000
2003.000000	23.343900
2004.000000	23.373133
2005.000000	23.408400
2006.000000	23.421900
2007.000000	23.431567
2008.000000	23.442233
2009.000000	23.461833
2010.000000	23.448400
2011.000000	23.430233
2012.000000	23.424133
2013.000000	23.413233
2014.000000	23.392100
2015.000000	23.373900
2016.000000	23.323833
2017.000000	23.302200
2018.000000	23.256467
2019.000000	23.213333
2020.000000	23.161367
2021.000000	23.102633
2022.000000	23.047333
2023.000000	22.981333
2024.000000	22.931800
2025.000000	22.860300
2026.000000	22.782233
2027.000000	22.697333
2028.000000	22.625700
2029.000000	22.553667
2030.000000	22.459433
2031.000000	22.353833
2032.000000	22.254300
2033.000000	22.158967
2034.000000	22.048467
2035.000000	21.932067
2036.000000	21.815600
2037.000000	21.684800
2038.000000	21.564367
2039.000000	21.422333
2040.000000	21.286200
2041.000000	21.146133
2042.000000	20.993633
2043.000000	20.841333
2044.000000	20.705600
2045.000000	20.563300
2046.000000	20.433067
2047.000000	20.297400
2048.000000	20.170633
2049.000000	20.051700
2050.000000	19.945000
2051.000000	19.842033
2052.000000	19.753267
2053.000000	19.682600
2054.000000	19.624300
2055.000000	19.575867
2056.000000	19.546967
2057.000000	19.522567
2058.000000	19.501800
2059.000000	19.501667
2060.000000	19.508900
2061.000000	19.528867
2062.000000	19.546133
2063.000000	19.582933
2064.000000	19.622733
2065.000000	19.660267
2066.000000	19.687700
2067.000000	19.722567
2068.000000	19.762233
2069.000000	19.805867
2070.000000	19.854267
2071.000000	19.893000
2072.000000	19.926967
2073.000000	19.977700
2074.000000	20.010333
2075.000000	20.038867
2076.000000	20.077600
2077.000000	20.110567
2078.000000	20.143600
2079.000000	20.171033
2080.000000	20.191300
2081.000000	20.212900
2082.000000	20.230833
2083.000000	20.252500
2084.000000	20.262900
2085.000000	20.270733
2086.000000	20.279867
2087.000000	20.292800
2088.000000	20.303533
2089.000000	20.303267
2090.000000	20.294967
2091.000000	20.297433
2092.000000	20.301000
2093.000000	20.298067
2094.000000	20.306600
2095.000000	20.310833
2096.000000	20.311433
2097.000000	20.323300
2098.000000	20.338733
2099.000000	20.351267
2100.000000	20.360233
2101.000000	20.375333
2102.000000	20.392067
2103.000000	20.405800
2104.000000	20.419167
2105.000000	20.429433
2106.000000	20.448767
2107.000000	20.471733
2108.000000	20.488133
2109.000000	20.491700
2110.000000	20.498700
2111.000000	20.518700
2112.000000	20.531500
2113.000000	20.539800
2114.000000	20.556167
2115.000000	20.569633
2116.000000	20.576933
2117.000000	20.579267
2118.000000	20.589033
2119.000000	20.595433
2120.000000	20.599133
2121.000000	20.600633
2122.000000	20.605900
2123.000000	20.603033
2124.000000	20.593367
2125.000000	20.581700
2126.000000	20.567633
2127.000000	20.555733
2128.000000	20.540900
2129.000000	20.520933
2130.000000	20.495967
2131.000000	20.471233
2132.000000	20.441667
2133.000000	20.410133
2134.000000	20.379200
2135.000000	20.342267
2136.000000	20.297867
2137.000000	20.257000
2138.000000	20.216200
2139.000000	20.174100
2140.000000	20.125000
2141.000000	20.073000
2142.000000	20.016533
2143.000000	19.965467
2144.000000	19.917567
2145.000000	19.871433
2146.000000	19.824167
2147.000000	19.753267
2148.000000	19.692100
2149.000000	19.642600
2150.000000	19.589900
2151.000000	19.530333
2152.000000	19.473633
2153.000000	19.414167
2154.000000	19.357367
2155.000000	19.314633
2156.000000	19.255733
2157.000000	19.193233
2158.000000	19.146300
2159.000000	19.112433
2160.000000	19.066900
2161.000000	19.025767
2162.000000	18.988733
2163.000000	18.964567
2164.000000	18.930033
2165.000000	18.899667
2166.000000	18.874133
2167.000000	18.863700
2168.000000	18.839900
2169.000000	18.815500
2170.000000	18.802267
2171.000000	18.799500
2172.000000	18.793900
2173.000000	18.786600
2174.000000	18.784400
2175.000000	18.782400
2176.000000	18.789733
2177.000000	18.790833
2178.000000	18.797300
2179.000000	18.823167
2180.000000	18.833833
2181.000000	18.849633
2182.000000	18.868933
2183.000000	18.895033
2184.000000	18.908433
2185.000000	18.924667
2186.000000	18.933267
2187.000000	18.962567
2188.000000	18.985667
2189.000000	19.000867
2190.000000	19.017600
2191.000000	19.027467
2192.000000	19.043800
2193.000000	19.064567
2194.000000	19.073600
2195.000000	19.085067
2196.000000	19.103800
2197.000000	19.124967
2198.000000	19.145967
2199.000000	19.144033
2200.000000	19.167333
2201.000000	19.182333
2202.000000	19.204700
2203.000000	19.219967
2204.000000	19.249733
2205.000000	19.279300
2206.000000	19.289200
2207.000000	19.312933
2208.000000	19.344400
2209.000000	19.363000
2210.000000	19.397267
2211.000000	19.434200
2212.000000	19.477467
2213.000000	19.505733
2214.000000	19.549900
2215.000000	19.585600
2216.000000	19.622067
2217.000000	19.657300
2218.000000	19.701233
2219.000000	19.747600
2220.000000	19.777333
2221.000000	19.808000
2222.000000	19.848600
2223.000000	19.879733
2224.000000	19.894767
2225.000000	19.904467
2226.000000	19.920800
2227.000000	19.935733
2228.000000	19.921633
2229.000000	19.906567
2230.000000	19.889833
2231.000000	19.874667
2232.000000	19.834500
2233.000000	19.807767
2234.000000	19.775567
2235.000000	19.697933
2236.000000	19.638267
2237.000000	19.568733
2238.000000	19.473833
2239.000000	19.403133
2240.000000	19.307633
2241.000000	19.200267
2242.000000	19.090333
2243.000000	18.960267
2244.000000	18.847233
2245.000000	18.706467
2246.000000	18.553133
2247.000000	18.394900
2248.000000	18.210667
2249.000000	18.038767
2250.000000	17.832800
2251.000000	17.651167
2252.000000	17.414733
2253.000000	17.211200
2254.000000	16.994400
2255.000000	16.754900
2256.000000	16.533867
2257.000000	16.283333
2258.000000	16.049467
2259.000000	15.843567
2260.000000	15.622500
2261.000000	15.406133
2262.000000	15.220933
2263.000000	15.050600
2264.000000	14.913200
2265.000000	14.765533
2266.000000	14.631633
2267.000000	14.530467
2268.000000	14.439867
2269.000000	14.370067
2270.000000	14.316667
2271.000000	14.274067
2272.000000	14.259167
2273.000000	14.237900
2274.000000	14.217600
2275.000000	14.217867
2276.000000	14.218800
2277.000000	14.226233
2278.000000	14.238967
2279.000000	14.251467
2280.000000	14.271167
2281.000000	14.293967
2282.000000	14.317267
2283.000000	14.327733
2284.000000	14.346200
2285.000000	14.341967
2286.000000	14.350567
2287.000000	14.355233
2288.000000	14.354567
2289.000000	14.345000
2290.000000	14.322233
2291.000000	14.303000
2292.000000	14.264300
2293.000000	14.214667
2294.000000	14.163000
2295.000000	14.102667
2296.000000	14.036300
2297.000000	13.960167
2298.000000	13.892767
2299.000000	13.827667
2300.000000	13.747767
2301.000000	13.679333
2302.000000	13.617167
2303.000000	13.566200
2304.000000	13.524400
2305.000000	13.497733
2306.000000	13.481967
2307.000000	13.483367
2308.000000	13.503267
2309.000000	13.517900
2310.000000	13.544667
2311.000000	13.604633
2312.000000	13.670533
2313.000000	13.740300
2314.000000	13.817367
2315.000000	13.897733
2316.000000	13.991667
2317.000000	14.077700
2318.000000	14.157400
2319.000000	14.231500
2320.000000	14.304967
2321.000000	14.379767
2322.000000	14.446133
2323.000000	14.509800
2324.000000	14.575500
2325.000000	14.624767
2326.000000	14.673300
2327.000000	14.726933
2328.000000	14.774667
2329.000000	14.803400
2330.000000	14.825767
2331.000000	14.860600
2332.000000	14.891967
2333.000000	14.906767
2334.000000	14.912500
2335.000000	14.918667
2336.000000	14.932567
2337.000000	14.939767
2338.000000	14.934900
2339.000000	14.912833
2340.000000	14.892533
2341.000000	14.870200
2342.000000	14.849033
2343.000000	14.805533
2344.000000	14.756833
2345.000000	14.731867
2346.000000	14.689400
2347.000000	14.648967
2348.000000	14.617733
2349.000000	14.588800
2350.000000	14.550500
2351.000000	14.534033
2352.000000	14.532600
2353.000000	14.523867
2354.000000	14.529933
2355.000000	14.544400
2356.000000	14.562367
2357.000000	14.594767
2358.000000	14.630400
2359.000000	14.671133
2360.000000	14.717500
2361.000000	14.755967
2362.000000	14.810233
2363.000000	14.872267
2364.000000	14.922300
2365.000000	14.964100
2366.000000	15.009867
2367.000000	15.057800
2368.000000	15.088167
2369.000000	15.111033
2370.000000	15.147800
2371.000000	15.173567
2372.000000	15.192500
2373.000000	15.215367
2374.000000	15.245500
2375.000000	15.261867
2376.000000	15.271900
2377.000000	15.289300
2378.000000	15.308433
2379.000000	15.316467
2380.000000	15.323567
2381.000000	15.339800
2382.000000	15.341700
2383.000000	15.343067
2384.000000	15.345233
2385.000000	15.341800
2386.000000	15.339267
2387.000000	15.328833
2388.000000	15.315533
2389.000000	15.291333
2390.000000	15.270767
2391.000000	15.258800
2392.000000	15.250467
2393.000000	15.217133
2394.000000	15.186833
2395.000000	15.164467
2396.000000	15.134800
2397.000000	15.104400
2398.000000	15.076433
2399.000000	15.041833
2400.000000	15.005167
2401.000000	14.974867
2402.000000	14.953733
2403.000000	14.928533
2404.000000	14.891033
2405.000000	14.856200
2406.000000	14.825500
2407.000000	14.798333
2408.000000	14.764333
2409.000000	14.722600
2410.000000	14.690867
2411.000000	14.657700
2412.000000	14.617000
2413.000000	14.583100
2414.000000	14.548333
2415.000000	14.497500
2416.000000	14.456133
2417.000000	14.421333
2418.000000	14.385833
2419.000000	14.347267
2420.000000	14.307800
2421.000000	14.256833
2422.000000	14.195333
2423.000000	14.118033
2424.000000	14.038767
2425.000000	13.970033
2426.000000	13.920867
2427.000000	13.871367
2428.000000	13.820867
2429.000000	13.761400
2430.000000	13.715400
2431.000000	13.657967
2432.000000	13.604567
2433.000000	13.541200
2434.000000	13.470167
2435.000000	13.408767
2436.000000	13.339567
2437.000000	13.263833
2438.000000	13.201467
2439.000000	13.124233
2440.000000	13.054367
2441.000000	12.986867
2442.000000	12.906300
2443.000000	12.822267
2444.000000	12.746300
2445.000000	12.670500
2446.000000	12.574967
2447.000000	12.499333
2448.000000	12.429233
2449.000000	12.355333
2450.000000	12.266267
2451.000000	12.193167
2452.000000	12.111867
2453.000000	12.031533
2454.000000	11.963800
2455.000000	11.891333
2456.000000	11.815800
2457.000000	11.751733
2458.000000	11.705633
2459.000000	11.654200
2460.000000	11.611300
2461.000000	11.555700
2462.000000	11.506567
2463.000000	11.474900
2464.000000	11.425900
2465.000000	11.406500
2466.000000	11.359700
2467.000000	11.345167
2468.000000	11.317667
2469.000000	11.293667
2470.000000	11.296100
2471.000000	11.272367
2472.000000	11.228233
2473.000000	11.261833
2474.000000	11.218533
2475.000000	11.200267
2476.000000	11.206467
2477.000000	11.204800
2478.000000	11.194033
2479.000000	11.187600
2480.000000	11.185567
2481.000000	11.183233
2482.000000	11.205000
2483.000000	11.167267
2484.000000	11.186533
2485.000000	11.184433
2486.000000	11.169900
2487.000000	11.176633
2488.000000	11.189600
2489.000000	11.182467
2490.000000	11.205267
2491.000000	11.195333
2492.000000	11.243900
2493.000000	11.203700
2494.000000	11.240500
2495.000000	11.315467
2496.000000	11.307033
2497.000000	11.346367
2498.000000	11.333300
2499.000000	11.375200
2500.000000	11.362167
