PE UV       SUBTECH     SPECTRUM    ASCII       PEDS        4.00        
   -1
CICIMAUCR0116-3.Sample.ASC
24/04/11
14:13:42.00
24/04/11
14:13:42.00
Vinicio Soto Monge
C. kalinini
250,000000
1
Lambda 1050
1050L1511233
PerkinElmer UV WinLab 6.3.2.0749 / 2.02.05 Lambda 900 UV/VIS/NIR, Aug  7 2015 09:38:08

0
0
3350/2 860,8/2
0
0
UV/VIS
1
1
1
DoubleDePol,CommonBeamDepol,RBeamAtt,SBeamAtt,60mm sphere, WB InGaAs Detector
0
0
0
0
Program
Program
3350/2 860,8/2
3350/0,2 860,8/0,2
3350/0,2 860,8/0,2
0
15.00
 
 
 
0
 
860,8
319,2
860,8
Front
100
on
S:100 R:100
0
0
0
0
 
0
 
 
 
0
 
 
0
0
0
0
0
 
 
 
 
0
0


0
0
#HDR
-1
-1
#GR
nm
%R
1.0
0.0
2400,000000
-1,000000
2151
8
95,435400
5,183200
#DATA
250.000000	6.078253
251.000000	6.043541
252.000000	6.015865
253.000000	6.005318
254.000000	6.013430
255.000000	5.987328
256.000000	6.002051
257.000000	6.012671
258.000000	5.977171
259.000000	5.971004
260.000000	5.932021
261.000000	5.894165
262.000000	5.885170
263.000000	5.870164
264.000000	5.838481
265.000000	5.828068
266.000000	5.786769
267.000000	5.790512
268.000000	5.771842
269.000000	5.755016
270.000000	5.721711
271.000000	5.705785
272.000000	5.668558
273.000000	5.688383
274.000000	5.675685
275.000000	5.648198
276.000000	5.687950
277.000000	5.633442
278.000000	5.640230
279.000000	5.634009
280.000000	5.623621
281.000000	5.599113
282.000000	5.582114
283.000000	5.561050
284.000000	5.580077
285.000000	5.593715
286.000000	5.561358
287.000000	5.527786
288.000000	5.517832
289.000000	5.532230
290.000000	5.507569
291.000000	5.529166
292.000000	5.529336
293.000000	5.524260
294.000000	5.539994
295.000000	5.515692
296.000000	5.511910
297.000000	5.503792
298.000000	5.479826
299.000000	5.488875
300.000000	5.510220
301.000000	5.493166
302.000000	5.495739
303.000000	5.490253
304.000000	5.471907
305.000000	5.483213
306.000000	5.467367
307.000000	5.504745
308.000000	5.486793
309.000000	5.448640
310.000000	5.434540
311.000000	5.446095
312.000000	5.440891
313.000000	5.446667
314.000000	5.449522
315.000000	5.469700
316.000000	5.594229
317.000000	5.849724
318.000000	5.720093
319.000000	5.827289
320.000000	5.793507
321.000000	5.834581
322.000000	5.706363
323.000000	5.559418
324.000000	6.030158
325.000000	6.080638
326.000000	5.701815
327.000000	5.696073
328.000000	5.644050
329.000000	5.584322
330.000000	5.582594
331.000000	5.657913
332.000000	5.612343
333.000000	5.588764
334.000000	5.561298
335.000000	5.600221
336.000000	5.608048
337.000000	5.587076
338.000000	5.652446
339.000000	5.641648
340.000000	5.603830
341.000000	5.627090
342.000000	5.643788
343.000000	5.678545
344.000000	5.689599
345.000000	5.689175
346.000000	5.701654
347.000000	5.669712
348.000000	5.710389
349.000000	5.708945
350.000000	5.712556
351.000000	5.793599
352.000000	5.824367
353.000000	5.829264
354.000000	5.813368
355.000000	5.804777
356.000000	5.852835
357.000000	5.887283
358.000000	5.925811
359.000000	6.013387
360.000000	6.001354
361.000000	5.986172
362.000000	5.988194
363.000000	6.015614
364.000000	6.040483
365.000000	6.098198
366.000000	6.095129
367.000000	6.068965
368.000000	6.135282
369.000000	6.141810
370.000000	6.116440
371.000000	6.133391
372.000000	6.146078
373.000000	6.119889
374.000000	6.134034
375.000000	6.279158
376.000000	6.346737
377.000000	6.373307
378.000000	6.411320
379.000000	6.444437
380.000000	6.482042
381.000000	6.521193
382.000000	6.566947
383.000000	6.619099
384.000000	6.666806
385.000000	6.716844
386.000000	6.770570
387.000000	6.829777
388.000000	6.888626
389.000000	6.958470
390.000000	7.035005
391.000000	7.106838
392.000000	7.194671
393.000000	7.289729
394.000000	7.376362
395.000000	7.481512
396.000000	7.593148
397.000000	7.708660
398.000000	7.829987
399.000000	7.966488
400.000000	8.101003
401.000000	8.248224
402.000000	8.420673
403.000000	8.596261
404.000000	8.776750
405.000000	8.968722
406.000000	9.168232
407.000000	9.391945
408.000000	9.617105
409.000000	9.858830
410.000000	10.119544
411.000000	10.389434
412.000000	10.666975
413.000000	10.968202
414.000000	11.285538
415.000000	11.615259
416.000000	11.957600
417.000000	12.300659
418.000000	12.658939
419.000000	13.029716
420.000000	13.420013
421.000000	13.822538
422.000000	14.233182
423.000000	14.665903
424.000000	15.092096
425.000000	15.533410
426.000000	15.985074
427.000000	16.442606
428.000000	16.903895
429.000000	17.373573
430.000000	17.851249
431.000000	18.329264
432.000000	18.826608
433.000000	19.318831
434.000000	19.814975
435.000000	20.298861
436.000000	20.784001
437.000000	21.264963
438.000000	21.728140
439.000000	22.187413
440.000000	22.661924
441.000000	23.115775
442.000000	23.564914
443.000000	23.999789
444.000000	24.410936
445.000000	24.813993
446.000000	25.212142
447.000000	25.570392
448.000000	25.935174
449.000000	26.292685
450.000000	26.622971
451.000000	26.936064
452.000000	27.246964
453.000000	27.525898
454.000000	27.801322
455.000000	28.071261
456.000000	28.304350
457.000000	28.550752
458.000000	28.767596
459.000000	28.976307
460.000000	29.179624
461.000000	29.351032
462.000000	29.531551
463.000000	29.705704
464.000000	29.869017
465.000000	30.027703
466.000000	30.172507
467.000000	30.316796
468.000000	30.441633
469.000000	30.577161
470.000000	30.687064
471.000000	30.788155
472.000000	30.903190
473.000000	31.007829
474.000000	31.093853
475.000000	31.198773
476.000000	31.282429
477.000000	31.357793
478.000000	31.448064
479.000000	31.515076
480.000000	31.634290
481.000000	31.732847
482.000000	31.826568
483.000000	31.924541
484.000000	31.994124
485.000000	32.058753
486.000000	32.131143
487.000000	32.200154
488.000000	32.301299
489.000000	32.393389
490.000000	32.496545
491.000000	32.595866
492.000000	32.717164
493.000000	32.864328
494.000000	33.016196
495.000000	33.198020
496.000000	33.401620
497.000000	33.631083
498.000000	33.854308
499.000000	34.135238
500.000000	34.462795
501.000000	34.785929
502.000000	35.148966
503.000000	35.547415
504.000000	35.973972
505.000000	36.419031
506.000000	36.898646
507.000000	37.391695
508.000000	37.909649
509.000000	38.466357
510.000000	39.053682
511.000000	39.659192
512.000000	40.291385
513.000000	40.931432
514.000000	41.599205
515.000000	42.280604
516.000000	42.979979
517.000000	43.684011
518.000000	44.389270
519.000000	45.107682
520.000000	45.811701
521.000000	46.520505
522.000000	47.223139
523.000000	47.905749
524.000000	48.578416
525.000000	49.246916
526.000000	49.901751
527.000000	50.519940
528.000000	51.137919
529.000000	51.739131
530.000000	52.319063
531.000000	52.910944
532.000000	53.481125
533.000000	54.035834
534.000000	54.602120
535.000000	55.128874
536.000000	55.668675
537.000000	56.195282
538.000000	56.705489
539.000000	57.217164
540.000000	57.721000
541.000000	58.234269
542.000000	58.749718
543.000000	59.258889
544.000000	59.742067
545.000000	60.218929
546.000000	60.700894
547.000000	61.171926
548.000000	61.635488
549.000000	62.092304
550.000000	62.536402
551.000000	62.984380
552.000000	63.441856
553.000000	63.833614
554.000000	64.249909
555.000000	64.638699
556.000000	65.010120
557.000000	65.375753
558.000000	65.706930
559.000000	66.026565
560.000000	66.342078
561.000000	66.633416
562.000000	66.917599
563.000000	67.162711
564.000000	67.404886
565.000000	67.621812
566.000000	67.854414
567.000000	68.059480
568.000000	68.259363
569.000000	68.416170
570.000000	68.565132
571.000000	68.706753
572.000000	68.825736
573.000000	68.917134
574.000000	69.037521
575.000000	69.132535
576.000000	69.189575
577.000000	69.254076
578.000000	69.296696
579.000000	69.344680
580.000000	69.360395
581.000000	69.376085
582.000000	69.348142
583.000000	69.305379
584.000000	69.258191
585.000000	69.224733
586.000000	69.148898
587.000000	69.069524
588.000000	68.963266
589.000000	68.876653
590.000000	68.762294
591.000000	68.623958
592.000000	68.450850
593.000000	68.282227
594.000000	68.091302
595.000000	67.904279
596.000000	67.676710
597.000000	67.459617
598.000000	67.246760
599.000000	67.027893
600.000000	66.775796
601.000000	66.501987
602.000000	66.209188
603.000000	65.919817
604.000000	65.611152
605.000000	65.308077
606.000000	65.000806
607.000000	64.699026
608.000000	64.378847
609.000000	64.086131
610.000000	63.788011
611.000000	63.508933
612.000000	63.207632
613.000000	62.932970
614.000000	62.663353
615.000000	62.407126
616.000000	62.160200
617.000000	61.925030
618.000000	61.679800
619.000000	61.453664
620.000000	61.278448
621.000000	61.095272
622.000000	60.934880
623.000000	60.802556
624.000000	60.661616
625.000000	60.532448
626.000000	60.436317
627.000000	60.358371
628.000000	60.302912
629.000000	60.245275
630.000000	60.215497
631.000000	60.185638
632.000000	60.200042
633.000000	60.212328
634.000000	60.254295
635.000000	60.297312
636.000000	60.369967
637.000000	60.470797
638.000000	60.595457
639.000000	60.732450
640.000000	60.864902
641.000000	61.014458
642.000000	61.192329
643.000000	61.365523
644.000000	61.545721
645.000000	61.711352
646.000000	61.877467
647.000000	62.041293
648.000000	62.209644
649.000000	62.367572
650.000000	62.538734
651.000000	62.713680
652.000000	62.859543
653.000000	63.009654
654.000000	63.182530
655.000000	63.354990
656.000000	63.538913
657.000000	63.730600
658.000000	63.938536
659.000000	64.127710
660.000000	64.350042
661.000000	64.543659
662.000000	64.717651
663.000000	64.924043
664.000000	65.120271
665.000000	65.320756
666.000000	65.520100
667.000000	65.684215
668.000000	65.852901
669.000000	66.025330
670.000000	66.229430
671.000000	66.416988
672.000000	66.621208
673.000000	66.841187
674.000000	67.070351
675.000000	67.307315
676.000000	67.537171
677.000000	67.836225
678.000000	68.136592
679.000000	68.431367
680.000000	68.781337
681.000000	69.137561
682.000000	69.472766
683.000000	69.841538
684.000000	70.195699
685.000000	70.584769
686.000000	71.020957
687.000000	71.407764
688.000000	71.801431
689.000000	72.213389
690.000000	72.624569
691.000000	73.032213
692.000000	73.473186
693.000000	73.874082
694.000000	74.281951
695.000000	74.720861
696.000000	75.162781
697.000000	75.609037
698.000000	76.021179
699.000000	76.454654
700.000000	76.920641
701.000000	77.371819
702.000000	77.806361
703.000000	78.238654
704.000000	78.695089
705.000000	79.116980
706.000000	79.511473
707.000000	79.945849
708.000000	80.383849
709.000000	80.752145
710.000000	81.135900
711.000000	81.512496
712.000000	81.878012
713.000000	82.227458
714.000000	82.580569
715.000000	82.922983
716.000000	83.289337
717.000000	83.625842
718.000000	83.946574
719.000000	84.280133
720.000000	84.617509
721.000000	84.940042
722.000000	85.258229
723.000000	85.601721
724.000000	85.896158
725.000000	86.211056
726.000000	86.556001
727.000000	86.849164
728.000000	87.118249
729.000000	87.453132
730.000000	87.702228
731.000000	88.036936
732.000000	88.285445
733.000000	88.586425
734.000000	88.774784
735.000000	89.029562
736.000000	89.281725
737.000000	89.527522
738.000000	89.768147
739.000000	89.987613
740.000000	90.282639
741.000000	90.532260
742.000000	90.744551
743.000000	91.038476
744.000000	91.249394
745.000000	91.476226
746.000000	91.692121
747.000000	91.900198
748.000000	92.123017
749.000000	92.298532
750.000000	92.523229
751.000000	92.749065
752.000000	92.945031
753.000000	93.117133
754.000000	93.375697
755.000000	93.554882
756.000000	93.698052
757.000000	93.902602
758.000000	94.106429
759.000000	94.252181
760.000000	94.510119
761.000000	94.622440
762.000000	94.822725
763.000000	94.959425
764.000000	95.054228
765.000000	95.231539
766.000000	95.345716
767.000000	95.564125
768.000000	95.704549
769.000000	95.861995
770.000000	96.032246
771.000000	96.124201
772.000000	96.278338
773.000000	96.392546
774.000000	96.448874
775.000000	96.616316
776.000000	96.791412
777.000000	96.814372
778.000000	96.955840
779.000000	97.081202
780.000000	97.121755
781.000000	97.203007
782.000000	97.337183
783.000000	97.339777
784.000000	97.431745
785.000000	97.565970
786.000000	97.574787
787.000000	97.595172
788.000000	97.551467
789.000000	97.640683
790.000000	97.701462
791.000000	97.564516
792.000000	97.650473
793.000000	97.619567
794.000000	97.570917
795.000000	97.504936
796.000000	97.445710
797.000000	97.440260
798.000000	97.422915
799.000000	97.399702
800.000000	97.319395
801.000000	97.100795
802.000000	96.952273
803.000000	96.951797
804.000000	96.804214
805.000000	96.675887
806.000000	96.638584
807.000000	96.445579
808.000000	96.221543
809.000000	96.102697
810.000000	95.952354
811.000000	95.747275
812.000000	95.615263
813.000000	95.381493
814.000000	95.031541
815.000000	94.896533
816.000000	94.658231
817.000000	94.452658
818.000000	94.235428
819.000000	93.997661
820.000000	93.624927
821.000000	93.336248
822.000000	93.046011
823.000000	92.712161
824.000000	92.456940
825.000000	92.080095
826.000000	91.883184
827.000000	91.668768
828.000000	91.228392
829.000000	91.066757
830.000000	90.708493
831.000000	90.423906
832.000000	90.156009
833.000000	89.818348
834.000000	89.344832
835.000000	89.141699
836.000000	88.862051
837.000000	88.390062
838.000000	88.073202
839.000000	87.704466
840.000000	87.357476
841.000000	87.044526
842.000000	86.737349
843.000000	86.408978
844.000000	86.133006
845.000000	85.653753
846.000000	85.320204
847.000000	85.147358
848.000000	84.808493
849.000000	84.305314
850.000000	84.103630
851.000000	83.691147
852.000000	83.307795
853.000000	83.074301
854.000000	82.697487
855.000000	82.384623
856.000000	82.133532
857.000000	81.828307
858.000000	81.037433
859.000000	82.166100
860.000000	81.979333
861.000000	81.964667
862.000000	81.654967
863.000000	81.570467
864.000000	81.265067
865.000000	80.847167
866.000000	80.460500
867.000000	80.426533
868.000000	80.322467
869.000000	80.127300
870.000000	79.938033
871.000000	79.552633
872.000000	79.209400
873.000000	79.148100
874.000000	79.091867
875.000000	78.824367
876.000000	78.482800
877.000000	78.095867
878.000000	78.099900
879.000000	77.789967
880.000000	77.425600
881.000000	77.448633
882.000000	77.371000
883.000000	77.130233
884.000000	76.919800
885.000000	76.686233
886.000000	76.453033
887.000000	76.159733
888.000000	75.938033
889.000000	75.892833
890.000000	75.726500
891.000000	75.510467
892.000000	75.240333
893.000000	75.061067
894.000000	74.862300
895.000000	74.619400
896.000000	74.409333
897.000000	74.381967
898.000000	74.117833
899.000000	73.697833
900.000000	73.538233
901.000000	73.335300
902.000000	73.199233
903.000000	73.044633
904.000000	72.785967
905.000000	72.490400
906.000000	72.281133
907.000000	72.158500
908.000000	71.936600
909.000000	71.633133
910.000000	71.453500
911.000000	71.350400
912.000000	71.295267
913.000000	71.128267
914.000000	70.866067
915.000000	70.677700
916.000000	70.533967
917.000000	70.411833
918.000000	70.282133
919.000000	70.117967
920.000000	69.954667
921.000000	69.699067
922.000000	69.523967
923.000000	69.472333
924.000000	69.259000
925.000000	69.073700
926.000000	68.974600
927.000000	68.834333
928.000000	68.687133
929.000000	68.501167
930.000000	68.336700
931.000000	68.259533
932.000000	68.203900
933.000000	68.061633
934.000000	67.945200
935.000000	67.821500
936.000000	67.635600
937.000000	67.469467
938.000000	67.326333
939.000000	67.205567
940.000000	67.063367
941.000000	66.955067
942.000000	66.852600
943.000000	66.732067
944.000000	66.573267
945.000000	66.409300
946.000000	66.302600
947.000000	66.183733
948.000000	66.017133
949.000000	65.923733
950.000000	65.832167
951.000000	65.706733
952.000000	65.582467
953.000000	65.434600
954.000000	65.352833
955.000000	65.228167
956.000000	65.093000
957.000000	64.959433
958.000000	64.837033
959.000000	64.717667
960.000000	64.627500
961.000000	64.490167
962.000000	64.376433
963.000000	64.271033
964.000000	64.143900
965.000000	64.017133
966.000000	63.912500
967.000000	63.784633
968.000000	63.707100
969.000000	63.616233
970.000000	63.495167
971.000000	63.422633
972.000000	63.349767
973.000000	63.250367
974.000000	63.152167
975.000000	63.064367
976.000000	62.963033
977.000000	62.930667
978.000000	62.855733
979.000000	62.782533
980.000000	62.707900
981.000000	62.664800
982.000000	62.574433
983.000000	62.518567
984.000000	62.476667
985.000000	62.414733
986.000000	62.350633
987.000000	62.305700
988.000000	62.260233
989.000000	62.188233
990.000000	62.146533
991.000000	62.136300
992.000000	62.075733
993.000000	62.015100
994.000000	61.958067
995.000000	61.927733
996.000000	61.890233
997.000000	61.878433
998.000000	61.827767
999.000000	61.780333
1000.000000	61.751333
1001.000000	61.723233
1002.000000	61.707133
1003.000000	61.683933
1004.000000	61.657000
1005.000000	61.607400
1006.000000	61.562067
1007.000000	61.551900
1008.000000	61.532700
1009.000000	61.508700
1010.000000	61.496033
1011.000000	61.488833
1012.000000	61.445633
1013.000000	61.458400
1014.000000	61.458000
1015.000000	61.462133
1016.000000	61.476733
1017.000000	61.492967
1018.000000	61.515167
1019.000000	61.544867
1020.000000	61.576367
1021.000000	61.643100
1022.000000	61.680000
1023.000000	61.705733
1024.000000	61.751600
1025.000000	61.815333
1026.000000	61.866633
1027.000000	61.930833
1028.000000	61.965033
1029.000000	62.035900
1030.000000	62.080067
1031.000000	62.144800
1032.000000	62.207433
1033.000000	62.243933
1034.000000	62.304767
1035.000000	62.349033
1036.000000	62.411967
1037.000000	62.461300
1038.000000	62.523167
1039.000000	62.613767
1040.000000	62.641733
1041.000000	62.697867
1042.000000	62.774033
1043.000000	62.842133
1044.000000	62.868767
1045.000000	62.931333
1046.000000	62.987700
1047.000000	63.084367
1048.000000	63.130300
1049.000000	63.190200
1050.000000	63.270367
1051.000000	63.344100
1052.000000	63.395300
1053.000000	63.465700
1054.000000	63.543333
1055.000000	63.594533
1056.000000	63.692600
1057.000000	63.780600
1058.000000	63.872000
1059.000000	63.910233
1060.000000	63.989267
1061.000000	64.065767
1062.000000	64.121400
1063.000000	64.211367
1064.000000	64.259667
1065.000000	64.338067
1066.000000	64.395733
1067.000000	64.506867
1068.000000	64.561000
1069.000000	64.630833
1070.000000	64.688500
1071.000000	64.765633
1072.000000	64.839733
1073.000000	64.901700
1074.000000	64.992667
1075.000000	65.042967
1076.000000	65.120567
1077.000000	65.189833
1078.000000	65.268200
1079.000000	65.329567
1080.000000	65.413000
1081.000000	65.489467
1082.000000	65.527300
1083.000000	65.607567
1084.000000	65.678200
1085.000000	65.756167
1086.000000	65.843800
1087.000000	65.899367
1088.000000	65.979000
1089.000000	66.047133
1090.000000	66.124000
1091.000000	66.196433
1092.000000	66.277400
1093.000000	66.332500
1094.000000	66.398067
1095.000000	66.441733
1096.000000	66.509067
1097.000000	66.570700
1098.000000	66.647167
1099.000000	66.686000
1100.000000	66.749167
1101.000000	66.809233
1102.000000	66.842000
1103.000000	66.909033
1104.000000	66.954100
1105.000000	67.006833
1106.000000	67.047533
1107.000000	67.095233
1108.000000	67.143200
1109.000000	67.193000
1110.000000	67.226933
1111.000000	67.273733
1112.000000	67.323500
1113.000000	67.364700
1114.000000	67.398833
1115.000000	67.441567
1116.000000	67.477500
1117.000000	67.518500
1118.000000	67.552900
1119.000000	67.576767
1120.000000	67.574033
1121.000000	67.578133
1122.000000	67.594867
1123.000000	67.594233
1124.000000	67.555633
1125.000000	67.524067
1126.000000	67.482000
1127.000000	67.418333
1128.000000	67.344300
1129.000000	67.248867
1130.000000	67.107733
1131.000000	66.922467
1132.000000	66.720733
1133.000000	66.515267
1134.000000	66.338600
1135.000000	66.136833
1136.000000	65.842833
1137.000000	65.555567
1138.000000	65.276467
1139.000000	65.015767
1140.000000	64.793400
1141.000000	64.565067
1142.000000	64.329933
1143.000000	64.110300
1144.000000	63.920767
1145.000000	63.755133
1146.000000	63.628167
1147.000000	63.558767
1148.000000	63.499333
1149.000000	63.501067
1150.000000	63.513300
1151.000000	63.504667
1152.000000	63.492433
1153.000000	63.455867
1154.000000	63.381433
1155.000000	63.272933
1156.000000	63.138633
1157.000000	62.942933
1158.000000	62.741433
1159.000000	62.513633
1160.000000	62.273100
1161.000000	62.008633
1162.000000	61.741200
1163.000000	61.465533
1164.000000	61.195133
1165.000000	60.916633
1166.000000	60.648267
1167.000000	60.395733
1168.000000	60.143333
1169.000000	59.899267
1170.000000	59.649000
1171.000000	59.390367
1172.000000	59.163833
1173.000000	58.943033
1174.000000	58.714967
1175.000000	58.509167
1176.000000	58.299400
1177.000000	58.075267
1178.000000	57.811700
1179.000000	57.520633
1180.000000	57.181833
1181.000000	56.839200
1182.000000	56.492100
1183.000000	56.184567
1184.000000	55.944933
1185.000000	55.799000
1186.000000	55.730133
1187.000000	55.766833
1188.000000	55.919400
1189.000000	56.131900
1190.000000	56.418333
1191.000000	56.753600
1192.000000	57.121567
1193.000000	57.470067
1194.000000	57.767433
1195.000000	58.027433
1196.000000	58.244767
1197.000000	58.415833
1198.000000	58.556400
1199.000000	58.657733
1200.000000	58.750700
1201.000000	58.817100
1202.000000	58.876867
1203.000000	58.918133
1204.000000	58.963367
1205.000000	59.012667
1206.000000	59.069867
1207.000000	59.144267
1208.000000	59.231800
1209.000000	59.328367
1210.000000	59.420500
1211.000000	59.522533
1212.000000	59.629533
1213.000000	59.740900
1214.000000	59.849267
1215.000000	59.955500
1216.000000	60.067433
1217.000000	60.188433
1218.000000	60.316300
1219.000000	60.454367
1220.000000	60.592567
1221.000000	60.727033
1222.000000	60.863133
1223.000000	61.015033
1224.000000	61.167467
1225.000000	61.317933
1226.000000	61.470800
1227.000000	61.617733
1228.000000	61.765900
1229.000000	61.920033
1230.000000	62.074567
1231.000000	62.228633
1232.000000	62.377500
1233.000000	62.534467
1234.000000	62.676300
1235.000000	62.812200
1236.000000	62.954967
1237.000000	63.101533
1238.000000	63.238900
1239.000000	63.362600
1240.000000	63.484300
1241.000000	63.619800
1242.000000	63.754900
1243.000000	63.879000
1244.000000	63.996067
1245.000000	64.115267
1246.000000	64.226867
1247.000000	64.335133
1248.000000	64.437367
1249.000000	64.525600
1250.000000	64.621033
1251.000000	64.699167
1252.000000	64.771500
1253.000000	64.853833
1254.000000	64.916633
1255.000000	64.979367
1256.000000	65.025233
1257.000000	65.088200
1258.000000	65.141533
1259.000000	65.183267
1260.000000	65.223467
1261.000000	65.271700
1262.000000	65.310100
1263.000000	65.347833
1264.000000	65.397867
1265.000000	65.444867
1266.000000	65.485167
1267.000000	65.517200
1268.000000	65.562200
1269.000000	65.605833
1270.000000	65.628067
1271.000000	65.655700
1272.000000	65.683700
1273.000000	65.730333
1274.000000	65.772567
1275.000000	65.808000
1276.000000	65.844967
1277.000000	65.906100
1278.000000	65.960467
1279.000000	66.016067
1280.000000	66.069133
1281.000000	66.126633
1282.000000	66.190133
1283.000000	66.247933
1284.000000	66.302833
1285.000000	66.361533
1286.000000	66.430067
1287.000000	66.476133
1288.000000	66.527133
1289.000000	66.590067
1290.000000	66.624733
1291.000000	66.656867
1292.000000	66.676433
1293.000000	66.698167
1294.000000	66.725900
1295.000000	66.749633
1296.000000	66.763000
1297.000000	66.769800
1298.000000	66.775067
1299.000000	66.780167
1300.000000	66.773433
1301.000000	66.778300
1302.000000	66.768400
1303.000000	66.763633
1304.000000	66.761167
1305.000000	66.744700
1306.000000	66.719833
1307.000000	66.690967
1308.000000	66.651833
1309.000000	66.612300
1310.000000	66.567100
1311.000000	66.515100
1312.000000	66.451533
1313.000000	66.395800
1314.000000	66.325233
1315.000000	66.263967
1316.000000	66.189400
1317.000000	66.104233
1318.000000	66.014300
1319.000000	65.931133
1320.000000	65.836767
1321.000000	65.754900
1322.000000	65.654567
1323.000000	65.543233
1324.000000	65.426500
1325.000000	65.316800
1326.000000	65.185967
1327.000000	65.066600
1328.000000	64.937567
1329.000000	64.796333
1330.000000	64.644967
1331.000000	64.483633
1332.000000	64.315833
1333.000000	64.141767
1334.000000	63.955633
1335.000000	63.757267
1336.000000	63.556533
1337.000000	63.350700
1338.000000	63.135000
1339.000000	62.917400
1340.000000	62.672333
1341.000000	62.422900
1342.000000	62.172467
1343.000000	61.914633
1344.000000	61.653633
1345.000000	61.343267
1346.000000	61.025500
1347.000000	60.735200
1348.000000	60.427967
1349.000000	60.038433
1350.000000	59.648000
1351.000000	59.231300
1352.000000	58.784733
1353.000000	58.341100
1354.000000	57.957367
1355.000000	57.615400
1356.000000	57.279067
1357.000000	57.046533
1358.000000	56.888633
1359.000000	56.773833
1360.000000	56.700133
1361.000000	56.754100
1362.000000	56.727433
1363.000000	56.469967
1364.000000	56.319800
1365.000000	56.217200
1366.000000	55.969867
1367.000000	55.803500
1368.000000	55.623800
1369.000000	55.334000
1370.000000	55.081067
1371.000000	54.848900
1372.000000	54.542833
1373.000000	54.200767
1374.000000	53.915567
1375.000000	53.684433
1376.000000	53.540767
1377.000000	53.369333
1378.000000	53.229000
1379.000000	53.116733
1380.000000	53.028733
1381.000000	52.857633
1382.000000	52.657933
1383.000000	52.342900
1384.000000	51.931067
1385.000000	51.545000
1386.000000	51.047000
1387.000000	50.722900
1388.000000	50.473367
1389.000000	50.114867
1390.000000	49.786367
1391.000000	49.564800
1392.000000	49.388167
1393.000000	49.126533
1394.000000	48.920867
1395.000000	48.814167
1396.000000	48.620500
1397.000000	48.270567
1398.000000	47.908500
1399.000000	47.685000
1400.000000	47.524700
1401.000000	47.198667
1402.000000	46.713500
1403.000000	46.297467
1404.000000	45.990567
1405.000000	45.625433
1406.000000	45.193033
1407.000000	44.792433
1408.000000	44.395833
1409.000000	44.054667
1410.000000	43.702433
1411.000000	43.309800
1412.000000	42.967567
1413.000000	42.717733
1414.000000	42.493367
1415.000000	42.197467
1416.000000	41.857967
1417.000000	41.574000
1418.000000	41.351767
1419.000000	41.142400
1420.000000	40.879833
1421.000000	40.572500
1422.000000	40.314467
1423.000000	40.114800
1424.000000	39.873033
1425.000000	39.622033
1426.000000	39.384200
1427.000000	39.169900
1428.000000	38.989933
1429.000000	38.793100
1430.000000	38.617000
1431.000000	38.443833
1432.000000	38.313167
1433.000000	38.162433
1434.000000	37.994600
1435.000000	37.850800
1436.000000	37.712033
1437.000000	37.597667
1438.000000	37.471600
1439.000000	37.329133
1440.000000	37.196033
1441.000000	37.066967
1442.000000	36.950133
1443.000000	36.806200
1444.000000	36.669567
1445.000000	36.581633
1446.000000	36.469333
1447.000000	36.335367
1448.000000	36.211033
1449.000000	36.092200
1450.000000	36.017800
1451.000000	35.925067
1452.000000	35.804967
1453.000000	35.685933
1454.000000	35.564600
1455.000000	35.467733
1456.000000	35.385767
1457.000000	35.284900
1458.000000	35.202233
1459.000000	35.107900
1460.000000	35.039667
1461.000000	34.963300
1462.000000	34.887000
1463.000000	34.807500
1464.000000	34.746600
1465.000000	34.684933
1466.000000	34.625433
1467.000000	34.564533
1468.000000	34.503933
1469.000000	34.445667
1470.000000	34.407400
1471.000000	34.375667
1472.000000	34.324200
1473.000000	34.261233
1474.000000	34.204367
1475.000000	34.157567
1476.000000	34.110967
1477.000000	34.066233
1478.000000	34.027000
1479.000000	33.987100
1480.000000	33.967433
1481.000000	33.951100
1482.000000	33.933500
1483.000000	33.899600
1484.000000	33.884867
1485.000000	33.872200
1486.000000	33.867067
1487.000000	33.873333
1488.000000	33.863933
1489.000000	33.850300
1490.000000	33.848833
1491.000000	33.844667
1492.000000	33.842600
1493.000000	33.836900
1494.000000	33.841767
1495.000000	33.846900
1496.000000	33.861300
1497.000000	33.884400
1498.000000	33.903233
1499.000000	33.915800
1500.000000	33.946200
1501.000000	33.987833
1502.000000	34.020433
1503.000000	34.059367
1504.000000	34.101367
1505.000000	34.156167
1506.000000	34.197100
1507.000000	34.243967
1508.000000	34.286867
1509.000000	34.352633
1510.000000	34.404200
1511.000000	34.440633
1512.000000	34.501167
1513.000000	34.555567
1514.000000	34.598667
1515.000000	34.646600
1516.000000	34.695067
1517.000000	34.754633
1518.000000	34.788667
1519.000000	34.831767
1520.000000	34.875867
1521.000000	34.915700
1522.000000	34.951467
1523.000000	34.988733
1524.000000	35.038067
1525.000000	35.088567
1526.000000	35.119700
1527.000000	35.143367
1528.000000	35.181967
1529.000000	35.215067
1530.000000	35.243867
1531.000000	35.281867
1532.000000	35.309833
1533.000000	35.324667
1534.000000	35.346600
1535.000000	35.375100
1536.000000	35.388100
1537.000000	35.407767
1538.000000	35.417100
1539.000000	35.420133
1540.000000	35.446300
1541.000000	35.448800
1542.000000	35.465700
1543.000000	35.478333
1544.000000	35.498133
1545.000000	35.538967
1546.000000	35.557600
1547.000000	35.589867
1548.000000	35.620000
1549.000000	35.662600
1550.000000	35.717800
1551.000000	35.748967
1552.000000	35.775567
1553.000000	35.803900
1554.000000	35.831100
1555.000000	35.860767
1556.000000	35.867967
1557.000000	35.894033
1558.000000	35.904767
1559.000000	35.889800
1560.000000	35.893400
1561.000000	35.878633
1562.000000	35.854433
1563.000000	35.849533
1564.000000	35.816300
1565.000000	35.803067
1566.000000	35.757967
1567.000000	35.724300
1568.000000	35.697800
1569.000000	35.666667
1570.000000	35.638133
1571.000000	35.604767
1572.000000	35.597700
1573.000000	35.598300
1574.000000	35.589867
1575.000000	35.570633
1576.000000	35.563100
1577.000000	35.569267
1578.000000	35.590100
1579.000000	35.592633
1580.000000	35.604300
1581.000000	35.634633
1582.000000	35.656867
1583.000000	35.683633
1584.000000	35.717300
1585.000000	35.735933
1586.000000	35.792000
1587.000000	35.841000
1588.000000	35.877600
1589.000000	35.924400
1590.000000	35.984867
1591.000000	36.019267
1592.000000	36.107067
1593.000000	36.127333
1594.000000	36.168733
1595.000000	36.234100
1596.000000	36.297367
1597.000000	36.372500
1598.000000	36.437800
1599.000000	36.512400
1600.000000	36.577100
1601.000000	36.637933
1602.000000	36.731467
1603.000000	36.799033
1604.000000	36.867833
1605.000000	36.963167
1606.000000	37.035167
1607.000000	37.117700
1608.000000	37.186667
1609.000000	37.243367
1610.000000	37.309633
1611.000000	37.407967
1612.000000	37.472500
1613.000000	37.535733
1614.000000	37.613667
1615.000000	37.667700
1616.000000	37.732767
1617.000000	37.801867
1618.000000	37.875633
1619.000000	37.941400
1620.000000	38.013533
1621.000000	38.085233
1622.000000	38.150400
1623.000000	38.252233
1624.000000	38.315733
1625.000000	38.387167
1626.000000	38.455967
1627.000000	38.549867
1628.000000	38.617467
1629.000000	38.686433
1630.000000	38.769433
1631.000000	38.840667
1632.000000	38.921833
1633.000000	38.985033
1634.000000	39.050100
1635.000000	39.124667
1636.000000	39.169767
1637.000000	39.229700
1638.000000	39.288067
1639.000000	39.335667
1640.000000	39.395400
1641.000000	39.429867
1642.000000	39.485033
1643.000000	39.523200
1644.000000	39.569733
1645.000000	39.603200
1646.000000	39.645733
1647.000000	39.692633
1648.000000	39.714600
1649.000000	39.735033
1650.000000	39.773133
1651.000000	39.793333
1652.000000	39.790267
1653.000000	39.806400
1654.000000	39.794767
1655.000000	39.781333
1656.000000	39.762467
1657.000000	39.739500
1658.000000	39.685467
1659.000000	39.628467
1660.000000	39.560000
1661.000000	39.478767
1662.000000	39.391267
1663.000000	39.309033
1664.000000	39.194767
1665.000000	39.079700
1666.000000	38.946533
1667.000000	38.799833
1668.000000	38.617033
1669.000000	38.448100
1670.000000	38.244133
1671.000000	38.004400
1672.000000	37.770967
1673.000000	37.498967
1674.000000	37.206333
1675.000000	36.875000
1676.000000	36.492167
1677.000000	36.054200
1678.000000	35.577533
1679.000000	35.047933
1680.000000	34.514900
1681.000000	34.016400
1682.000000	33.545867
1683.000000	33.196933
1684.000000	32.952967
1685.000000	32.781233
1686.000000	32.695167
1687.000000	32.633633
1688.000000	32.577967
1689.000000	32.512167
1690.000000	32.422133
1691.000000	32.288000
1692.000000	32.162533
1693.000000	32.056033
1694.000000	31.966900
1695.000000	31.925700
1696.000000	31.939733
1697.000000	31.987333
1698.000000	32.082367
1699.000000	32.229200
1700.000000	32.345333
1701.000000	32.455267
1702.000000	32.587433
1703.000000	32.682567
1704.000000	32.740167
1705.000000	32.775600
1706.000000	32.799267
1707.000000	32.812333
1708.000000	32.797267
1709.000000	32.765800
1710.000000	32.731800
1711.000000	32.669333
1712.000000	32.599167
1713.000000	32.511367
1714.000000	32.388267
1715.000000	32.257567
1716.000000	32.120533
1717.000000	31.995733
1718.000000	31.862967
1719.000000	31.734567
1720.000000	31.636833
1721.000000	31.576667
1722.000000	31.522733
1723.000000	31.465267
1724.000000	31.412900
1725.000000	31.358133
1726.000000	31.314667
1727.000000	31.260700
1728.000000	31.193400
1729.000000	31.111600
1730.000000	31.018867
1731.000000	30.952933
1732.000000	30.910333
1733.000000	30.882900
1734.000000	30.906433
1735.000000	30.966733
1736.000000	31.067833
1737.000000	31.216767
1738.000000	31.390367
1739.000000	31.615767
1740.000000	31.842600
1741.000000	32.079467
1742.000000	32.306800
1743.000000	32.509267
1744.000000	32.693700
1745.000000	32.869533
1746.000000	33.017067
1747.000000	33.126833
1748.000000	33.213833
1749.000000	33.296867
1750.000000	33.362767
1751.000000	33.402300
1752.000000	33.440867
1753.000000	33.463300
1754.000000	33.454900
1755.000000	33.434300
1756.000000	33.396700
1757.000000	33.363400
1758.000000	33.318867
1759.000000	33.262833
1760.000000	33.213400
1761.000000	33.172533
1762.000000	33.137167
1763.000000	33.126200
1764.000000	33.154533
1765.000000	33.214333
1766.000000	33.276433
1767.000000	33.368933
1768.000000	33.483033
1769.000000	33.602100
1770.000000	33.720100
1771.000000	33.860700
1772.000000	33.993333
1773.000000	34.099800
1774.000000	34.244133
1775.000000	34.375600
1776.000000	34.465533
1777.000000	34.577767
1778.000000	34.683000
1779.000000	34.762567
1780.000000	34.835500
1781.000000	34.918100
1782.000000	34.990300
1783.000000	35.066267
1784.000000	35.145367
1785.000000	35.213900
1786.000000	35.270400
1787.000000	35.316067
1788.000000	35.351800
1789.000000	35.391100
1790.000000	35.441667
1791.000000	35.501500
1792.000000	35.551433
1793.000000	35.599533
1794.000000	35.631600
1795.000000	35.687400
1796.000000	35.739633
1797.000000	35.774567
1798.000000	35.809267
1799.000000	35.854233
1800.000000	35.929400
1801.000000	35.983333
1802.000000	36.031767
1803.000000	36.036433
1804.000000	36.065067
1805.000000	36.130933
1806.000000	36.196633
1807.000000	36.215867
1808.000000	36.260333
1809.000000	36.289967
1810.000000	36.339667
1811.000000	36.393833
1812.000000	36.444567
1813.000000	36.433400
1814.000000	36.419033
1815.000000	36.471900
1816.000000	36.475933
1817.000000	36.431100
1818.000000	36.438667
1819.000000	36.481667
1820.000000	36.612567
1821.000000	36.635667
1822.000000	36.585033
1823.000000	36.558467
1824.000000	36.496967
1825.000000	36.564567
1826.000000	36.676400
1827.000000	36.743233
1828.000000	36.787133
1829.000000	36.853633
1830.000000	36.901400
1831.000000	37.017933
1832.000000	37.033867
1833.000000	37.050333
1834.000000	37.094633
1835.000000	37.259300
1836.000000	37.468400
1837.000000	37.478767
1838.000000	37.423533
1839.000000	37.451167
1840.000000	37.527400
1841.000000	37.672367
1842.000000	37.725533
1843.000000	37.626033
1844.000000	37.539100
1845.000000	37.539467
1846.000000	37.642933
1847.000000	37.929900
1848.000000	38.049967
1849.000000	37.906433
1850.000000	37.886433
1851.000000	37.847433
1852.000000	37.859433
1853.000000	37.998333
1854.000000	38.048133
1855.000000	37.938233
1856.000000	38.061100
1857.000000	38.024500
1858.000000	37.925267
1859.000000	37.978333
1860.000000	38.044867
1861.000000	37.853100
1862.000000	37.701400
1863.000000	37.652667
1864.000000	37.616267
1865.000000	37.446867
1866.000000	37.299900
1867.000000	37.414800
1868.000000	37.289967
1869.000000	37.063033
1870.000000	36.968400
1871.000000	36.791500
1872.000000	36.433367
1873.000000	36.294033
1874.000000	35.892633
1875.000000	35.492000
1876.000000	35.211167
1877.000000	34.862667
1878.000000	34.443067
1879.000000	33.933633
1880.000000	33.531033
1881.000000	33.111533
1882.000000	32.568767
1883.000000	32.111900
1884.000000	31.720867
1885.000000	31.214967
1886.000000	30.799333
1887.000000	30.308067
1888.000000	29.845467
1889.000000	29.578400
1890.000000	29.168833
1891.000000	28.825167
1892.000000	28.422533
1893.000000	28.044667
1894.000000	27.638000
1895.000000	27.244467
1896.000000	26.914800
1897.000000	26.534033
1898.000000	26.278367
1899.000000	25.974700
1900.000000	25.578067
1901.000000	25.072433
1902.000000	24.723867
1903.000000	24.454467
1904.000000	24.137233
1905.000000	23.910700
1906.000000	23.591067
1907.000000	23.112900
1908.000000	22.719900
1909.000000	22.421100
1910.000000	22.198900
1911.000000	21.972967
1912.000000	21.703567
1913.000000	21.574967
1914.000000	21.265400
1915.000000	20.976667
1916.000000	20.719867
1917.000000	20.428300
1918.000000	20.229367
1919.000000	20.050267
1920.000000	20.054000
1921.000000	19.786633
1922.000000	19.503700
1923.000000	19.403200
1924.000000	19.304600
1925.000000	19.087033
1926.000000	18.976033
1927.000000	18.892033
1928.000000	18.786967
1929.000000	18.631200
1930.000000	18.574400
1931.000000	18.509433
1932.000000	18.414167
1933.000000	18.323333
1934.000000	18.303467
1935.000000	18.265333
1936.000000	18.224567
1937.000000	18.194400
1938.000000	18.203000
1939.000000	18.195600
1940.000000	18.188500
1941.000000	18.193600
1942.000000	18.187467
1943.000000	18.213333
1944.000000	18.283700
1945.000000	18.302967
1946.000000	18.339933
1947.000000	18.447967
1948.000000	18.461733
1949.000000	18.506733
1950.000000	18.561600
1951.000000	18.633100
1952.000000	18.740233
1953.000000	18.813967
1954.000000	18.883067
1955.000000	18.950200
1956.000000	19.000667
1957.000000	19.083233
1958.000000	19.151500
1959.000000	19.271833
1960.000000	19.372133
1961.000000	19.410967
1962.000000	19.462900
1963.000000	19.607800
1964.000000	19.680333
1965.000000	19.711900
1966.000000	19.795000
1967.000000	19.883800
1968.000000	19.955167
1969.000000	20.045367
1970.000000	20.154100
1971.000000	20.221500
1972.000000	20.304600
1973.000000	20.377067
1974.000000	20.431300
1975.000000	20.536433
1976.000000	20.636233
1977.000000	20.712267
1978.000000	20.802367
1979.000000	20.900033
1980.000000	20.997633
1981.000000	21.065400
1982.000000	21.156433
1983.000000	21.277333
1984.000000	21.375233
1985.000000	21.450133
1986.000000	21.510900
1987.000000	21.620467
1988.000000	21.696300
1989.000000	21.746900
1990.000000	21.839167
1991.000000	21.934200
1992.000000	22.008733
1993.000000	22.083300
1994.000000	22.122933
1995.000000	22.208333
1996.000000	22.290300
1997.000000	22.307000
1998.000000	22.351200
1999.000000	22.413433
2000.000000	22.436933
2001.000000	22.476800
2002.000000	22.516233
2003.000000	22.567100
2004.000000	22.591300
2005.000000	22.598367
2006.000000	22.610133
2007.000000	22.610633
2008.000000	22.618067
2009.000000	22.616300
2010.000000	22.609833
2011.000000	22.617200
2012.000000	22.634333
2013.000000	22.633500
2014.000000	22.566700
2015.000000	22.531100
2016.000000	22.510700
2017.000000	22.444033
2018.000000	22.371967
2019.000000	22.337167
2020.000000	22.302033
2021.000000	22.263200
2022.000000	22.203400
2023.000000	22.087233
2024.000000	22.005100
2025.000000	21.981233
2026.000000	21.912300
2027.000000	21.827333
2028.000000	21.753900
2029.000000	21.675667
2030.000000	21.562600
2031.000000	21.467133
2032.000000	21.307367
2033.000000	21.220633
2034.000000	21.149733
2035.000000	21.017400
2036.000000	20.923400
2037.000000	20.752867
2038.000000	20.551700
2039.000000	20.417033
2040.000000	20.294200
2041.000000	20.133800
2042.000000	19.948433
2043.000000	19.815367
2044.000000	19.662433
2045.000000	19.483633
2046.000000	19.335600
2047.000000	19.179800
2048.000000	19.056067
2049.000000	18.939833
2050.000000	18.829033
2051.000000	18.704233
2052.000000	18.623933
2053.000000	18.571233
2054.000000	18.524500
2055.000000	18.584233
2056.000000	18.525533
2057.000000	18.561267
2058.000000	18.590167
2059.000000	18.661300
2060.000000	18.623000
2061.000000	18.587300
2062.000000	18.684633
2063.000000	18.854300
2064.000000	18.937667
2065.000000	18.971133
2066.000000	19.045900
2067.000000	19.056400
2068.000000	19.235533
2069.000000	19.340267
2070.000000	19.385667
2071.000000	19.485267
2072.000000	19.553600
2073.000000	19.649900
2074.000000	19.643200
2075.000000	19.719400
2076.000000	19.789067
2077.000000	19.734700
2078.000000	19.884733
2079.000000	20.075967
2080.000000	19.909733
2081.000000	20.105667
2082.000000	20.223200
2083.000000	20.140767
2084.000000	20.096567
2085.000000	20.155933
2086.000000	20.230167
2087.000000	20.210833
2088.000000	20.200833
2089.000000	20.203867
2090.000000	20.247133
2091.000000	20.285600
2092.000000	20.257900
2093.000000	20.113233
2094.000000	20.064200
2095.000000	20.122700
2096.000000	20.368300
2097.000000	20.375367
2098.000000	20.396800
2099.000000	20.387467
2100.000000	20.375467
2101.000000	20.288467
2102.000000	20.424767
2103.000000	20.421900
2104.000000	20.465600
2105.000000	20.511633
2106.000000	20.498100
2107.000000	20.558033
2108.000000	20.651367
2109.000000	20.642400
2110.000000	20.496100
2111.000000	20.791600
2112.000000	20.682800
2113.000000	20.894100
2114.000000	20.583467
2115.000000	20.797333
2116.000000	20.694200
2117.000000	20.961833
2118.000000	20.680133
2119.000000	20.770400
2120.000000	20.847933
2121.000000	20.825967
2122.000000	20.813100
2123.000000	20.894800
2124.000000	20.863100
2125.000000	20.979100
2126.000000	20.919067
2127.000000	20.847300
2128.000000	20.809400
2129.000000	20.952133
2130.000000	20.718600
2131.000000	20.749967
2132.000000	20.747433
2133.000000	20.749700
2134.000000	20.757700
2135.000000	20.715200
2136.000000	20.565900
2137.000000	20.459767
2138.000000	20.316967
2139.000000	20.438833
2140.000000	20.433267
2141.000000	20.387300
2142.000000	20.148467
2143.000000	20.100133
2144.000000	19.921233
2145.000000	20.040667
2146.000000	20.000467
2147.000000	19.883367
2148.000000	19.593933
2149.000000	19.679067
2150.000000	19.575933
2151.000000	19.584967
2152.000000	19.739767
2153.000000	19.479733
2154.000000	19.335600
2155.000000	19.086900
2156.000000	19.055767
2157.000000	18.932333
2158.000000	18.982533
2159.000000	19.066700
2160.000000	19.029533
2161.000000	18.893200
2162.000000	18.867700
2163.000000	18.704767
2164.000000	18.805667
2165.000000	18.593467
2166.000000	18.492833
2167.000000	18.665033
2168.000000	18.616067
2169.000000	18.637200
2170.000000	18.684467
2171.000000	18.546633
2172.000000	18.510400
2173.000000	18.567167
2174.000000	18.455667
2175.000000	18.457167
2176.000000	18.571133
2177.000000	18.549733
2178.000000	18.571133
2179.000000	18.524500
2180.000000	18.524867
2181.000000	18.494500
2182.000000	18.480367
2183.000000	18.556700
2184.000000	18.686167
2185.000000	18.726200
2186.000000	18.720400
2187.000000	18.643100
2188.000000	18.621400
2189.000000	18.628033
2190.000000	18.643300
2191.000000	18.643833
2192.000000	18.776300
2193.000000	18.536133
2194.000000	18.697300
2195.000000	18.746167
2196.000000	18.841233
2197.000000	18.763233
2198.000000	18.690633
2199.000000	18.733200
2200.000000	18.812367
2201.000000	18.677800
2202.000000	18.812633
2203.000000	18.833967
2204.000000	18.881933
2205.000000	19.034967
2206.000000	19.012633
2207.000000	18.933933
2208.000000	19.116833
2209.000000	19.121900
2210.000000	19.124633
2211.000000	19.130500
2212.000000	19.158733
2213.000000	19.196333
2214.000000	19.273767
2215.000000	19.320867
2216.000000	19.439167
2217.000000	19.570733
2218.000000	19.532333
2219.000000	19.711867
2220.000000	19.794167
2221.000000	19.773167
2222.000000	19.602467
2223.000000	19.758567
2224.000000	19.849267
2225.000000	19.958100
2226.000000	19.910767
2227.000000	19.838900
2228.000000	20.020500
2229.000000	20.002100
2230.000000	19.976367
2231.000000	20.013600
2232.000000	19.976000
2233.000000	19.922533
2234.000000	19.919967
2235.000000	19.889900
2236.000000	19.735167
2237.000000	19.679700
2238.000000	19.673567
2239.000000	19.610200
2240.000000	19.422633
2241.000000	19.280333
2242.000000	19.161200
2243.000000	19.018233
2244.000000	18.945500
2245.000000	18.832067
2246.000000	18.733300
2247.000000	18.578700
2248.000000	18.319433
2249.000000	18.200800
2250.000000	17.879267
2251.000000	17.631100
2252.000000	17.400600
2253.000000	17.128800
2254.000000	16.865133
2255.000000	16.614167
2256.000000	16.293933
2257.000000	15.993100
2258.000000	15.731600
2259.000000	15.480333
2260.000000	15.139500
2261.000000	14.798833
2262.000000	14.553967
2263.000000	14.221767
2264.000000	13.996133
2265.000000	14.070633
2266.000000	14.036800
2267.000000	13.848367
2268.000000	13.762667
2269.000000	13.671500
2270.000000	13.512600
2271.000000	13.575667
2272.000000	13.529100
2273.000000	13.431100
2274.000000	13.611200
2275.000000	13.736333
2276.000000	13.678600
2277.000000	13.715667
2278.000000	13.805300
2279.000000	13.911233
2280.000000	13.816467
2281.000000	13.864133
2282.000000	14.058867
2283.000000	14.038367
2284.000000	14.062667
2285.000000	14.097233
2286.000000	14.148133
2287.000000	14.244733
2288.000000	14.103000
2289.000000	14.184200
2290.000000	14.362367
2291.000000	14.353167
2292.000000	14.071600
2293.000000	13.909400
2294.000000	13.960267
2295.000000	13.844633
2296.000000	13.920633
2297.000000	13.883633
2298.000000	13.784300
2299.000000	13.437167
2300.000000	13.258867
2301.000000	13.209533
2302.000000	13.200700
2303.000000	13.383433
2304.000000	13.196867
2305.000000	12.965800
2306.000000	13.141400
2307.000000	13.250533
2308.000000	13.096600
2309.000000	13.165500
2310.000000	13.222600
2311.000000	13.445833
2312.000000	13.657300
2313.000000	13.493467
2314.000000	13.653467
2315.000000	13.856367
2316.000000	14.095300
2317.000000	14.304400
2318.000000	14.627967
2319.000000	14.649933
2320.000000	14.651200
2321.000000	14.897400
2322.000000	15.022800
2323.000000	14.881900
2324.000000	14.887667
2325.000000	15.079200
2326.000000	15.445567
2327.000000	15.326767
2328.000000	15.305000
2329.000000	15.412067
2330.000000	15.525433
2331.000000	15.557133
2332.000000	15.733900
2333.000000	15.679867
2334.000000	15.685433
2335.000000	15.743400
2336.000000	15.968800
2337.000000	15.850333
2338.000000	15.639233
2339.000000	15.837133
2340.000000	16.025600
2341.000000	16.026967
2342.000000	15.859433
2343.000000	15.888200
2344.000000	15.477833
2345.000000	15.685033
2346.000000	15.631667
2347.000000	15.433767
2348.000000	15.460433
2349.000000	15.325700
2350.000000	15.305833
2351.000000	15.347767
2352.000000	15.735433
2353.000000	15.159167
2354.000000	15.464133
2355.000000	15.666100
2356.000000	15.479767
2357.000000	15.677600
2358.000000	15.835200
2359.000000	15.706667
2360.000000	15.681367
2361.000000	15.986733
2362.000000	16.223300
2363.000000	16.392800
2364.000000	16.680767
2365.000000	16.604667
2366.000000	16.505133
2367.000000	16.245867
2368.000000	16.239000
2369.000000	16.644767
2370.000000	16.679133
2371.000000	16.713867
2372.000000	16.645567
2373.000000	16.557500
2374.000000	16.494067
2375.000000	16.663567
2376.000000	17.006900
2377.000000	17.277100
2378.000000	17.366200
2379.000000	16.787400
2380.000000	16.701367
2381.000000	17.240333
2382.000000	17.130333
2383.000000	17.130633
2384.000000	16.954633
2385.000000	16.882767
2386.000000	17.343767
2387.000000	17.218033
2388.000000	17.704867
2389.000000	17.260867
2390.000000	17.465933
2391.000000	17.190367
2392.000000	16.856267
2393.000000	16.989667
2394.000000	16.927300
2395.000000	17.452567
2396.000000	16.999000
2397.000000	16.952533
2398.000000	16.688833
2399.000000	17.085400
2400.000000	16.713433
2401.000000	14.330500
2402.000000	14.302400
2403.000000	14.268800
2404.000000	14.239600
2405.000000	14.212300
2406.000000	14.160600
2407.000000	14.136700
2408.000000	14.106600
2409.000000	14.070700
2410.000000	14.027400
2411.000000	13.995700
2412.000000	13.959700
2413.000000	13.918200
2414.000000	13.875100
2415.000000	13.847400
2416.000000	13.814600
2417.000000	13.765200
2418.000000	13.693700
2419.000000	13.652100
2420.000000	13.607300
2421.000000	13.575600
2422.000000	13.513100
2423.000000	13.444000
2424.000000	13.386500
2425.000000	13.323600
2426.000000	13.257600
2427.000000	13.171500
2428.000000	13.125000
2429.000000	13.041700
2430.000000	12.958000
2431.000000	12.908800
2432.000000	12.847400
2433.000000	12.762300
2434.000000	12.703500
2435.000000	12.616400
2436.000000	12.530700
2437.000000	12.427200
2438.000000	12.347300
2439.000000	12.259500
2440.000000	12.171000
2441.000000	12.067700
2442.000000	11.980400
2443.000000	11.880500
2444.000000	11.781500
2445.000000	11.683900
2446.000000	11.585600
2447.000000	11.493400
2448.000000	11.396100
2449.000000	11.313600
2450.000000	11.220300
2451.000000	11.115100
2452.000000	11.023200
2453.000000	10.937500
2454.000000	10.869400
2455.000000	10.767600
2456.000000	10.696400
2457.000000	10.615200
2458.000000	10.551900
2459.000000	10.498800
2460.000000	10.457100
2461.000000	10.364900
2462.000000	10.307100
2463.000000	10.279000
2464.000000	10.246600
2465.000000	10.189800
2466.000000	10.159600
2467.000000	10.175400
2468.000000	10.124900
2469.000000	10.119600
2470.000000	10.032400
2471.000000	10.028200
2472.000000	10.029300
2473.000000	10.015100
2474.000000	10.024300
2475.000000	10.001700
2476.000000	10.018000
2477.000000	10.015500
2478.000000	9.954100
2479.000000	9.952500
2480.000000	9.951300
2481.000000	9.994200
2482.000000	9.987800
2483.000000	9.972000
2484.000000	9.974600
2485.000000	10.010500
2486.000000	9.993800
2487.000000	10.044000
2488.000000	10.001800
2489.000000	10.023600
2490.000000	10.100900
2491.000000	10.004900
2492.000000	10.074900
2493.000000	10.080400
2494.000000	10.095200
2495.000000	10.145700
2496.000000	10.178200
2497.000000	10.208600
2498.000000	10.337400
2499.000000	10.205500
2500.000000	10.356700
