PE UV       SUBTECH     SPECTRUM    ASCII       PEDS        4.00        
   -1
CICIMAUCR0158-3.Sample.ASC
24/04/11
14:00:06.00
24/04/11
14:00:06.00
Vinicio Soto Monge
C.cupreomarginata
250,000000
1
Lambda 1050
1050L1511233
PerkinElmer UV WinLab 6.3.2.0749 / 2.02.05 Lambda 900 UV/VIS/NIR, Aug  7 2015 09:38:08

0
0
3350/2 860,8/2
0
0
UV/VIS
1
1
1
DoubleDePol,CommonBeamDepol,RBeamAtt,SBeamAtt,60mm sphere, WB InGaAs Detector
0
0
0
0
Program
Program
3350/2 860,8/2
3350/0,2 860,8/0,2
3350/0,2 860,8/0,2
0
15.00
 
 
 
0
 
860,8
319,2
860,8
Front
100
on
S:100 R:100
0
0
0
0
 
0
 
 
 
0
 
 
0
0
0
0
0
 
 
 
 
0
0


0
0
#HDR
-1
-1
#GR
nm
%R
1.0
0.0
2400,000000
-1,000000
2151
8
47,716700
2,683800
#DATA
250.000000	4.603083
251.000000	4.585351
252.000000	4.552850
253.000000	4.574714
254.000000	4.554185
255.000000	4.545656
256.000000	4.563080
257.000000	4.563836
258.000000	4.536007
259.000000	4.516692
260.000000	4.495074
261.000000	4.480708
262.000000	4.477304
263.000000	4.438484
264.000000	4.439291
265.000000	4.415001
266.000000	4.390632
267.000000	4.373046
268.000000	4.352597
269.000000	4.348057
270.000000	4.334108
271.000000	4.344605
272.000000	4.332349
273.000000	4.317868
274.000000	4.307433
275.000000	4.281946
276.000000	4.260114
277.000000	4.240477
278.000000	4.245452
279.000000	4.240816
280.000000	4.225943
281.000000	4.230243
282.000000	4.219741
283.000000	4.203473
284.000000	4.207208
285.000000	4.219865
286.000000	4.212981
287.000000	4.212059
288.000000	4.203347
289.000000	4.178858
290.000000	4.186947
291.000000	4.209725
292.000000	4.228159
293.000000	4.206115
294.000000	4.247156
295.000000	4.185833
296.000000	4.218601
297.000000	4.208198
298.000000	4.203975
299.000000	4.232660
300.000000	4.218635
301.000000	4.208839
302.000000	4.214591
303.000000	4.217067
304.000000	4.232351
305.000000	4.243277
306.000000	4.230947
307.000000	4.227712
308.000000	4.240381
309.000000	4.261479
310.000000	4.258906
311.000000	4.220134
312.000000	4.267367
313.000000	4.261288
314.000000	4.232217
315.000000	4.292960
316.000000	4.420236
317.000000	4.725118
318.000000	4.676687
319.000000	4.544462
320.000000	4.502071
321.000000	4.580878
322.000000	4.673797
323.000000	4.560551
324.000000	4.540028
325.000000	4.489253
326.000000	4.532282
327.000000	4.501399
328.000000	4.408712
329.000000	4.505343
330.000000	4.559911
331.000000	4.446343
332.000000	4.348987
333.000000	4.360903
334.000000	4.369890
335.000000	4.371427
336.000000	4.384961
337.000000	4.388850
338.000000	4.401239
339.000000	4.403240
340.000000	4.421283
341.000000	4.426201
342.000000	4.460656
343.000000	4.466294
344.000000	4.470055
345.000000	4.453587
346.000000	4.437207
347.000000	4.429836
348.000000	4.434125
349.000000	4.463986
350.000000	4.499254
351.000000	4.535014
352.000000	4.553103
353.000000	4.598943
354.000000	4.577333
355.000000	4.643619
356.000000	4.706400
357.000000	4.683601
358.000000	4.686753
359.000000	4.771825
360.000000	4.901711
361.000000	4.828938
362.000000	4.904062
363.000000	4.956348
364.000000	5.016051
365.000000	5.065141
366.000000	5.138476
367.000000	5.208263
368.000000	5.269491
369.000000	5.338906
370.000000	5.428210
371.000000	5.462561
372.000000	5.516558
373.000000	5.602607
374.000000	5.642586
375.000000	5.835745
376.000000	6.110354
377.000000	6.198259
378.000000	6.317029
379.000000	6.461842
380.000000	6.595012
381.000000	6.743611
382.000000	6.893600
383.000000	7.035405
384.000000	7.190810
385.000000	7.360210
386.000000	7.501894
387.000000	7.660651
388.000000	7.817549
389.000000	7.971424
390.000000	8.122131
391.000000	8.268639
392.000000	8.413702
393.000000	8.550382
394.000000	8.673814
395.000000	8.814214
396.000000	8.933181
397.000000	9.058617
398.000000	9.170857
399.000000	9.287843
400.000000	9.384056
401.000000	9.473278
402.000000	9.562590
403.000000	9.646018
404.000000	9.722103
405.000000	9.793858
406.000000	9.859045
407.000000	9.920373
408.000000	9.973405
409.000000	10.023432
410.000000	10.069357
411.000000	10.111500
412.000000	10.151094
413.000000	10.179040
414.000000	10.209219
415.000000	10.236439
416.000000	10.253564
417.000000	10.259259
418.000000	10.274755
419.000000	10.283184
420.000000	10.288175
421.000000	10.290935
422.000000	10.293928
423.000000	10.298436
424.000000	10.300556
425.000000	10.303529
426.000000	10.312368
427.000000	10.327813
428.000000	10.335138
429.000000	10.358042
430.000000	10.399845
431.000000	10.441451
432.000000	10.490441
433.000000	10.543518
434.000000	10.614493
435.000000	10.701253
436.000000	10.809103
437.000000	10.918957
438.000000	11.029714
439.000000	11.175304
440.000000	11.312029
441.000000	11.461067
442.000000	11.625555
443.000000	11.809263
444.000000	12.013293
445.000000	12.191783
446.000000	12.368075
447.000000	12.558145
448.000000	12.743192
449.000000	12.946448
450.000000	13.132870
451.000000	13.315332
452.000000	13.492197
453.000000	13.679126
454.000000	13.842124
455.000000	13.994093
456.000000	14.150211
457.000000	14.290601
458.000000	14.443016
459.000000	14.566596
460.000000	14.701291
461.000000	14.843475
462.000000	14.976069
463.000000	15.097671
464.000000	15.236489
465.000000	15.372652
466.000000	15.505890
467.000000	15.643638
468.000000	15.795414
469.000000	15.949422
470.000000	16.106855
471.000000	16.271996
472.000000	16.460321
473.000000	16.641212
474.000000	16.837095
475.000000	17.033904
476.000000	17.238390
477.000000	17.453648
478.000000	17.675501
479.000000	17.900269
480.000000	18.144139
481.000000	18.409177
482.000000	18.703132
483.000000	18.981753
484.000000	19.259380
485.000000	19.516701
486.000000	19.788436
487.000000	20.066178
488.000000	20.348290
489.000000	20.651658
490.000000	20.947359
491.000000	21.267830
492.000000	21.560090
493.000000	21.856985
494.000000	22.156353
495.000000	22.472909
496.000000	22.810252
497.000000	23.113247
498.000000	23.431751
499.000000	23.759106
500.000000	24.103963
501.000000	24.452095
502.000000	24.790872
503.000000	25.153631
504.000000	25.515878
505.000000	25.881915
506.000000	26.265359
507.000000	26.647127
508.000000	27.047191
509.000000	27.466316
510.000000	27.905490
511.000000	28.348181
512.000000	28.808291
513.000000	29.280828
514.000000	29.757367
515.000000	30.227760
516.000000	30.708617
517.000000	31.201047
518.000000	31.694731
519.000000	32.204238
520.000000	32.714833
521.000000	33.230282
522.000000	33.762337
523.000000	34.274881
524.000000	34.796318
525.000000	35.326037
526.000000	35.852126
527.000000	36.364642
528.000000	36.864367
529.000000	37.359620
530.000000	37.876092
531.000000	38.362440
532.000000	38.849249
533.000000	39.340919
534.000000	39.812409
535.000000	40.260730
536.000000	40.696122
537.000000	41.098375
538.000000	41.486867
539.000000	41.842388
540.000000	42.185096
541.000000	42.497203
542.000000	42.799390
543.000000	43.061635
544.000000	43.310947
545.000000	43.534741
546.000000	43.736107
547.000000	43.932019
548.000000	44.086424
549.000000	44.219623
550.000000	44.345476
551.000000	44.474039
552.000000	44.560113
553.000000	44.625281
554.000000	44.666772
555.000000	44.722517
556.000000	44.765973
557.000000	44.801943
558.000000	44.781099
559.000000	44.747752
560.000000	44.640283
561.000000	44.626703
562.000000	44.582342
563.000000	44.550186
564.000000	44.511840
565.000000	44.466740
566.000000	44.426580
567.000000	44.371570
568.000000	44.311530
569.000000	44.236462
570.000000	44.158734
571.000000	44.079320
572.000000	43.994526
573.000000	43.915207
574.000000	43.826733
575.000000	43.749816
576.000000	43.638240
577.000000	43.539466
578.000000	43.452939
579.000000	43.336162
580.000000	43.215987
581.000000	43.079230
582.000000	42.972705
583.000000	42.841494
584.000000	42.701960
585.000000	42.578117
586.000000	42.429697
587.000000	42.328140
588.000000	42.207811
589.000000	42.093233
590.000000	41.962766
591.000000	41.850446
592.000000	41.737530
593.000000	41.607716
594.000000	41.507228
595.000000	41.372707
596.000000	41.225865
597.000000	41.067771
598.000000	40.905644
599.000000	40.755939
600.000000	40.563467
601.000000	40.388156
602.000000	40.192333
603.000000	39.980772
604.000000	39.786980
605.000000	39.583384
606.000000	39.399183
607.000000	39.205691
608.000000	39.005247
609.000000	38.839000
610.000000	38.649409
611.000000	38.462003
612.000000	38.273614
613.000000	38.090705
614.000000	37.930673
615.000000	37.764399
616.000000	37.601210
617.000000	37.429476
618.000000	37.283670
619.000000	37.135926
620.000000	36.984057
621.000000	36.861618
622.000000	36.741320
623.000000	36.628664
624.000000	36.525323
625.000000	36.446418
626.000000	36.400017
627.000000	36.380563
628.000000	36.360985
629.000000	36.369544
630.000000	36.387304
631.000000	36.431770
632.000000	36.498538
633.000000	36.572601
634.000000	36.683771
635.000000	36.807702
636.000000	36.930859
637.000000	37.080670
638.000000	37.254497
639.000000	37.417463
640.000000	37.592228
641.000000	37.783676
642.000000	37.988824
643.000000	38.177878
644.000000	38.370389
645.000000	38.565426
646.000000	38.777525
647.000000	38.977224
648.000000	39.146809
649.000000	39.344251
650.000000	39.534080
651.000000	39.709360
652.000000	39.893944
653.000000	40.061327
654.000000	40.227221
655.000000	40.381790
656.000000	40.534841
657.000000	40.670048
658.000000	40.808320
659.000000	40.922231
660.000000	41.060971
661.000000	41.173349
662.000000	41.261287
663.000000	41.361602
664.000000	41.456665
665.000000	41.546565
666.000000	41.639331
667.000000	41.707955
668.000000	41.784735
669.000000	41.855921
670.000000	41.920292
671.000000	42.003621
672.000000	42.062412
673.000000	42.125702
674.000000	42.181750
675.000000	42.242688
676.000000	42.309915
677.000000	42.381947
678.000000	42.460955
679.000000	42.513790
680.000000	42.578126
681.000000	42.647201
682.000000	42.726393
683.000000	42.792871
684.000000	42.859100
685.000000	42.958419
686.000000	43.019400
687.000000	43.080319
688.000000	43.160448
689.000000	43.274975
690.000000	43.375700
691.000000	43.456736
692.000000	43.556608
693.000000	43.676868
694.000000	43.781583
695.000000	43.912507
696.000000	44.052719
697.000000	44.171436
698.000000	44.275224
699.000000	44.397295
700.000000	44.521380
701.000000	44.650870
702.000000	44.771385
703.000000	44.900535
704.000000	45.025620
705.000000	45.149332
706.000000	45.272240
707.000000	45.391779
708.000000	45.490331
709.000000	45.607809
710.000000	45.728611
711.000000	45.839941
712.000000	45.957823
713.000000	46.029573
714.000000	46.117107
715.000000	46.251094
716.000000	46.357387
717.000000	46.432557
718.000000	46.515545
719.000000	46.616932
720.000000	46.668909
721.000000	46.736966
722.000000	46.844189
723.000000	46.935564
724.000000	46.988854
725.000000	47.060198
726.000000	47.119139
727.000000	47.181588
728.000000	47.255503
729.000000	47.326197
730.000000	47.417144
731.000000	47.485736
732.000000	47.546952
733.000000	47.654171
734.000000	47.710459
735.000000	47.783773
736.000000	47.848701
737.000000	47.918674
738.000000	47.986761
739.000000	48.041254
740.000000	48.133721
741.000000	48.227256
742.000000	48.296299
743.000000	48.359536
744.000000	48.430604
745.000000	48.536874
746.000000	48.577761
747.000000	48.662275
748.000000	48.761299
749.000000	48.834759
750.000000	48.947028
751.000000	49.039135
752.000000	49.124959
753.000000	49.207958
754.000000	49.290904
755.000000	49.402896
756.000000	49.496663
757.000000	49.591816
758.000000	49.680097
759.000000	49.805231
760.000000	49.899510
761.000000	50.037251
762.000000	50.098041
763.000000	50.187887
764.000000	50.278346
765.000000	50.365073
766.000000	50.455111
767.000000	50.583232
768.000000	50.663203
769.000000	50.756123
770.000000	50.863020
771.000000	50.983599
772.000000	51.054255
773.000000	51.177246
774.000000	51.283001
775.000000	51.356079
776.000000	51.417587
777.000000	51.483912
778.000000	51.614778
779.000000	51.662562
780.000000	51.729284
781.000000	51.804208
782.000000	51.857637
783.000000	51.905896
784.000000	51.993966
785.000000	52.063627
786.000000	52.218116
787.000000	52.237280
788.000000	52.243824
789.000000	52.346795
790.000000	52.406795
791.000000	52.471765
792.000000	52.546851
793.000000	52.598111
794.000000	52.660691
795.000000	52.706057
796.000000	52.755092
797.000000	52.836079
798.000000	52.847829
799.000000	52.934140
800.000000	52.966821
801.000000	53.012424
802.000000	53.113021
803.000000	53.153730
804.000000	53.250355
805.000000	53.297943
806.000000	53.283093
807.000000	53.332498
808.000000	53.346947
809.000000	53.489185
810.000000	53.599803
811.000000	53.592561
812.000000	53.648008
813.000000	53.698748
814.000000	53.702984
815.000000	53.811182
816.000000	53.919012
817.000000	53.922651
818.000000	53.921733
819.000000	53.949198
820.000000	54.052984
821.000000	54.107187
822.000000	54.167438
823.000000	54.186171
824.000000	54.099585
825.000000	54.258790
826.000000	54.234268
827.000000	54.280789
828.000000	54.230040
829.000000	54.267838
830.000000	54.238300
831.000000	54.287688
832.000000	54.274530
833.000000	54.306774
834.000000	54.280381
835.000000	54.330543
836.000000	54.311875
837.000000	54.230171
838.000000	54.247116
839.000000	54.268397
840.000000	54.424313
841.000000	54.270904
842.000000	54.245352
843.000000	54.383857
844.000000	54.306558
845.000000	54.095179
846.000000	54.186716
847.000000	53.916976
848.000000	53.959219
849.000000	53.957781
850.000000	53.945937
851.000000	53.957307
852.000000	54.024301
853.000000	54.008987
854.000000	53.814469
855.000000	53.942610
856.000000	53.942306
857.000000	54.067433
858.000000	54.097633
859.000000	53.586933
860.000000	54.217533
861.000000	54.240033
862.000000	53.855600
863.000000	54.077967
864.000000	54.442633
865.000000	53.942800
866.000000	54.005200
867.000000	54.369600
868.000000	54.426633
869.000000	54.424733
870.000000	54.160167
871.000000	54.146567
872.000000	54.008433
873.000000	54.436567
874.000000	54.255700
875.000000	54.135700
876.000000	54.342767
877.000000	54.374167
878.000000	54.273000
879.000000	54.344567
880.000000	54.280167
881.000000	54.299833
882.000000	54.306433
883.000000	54.359567
884.000000	54.564900
885.000000	54.535600
886.000000	54.209967
887.000000	54.342867
888.000000	54.346933
889.000000	54.302833
890.000000	54.418100
891.000000	54.244700
892.000000	54.314167
893.000000	54.308267
894.000000	54.394167
895.000000	54.343500
896.000000	54.359633
897.000000	54.326367
898.000000	54.323767
899.000000	54.237600
900.000000	54.170633
901.000000	54.383800
902.000000	54.307767
903.000000	54.282167
904.000000	54.267400
905.000000	54.235500
906.000000	54.255200
907.000000	54.267100
908.000000	54.283900
909.000000	54.328467
910.000000	54.302600
911.000000	54.324733
912.000000	54.300433
913.000000	54.283900
914.000000	54.283733
915.000000	54.360967
916.000000	54.506000
917.000000	54.496967
918.000000	54.512033
919.000000	54.576367
920.000000	54.615500
921.000000	54.616467
922.000000	54.600067
923.000000	54.681133
924.000000	54.697567
925.000000	54.698233
926.000000	54.724767
927.000000	54.808700
928.000000	54.885633
929.000000	54.939300
930.000000	54.949767
931.000000	54.937833
932.000000	54.967800
933.000000	55.075200
934.000000	55.090267
935.000000	55.098333
936.000000	55.139633
937.000000	55.123333
938.000000	55.165133
939.000000	55.199900
940.000000	55.246000
941.000000	55.273233
942.000000	55.303000
943.000000	55.339967
944.000000	55.349733
945.000000	55.335367
946.000000	55.389133
947.000000	55.432167
948.000000	55.481367
949.000000	55.508967
950.000000	55.544800
951.000000	55.597567
952.000000	55.555867
953.000000	55.547667
954.000000	55.577733
955.000000	55.614533
956.000000	55.670500
957.000000	55.664733
958.000000	55.670300
959.000000	55.679033
960.000000	55.689800
961.000000	55.710333
962.000000	55.755133
963.000000	55.774667
964.000000	55.863167
965.000000	55.868333
966.000000	55.887200
967.000000	55.911600
968.000000	55.943533
969.000000	55.970267
970.000000	56.022900
971.000000	56.075600
972.000000	56.106200
973.000000	56.183800
974.000000	56.192833
975.000000	56.218200
976.000000	56.282467
977.000000	56.298733
978.000000	56.319767
979.000000	56.410433
980.000000	56.414900
981.000000	56.456333
982.000000	56.532433
983.000000	56.599767
984.000000	56.628967
985.000000	56.674200
986.000000	56.703500
987.000000	56.717100
988.000000	56.769467
989.000000	56.814433
990.000000	56.882600
991.000000	56.945467
992.000000	56.970500
993.000000	57.009167
994.000000	57.057700
995.000000	57.116167
996.000000	57.149067
997.000000	57.169667
998.000000	57.224267
999.000000	57.274300
1000.000000	57.312333
1001.000000	57.336467
1002.000000	57.367533
1003.000000	57.416800
1004.000000	57.470233
1005.000000	57.531967
1006.000000	57.559933
1007.000000	57.592367
1008.000000	57.643700
1009.000000	57.670233
1010.000000	57.700100
1011.000000	57.720733
1012.000000	57.768100
1013.000000	57.785767
1014.000000	57.840933
1015.000000	57.888733
1016.000000	57.891733
1017.000000	57.970400
1018.000000	58.009967
1019.000000	58.024400
1020.000000	58.074000
1021.000000	58.108433
1022.000000	58.131400
1023.000000	58.180267
1024.000000	58.203367
1025.000000	58.234000
1026.000000	58.277000
1027.000000	58.327200
1028.000000	58.380367
1029.000000	58.421933
1030.000000	58.471833
1031.000000	58.493767
1032.000000	58.512067
1033.000000	58.546600
1034.000000	58.606600
1035.000000	58.641267
1036.000000	58.714633
1037.000000	58.738000
1038.000000	58.746400
1039.000000	58.767567
1040.000000	58.802733
1041.000000	58.845400
1042.000000	58.899533
1043.000000	58.918233
1044.000000	58.957267
1045.000000	58.980733
1046.000000	59.035400
1047.000000	59.065867
1048.000000	59.087400
1049.000000	59.154500
1050.000000	59.180100
1051.000000	59.221133
1052.000000	59.279033
1053.000000	59.304267
1054.000000	59.354767
1055.000000	59.402867
1056.000000	59.407100
1057.000000	59.440900
1058.000000	59.496500
1059.000000	59.563067
1060.000000	59.605933
1061.000000	59.619600
1062.000000	59.683000
1063.000000	59.701733
1064.000000	59.773133
1065.000000	59.792067
1066.000000	59.858967
1067.000000	59.876733
1068.000000	59.921733
1069.000000	59.981533
1070.000000	60.009567
1071.000000	60.059533
1072.000000	60.082533
1073.000000	60.126800
1074.000000	60.178967
1075.000000	60.218500
1076.000000	60.271300
1077.000000	60.283267
1078.000000	60.327833
1079.000000	60.371267
1080.000000	60.405533
1081.000000	60.447433
1082.000000	60.477133
1083.000000	60.500067
1084.000000	60.547133
1085.000000	60.580367
1086.000000	60.624800
1087.000000	60.652800
1088.000000	60.705967
1089.000000	60.718067
1090.000000	60.751300
1091.000000	60.766767
1092.000000	60.790433
1093.000000	60.841233
1094.000000	60.844600
1095.000000	60.869400
1096.000000	60.896433
1097.000000	60.894633
1098.000000	60.933600
1099.000000	60.960967
1100.000000	60.983200
1101.000000	61.002067
1102.000000	61.024767
1103.000000	61.026300
1104.000000	61.038000
1105.000000	61.052967
1106.000000	61.093767
1107.000000	61.103900
1108.000000	61.116300
1109.000000	61.120000
1110.000000	61.132067
1111.000000	61.153667
1112.000000	61.168400
1113.000000	61.170700
1114.000000	61.191133
1115.000000	61.197500
1116.000000	61.218233
1117.000000	61.222167
1118.000000	61.236667
1119.000000	61.248300
1120.000000	61.241167
1121.000000	61.233967
1122.000000	61.253800
1123.000000	61.263667
1124.000000	61.251667
1125.000000	61.221400
1126.000000	61.208133
1127.000000	61.162900
1128.000000	61.137833
1129.000000	61.109733
1130.000000	61.057800
1131.000000	60.997400
1132.000000	60.945433
1133.000000	60.890533
1134.000000	60.889033
1135.000000	60.867967
1136.000000	60.754033
1137.000000	60.657900
1138.000000	60.591867
1139.000000	60.519000
1140.000000	60.454833
1141.000000	60.410700
1142.000000	60.348767
1143.000000	60.294333
1144.000000	60.263867
1145.000000	60.231667
1146.000000	60.190900
1147.000000	60.157000
1148.000000	60.092000
1149.000000	60.053733
1150.000000	60.015633
1151.000000	59.961867
1152.000000	59.930500
1153.000000	59.894967
1154.000000	59.817767
1155.000000	59.769867
1156.000000	59.709533
1157.000000	59.655467
1158.000000	59.571833
1159.000000	59.487833
1160.000000	59.400933
1161.000000	59.307267
1162.000000	59.236667
1163.000000	59.153967
1164.000000	59.062667
1165.000000	58.978133
1166.000000	58.891267
1167.000000	58.806167
1168.000000	58.735200
1169.000000	58.652067
1170.000000	58.592500
1171.000000	58.531367
1172.000000	58.475800
1173.000000	58.430800
1174.000000	58.395533
1175.000000	58.348767
1176.000000	58.292800
1177.000000	58.262667
1178.000000	58.222800
1179.000000	58.185933
1180.000000	58.146967
1181.000000	58.096733
1182.000000	58.069567
1183.000000	58.032400
1184.000000	58.014233
1185.000000	58.001533
1186.000000	58.001000
1187.000000	57.999667
1188.000000	58.010967
1189.000000	58.034733
1190.000000	58.067333
1191.000000	58.110900
1192.000000	58.165767
1193.000000	58.216000
1194.000000	58.262400
1195.000000	58.323267
1196.000000	58.370100
1197.000000	58.417433
1198.000000	58.457733
1199.000000	58.504800
1200.000000	58.545233
1201.000000	58.585067
1202.000000	58.623833
1203.000000	58.671333
1204.000000	58.705467
1205.000000	58.735900
1206.000000	58.782200
1207.000000	58.817967
1208.000000	58.864400
1209.000000	58.908467
1210.000000	58.946933
1211.000000	58.982433
1212.000000	59.020567
1213.000000	59.052467
1214.000000	59.076467
1215.000000	59.106100
1216.000000	59.129900
1217.000000	59.165833
1218.000000	59.198300
1219.000000	59.221900
1220.000000	59.245833
1221.000000	59.283100
1222.000000	59.304400
1223.000000	59.333600
1224.000000	59.353600
1225.000000	59.370033
1226.000000	59.391200
1227.000000	59.415900
1228.000000	59.442367
1229.000000	59.453633
1230.000000	59.461167
1231.000000	59.482967
1232.000000	59.496133
1233.000000	59.524233
1234.000000	59.541800
1235.000000	59.555500
1236.000000	59.574633
1237.000000	59.583700
1238.000000	59.601267
1239.000000	59.624067
1240.000000	59.644800
1241.000000	59.665433
1242.000000	59.689533
1243.000000	59.712733
1244.000000	59.740600
1245.000000	59.769500
1246.000000	59.785133
1247.000000	59.812767
1248.000000	59.839933
1249.000000	59.864533
1250.000000	59.886767
1251.000000	59.895967
1252.000000	59.911100
1253.000000	59.929867
1254.000000	59.942967
1255.000000	59.954133
1256.000000	59.964800
1257.000000	59.965433
1258.000000	59.961467
1259.000000	59.961200
1260.000000	59.954733
1261.000000	59.954000
1262.000000	59.949233
1263.000000	59.944400
1264.000000	59.943033
1265.000000	59.944167
1266.000000	59.946767
1267.000000	59.941533
1268.000000	59.937333
1269.000000	59.933033
1270.000000	59.914867
1271.000000	59.916567
1272.000000	59.915867
1273.000000	59.914167
1274.000000	59.916467
1275.000000	59.913567
1276.000000	59.912967
1277.000000	59.916233
1278.000000	59.929833
1279.000000	59.946567
1280.000000	59.950000
1281.000000	59.968300
1282.000000	59.993867
1283.000000	60.007067
1284.000000	60.021400
1285.000000	60.034333
1286.000000	60.054600
1287.000000	60.066500
1288.000000	60.089733
1289.000000	60.100267
1290.000000	60.111833
1291.000000	60.114933
1292.000000	60.129033
1293.000000	60.144833
1294.000000	60.144167
1295.000000	60.152600
1296.000000	60.162533
1297.000000	60.168867
1298.000000	60.172367
1299.000000	60.168233
1300.000000	60.168433
1301.000000	60.168000
1302.000000	60.163367
1303.000000	60.170033
1304.000000	60.168700
1305.000000	60.160267
1306.000000	60.136333
1307.000000	60.128800
1308.000000	60.114433
1309.000000	60.097167
1310.000000	60.081533
1311.000000	60.061100
1312.000000	60.037300
1313.000000	60.010067
1314.000000	59.987433
1315.000000	59.960033
1316.000000	59.928800
1317.000000	59.897100
1318.000000	59.867633
1319.000000	59.831533
1320.000000	59.810267
1321.000000	59.769367
1322.000000	59.739433
1323.000000	59.698400
1324.000000	59.648300
1325.000000	59.602067
1326.000000	59.557433
1327.000000	59.503233
1328.000000	59.454333
1329.000000	59.399000
1330.000000	59.328500
1331.000000	59.272200
1332.000000	59.209967
1333.000000	59.139733
1334.000000	59.053433
1335.000000	58.984300
1336.000000	58.907200
1337.000000	58.828633
1338.000000	58.742233
1339.000000	58.627633
1340.000000	58.549133
1341.000000	58.455133
1342.000000	58.342000
1343.000000	58.237200
1344.000000	58.130167
1345.000000	58.005467
1346.000000	57.869000
1347.000000	57.768667
1348.000000	57.694667
1349.000000	57.541233
1350.000000	57.405333
1351.000000	57.274233
1352.000000	57.168067
1353.000000	57.031400
1354.000000	56.968200
1355.000000	56.938433
1356.000000	56.838133
1357.000000	56.717633
1358.000000	56.636000
1359.000000	56.556433
1360.000000	56.522000
1361.000000	56.572433
1362.000000	56.599867
1363.000000	56.406967
1364.000000	56.281600
1365.000000	56.304933
1366.000000	56.146600
1367.000000	56.054533
1368.000000	56.034767
1369.000000	55.888033
1370.000000	55.763867
1371.000000	55.721633
1372.000000	55.620033
1373.000000	55.457633
1374.000000	55.340067
1375.000000	55.248133
1376.000000	55.158600
1377.000000	55.043467
1378.000000	54.939300
1379.000000	54.866800
1380.000000	54.794767
1381.000000	54.727233
1382.000000	54.628100
1383.000000	54.515000
1384.000000	54.237067
1385.000000	54.014433
1386.000000	53.740867
1387.000000	53.513500
1388.000000	53.345133
1389.000000	53.059000
1390.000000	52.736700
1391.000000	52.485600
1392.000000	52.302867
1393.000000	52.042167
1394.000000	51.757933
1395.000000	51.604833
1396.000000	51.388633
1397.000000	50.989700
1398.000000	50.573767
1399.000000	50.321433
1400.000000	50.195867
1401.000000	49.930733
1402.000000	49.485067
1403.000000	49.064933
1404.000000	48.812100
1405.000000	48.502600
1406.000000	48.165800
1407.000000	47.846800
1408.000000	47.509000
1409.000000	47.202267
1410.000000	46.886967
1411.000000	46.494567
1412.000000	46.144833
1413.000000	45.885233
1414.000000	45.665067
1415.000000	45.381500
1416.000000	45.029433
1417.000000	44.748800
1418.000000	44.551333
1419.000000	44.366067
1420.000000	44.131867
1421.000000	43.860000
1422.000000	43.631033
1423.000000	43.468600
1424.000000	43.285433
1425.000000	43.084467
1426.000000	42.882933
1427.000000	42.705800
1428.000000	42.576300
1429.000000	42.417367
1430.000000	42.241633
1431.000000	42.124933
1432.000000	42.031533
1433.000000	41.899733
1434.000000	41.758067
1435.000000	41.648933
1436.000000	41.534500
1437.000000	41.448800
1438.000000	41.357800
1439.000000	41.254167
1440.000000	41.154467
1441.000000	41.060933
1442.000000	40.989433
1443.000000	40.901100
1444.000000	40.800200
1445.000000	40.754433
1446.000000	40.701267
1447.000000	40.599233
1448.000000	40.502633
1449.000000	40.424300
1450.000000	40.379000
1451.000000	40.327067
1452.000000	40.228667
1453.000000	40.149167
1454.000000	40.065767
1455.000000	39.993733
1456.000000	39.939367
1457.000000	39.859833
1458.000000	39.777533
1459.000000	39.704400
1460.000000	39.647633
1461.000000	39.584200
1462.000000	39.511400
1463.000000	39.443900
1464.000000	39.381067
1465.000000	39.309667
1466.000000	39.264667
1467.000000	39.208733
1468.000000	39.134033
1469.000000	39.089000
1470.000000	39.061600
1471.000000	39.025067
1472.000000	38.975800
1473.000000	38.920200
1474.000000	38.869100
1475.000000	38.819267
1476.000000	38.785000
1477.000000	38.770000
1478.000000	38.739967
1479.000000	38.714967
1480.000000	38.699267
1481.000000	38.677100
1482.000000	38.654700
1483.000000	38.619867
1484.000000	38.591400
1485.000000	38.575167
1486.000000	38.564033
1487.000000	38.551867
1488.000000	38.526000
1489.000000	38.521133
1490.000000	38.497533
1491.000000	38.487500
1492.000000	38.480233
1493.000000	38.471333
1494.000000	38.473533
1495.000000	38.482333
1496.000000	38.496000
1497.000000	38.511400
1498.000000	38.528133
1499.000000	38.562267
1500.000000	38.591000
1501.000000	38.621033
1502.000000	38.662067
1503.000000	38.713333
1504.000000	38.767000
1505.000000	38.812267
1506.000000	38.862433
1507.000000	38.907933
1508.000000	38.965767
1509.000000	39.027767
1510.000000	39.082867
1511.000000	39.136933
1512.000000	39.204200
1513.000000	39.268200
1514.000000	39.329700
1515.000000	39.378733
1516.000000	39.434267
1517.000000	39.471400
1518.000000	39.536967
1519.000000	39.609900
1520.000000	39.655900
1521.000000	39.695700
1522.000000	39.750433
1523.000000	39.794167
1524.000000	39.848133
1525.000000	39.900533
1526.000000	39.956833
1527.000000	40.008333
1528.000000	40.044467
1529.000000	40.093167
1530.000000	40.145867
1531.000000	40.186033
1532.000000	40.228200
1533.000000	40.265233
1534.000000	40.299467
1535.000000	40.343767
1536.000000	40.383767
1537.000000	40.397367
1538.000000	40.448667
1539.000000	40.474433
1540.000000	40.501000
1541.000000	40.545733
1542.000000	40.591300
1543.000000	40.620467
1544.000000	40.656967
1545.000000	40.691967
1546.000000	40.761733
1547.000000	40.815167
1548.000000	40.873133
1549.000000	40.935433
1550.000000	40.997933
1551.000000	41.060300
1552.000000	41.126133
1553.000000	41.195433
1554.000000	41.250367
1555.000000	41.293467
1556.000000	41.337533
1557.000000	41.385300
1558.000000	41.403800
1559.000000	41.439433
1560.000000	41.468267
1561.000000	41.495400
1562.000000	41.501133
1563.000000	41.500467
1564.000000	41.486533
1565.000000	41.503100
1566.000000	41.506567
1567.000000	41.495567
1568.000000	41.476133
1569.000000	41.480500
1570.000000	41.460600
1571.000000	41.465200
1572.000000	41.463100
1573.000000	41.470833
1574.000000	41.473833
1575.000000	41.490767
1576.000000	41.505933
1577.000000	41.521433
1578.000000	41.529733
1579.000000	41.557933
1580.000000	41.589867
1581.000000	41.626900
1582.000000	41.645133
1583.000000	41.686400
1584.000000	41.714367
1585.000000	41.764967
1586.000000	41.802800
1587.000000	41.853867
1588.000000	41.889767
1589.000000	41.928667
1590.000000	41.985367
1591.000000	42.028200
1592.000000	42.061567
1593.000000	42.125633
1594.000000	42.188600
1595.000000	42.240533
1596.000000	42.289100
1597.000000	42.340333
1598.000000	42.404600
1599.000000	42.471433
1600.000000	42.533900
1601.000000	42.618100
1602.000000	42.668200
1603.000000	42.732667
1604.000000	42.803900
1605.000000	42.863733
1606.000000	42.928033
1607.000000	42.990900
1608.000000	43.052800
1609.000000	43.118633
1610.000000	43.178167
1611.000000	43.221067
1612.000000	43.271033
1613.000000	43.314533
1614.000000	43.356867
1615.000000	43.410400
1616.000000	43.435633
1617.000000	43.487067
1618.000000	43.516033
1619.000000	43.539867
1620.000000	43.586133
1621.000000	43.613267
1622.000000	43.640700
1623.000000	43.672100
1624.000000	43.733000
1625.000000	43.771433
1626.000000	43.802900
1627.000000	43.856200
1628.000000	43.892633
1629.000000	43.926400
1630.000000	43.983400
1631.000000	44.015000
1632.000000	44.034800
1633.000000	44.071033
1634.000000	44.126500
1635.000000	44.170367
1636.000000	44.191133
1637.000000	44.195667
1638.000000	44.228333
1639.000000	44.240300
1640.000000	44.259600
1641.000000	44.263000
1642.000000	44.280467
1643.000000	44.291833
1644.000000	44.308900
1645.000000	44.328667
1646.000000	44.346300
1647.000000	44.347033
1648.000000	44.375967
1649.000000	44.366500
1650.000000	44.383500
1651.000000	44.379667
1652.000000	44.364800
1653.000000	44.346433
1654.000000	44.342633
1655.000000	44.320200
1656.000000	44.288833
1657.000000	44.260033
1658.000000	44.205567
1659.000000	44.144333
1660.000000	44.091700
1661.000000	44.023467
1662.000000	43.932333
1663.000000	43.838700
1664.000000	43.739033
1665.000000	43.644867
1666.000000	43.545333
1667.000000	43.446433
1668.000000	43.294900
1669.000000	43.175933
1670.000000	43.037033
1671.000000	42.901500
1672.000000	42.783033
1673.000000	42.640133
1674.000000	42.519033
1675.000000	42.389700
1676.000000	42.270633
1677.000000	42.139300
1678.000000	41.994967
1679.000000	41.848867
1680.000000	41.685000
1681.000000	41.527100
1682.000000	41.345033
1683.000000	41.177467
1684.000000	41.032233
1685.000000	40.872733
1686.000000	40.750900
1687.000000	40.643400
1688.000000	40.566967
1689.000000	40.546967
1690.000000	40.544567
1691.000000	40.569533
1692.000000	40.604633
1693.000000	40.642433
1694.000000	40.676900
1695.000000	40.719867
1696.000000	40.739533
1697.000000	40.747033
1698.000000	40.744000
1699.000000	40.739967
1700.000000	40.727367
1701.000000	40.710533
1702.000000	40.704733
1703.000000	40.666033
1704.000000	40.645767
1705.000000	40.604000
1706.000000	40.573233
1707.000000	40.545600
1708.000000	40.486167
1709.000000	40.408033
1710.000000	40.310367
1711.000000	40.223400
1712.000000	40.123767
1713.000000	40.008533
1714.000000	39.884467
1715.000000	39.732433
1716.000000	39.561867
1717.000000	39.416300
1718.000000	39.259067
1719.000000	39.095400
1720.000000	38.940800
1721.000000	38.813267
1722.000000	38.710200
1723.000000	38.640833
1724.000000	38.612033
1725.000000	38.600100
1726.000000	38.601367
1727.000000	38.605033
1728.000000	38.628567
1729.000000	38.644600
1730.000000	38.655167
1731.000000	38.680367
1732.000000	38.712300
1733.000000	38.744000
1734.000000	38.765867
1735.000000	38.778967
1736.000000	38.809167
1737.000000	38.852000
1738.000000	38.885600
1739.000000	38.936500
1740.000000	38.983033
1741.000000	39.014100
1742.000000	39.061033
1743.000000	39.115133
1744.000000	39.161933
1745.000000	39.207233
1746.000000	39.240033
1747.000000	39.279700
1748.000000	39.325300
1749.000000	39.346800
1750.000000	39.358133
1751.000000	39.377533
1752.000000	39.396267
1753.000000	39.389833
1754.000000	39.389800
1755.000000	39.407733
1756.000000	39.403467
1757.000000	39.403867
1758.000000	39.401133
1759.000000	39.387000
1760.000000	39.393800
1761.000000	39.388733
1762.000000	39.379067
1763.000000	39.389267
1764.000000	39.425933
1765.000000	39.450500
1766.000000	39.475700
1767.000000	39.485233
1768.000000	39.517633
1769.000000	39.542067
1770.000000	39.572067
1771.000000	39.593667
1772.000000	39.608233
1773.000000	39.635867
1774.000000	39.677933
1775.000000	39.717733
1776.000000	39.755100
1777.000000	39.768767
1778.000000	39.791400
1779.000000	39.813833
1780.000000	39.812800
1781.000000	39.831100
1782.000000	39.838600
1783.000000	39.834600
1784.000000	39.835267
1785.000000	39.857667
1786.000000	39.857600
1787.000000	39.834267
1788.000000	39.827200
1789.000000	39.816900
1790.000000	39.843700
1791.000000	39.844067
1792.000000	39.859767
1793.000000	39.876567
1794.000000	39.876600
1795.000000	39.898467
1796.000000	39.918967
1797.000000	39.947967
1798.000000	39.928933
1799.000000	39.940433
1800.000000	39.992033
1801.000000	40.040133
1802.000000	40.067300
1803.000000	40.066067
1804.000000	40.049233
1805.000000	40.072833
1806.000000	40.135967
1807.000000	40.163533
1808.000000	40.138833
1809.000000	40.131833
1810.000000	40.189867
1811.000000	40.235733
1812.000000	40.268267
1813.000000	40.260600
1814.000000	40.233433
1815.000000	40.275467
1816.000000	40.311567
1817.000000	40.306167
1818.000000	40.295833
1819.000000	40.309700
1820.000000	40.430900
1821.000000	40.475100
1822.000000	40.451633
1823.000000	40.364800
1824.000000	40.269533
1825.000000	40.272333
1826.000000	40.421000
1827.000000	40.428267
1828.000000	40.417233
1829.000000	40.472733
1830.000000	40.526500
1831.000000	40.597233
1832.000000	40.555000
1833.000000	40.556667
1834.000000	40.546500
1835.000000	40.679500
1836.000000	40.812200
1837.000000	40.826567
1838.000000	40.823500
1839.000000	40.807333
1840.000000	40.880567
1841.000000	40.945267
1842.000000	41.080667
1843.000000	40.932100
1844.000000	40.820300
1845.000000	40.772933
1846.000000	40.831600
1847.000000	41.153533
1848.000000	41.277400
1849.000000	41.060400
1850.000000	40.904600
1851.000000	40.845800
1852.000000	40.772567
1853.000000	40.917633
1854.000000	41.021133
1855.000000	40.760600
1856.000000	40.730700
1857.000000	40.809800
1858.000000	40.651067
1859.000000	40.595600
1860.000000	40.728767
1861.000000	40.567000
1862.000000	40.291700
1863.000000	40.188433
1864.000000	40.273067
1865.000000	40.133667
1866.000000	39.890433
1867.000000	39.953867
1868.000000	40.072067
1869.000000	39.798200
1870.000000	39.648367
1871.000000	39.671500
1872.000000	39.313033
1873.000000	39.155233
1874.000000	38.955700
1875.000000	38.554900
1876.000000	38.306900
1877.000000	38.146933
1878.000000	37.792967
1879.000000	37.432467
1880.000000	37.129367
1881.000000	36.894467
1882.000000	36.474133
1883.000000	36.092867
1884.000000	35.825400
1885.000000	35.349833
1886.000000	34.903600
1887.000000	34.492333
1888.000000	33.967567
1889.000000	33.565900
1890.000000	33.118933
1891.000000	32.603033
1892.000000	32.054100
1893.000000	31.518033
1894.000000	31.010933
1895.000000	30.471367
1896.000000	29.951233
1897.000000	29.492467
1898.000000	29.092233
1899.000000	28.634700
1900.000000	28.256700
1901.000000	27.544600
1902.000000	27.126367
1903.000000	26.746000
1904.000000	26.247367
1905.000000	25.928900
1906.000000	25.539900
1907.000000	25.137500
1908.000000	24.676300
1909.000000	24.330200
1910.000000	24.035167
1911.000000	23.829933
1912.000000	23.546533
1913.000000	23.292833
1914.000000	23.065100
1915.000000	22.773800
1916.000000	22.555267
1917.000000	22.313100
1918.000000	22.052900
1919.000000	21.862833
1920.000000	21.927267
1921.000000	21.795200
1922.000000	21.467867
1923.000000	21.279100
1924.000000	21.246467
1925.000000	21.103700
1926.000000	20.950700
1927.000000	20.924333
1928.000000	20.904267
1929.000000	20.804333
1930.000000	20.694867
1931.000000	20.661967
1932.000000	20.601333
1933.000000	20.570800
1934.000000	20.531400
1935.000000	20.485967
1936.000000	20.494867
1937.000000	20.543567
1938.000000	20.538300
1939.000000	20.604400
1940.000000	20.633067
1941.000000	20.635400
1942.000000	20.637567
1943.000000	20.657533
1944.000000	20.734300
1945.000000	20.800433
1946.000000	20.850867
1947.000000	20.910233
1948.000000	20.962000
1949.000000	21.056000
1950.000000	21.109733
1951.000000	21.173933
1952.000000	21.266833
1953.000000	21.378733
1954.000000	21.446333
1955.000000	21.524300
1956.000000	21.648133
1957.000000	21.708133
1958.000000	21.798333
1959.000000	21.902100
1960.000000	21.984400
1961.000000	22.051233
1962.000000	22.168267
1963.000000	22.255133
1964.000000	22.297333
1965.000000	22.381133
1966.000000	22.483933
1967.000000	22.574067
1968.000000	22.649400
1969.000000	22.735733
1970.000000	22.836867
1971.000000	22.927733
1972.000000	23.027100
1973.000000	23.091167
1974.000000	23.174667
1975.000000	23.278967
1976.000000	23.357367
1977.000000	23.457900
1978.000000	23.546933
1979.000000	23.652567
1980.000000	23.732833
1981.000000	23.811967
1982.000000	23.930467
1983.000000	24.054200
1984.000000	24.157633
1985.000000	24.276733
1986.000000	24.345700
1987.000000	24.417600
1988.000000	24.525867
1989.000000	24.617333
1990.000000	24.701767
1991.000000	24.784733
1992.000000	24.869067
1993.000000	24.947633
1994.000000	25.023233
1995.000000	25.123500
1996.000000	25.203067
1997.000000	25.285367
1998.000000	25.329567
1999.000000	25.407400
2000.000000	25.527500
2001.000000	25.596233
2002.000000	25.655433
2003.000000	25.698133
2004.000000	25.769267
2005.000000	25.796200
2006.000000	25.784633
2007.000000	25.854467
2008.000000	25.885833
2009.000000	25.881367
2010.000000	25.911567
2011.000000	25.944767
2012.000000	25.919500
2013.000000	25.928867
2014.000000	25.963133
2015.000000	25.960567
2016.000000	26.006367
2017.000000	26.003700
2018.000000	25.967600
2019.000000	25.873367
2020.000000	25.833833
2021.000000	25.870267
2022.000000	25.837133
2023.000000	25.772767
2024.000000	25.719333
2025.000000	25.684400
2026.000000	25.675000
2027.000000	25.565667
2028.000000	25.536333
2029.000000	25.459633
2030.000000	25.365567
2031.000000	25.350867
2032.000000	25.275600
2033.000000	25.154067
2034.000000	25.095567
2035.000000	24.965800
2036.000000	24.831267
2037.000000	24.739433
2038.000000	24.656167
2039.000000	24.599167
2040.000000	24.490700
2041.000000	24.348967
2042.000000	24.240100
2043.000000	24.146967
2044.000000	24.021867
2045.000000	23.907367
2046.000000	23.777100
2047.000000	23.626733
2048.000000	23.489333
2049.000000	23.460700
2050.000000	23.389067
2051.000000	23.265367
2052.000000	23.213200
2053.000000	23.245433
2054.000000	23.185867
2055.000000	23.149000
2056.000000	23.239233
2057.000000	23.204467
2058.000000	23.250333
2059.000000	23.337767
2060.000000	23.390700
2061.000000	23.515800
2062.000000	23.515667
2063.000000	23.562300
2064.000000	23.651267
2065.000000	23.747867
2066.000000	23.800267
2067.000000	23.847100
2068.000000	24.017633
2069.000000	23.981200
2070.000000	24.086867
2071.000000	24.279000
2072.000000	24.356633
2073.000000	24.473800
2074.000000	24.493300
2075.000000	24.437800
2076.000000	24.508667
2077.000000	24.606400
2078.000000	24.648667
2079.000000	24.759400
2080.000000	24.702700
2081.000000	24.819100
2082.000000	24.816233
2083.000000	24.844833
2084.000000	24.813433
2085.000000	24.779567
2086.000000	24.911067
2087.000000	24.837600
2088.000000	25.026600
2089.000000	24.995400
2090.000000	24.812733
2091.000000	24.731867
2092.000000	24.835867
2093.000000	24.859000
2094.000000	24.881800
2095.000000	24.864033
2096.000000	24.855633
2097.000000	24.901633
2098.000000	24.790067
2099.000000	24.893367
2100.000000	24.875133
2101.000000	24.810867
2102.000000	24.974367
2103.000000	24.775533
2104.000000	24.835367
2105.000000	24.891900
2106.000000	24.873700
2107.000000	24.976067
2108.000000	24.911533
2109.000000	24.963767
2110.000000	24.968367
2111.000000	24.843400
2112.000000	24.921300
2113.000000	24.847967
2114.000000	25.044767
2115.000000	24.892633
2116.000000	24.863833
2117.000000	24.876100
2118.000000	24.823367
2119.000000	24.929733
2120.000000	24.729567
2121.000000	24.819467
2122.000000	24.933600
2123.000000	24.778600
2124.000000	24.809167
2125.000000	24.711500
2126.000000	24.671267
2127.000000	24.717900
2128.000000	24.879367
2129.000000	24.611800
2130.000000	24.561033
2131.000000	24.668767
2132.000000	24.640200
2133.000000	24.259733
2134.000000	24.518133
2135.000000	24.556767
2136.000000	24.392333
2137.000000	24.361700
2138.000000	24.070300
2139.000000	24.022500
2140.000000	23.909300
2141.000000	23.849333
2142.000000	24.009167
2143.000000	23.743800
2144.000000	23.722467
2145.000000	23.544933
2146.000000	23.729000
2147.000000	23.584367
2148.000000	23.266100
2149.000000	23.509533
2150.000000	23.194333
2151.000000	22.963933
2152.000000	23.116967
2153.000000	23.021000
2154.000000	22.927800
2155.000000	22.919433
2156.000000	22.873567
2157.000000	22.733233
2158.000000	22.691300
2159.000000	22.681567
2160.000000	22.739300
2161.000000	22.549133
2162.000000	22.481933
2163.000000	22.606033
2164.000000	22.531967
2165.000000	22.127133
2166.000000	22.289333
2167.000000	22.254433
2168.000000	22.366833
2169.000000	22.332433
2170.000000	22.391533
2171.000000	22.261600
2172.000000	22.167767
2173.000000	22.279933
2174.000000	22.187933
2175.000000	22.296367
2176.000000	22.238833
2177.000000	22.223233
2178.000000	22.352400
2179.000000	22.452700
2180.000000	22.293200
2181.000000	22.242733
2182.000000	22.220367
2183.000000	22.253400
2184.000000	22.402567
2185.000000	22.389467
2186.000000	22.616300
2187.000000	22.557600
2188.000000	22.544800
2189.000000	22.650600
2190.000000	22.729467
2191.000000	22.668267
2192.000000	22.590267
2193.000000	22.571567
2194.000000	22.600833
2195.000000	22.580800
2196.000000	22.529667
2197.000000	22.679333
2198.000000	22.726200
2199.000000	22.752800
2200.000000	22.874667
2201.000000	22.927600
2202.000000	22.885167
2203.000000	22.909567
2204.000000	23.046567
2205.000000	23.040267
2206.000000	23.051200
2207.000000	23.140767
2208.000000	23.080267
2209.000000	23.110000
2210.000000	23.188167
2211.000000	23.220367
2212.000000	23.455100
2213.000000	23.472100
2214.000000	23.465967
2215.000000	23.461633
2216.000000	23.646167
2217.000000	23.831633
2218.000000	23.759100
2219.000000	23.746833
2220.000000	23.920500
2221.000000	23.891700
2222.000000	23.986200
2223.000000	24.029767
2224.000000	24.033667
2225.000000	24.151133
2226.000000	24.248800
2227.000000	24.278600
2228.000000	24.267333
2229.000000	24.341933
2230.000000	24.309367
2231.000000	24.294967
2232.000000	24.270167
2233.000000	24.436800
2234.000000	24.346400
2235.000000	24.247667
2236.000000	24.402000
2237.000000	24.393300
2238.000000	24.158400
2239.000000	24.066867
2240.000000	24.186233
2241.000000	24.108167
2242.000000	23.861000
2243.000000	23.819933
2244.000000	23.825133
2245.000000	23.652333
2246.000000	23.500200
2247.000000	23.369700
2248.000000	23.389733
2249.000000	23.278900
2250.000000	23.188900
2251.000000	22.948067
2252.000000	22.762133
2253.000000	22.782300
2254.000000	22.675633
2255.000000	22.542967
2256.000000	22.210167
2257.000000	21.967000
2258.000000	22.014500
2259.000000	21.906233
2260.000000	21.681700
2261.000000	21.594867
2262.000000	21.590167
2263.000000	21.475433
2264.000000	21.291667
2265.000000	21.289233
2266.000000	21.269200
2267.000000	21.097133
2268.000000	21.040400
2269.000000	21.129800
2270.000000	21.107333
2271.000000	20.952700
2272.000000	20.936000
2273.000000	21.069933
2274.000000	21.067500
2275.000000	21.028833
2276.000000	20.879333
2277.000000	20.855033
2278.000000	20.800700
2279.000000	20.689400
2280.000000	20.801833
2281.000000	20.851133
2282.000000	20.684867
2283.000000	20.656400
2284.000000	20.816733
2285.000000	20.759400
2286.000000	20.660900
2287.000000	20.723900
2288.000000	20.869000
2289.000000	20.769333
2290.000000	20.680967
2291.000000	20.676733
2292.000000	20.656000
2293.000000	20.721033
2294.000000	20.700733
2295.000000	20.755400
2296.000000	20.542533
2297.000000	20.462033
2298.000000	20.544767
2299.000000	20.640867
2300.000000	20.640467
2301.000000	20.589733
2302.000000	20.568167
2303.000000	20.710867
2304.000000	20.752600
2305.000000	20.523733
2306.000000	20.454133
2307.000000	20.613867
2308.000000	20.732467
2309.000000	20.718600
2310.000000	20.734233
2311.000000	20.672233
2312.000000	20.710733
2313.000000	20.814900
2314.000000	20.956167
2315.000000	21.003600
2316.000000	20.702367
2317.000000	20.836967
2318.000000	21.137200
2319.000000	21.118133
2320.000000	20.820700
2321.000000	20.941700
2322.000000	20.877667
2323.000000	20.850167
2324.000000	20.960467
2325.000000	20.933033
2326.000000	20.759400
2327.000000	20.930300
2328.000000	21.004167
2329.000000	20.641133
2330.000000	20.741867
2331.000000	20.919367
2332.000000	20.910367
2333.000000	20.827167
2334.000000	20.736867
2335.000000	20.727667
2336.000000	20.974600
2337.000000	20.737367
2338.000000	20.478767
2339.000000	20.861400
2340.000000	20.891567
2341.000000	20.989333
2342.000000	20.929033
2343.000000	20.634533
2344.000000	20.697267
2345.000000	20.560600
2346.000000	20.824667
2347.000000	20.666300
2348.000000	20.762333
2349.000000	20.868167
2350.000000	21.153433
2351.000000	20.948767
2352.000000	20.830567
2353.000000	20.953367
2354.000000	21.004900
2355.000000	21.042933
2356.000000	21.353100
2357.000000	21.102633
2358.000000	21.098600
2359.000000	21.276367
2360.000000	21.321167
2361.000000	21.020733
2362.000000	20.895033
2363.000000	21.359600
2364.000000	21.420333
2365.000000	21.026700
2366.000000	21.010933
2367.000000	21.001533
2368.000000	21.075300
2369.000000	21.117767
2370.000000	21.324600
2371.000000	21.469100
2372.000000	21.211633
2373.000000	21.163333
2374.000000	21.380100
2375.000000	21.340933
2376.000000	21.152333
2377.000000	21.346933
2378.000000	21.181733
2379.000000	21.623733
2380.000000	21.500900
2381.000000	21.381633
2382.000000	21.318033
2383.000000	21.256367
2384.000000	21.702033
2385.000000	21.520967
2386.000000	21.464867
2387.000000	21.421967
2388.000000	21.327800
2389.000000	21.325800
2390.000000	21.623433
2391.000000	21.638233
2392.000000	21.232633
2393.000000	21.477700
2394.000000	21.128267
2395.000000	21.543733
2396.000000	20.995700
2397.000000	21.365967
2398.000000	21.577233
2399.000000	21.368733
2400.000000	20.902033
2401.000000	18.865000
2402.000000	18.833100
2403.000000	18.805600
2404.000000	18.782500
2405.000000	18.752800
2406.000000	18.704800
2407.000000	18.656600
2408.000000	18.626000
2409.000000	18.594100
2410.000000	18.556600
2411.000000	18.507800
2412.000000	18.456200
2413.000000	18.423600
2414.000000	18.376200
2415.000000	18.314400
2416.000000	18.262800
2417.000000	18.216400
2418.000000	18.148500
2419.000000	18.080600
2420.000000	18.023000
2421.000000	17.973400
2422.000000	17.906500
2423.000000	17.829100
2424.000000	17.770600
2425.000000	17.713900
2426.000000	17.637500
2427.000000	17.582700
2428.000000	17.513300
2429.000000	17.441600
2430.000000	17.351900
2431.000000	17.273700
2432.000000	17.188400
2433.000000	17.104100
2434.000000	17.025900
2435.000000	16.944100
2436.000000	16.855100
2437.000000	16.764600
2438.000000	16.688800
2439.000000	16.604600
2440.000000	16.502400
2441.000000	16.426700
2442.000000	16.342200
2443.000000	16.241700
2444.000000	16.145200
2445.000000	16.059100
2446.000000	15.955400
2447.000000	15.857200
2448.000000	15.767700
2449.000000	15.697900
2450.000000	15.601600
2451.000000	15.492000
2452.000000	15.406100
2453.000000	15.330100
2454.000000	15.269000
2455.000000	15.187300
2456.000000	15.110300
2457.000000	15.018500
2458.000000	14.986800
2459.000000	14.917300
2460.000000	14.838900
2461.000000	14.777100
2462.000000	14.760200
2463.000000	14.693200
2464.000000	14.651000
2465.000000	14.559500
2466.000000	14.521200
2467.000000	14.493300
2468.000000	14.447300
2469.000000	14.422600
2470.000000	14.358400
2471.000000	14.341600
2472.000000	14.296900
2473.000000	14.283400
2474.000000	14.220400
2475.000000	14.197600
2476.000000	14.181600
2477.000000	14.134700
2478.000000	14.142900
2479.000000	14.086800
2480.000000	14.131100
2481.000000	14.099500
2482.000000	14.065700
2483.000000	14.030700
2484.000000	14.008300
2485.000000	14.088000
2486.000000	14.022800
2487.000000	13.969700
2488.000000	14.020200
2489.000000	14.007700
2490.000000	14.015100
2491.000000	14.044000
2492.000000	14.029400
2493.000000	14.003400
2494.000000	14.055600
2495.000000	14.106900
2496.000000	14.065200
2497.000000	13.983900
2498.000000	14.090900
2499.000000	14.113000
2500.000000	14.153100
