PE UV       SUBTECH     SPECTRUM    ASCII       PEDS        4.00        
   -1
CICIMAUCR0260-2.ASC
24/07/01
15:14:50.00
24/07/01
15:14:50.00
Vinicio Soto Monge
C. resplendens. Sex F. Ventral
250,000000
1
Lambda 1050
1050L1511233
PerkinElmer UV WinLab 6.3.2.0749 / 2.02.05 Lambda 900 UV/VIS/NIR, Aug  7 2015 09:38:08

0
0
3350/servo 860,8/2
0
0
UV/VIS
1
1
1
DoubleDePol,CommonBeamDepol,RBeamAtt,SBeamAtt,60mm sphere, WB InGaAs Detector
0
0
0
0
Program
Program
3350/servo 860,8/2
3350/0,2 860,8/0,2
3350/0,2 860,8/0,2
0
15.00
 
 
 
0
 
860,8
319,2
860,8
Front
100
on
S:100 R:100
0
0
0
0
 
0
 
 
 
0
 
 
0
0
0
0
0
 
 
 
 
0
0


0
0
#HDR
-1
-1
#GR
nm
%R
1.0
0.0
2500,000000
-1,000000
2251
8
59,946500
4,199100
#DATA
2482.000000	5.564498
2481.000000	5.485583
2480.000000	5.478149
2479.000000	5.532741
2478.000000	5.530935
2477.000000	5.462217
2476.000000	5.527749
2475.000000	5.509375
2474.000000	5.531573
2473.000000	5.503321
2472.000000	5.490469
2471.000000	5.484840
2470.000000	5.464341
2469.000000	5.513729
2468.000000	5.456694
2467.000000	5.451277
2466.000000	5.459774
2465.000000	5.497798
2464.000000	5.491425
2463.000000	5.529661
2462.000000	5.540813
2461.000000	5.542619
2460.000000	5.533803
2459.000000	5.562586
2458.000000	5.575969
2457.000000	5.615692
2456.000000	5.616542
2455.000000	5.645750
2454.000000	5.660938
2453.000000	5.669328
2452.000000	5.688553
2451.000000	5.699598
2450.000000	5.735073
2449.000000	5.745800
2448.000000	5.775539
2447.000000	5.801880
2446.000000	5.841178
2445.000000	5.843621
2444.000000	5.852011
2443.000000	5.861783
2442.000000	5.913720
2441.000000	5.950787
2440.000000	5.948238
2439.000000	5.967994
2438.000000	6.014833
2437.000000	6.068363
2436.000000	6.063371
2435.000000	6.078241
2434.000000	6.114034
2433.000000	6.135701
2432.000000	6.146428
2431.000000	6.175955
2430.000000	6.202083
2429.000000	6.203251
2428.000000	6.239363
2427.000000	6.264216
2426.000000	6.272076
2425.000000	6.310205
2424.000000	6.322951
2423.000000	6.339626
2422.000000	6.356513
2421.000000	6.382960
2420.000000	6.404096
2419.000000	6.410893
2418.000000	6.414292
2417.000000	6.435853
2416.000000	6.451466
2415.000000	6.460281
2414.000000	6.477700
2413.000000	6.525707
2412.000000	6.528681
2411.000000	6.531018
2410.000000	6.553641
2409.000000	6.552579
2408.000000	6.569466
2407.000000	6.588159
2406.000000	6.600161
2405.000000	6.593682
2404.000000	6.599205
2403.000000	6.631493
2402.000000	6.644982
2401.000000	6.659958
2400.000000	6.663675
2399.000000	6.674827
2398.000000	6.673553
2397.000000	6.707009
2396.000000	6.730057
2395.000000	6.731438
2394.000000	6.747582
2393.000000	6.748750
2392.000000	6.752043
2391.000000	6.757247
2390.000000	6.766594
2389.000000	6.778171
2388.000000	6.796120
2387.000000	6.808228
2386.000000	6.805998
2385.000000	6.811733
2384.000000	6.822779
2383.000000	6.818106
2382.000000	6.802812
2381.000000	6.810990
2380.000000	6.827877
2379.000000	6.825541
2378.000000	6.830214
2377.000000	6.843490
2376.000000	6.824797
2375.000000	6.807591
2374.000000	6.811202
2373.000000	6.815663
2372.000000	6.803449
2371.000000	6.798563
2370.000000	6.793146
2369.000000	6.795271
2368.000000	6.793253
2367.000000	6.779127
2366.000000	6.761283
2365.000000	6.750025
2364.000000	6.735580
2363.000000	6.738554
2362.000000	6.741953
2361.000000	6.725278
2360.000000	6.711258
2359.000000	6.697132
2358.000000	6.686936
2357.000000	6.671323
2356.000000	6.651886
2355.000000	6.656028
2354.000000	6.643070
2353.000000	6.621510
2352.000000	6.620872
2351.000000	6.625333
2350.000000	6.631918
2349.000000	6.636379
2348.000000	6.635423
2347.000000	6.649337
2346.000000	6.665375
2345.000000	6.674615
2344.000000	6.685130
2343.000000	6.693202
2342.000000	6.700849
2341.000000	6.714126
2340.000000	6.715719
2339.000000	6.719011
2338.000000	6.744608
2337.000000	6.752680
2336.000000	6.763726
2335.000000	6.755760
2334.000000	6.739298
2333.000000	6.744289
2332.000000	6.736536
2331.000000	6.750131
2330.000000	6.746414
2329.000000	6.737704
2328.000000	6.729526
2327.000000	6.720180
2326.000000	6.710514
2325.000000	6.686298
2324.000000	6.680244
2323.000000	6.652311
2322.000000	6.632556
2321.000000	6.622147
2320.000000	6.600374
2319.000000	6.591452
2318.000000	6.566705
2317.000000	6.519547
2316.000000	6.498199
2315.000000	6.471752
2314.000000	6.441163
2313.000000	6.415142
2312.000000	6.388058
2311.000000	6.357788
2310.000000	6.331872
2309.000000	6.319021
2308.000000	6.285246
2307.000000	6.265597
2306.000000	6.276749
2305.000000	6.250621
2304.000000	6.246372
2303.000000	6.244779
2302.000000	6.262410
2301.000000	6.269102
2300.000000	6.289069
2299.000000	6.309674
2298.000000	6.326774
2297.000000	6.328049
2296.000000	6.361611
2295.000000	6.382641
2294.000000	6.387102
2293.000000	6.442863
2292.000000	6.483329
2291.000000	6.490551
2290.000000	6.502978
2289.000000	6.520822
2288.000000	6.519972
2287.000000	6.530593
2286.000000	6.549074
2285.000000	6.537072
2284.000000	6.543869
2283.000000	6.562562
2282.000000	6.538028
2281.000000	6.540895
2280.000000	6.516255
2279.000000	6.501173
2278.000000	6.494056
2277.000000	6.468460
2276.000000	6.465273
2275.000000	6.469415
2274.000000	6.438402
2273.000000	6.449766
2272.000000	6.442119
2271.000000	6.447005
2270.000000	6.453909
2269.000000	6.443712
2268.000000	6.450298
2267.000000	6.460812
2266.000000	6.516892
2265.000000	6.524327
2264.000000	6.575945
2263.000000	6.615987
2262.000000	6.646363
2261.000000	6.723472
2260.000000	6.775940
2259.000000	6.831807
2258.000000	6.911041
2257.000000	7.020863
2256.000000	7.085545
2255.000000	7.187720
2254.000000	7.284054
2253.000000	7.395575
2252.000000	7.463762
2251.000000	7.541296
2250.000000	7.654411
2249.000000	7.746284
2248.000000	7.841873
2247.000000	7.920363
2246.000000	7.973044
2245.000000	8.049091
2244.000000	8.123014
2243.000000	8.175588
2242.000000	8.268098
2241.000000	8.319929
2240.000000	8.359864
2239.000000	8.411058
2238.000000	8.458322
2237.000000	8.493796
2236.000000	8.545309
2235.000000	8.563152
2234.000000	8.609991
2233.000000	8.623267
2232.000000	8.660547
2231.000000	8.672656
2230.000000	8.678922
2229.000000	8.703882
2228.000000	8.715990
2227.000000	8.704306
2226.000000	8.722150
2225.000000	8.710467
2224.000000	8.714290
2223.000000	8.719919
2222.000000	8.703775
2221.000000	8.680834
2220.000000	8.680409
2219.000000	8.685932
2218.000000	8.638243
2217.000000	8.632402
2216.000000	8.627303
2215.000000	8.590236
2214.000000	8.581845
2213.000000	8.578234
2212.000000	8.560178
2211.000000	8.542653
2210.000000	8.514826
2209.000000	8.492628
2208.000000	8.482538
2207.000000	8.480307
2206.000000	8.474678
2205.000000	8.456729
2204.000000	8.430919
2203.000000	8.429857
2202.000000	8.415200
2201.000000	8.408934
2200.000000	8.423485
2199.000000	8.405535
2198.000000	8.399906
2197.000000	8.370485
2196.000000	8.367087
2195.000000	8.369742
2194.000000	8.371229
2193.000000	8.350518
2192.000000	8.360395
2191.000000	8.355085
2190.000000	8.351367
2189.000000	8.349668
2188.000000	8.318973
2187.000000	8.320354
2186.000000	8.318230
2185.000000	8.293058
2184.000000	8.290296
2183.000000	8.266399
2182.000000	8.267567
2181.000000	8.271815
2180.000000	8.261513
2179.000000	8.245369
2178.000000	8.243245
2177.000000	8.235279
2176.000000	8.239633
2175.000000	8.223277
2174.000000	8.225507
2173.000000	8.236022
2172.000000	8.233579
2171.000000	8.237084
2170.000000	8.238784
2169.000000	8.237615
2168.000000	8.235916
2167.000000	8.240696
2166.000000	8.252485
2165.000000	8.266611
2164.000000	8.264912
2163.000000	8.286791
2162.000000	8.313450
2161.000000	8.282330
2160.000000	8.308033
2159.000000	8.327470
2158.000000	8.349349
2157.000000	8.364431
2156.000000	8.373459
2155.000000	8.392259
2154.000000	8.411377
2153.000000	8.422423
2152.000000	8.442284
2151.000000	8.471811
2150.000000	8.495814
2149.000000	8.515570
2148.000000	8.549557
2147.000000	8.564851
2146.000000	8.578765
2145.000000	8.608504
2144.000000	8.621462
2143.000000	8.649077
2142.000000	8.669894
2141.000000	8.690818
2140.000000	8.711210
2139.000000	8.731072
2138.000000	8.733302
2137.000000	8.763147
2136.000000	8.779929
2135.000000	8.805101
2134.000000	8.814129
2133.000000	8.819545
2132.000000	8.839194
2131.000000	8.866384
2130.000000	8.876687
2129.000000	8.853108
2128.000000	8.862773
2127.000000	8.880935
2126.000000	8.894105
2125.000000	8.898566
2124.000000	8.889326
2123.000000	8.884334
2122.000000	8.890919
2121.000000	8.892512
2120.000000	8.889857
2119.000000	8.873819
2118.000000	8.872651
2117.000000	8.866597
2116.000000	8.872757
2115.000000	8.871270
2114.000000	8.864048
2113.000000	8.856188
2112.000000	8.838026
2111.000000	8.839194
2110.000000	8.825174
2109.000000	8.800852
2108.000000	8.789806
2107.000000	8.779079
2106.000000	8.761235
2105.000000	8.749552
2104.000000	8.742861
2103.000000	8.732240
2102.000000	8.725867
2101.000000	8.722362
2100.000000	8.695491
2099.000000	8.675417
2098.000000	8.665221
2097.000000	8.659804
2096.000000	8.649289
2095.000000	8.629959
2094.000000	8.620825
2093.000000	8.610522
2092.000000	8.602238
2091.000000	8.593953
2090.000000	8.595653
2089.000000	8.580889
2088.000000	8.559116
2087.000000	8.545309
2086.000000	8.541804
2085.000000	8.544459
2084.000000	8.529696
2083.000000	8.517800
2082.000000	8.501337
2081.000000	8.476803
2080.000000	8.459172
2079.000000	8.430919
2078.000000	8.416156
2077.000000	8.403517
2076.000000	8.369848
2075.000000	8.349349
2074.000000	8.330550
2073.000000	8.304422
2072.000000	8.272771
2071.000000	8.244201
2070.000000	8.214355
2069.000000	8.169428
2068.000000	8.136396
2067.000000	8.122801
2066.000000	8.110693
2065.000000	8.072139
2064.000000	8.024875
2063.000000	7.998110
2062.000000	7.981859
2061.000000	7.947341
2060.000000	7.912079
2059.000000	7.899121
2058.000000	7.879791
2057.000000	7.854725
2056.000000	7.850158
2055.000000	7.844316
2054.000000	7.838900
2053.000000	7.819569
2052.000000	7.833589
2051.000000	7.844847
2050.000000	7.855893
2049.000000	7.878941
2048.000000	7.901033
2047.000000	7.915690
2046.000000	7.937994
2045.000000	7.972619
2044.000000	8.011492
2043.000000	8.027318
2042.000000	8.058119
2041.000000	8.095399
2040.000000	8.128324
2039.000000	8.172933
2038.000000	8.203097
2037.000000	8.219772
2036.000000	8.254078
2035.000000	8.279356
2034.000000	8.315043
2033.000000	8.335648
2032.000000	8.342021
2031.000000	8.364538
2030.000000	8.389178
2029.000000	8.401924
2028.000000	8.406491
2027.000000	8.400012
2026.000000	8.420298
2025.000000	8.440160
2024.000000	8.458428
2023.000000	8.460340
2022.000000	8.445789
2021.000000	8.459596
2020.000000	8.476271
2019.000000	8.460977
2018.000000	8.468199
2017.000000	8.476803
2016.000000	8.463208
2015.000000	8.444302
2014.000000	8.457047
2013.000000	8.454286
2012.000000	8.432300
2011.000000	8.419449
2010.000000	8.413395
2009.000000	8.415200
2008.000000	8.388647
2007.000000	8.360289
2006.000000	8.350624
2005.000000	8.337135
2004.000000	8.317167
2003.000000	8.294863
2002.000000	8.260345
2001.000000	8.245900
2000.000000	8.218604
1999.000000	8.199486
1998.000000	8.166454
1997.000000	8.138308
1996.000000	8.111649
1995.000000	8.080529
1994.000000	8.053233
1993.000000	8.027105
1992.000000	7.983877
1991.000000	7.960723
1990.000000	7.929391
1989.000000	7.881703
1988.000000	7.857168
1987.000000	7.824880
1986.000000	7.793972
1985.000000	7.749364
1984.000000	7.718350
1983.000000	7.677671
1982.000000	7.644640
1981.000000	7.620424
1980.000000	7.586967
1979.000000	7.539703
1978.000000	7.508902
1977.000000	7.488510
1976.000000	7.450167
1975.000000	7.427013
1974.000000	7.377625
1973.000000	7.329937
1972.000000	7.326007
1971.000000	7.289895
1970.000000	7.253783
1969.000000	7.221814
1968.000000	7.191331
1967.000000	7.166159
1966.000000	7.152564
1965.000000	7.124312
1964.000000	7.078854
1963.000000	7.058355
1962.000000	7.042530
1961.000000	7.016614
1960.000000	6.973599
1959.000000	6.959685
1958.000000	6.928247
1957.000000	6.907961
1956.000000	6.889586
1955.000000	6.851669
1954.000000	6.841472
1953.000000	6.810777
1952.000000	6.761602
1951.000000	6.774028
1950.000000	6.756185
1949.000000	6.712214
1948.000000	6.719117
1947.000000	6.679288
1946.000000	6.668455
1945.000000	6.658790
1944.000000	6.659746
1943.000000	6.608977
1942.000000	6.627670
1941.000000	6.621616
1940.000000	6.607277
1939.000000	6.584123
1938.000000	6.590071
1937.000000	6.588053
1936.000000	6.584867
1935.000000	6.576795
1934.000000	6.590602
1933.000000	6.601117
1932.000000	6.587416
1931.000000	6.618854
1930.000000	6.640096
1929.000000	6.657196
1928.000000	6.679713
1927.000000	6.688529
1926.000000	6.705204
1925.000000	6.755442
1924.000000	6.758628
1923.000000	6.798032
1922.000000	6.850500
1921.000000	6.878328
1920.000000	6.897977
1919.000000	6.969032
1918.000000	7.003338
1917.000000	7.052514
1916.000000	7.105725
1915.000000	7.180498
1914.000000	7.236896
1913.000000	7.299348
1912.000000	7.407046
1911.000000	7.430412
1910.000000	7.519205
1909.000000	7.606298
1908.000000	7.711977
1907.000000	7.792804
1906.000000	7.902945
1905.000000	7.988763
1904.000000	8.124501
1903.000000	8.246219
1902.000000	8.346482
1901.000000	8.474891
1900.000000	8.610628
1899.000000	8.747747
1898.000000	8.905789
1897.000000	9.077638
1896.000000	9.234830
1895.000000	9.417832
1894.000000	9.577042
1893.000000	9.798916
1892.000000	9.999230
1891.000000	10.209953
1890.000000	10.458168
1889.000000	10.710419
1888.000000	10.950349
1887.000000	11.221506
1886.000000	11.468128
1885.000000	11.781450
1884.000000	12.092967
1883.000000	12.415636
1882.000000	12.736924
1881.000000	13.090182
1880.000000	13.456822
1879.000000	13.786182
1878.000000	14.152291
1877.000000	14.526791
1876.000000	14.883341
1875.000000	15.233625
1874.000000	15.589432
1873.000000	15.925695
1872.000000	16.267270
1871.000000	16.613730
1870.000000	16.922379
1869.000000	17.207343
1868.000000	17.517267
1867.000000	17.754542
1866.000000	17.997340
1865.000000	18.201796
1864.000000	18.404128
1863.000000	18.606354
1862.000000	18.779478
1861.000000	18.941555
1860.000000	19.123282
1859.000000	19.300336
1858.000000	19.433418
1857.000000	19.552056
1856.000000	19.657736
1855.000000	19.765540
1854.000000	19.854439
1853.000000	19.924538
1852.000000	19.954489
1851.000000	20.017366
1850.000000	20.078119
1849.000000	20.124002
1848.000000	20.155547
1847.000000	20.176152
1846.000000	20.180506
1845.000000	20.161176
1844.000000	20.159901
1843.000000	20.155653
1842.000000	20.172009
1841.000000	20.212794
1840.000000	20.213219
1839.000000	20.188791
1838.000000	20.178701
1837.000000	20.166699
1836.000000	20.142695
1835.000000	20.115187
1834.000000	20.077163
1833.000000	20.043494
1832.000000	20.012905
1831.000000	19.963517
1830.000000	19.938558
1829.000000	19.901490
1828.000000	19.851040
1827.000000	19.789650
1826.000000	19.751945
1825.000000	19.717958
1824.000000	19.667826
1823.000000	19.623217
1822.000000	19.606967
1821.000000	19.606330
1820.000000	19.583707
1819.000000	19.534213
1818.000000	19.497251
1817.000000	19.470698
1816.000000	19.456148
1815.000000	19.445845
1814.000000	19.417487
1813.000000	19.394439
1812.000000	19.387323
1811.000000	19.366506
1810.000000	19.336129
1809.000000	19.293645
1808.000000	19.256259
1807.000000	19.240752
1806.000000	19.208995
1805.000000	19.165767
1804.000000	19.127531
1803.000000	19.092056
1802.000000	19.045748
1801.000000	19.003476
1800.000000	18.951964
1799.000000	18.886857
1798.000000	18.851170
1797.000000	18.812934
1796.000000	18.766945
1795.000000	18.736462
1794.000000	18.700032
1793.000000	18.647245
1792.000000	18.592015
1791.000000	18.547407
1790.000000	18.514056
1789.000000	18.482406
1788.000000	18.440240
1787.000000	18.399667
1786.000000	18.371096
1785.000000	18.327231
1784.000000	18.262867
1783.000000	18.215179
1782.000000	18.168658
1781.000000	18.138601
1780.000000	18.093142
1779.000000	18.021662
1778.000000	17.972805
1777.000000	17.915345
1776.000000	17.859691
1775.000000	17.801700
1774.000000	17.749338
1773.000000	17.672866
1772.000000	17.590340
1771.000000	17.533729
1770.000000	17.469047
1769.000000	17.388964
1768.000000	17.321838
1767.000000	17.243986
1766.000000	17.175267
1765.000000	17.132358
1764.000000	17.083076
1763.000000	17.044415
1762.000000	17.036025
1761.000000	17.019668
1760.000000	17.035069
1759.000000	17.075004
1758.000000	17.128534
1757.000000	17.191199
1756.000000	17.242074
1755.000000	17.286470
1754.000000	17.325662
1753.000000	17.379405
1752.000000	17.414454
1751.000000	17.437927
1750.000000	17.442706
1749.000000	17.442175
1748.000000	17.434528
1747.000000	17.418384
1746.000000	17.391831
1745.000000	17.365916
1744.000000	17.306969
1743.000000	17.208086
1742.000000	17.123967
1741.000000	17.025191
1740.000000	16.901349
1739.000000	16.771347
1738.000000	16.628387
1737.000000	16.501890
1736.000000	16.378579
1735.000000	16.279909
1734.000000	16.179221
1733.000000	16.134188
1732.000000	16.097332
1731.000000	16.085543
1730.000000	16.082994
1729.000000	16.121761
1728.000000	16.199295
1727.000000	16.253781
1726.000000	16.320482
1725.000000	16.391430
1724.000000	16.459087
1723.000000	16.510705
1722.000000	16.556376
1721.000000	16.588452
1720.000000	16.639008
1719.000000	16.703903
1718.000000	16.779950
1717.000000	16.821054
1716.000000	16.884037
1715.000000	16.957535
1714.000000	17.031458
1713.000000	17.109098
1712.000000	17.154981
1711.000000	17.230072
1710.000000	17.301552
1709.000000	17.355932
1708.000000	17.370271
1707.000000	17.382060
1706.000000	17.360712
1705.000000	17.337451
1704.000000	17.309306
1703.000000	17.252270
1702.000000	17.208193
1701.000000	17.146590
1700.000000	17.066507
1699.000000	16.966669
1698.000000	16.872460
1697.000000	16.782605
1696.000000	16.665242
1695.000000	16.599923
1694.000000	16.574857
1693.000000	16.567422
1692.000000	16.590576
1691.000000	16.670765
1690.000000	16.763487
1689.000000	16.869061
1688.000000	16.958916
1687.000000	17.054824
1686.000000	17.140111
1685.000000	17.188331
1684.000000	17.259280
1683.000000	17.350091
1682.000000	17.464586
1681.000000	17.669467
1680.000000	17.926710
1679.000000	18.221551
1678.000000	18.574384
1677.000000	18.952283
1676.000000	19.323596
1675.000000	19.690555
1674.000000	20.001222
1673.000000	20.302330
1672.000000	20.595048
1671.000000	20.816391
1670.000000	20.986966
1669.000000	21.177084
1668.000000	21.318663
1667.000000	21.465765
1666.000000	21.586739
1665.000000	21.664486
1664.000000	21.751154
1663.000000	21.855772
1662.000000	21.908771
1661.000000	21.968993
1660.000000	22.022842
1659.000000	22.095915
1658.000000	22.117475
1657.000000	22.151994
1656.000000	22.171749
1655.000000	22.163252
1654.000000	22.191929
1653.000000	22.188318
1652.000000	22.200851
1651.000000	22.160278
1650.000000	22.158473
1649.000000	22.116307
1648.000000	22.084762
1647.000000	22.067025
1646.000000	22.025709
1645.000000	21.992571
1644.000000	21.926827
1643.000000	21.897194
1642.000000	21.813181
1641.000000	21.771653
1640.000000	21.734373
1639.000000	21.715042
1638.000000	21.642288
1637.000000	21.594068
1636.000000	21.535333
1635.000000	21.467995
1634.000000	21.417120
1633.000000	21.350845
1632.000000	21.266620
1631.000000	21.201406
1630.000000	21.157541
1629.000000	21.082981
1628.000000	21.023078
1627.000000	20.941295
1626.000000	20.858982
1625.000000	20.787714
1624.000000	20.703489
1623.000000	20.650915
1622.000000	20.582621
1621.000000	20.494360
1620.000000	20.432439
1619.000000	20.358834
1618.000000	20.284805
1617.000000	20.234568
1616.000000	20.179126
1615.000000	20.108283
1614.000000	20.029899
1613.000000	19.965748
1612.000000	19.904995
1611.000000	19.850934
1610.000000	19.778392
1609.000000	19.718382
1608.000000	19.651682
1607.000000	19.585513
1606.000000	19.511483
1605.000000	19.439791
1604.000000	19.377870
1603.000000	19.304691
1602.000000	19.233742
1601.000000	19.165554
1600.000000	19.100341
1599.000000	19.045005
1598.000000	18.973100
1597.000000	18.893548
1596.000000	18.838212
1595.000000	18.785956
1594.000000	18.721805
1593.000000	18.646926
1592.000000	18.599025
1591.000000	18.541671
1590.000000	18.476670
1589.000000	18.425264
1588.000000	18.360582
1587.000000	18.308963
1586.000000	18.280074
1585.000000	18.215179
1584.000000	18.153364
1583.000000	18.122138
1582.000000	18.078167
1581.000000	18.019963
1580.000000	17.972062
1579.000000	17.924692
1578.000000	17.894847
1577.000000	17.855548
1576.000000	17.814126
1575.000000	17.792353
1574.000000	17.763039
1573.000000	17.736698
1572.000000	17.716625
1571.000000	17.694639
1570.000000	17.671485
1569.000000	17.651517
1568.000000	17.620928
1567.000000	17.621884
1566.000000	17.613706
1565.000000	17.608608
1564.000000	17.588322
1563.000000	17.573983
1562.000000	17.551467
1561.000000	17.529268
1560.000000	17.519497
1559.000000	17.495918
1558.000000	17.484447
1557.000000	17.453009
1556.000000	17.422845
1555.000000	17.390982
1554.000000	17.349666
1553.000000	17.317165
1552.000000	17.282540
1551.000000	17.246960
1550.000000	17.206600
1549.000000	17.154025
1548.000000	17.108354
1547.000000	17.078297
1546.000000	17.036662
1545.000000	16.991098
1544.000000	16.952543
1543.000000	16.906554
1542.000000	16.883824
1541.000000	16.858440
1540.000000	16.818186
1539.000000	16.794607
1538.000000	16.749468
1537.000000	16.712081
1536.000000	16.684891
1535.000000	16.641982
1534.000000	16.605339
1533.000000	16.580698
1532.000000	16.547136
1531.000000	16.500934
1530.000000	16.457387
1529.000000	16.424674
1528.000000	16.376136
1527.000000	16.315383
1526.000000	16.267057
1525.000000	16.222874
1524.000000	16.181345
1523.000000	16.140454
1522.000000	16.078533
1521.000000	16.039872
1520.000000	15.984855
1519.000000	15.922828
1518.000000	15.883955
1517.000000	15.835841
1516.000000	15.775301
1515.000000	15.722726
1514.000000	15.667709
1513.000000	15.613010
1512.000000	15.551514
1511.000000	15.491080
1510.000000	15.435107
1509.000000	15.378497
1508.000000	15.318912
1507.000000	15.279508
1506.000000	15.236811
1505.000000	15.166924
1504.000000	15.105534
1503.000000	15.054659
1502.000000	15.008670
1501.000000	14.949511
1500.000000	14.896405
1499.000000	14.842450
1498.000000	14.793062
1497.000000	14.735071
1496.000000	14.701508
1495.000000	14.659130
1494.000000	14.605175
1493.000000	14.579365
1492.000000	14.549414
1491.000000	14.502362
1490.000000	14.466888
1489.000000	14.428971
1488.000000	14.391691
1487.000000	14.373529
1486.000000	14.340391
1485.000000	14.311289
1484.000000	14.293233
1483.000000	14.260308
1482.000000	14.227064
1481.000000	14.204759
1480.000000	14.199024
1479.000000	14.183836
1478.000000	14.161531
1477.000000	14.144325
1476.000000	14.120959
1475.000000	14.104496
1474.000000	14.105133
1473.000000	14.094088
1472.000000	14.088246
1471.000000	14.101097
1470.000000	14.076563
1469.000000	14.070190
1468.000000	14.080280
1467.000000	14.076032
1466.000000	14.073589
1465.000000	14.083891
1464.000000	14.095362
1463.000000	14.082404
1462.000000	14.097061
1461.000000	14.125951
1460.000000	14.158239
1459.000000	14.180968
1458.000000	14.200830
1457.000000	14.234286
1456.000000	14.262751
1455.000000	14.299924
1454.000000	14.330088
1453.000000	14.365456
1452.000000	14.434494
1451.000000	14.475703
1450.000000	14.518825
1449.000000	14.577985
1448.000000	14.617495
1447.000000	14.670919
1446.000000	14.738576
1445.000000	14.784034
1444.000000	14.833422
1443.000000	14.884722
1442.000000	14.948873
1441.000000	15.018548
1440.000000	15.084717
1439.000000	15.162888
1438.000000	15.251150
1437.000000	15.319231
1436.000000	15.384551
1435.000000	15.467820
1434.000000	15.549815
1433.000000	15.659106
1432.000000	15.764149
1431.000000	15.848480
1430.000000	15.940990
1429.000000	16.039872
1428.000000	16.163077
1427.000000	16.278422
1426.000000	16.420426
1425.000000	16.535559
1424.000000	16.703903
1423.000000	16.867468
1422.000000	17.000338
1421.000000	17.175480
1420.000000	17.354339
1419.000000	17.550192
1418.000000	17.741159
1417.000000	17.952200
1416.000000	18.116403
1415.000000	18.349854
1414.000000	18.586067
1413.000000	18.833964
1412.000000	19.082816
1411.000000	19.295769
1410.000000	19.610472
1409.000000	19.917634
1408.000000	20.254323
1407.000000	20.574549
1406.000000	20.923346
1405.000000	21.267894
1404.000000	21.667672
1403.000000	22.036649
1402.000000	22.439082
1401.000000	22.831213
1400.000000	23.268696
1399.000000	23.708622
1398.000000	24.093955
1397.000000	24.419173
1396.000000	24.821713
1395.000000	25.304229
1394.000000	25.755838
1393.000000	26.125664
1392.000000	26.504625
1391.000000	26.955809
1390.000000	27.441831
1389.000000	27.895564
1388.000000	28.429699
1387.000000	29.019913
1386.000000	29.607153
1385.000000	30.179949
1384.000000	30.774518
1383.000000	31.430371
1382.000000	32.083143
1381.000000	32.688758
1380.000000	33.222893
1379.000000	33.617679
1378.000000	34.018201
1377.000000	34.316335
1376.000000	34.609583
1375.000000	34.874898
1374.000000	35.156888
1373.000000	35.452579
1372.000000	35.784489
1371.000000	36.132117
1370.000000	36.506617
1369.000000	36.842668
1368.000000	37.174790
1367.000000	37.480571
1366.000000	37.768191
1365.000000	38.025434
1364.000000	38.267064
1363.000000	38.467802
1362.000000	38.663124
1361.000000	38.913039
1360.000000	39.102413
1359.000000	39.174530
1358.000000	39.327899
1357.000000	39.441651
1356.000000	39.620935
1355.000000	39.854280
1354.000000	40.116621
1353.000000	40.456284
1352.000000	40.781183
1351.000000	41.229393
1350.000000	41.698633
1349.000000	42.119654
1348.000000	42.525910
1347.000000	42.926113
1346.000000	43.317607
1345.000000	43.640276
1344.000000	44.006066
1343.000000	44.380248
1342.000000	44.716830
1341.000000	45.061272
1340.000000	45.395412
1339.000000	45.745271
1338.000000	46.079941
1337.000000	46.409302
1336.000000	46.725492
1335.000000	47.077369
1334.000000	47.395577
1333.000000	47.717396
1332.000000	48.048030
1331.000000	48.356467
1330.000000	48.679348
1329.000000	48.974827
1328.000000	49.271581
1327.000000	49.548366
1326.000000	49.830781
1325.000000	50.087175
1324.000000	50.359287
1323.000000	50.605590
1322.000000	50.838511
1321.000000	51.080990
1320.000000	51.319009
1319.000000	51.526545
1318.000000	51.749907
1317.000000	51.946504
1316.000000	52.174432
1315.000000	52.355309
1314.000000	52.537355
1313.000000	52.723543
1312.000000	52.908987
1311.000000	53.069366
1310.000000	53.226452
1309.000000	53.387999
1308.000000	53.525329
1307.000000	53.655969
1306.000000	53.784272
1305.000000	53.896430
1304.000000	54.018254
1303.000000	54.120642
1302.000000	54.210602
1301.000000	54.292916
1300.000000	54.375973
1299.000000	54.436301
1298.000000	54.513622
1297.000000	54.561736
1296.000000	54.630348
1295.000000	54.669540
1294.000000	54.713086
1293.000000	54.756314
1292.000000	54.800073
1291.000000	54.840752
1290.000000	54.847125
1289.000000	54.855515
1288.000000	54.870172
1287.000000	54.865287
1286.000000	54.842345
1285.000000	54.824820
1284.000000	54.816324
1283.000000	54.789452
1282.000000	54.754296
1281.000000	54.717229
1280.000000	54.675488
1279.000000	54.654033
1278.000000	54.605282
1277.000000	54.557594
1276.000000	54.523819
1275.000000	54.477404
1274.000000	54.447559
1273.000000	54.425998
1272.000000	54.395622
1271.000000	54.372787
1270.000000	54.352394
1269.000000	54.329453
1268.000000	54.301307
1267.000000	54.270824
1266.000000	54.243315
1265.000000	54.215807
1264.000000	54.182881
1263.000000	54.127014
1262.000000	54.076670
1261.000000	54.044701
1260.000000	54.008695
1259.000000	53.973433
1258.000000	53.919903
1257.000000	53.855221
1256.000000	53.818153
1255.000000	53.754214
1254.000000	53.679866
1253.000000	53.621344
1252.000000	53.543491
1251.000000	53.463302
1250.000000	53.391928
1249.000000	53.299844
1248.000000	53.219973
1247.000000	53.118860
1246.000000	53.018384
1245.000000	52.924600
1244.000000	52.818920
1243.000000	52.698902
1242.000000	52.579202
1241.000000	52.442509
1240.000000	52.316649
1239.000000	52.206083
1238.000000	52.073107
1237.000000	51.946822
1236.000000	51.829140
1235.000000	51.691491
1234.000000	51.538547
1233.000000	51.398986
1232.000000	51.256026
1231.000000	51.102657
1230.000000	50.938031
1229.000000	50.776908
1228.000000	50.623009
1227.000000	50.452965
1226.000000	50.273893
1225.000000	50.099389
1224.000000	49.922760
1223.000000	49.739440
1222.000000	49.561643
1221.000000	49.381721
1220.000000	49.195321
1219.000000	49.009240
1218.000000	48.831867
1217.000000	48.657150
1216.000000	48.478610
1215.000000	48.316850
1214.000000	48.151267
1213.000000	47.987490
1212.000000	47.831573
1211.000000	47.688188
1210.000000	47.549264
1209.000000	47.391116
1208.000000	47.253466
1207.000000	47.140033
1206.000000	47.009712
1205.000000	46.882365
1204.000000	46.785076
1203.000000	46.697877
1202.000000	46.620980
1201.000000	46.557041
1200.000000	46.501174
1199.000000	46.428951
1198.000000	46.348655
1197.000000	46.253278
1196.000000	46.123382
1195.000000	45.983608
1194.000000	45.808572
1193.000000	45.573740
1192.000000	45.290900
1191.000000	44.977259
1190.000000	44.624320
1189.000000	44.247696
1188.000000	43.921098
1187.000000	43.636983
1186.000000	43.443467
1185.000000	43.341823
1184.000000	43.326210
1183.000000	43.439325
1182.000000	43.664279
1181.000000	43.985249
1180.000000	44.390869
1179.000000	44.834830
1178.000000	45.282191
1177.000000	45.712239
1176.000000	46.098847
1175.000000	46.452105
1174.000000	46.773499
1173.000000	47.080449
1172.000000	47.371785
1171.000000	47.665565
1170.000000	47.948511
1169.000000	48.259496
1168.000000	48.575049
1167.000000	48.890071
1166.000000	49.238868
1165.000000	49.572370
1164.000000	49.908209
1163.000000	50.275062
1162.000000	50.642445
1161.000000	51.004943
1160.000000	51.373283
1159.000000	51.737905
1158.000000	52.115698
1157.000000	52.473947
1156.000000	52.808299
1155.000000	53.138509
1154.000000	53.456611
1153.000000	53.717784
1152.000000	53.956864
1151.000000	54.151124
1150.000000	54.333595
1149.000000	54.498328
1148.000000	54.660193
1147.000000	54.835442
1146.000000	55.022267
1145.000000	55.262197
1144.000000	55.531867
1143.000000	55.854111
1142.000000	56.207050
1141.000000	56.614263
1140.000000	57.023281
1139.000000	57.474678
1138.000000	57.922463
1137.000000	58.406360
1136.000000	58.911606
1135.000000	59.418975
1134.000000	59.954491
1133.000000	60.457506
1132.000000	60.873003
1131.000000	61.327055
1130.000000	61.708671
1129.000000	62.051520
1128.000000	62.360913
1127.000000	62.617412
1126.000000	62.821231
1125.000000	62.993399
1124.000000	63.124675
1123.000000	63.258501
1122.000000	63.347506
1121.000000	63.432475
1120.000000	63.493121
1119.000000	63.542828
1118.000000	63.599970
1117.000000	63.626204
1116.000000	63.652119
1115.000000	63.655305
1114.000000	63.669750
1113.000000	63.664333
1112.000000	63.663484
1111.000000	63.649570
1110.000000	63.653287
1109.000000	63.652863
1108.000000	63.646915
1107.000000	63.639374
1106.000000	63.642029
1105.000000	63.635232
1104.000000	63.643516
1103.000000	63.615476
1102.000000	63.612290
1101.000000	63.607723
1100.000000	63.596677
1099.000000	63.575966
1098.000000	63.562265
1097.000000	63.538155
1096.000000	63.524666
1095.000000	63.503424
1094.000000	63.463488
1093.000000	63.451699
1092.000000	63.382237
1091.000000	63.376926
1090.000000	63.324564
1089.000000	63.284204
1088.000000	63.240233
1087.000000	63.181180
1086.000000	63.155583
1085.000000	63.088776
1084.000000	63.037158
1083.000000	62.962704
1082.000000	62.926061
1081.000000	62.851607
1080.000000	62.803281
1079.000000	62.733819
1078.000000	62.673279
1077.000000	62.611252
1076.000000	62.535842
1075.000000	62.485073
1074.000000	62.439933
1073.000000	62.334254
1072.000000	62.260649
1071.000000	62.216466
1070.000000	62.153589
1069.000000	62.086039
1068.000000	62.000433
1067.000000	61.933944
1066.000000	61.853437
1065.000000	61.794065
1064.000000	61.713238
1063.000000	61.613400
1062.000000	61.563162
1061.000000	61.457801
1060.000000	61.362530
1059.000000	61.297635
1058.000000	61.206187
1057.000000	61.121324
1056.000000	61.060253
1055.000000	60.950962
1054.000000	60.868224
1053.000000	60.729087
1052.000000	60.667273
1051.000000	60.583578
1050.000000	60.491387
1049.000000	60.398346
1048.000000	60.323468
1047.000000	60.254324
1046.000000	60.156610
1045.000000	60.066225
1044.000000	60.001542
1043.000000	59.914768
1042.000000	59.822471
1041.000000	59.745893
1040.000000	59.686521
1039.000000	59.578929
1038.000000	59.465921
1037.000000	59.401344
1036.000000	59.321474
1035.000000	59.207615
1034.000000	59.107671
1033.000000	59.039059
1032.000000	58.926050
1031.000000	58.838639
1030.000000	58.713947
1029.000000	58.629934
1028.000000	58.530733
1027.000000	58.421761
1026.000000	58.313744
1025.000000	58.208595
1024.000000	58.105252
1023.000000	57.987464
1022.000000	57.893042
1021.000000	57.762297
1020.000000	57.634419
1019.000000	57.537448
1018.000000	57.424227
1017.000000	57.337347
1016.000000	57.215948
1015.000000	57.111117
1014.000000	57.026998
1013.000000	56.942030
1012.000000	56.864071
1011.000000	56.806504
1010.000000	56.736405
1009.000000	56.659827
1008.000000	56.605766
1007.000000	56.579001
1006.000000	56.510176
1005.000000	56.444856
1004.000000	56.392813
1003.000000	56.359144
1002.000000	56.337052
1001.000000	56.286177
1000.000000	56.225424
999.000000	56.167433
998.000000	56.123674
997.000000	56.098715
996.000000	56.068126
995.000000	56.016295
994.000000	55.974448
993.000000	55.927078
992.000000	55.887461
991.000000	55.843383
990.000000	55.796120
989.000000	55.764681
988.000000	55.757140
987.000000	55.725383
986.000000	55.689696
985.000000	55.681306
984.000000	55.666542
983.000000	55.646256
982.000000	55.628306
981.000000	55.612162
980.000000	55.589008
979.000000	55.586884
978.000000	55.575307
977.000000	55.579237
976.000000	55.566916
975.000000	55.558844
974.000000	55.543444
973.000000	55.533035
972.000000	55.556508
971.000000	55.550454
970.000000	55.532079
969.000000	55.534734
968.000000	55.541851
967.000000	55.548011
966.000000	55.559694
965.000000	55.549498
964.000000	55.577325
963.000000	55.597399
962.000000	55.613968
961.000000	55.639777
960.000000	55.644132
959.000000	55.676420
958.000000	55.702548
957.000000	55.710832
956.000000	55.735473
955.000000	55.774240
954.000000	55.804298
953.000000	55.830001
952.000000	55.849862
951.000000	55.862714
950.000000	55.907641
949.000000	55.945134
948.000000	55.966163
947.000000	55.993460
946.000000	56.011728
945.000000	56.023517
944.000000	56.047415
943.000000	56.054849
942.000000	56.050495
941.000000	56.060797
940.000000	56.074286
939.000000	56.081721
938.000000	56.073755
937.000000	56.049645
936.000000	56.055805
935.000000	56.056336
934.000000	56.038599
933.000000	56.020225
932.000000	56.000469
931.000000	55.998664
930.000000	55.996858
929.000000	55.969668
928.000000	55.957454
927.000000	55.960534
926.000000	55.932813
925.000000	55.905198
924.000000	55.903817
923.000000	55.883531
922.000000	55.852411
921.000000	55.851562
920.000000	55.837648
919.000000	55.813751
918.000000	55.785711
917.000000	55.747369
916.000000	55.720816
915.000000	55.688315
914.000000	55.647637
913.000000	55.605259
912.000000	55.560969
911.000000	55.528999
910.000000	55.496392
909.000000	55.459431
908.000000	55.442437
907.000000	55.421726
906.000000	55.411530
905.000000	55.412804
904.000000	55.407281
903.000000	55.382853
902.000000	55.395279
901.000000	55.408025
900.000000	55.416840
899.000000	55.438932
898.000000	55.465804
897.000000	55.476318
896.000000	55.505951
895.000000	55.526344
894.000000	55.528680
893.000000	55.539408
892.000000	55.539514
891.000000	55.548223
890.000000	55.542275
889.000000	55.535797
888.000000	55.554596
887.000000	55.529211
886.000000	55.515085
885.000000	55.473557
884.000000	55.461236
883.000000	55.442118
882.000000	55.392943
881.000000	55.363735
880.000000	55.322313
879.000000	55.271862
878.000000	55.210897
877.000000	55.158748
876.000000	55.083550
875.000000	54.967249
874.000000	54.849992
873.000000	54.758757
872.000000	54.627799
871.000000	54.451276
870.000000	54.305343
869.000000	54.249157
868.000000	54.268063
867.000000	54.319256
866.000000	54.368963
865.000000	54.406774
864.000000	54.402313
863.000000	54.410067
862.000000	54.454675
861.000000	54.445222
860.000000	54.464659
859.000000	54.488875
858.000000	54.489300
857.000000	54.396200
856.000000	54.498500
855.000000	54.573200
854.000000	53.952300
853.000000	54.483900
852.000000	54.784600
851.000000	54.713600
850.000000	54.431600
849.000000	54.615000
848.000000	54.770400
847.000000	54.738400
846.000000	54.520400
845.000000	54.658100
844.000000	54.732800
843.000000	54.499900
842.000000	54.438800
841.000000	54.217400
840.000000	54.035500
839.000000	53.983500
838.000000	54.120000
837.000000	54.065400
836.000000	54.237500
835.000000	53.870200
834.000000	54.059800
833.000000	53.867700
832.000000	53.929700
831.000000	53.882000
830.000000	53.737000
829.000000	53.658300
828.000000	53.674400
827.000000	53.700000
826.000000	53.582000
825.000000	53.447100
824.000000	53.226800
823.000000	53.220500
822.000000	53.154300
821.000000	53.154100
820.000000	53.131100
819.000000	52.982300
818.000000	52.800600
817.000000	52.997200
816.000000	52.694700
815.000000	52.467600
814.000000	52.526100
813.000000	52.453200
812.000000	52.282400
811.000000	52.261000
810.000000	52.144400
809.000000	52.016200
808.000000	51.819800
807.000000	51.849900
806.000000	51.757000
805.000000	51.615500
804.000000	51.443300
803.000000	51.519600
802.000000	51.460700
801.000000	51.241100
800.000000	51.127400
799.000000	51.057500
798.000000	50.818900
797.000000	50.711400
796.000000	50.766800
795.000000	50.476900
794.000000	50.281000
793.000000	50.306500
792.000000	50.096800
791.000000	49.971100
790.000000	49.934100
789.000000	49.653400
788.000000	49.569400
787.000000	49.436600
786.000000	49.362300
785.000000	49.251900
784.000000	49.052300
783.000000	48.953900
782.000000	48.767600
781.000000	48.491800
780.000000	48.523400
779.000000	48.324700
778.000000	48.232100
777.000000	48.041700
776.000000	47.894400
775.000000	47.652200
774.000000	47.520900
773.000000	47.433700
772.000000	47.239600
771.000000	47.060900
770.000000	46.893200
769.000000	46.729700
768.000000	46.686400
767.000000	46.509900
766.000000	46.378200
765.000000	46.086700
764.000000	45.948700
763.000000	45.719800
762.000000	45.723900
761.000000	45.467900
760.000000	45.333800
759.000000	45.126700
758.000000	44.843500
757.000000	44.757900
756.000000	44.527900
755.000000	44.345500
754.000000	44.205600
753.000000	43.996800
752.000000	43.870900
751.000000	43.643900
750.000000	43.452700
749.000000	43.304700
748.000000	43.110600
747.000000	42.947300
746.000000	42.686100
745.000000	42.587600
744.000000	42.378800
743.000000	42.175200
742.000000	41.940600
741.000000	41.768200
740.000000	41.565100
739.000000	41.298400
738.000000	41.056400
737.000000	40.864100
736.000000	40.639000
735.000000	40.408200
734.000000	40.180900
733.000000	39.980200
732.000000	39.755500
731.000000	39.475700
730.000000	39.252500
729.000000	39.059000
728.000000	38.792900
727.000000	38.538400
726.000000	38.342300
725.000000	38.146600
724.000000	37.844200
723.000000	37.575700
722.000000	37.333800
721.000000	37.059100
720.000000	36.807400
719.000000	36.521300
718.000000	36.260300
717.000000	36.011500
716.000000	35.757500
715.000000	35.473200
714.000000	35.193000
713.000000	34.923800
712.000000	34.688600
711.000000	34.430600
710.000000	34.165200
709.000000	33.939000
708.000000	33.650000
707.000000	33.413200
706.000000	33.122400
705.000000	32.875000
704.000000	32.646900
703.000000	32.392400
702.000000	32.164700
701.000000	31.947600
700.000000	31.710700
699.000000	31.438600
698.000000	31.214500
697.000000	30.973500
696.000000	30.758300
695.000000	30.542000
694.000000	30.320600
693.000000	30.063700
692.000000	29.862100
691.000000	29.691400
690.000000	29.481900
689.000000	29.255100
688.000000	29.052100
687.000000	28.853500
686.000000	28.688300
685.000000	28.491600
684.000000	28.328800
683.000000	28.128800
682.000000	27.934900
681.000000	27.757900
680.000000	27.580700
679.000000	27.404200
678.000000	27.232000
677.000000	27.076100
676.000000	26.903400
675.000000	26.754400
674.000000	26.584700
673.000000	26.414300
672.000000	26.271200
671.000000	26.124400
670.000000	25.974000
669.000000	25.838000
668.000000	25.684500
667.000000	25.554800
666.000000	25.425500
665.000000	25.296500
664.000000	25.168400
663.000000	25.071300
662.000000	24.965300
661.000000	24.843800
660.000000	24.708000
659.000000	24.587400
658.000000	24.493300
657.000000	24.394000
656.000000	24.303900
655.000000	24.214900
654.000000	24.101000
653.000000	24.015600
652.000000	23.933700
651.000000	23.835300
650.000000	23.727500
649.000000	23.644800
648.000000	23.578700
647.000000	23.493200
646.000000	23.424800
645.000000	23.373700
644.000000	23.319500
643.000000	23.257600
642.000000	23.193500
641.000000	23.113100
640.000000	23.058400
639.000000	23.022200
638.000000	22.985300
637.000000	22.936000
636.000000	22.892000
635.000000	22.876000
634.000000	22.850000
633.000000	22.818300
632.000000	22.799600
631.000000	22.770500
630.000000	22.751700
629.000000	22.755900
628.000000	22.734600
627.000000	22.737800
626.000000	22.778700
625.000000	22.775800
624.000000	22.771400
623.000000	22.782700
622.000000	22.818300
621.000000	22.858900
620.000000	22.878600
619.000000	22.917500
618.000000	22.983000
617.000000	23.025300
616.000000	23.085700
615.000000	23.147600
614.000000	23.198000
613.000000	23.278400
612.000000	23.330100
611.000000	23.399700
610.000000	23.489900
609.000000	23.570200
608.000000	23.652800
607.000000	23.736500
606.000000	23.829900
605.000000	23.935600
604.000000	24.045300
603.000000	24.154100
602.000000	24.270600
601.000000	24.365000
600.000000	24.467600
599.000000	24.588500
598.000000	24.677600
597.000000	24.787600
596.000000	24.899100
595.000000	24.994200
594.000000	25.105500
593.000000	25.215000
592.000000	25.306400
591.000000	25.383700
590.000000	25.460800
589.000000	25.557100
588.000000	25.665000
587.000000	25.713800
586.000000	25.776900
585.000000	25.850100
584.000000	25.903100
583.000000	25.942300
582.000000	25.986900
581.000000	26.036300
580.000000	26.052700
579.000000	26.063600
578.000000	26.095700
577.000000	26.102800
576.000000	26.090100
575.000000	26.078300
574.000000	26.061900
573.000000	26.049000
572.000000	26.013600
571.000000	25.980100
570.000000	25.950600
569.000000	25.900700
568.000000	25.862600
567.000000	25.796600
566.000000	25.718300
565.000000	25.652300
564.000000	25.577100
563.000000	25.475700
562.000000	25.397000
561.000000	25.293000
560.000000	25.184200
559.000000	25.017100
558.000000	24.889000
557.000000	24.765100
556.000000	24.625400
555.000000	24.488100
554.000000	24.356200
553.000000	24.179500
552.000000	24.009700
551.000000	23.864000
550.000000	23.683500
549.000000	23.485300
548.000000	23.284600
547.000000	23.107100
546.000000	22.894900
545.000000	22.681300
544.000000	22.454400
543.000000	22.239600
542.000000	21.990000
541.000000	21.744000
540.000000	21.472200
539.000000	21.218300
538.000000	20.958300
537.000000	20.696700
536.000000	20.409500
535.000000	20.114900
534.000000	19.829900
533.000000	19.538800
532.000000	19.234600
531.000000	18.920000
530.000000	18.619500
529.000000	18.311900
528.000000	17.990400
527.000000	17.673100
526.000000	17.362100
525.000000	17.056100
524.000000	16.739400
523.000000	16.427600
522.000000	16.103200
521.000000	15.782500
520.000000	15.492300
519.000000	15.173300
518.000000	14.891900
517.000000	14.601700
516.000000	14.314200
515.000000	14.044500
514.000000	13.776000
513.000000	13.498000
512.000000	13.257400
511.000000	13.007500
510.000000	12.792800
509.000000	12.568200
508.000000	12.356300
507.000000	12.157000
506.000000	11.953100
505.000000	11.757700
504.000000	11.586500
503.000000	11.410600
502.000000	11.248400
501.000000	11.123700
500.000000	10.960300
499.000000	10.820400
498.000000	10.720700
497.000000	10.573400
496.000000	10.459200
495.000000	10.358800
494.000000	10.250500
493.000000	10.167400
492.000000	10.063300
491.000000	9.990300
490.000000	9.897500
489.000000	9.825200
488.000000	9.756400
487.000000	9.696700
486.000000	9.623600
485.000000	9.566300
484.000000	9.496300
483.000000	9.414400
482.000000	9.350900
481.000000	9.291000
480.000000	9.208600
479.000000	9.140000
478.000000	9.078500
477.000000	9.021900
476.000000	8.934700
475.000000	8.893800
474.000000	8.816300
473.000000	8.749300
472.000000	8.687800
471.000000	8.627200
470.000000	8.580500
469.000000	8.509400
468.000000	8.457900
467.000000	8.409700
466.000000	8.350900
465.000000	8.305500
464.000000	8.271500
463.000000	8.208600
462.000000	8.165400
461.000000	8.125000
460.000000	8.074200
459.000000	8.028300
458.000000	7.995700
457.000000	7.946400
456.000000	7.907000
455.000000	7.878200
454.000000	7.841200
453.000000	7.794700
452.000000	7.756200
451.000000	7.721000
450.000000	7.684900
449.000000	7.641300
448.000000	7.586400
447.000000	7.556200
446.000000	7.506200
445.000000	7.473700
444.000000	7.450400
443.000000	7.401100
442.000000	7.368900
441.000000	7.327500
440.000000	7.276400
439.000000	7.231000
438.000000	7.207100
437.000000	7.185300
436.000000	7.141700
435.000000	7.108500
434.000000	7.077900
433.000000	7.029200
432.000000	7.021400
431.000000	6.995800
430.000000	6.961100
429.000000	6.923000
428.000000	6.873400
427.000000	6.873500
426.000000	6.838100
425.000000	6.823200
424.000000	6.811000
423.000000	6.756000
422.000000	6.736400
421.000000	6.706800
420.000000	6.681700
419.000000	6.653200
418.000000	6.624500
417.000000	6.608800
416.000000	6.575200
415.000000	6.545500
414.000000	6.535700
413.000000	6.507300
412.000000	6.486300
411.000000	6.447200
410.000000	6.416900
409.000000	6.380800
408.000000	6.366500
407.000000	6.317900
406.000000	6.304100
405.000000	6.262700
404.000000	6.218700
403.000000	6.187600
402.000000	6.178300
401.000000	6.136000
400.000000	6.083200
399.000000	6.043900
398.000000	6.017500
397.000000	5.972400
396.000000	5.918300
395.000000	5.882200
394.000000	5.839300
393.000000	5.791300
392.000000	5.745600
391.000000	5.700200
390.000000	5.630700
389.000000	5.601200
388.000000	5.572900
387.000000	5.528900
386.000000	5.478200
385.000000	5.426700
384.000000	5.391600
383.000000	5.346700
382.000000	5.307600
381.000000	5.259600
380.000000	5.200900
379.000000	5.158400
378.000000	5.139100
377.000000	5.102800
376.000000	4.958100
375.000000	4.787900
374.000000	4.821600
373.000000	4.748500
372.000000	4.722900
371.000000	4.686300
370.000000	4.626600
369.000000	4.657600
368.000000	4.619800
367.000000	4.603500
366.000000	4.602100
365.000000	4.559200
364.000000	4.473100
363.000000	4.486400
362.000000	4.505900
361.000000	4.427300
360.000000	4.406400
359.000000	4.403600
358.000000	4.346800
357.000000	4.410400
356.000000	4.432700
355.000000	4.372500
354.000000	4.364000
353.000000	4.383400
352.000000	4.323800
351.000000	4.314600
350.000000	4.279800
349.000000	4.250500
348.000000	4.261400
347.000000	4.274900
346.000000	4.321400
345.000000	4.311900
344.000000	4.288600
343.000000	4.274600
342.000000	4.216500
341.000000	4.249800
340.000000	4.279200
339.000000	4.259700
338.000000	4.308600
337.000000	4.292600
336.000000	4.219400
335.000000	4.218200
334.000000	4.203300
333.000000	4.236000
332.000000	4.302800
331.000000	4.308900
330.000000	4.311900
329.000000	4.319100
328.000000	4.311600
327.000000	4.240600
326.000000	4.218700
325.000000	4.244300
324.000000	4.279900
323.000000	4.268100
322.000000	4.199100
321.000000	4.259500
320.000000	4.374500
319.000000	4.337600
318.000000	4.304800
317.000000	4.226800
316.000000	4.238500
315.000000	4.284900
314.000000	4.290700
313.000000	4.309500
312.000000	4.313900
311.000000	4.348300
310.000000	4.329900
309.000000	4.345000
308.000000	4.369800
307.000000	4.365100
306.000000	4.338100
305.000000	4.321000
304.000000	4.323700
303.000000	4.340100
302.000000	4.354100
301.000000	4.344400
300.000000	4.341000
299.000000	4.373800
298.000000	4.363800
297.000000	4.359500
296.000000	4.368300
295.000000	4.359900
294.000000	4.364200
293.000000	4.361700
292.000000	4.375600
291.000000	4.367500
290.000000	4.352400
289.000000	4.352800
288.000000	4.347400
287.000000	4.369000
286.000000	4.406300
285.000000	4.400000
284.000000	4.388400
283.000000	4.413600
282.000000	4.438000
281.000000	4.438300
280.000000	4.424000
279.000000	4.417900
278.000000	4.435500
277.000000	4.456100
276.000000	4.459300
275.000000	4.458900
274.000000	4.484100
273.000000	4.500300
272.000000	4.518300
271.000000	4.534100
270.000000	4.527500
269.000000	4.545500
268.000000	4.562400
267.000000	4.577500
266.000000	4.607200
265.000000	4.614600
264.000000	4.650300
263.000000	4.668600
262.000000	4.689400
261.000000	4.711700
260.000000	4.730700
259.000000	4.741800
258.000000	4.772500
257.000000	4.802800
256.000000	4.818100
255.000000	4.808000
254.000000	4.814600
253.000000	4.848300
252.000000	4.864600
251.000000	4.872100
250.000000	4.876200
