PE UV       SUBTECH     SPECTRUM    ASCII       PEDS        4.00        
   -1
CICIMAUCR0252-3.ASC
24/06/27
16:45:06.00
24/06/27
16:45:06.00
Vinicio Soto Monge
C. resplendens. Sex F. Ventral
250,000000
1
Lambda 1050
1050L1511233
PerkinElmer UV WinLab 6.3.2.0749 / 2.02.05 Lambda 900 UV/VIS/NIR, Aug  7 2015 09:38:08

0
0
3350/servo 860,8/2
0
0
UV/VIS
1
1
1
DoubleDePol,CommonBeamDepol,RBeamAtt,SBeamAtt,60mm sphere, WB InGaAs Detector
0
0
0
0
Program
Program
3350/servo 860,8/2
3350/0,2 860,8/0,2
3350/0,2 860,8/0,2
0
15.00
 
 
 
0
 
860,8
319,2
860,8
Front
100
on
S:100 R:100
0
0
0
0
 
0
 
 
 
0
 
 
0
0
0
0
0
 
 
 
 
0
0


0
0
#HDR
-1
-1
#GR
nm
%R
1.0
0.0
2500,000000
-1,000000
2251
8
57,604900
4,300200
#DATA
2482.000000	5.069364
2481.000000	5.128038
2480.000000	5.052018
2479.000000	5.034788
2478.000000	5.071576
2477.000000	5.044451
2476.000000	5.029782
2475.000000	5.051203
2474.000000	5.057257
2473.000000	5.014183
2472.000000	5.031762
2471.000000	5.006150
2470.000000	5.063893
2469.000000	5.032809
2468.000000	5.050272
2467.000000	5.054230
2466.000000	5.027454
2465.000000	5.010690
2464.000000	5.058887
2463.000000	5.023380
2462.000000	5.053299
2461.000000	5.042472
2460.000000	5.056093
2459.000000	5.073904
2458.000000	5.097071
2457.000000	5.075301
2456.000000	5.049573
2455.000000	5.067734
2454.000000	5.074836
2453.000000	5.094627
2452.000000	5.117444
2451.000000	5.113835
2450.000000	5.092298
2449.000000	5.123381
2448.000000	5.153883
2447.000000	5.194163
2446.000000	5.153417
2445.000000	5.147945
2444.000000	5.187178
2443.000000	5.196258
2442.000000	5.195560
2441.000000	5.232580
2440.000000	5.211742
2439.000000	5.247482
2438.000000	5.218145
2437.000000	5.260171
2436.000000	5.249810
2435.000000	5.267505
2434.000000	5.286016
2433.000000	5.307087
2432.000000	5.306039
2431.000000	5.308368
2430.000000	5.343060
2429.000000	5.324084
2428.000000	5.321988
2427.000000	5.337821
2426.000000	5.369021
2425.000000	5.376588
2424.000000	5.379149
2423.000000	5.362967
2422.000000	5.395098
2421.000000	5.408835
2420.000000	5.390907
2419.000000	5.392653
2418.000000	5.408253
2417.000000	5.432351
2416.000000	5.439220
2415.000000	5.434098
2414.000000	5.436077
2413.000000	5.445274
2412.000000	5.444109
2411.000000	5.462969
2410.000000	5.482643
2409.000000	5.478336
2408.000000	5.470885
2407.000000	5.495798
2406.000000	5.491491
2405.000000	5.506509
2404.000000	5.531422
2403.000000	5.563320
2402.000000	5.578454
2401.000000	5.591609
2400.000000	5.599176
2399.000000	5.624090
2398.000000	5.626301
2397.000000	5.646209
2396.000000	5.663671
2395.000000	5.657268
2394.000000	5.667397
2393.000000	5.684044
2392.000000	5.690331
2391.000000	5.697781
2390.000000	5.717223
2389.000000	5.731076
2388.000000	5.732357
2387.000000	5.728981
2386.000000	5.742020
2385.000000	5.745046
2384.000000	5.744348
2383.000000	5.766001
2382.000000	5.767282
2381.000000	5.775082
2380.000000	5.789518
2379.000000	5.778109
2378.000000	5.787073
2377.000000	5.793825
2376.000000	5.782998
2375.000000	5.786956
2374.000000	5.790565
2373.000000	5.787771
2372.000000	5.780903
2371.000000	5.779506
2370.000000	5.784512
2369.000000	5.787888
2368.000000	5.795106
2367.000000	5.792312
2366.000000	5.783115
2365.000000	5.779273
2364.000000	5.781019
2363.000000	5.775198
2362.000000	5.767748
2361.000000	5.773918
2360.000000	5.781951
2359.000000	5.767631
2358.000000	5.744930
2357.000000	5.744581
2356.000000	5.734802
2355.000000	5.715011
2354.000000	5.715127
2353.000000	5.732008
2352.000000	5.726071
2351.000000	5.724441
2350.000000	5.717689
2349.000000	5.716408
2348.000000	5.735384
2347.000000	5.741554
2346.000000	5.747026
2345.000000	5.758784
2344.000000	5.776828
2343.000000	5.784628
2342.000000	5.787422
2341.000000	5.791613
2340.000000	5.805001
2339.000000	5.813965
2338.000000	5.812219
2337.000000	5.815246
2336.000000	5.840508
2335.000000	5.835851
2334.000000	5.837714
2333.000000	5.860299
2332.000000	5.862627
2331.000000	5.843069
2330.000000	5.801276
2329.000000	5.820601
2328.000000	5.834920
2327.000000	5.838762
2326.000000	5.815595
2325.000000	5.797434
2324.000000	5.804070
2323.000000	5.802091
2322.000000	5.781019
2321.000000	5.755175
2320.000000	5.738644
2319.000000	5.733754
2318.000000	5.713730
2317.000000	5.698480
2316.000000	5.654940
2315.000000	5.643880
2314.000000	5.645859
2313.000000	5.625952
2312.000000	5.606045
2311.000000	5.599875
2310.000000	5.581481
2309.000000	5.561341
2308.000000	5.549699
2307.000000	5.548186
2306.000000	5.544693
2305.000000	5.546672
2304.000000	5.536544
2303.000000	5.527697
2302.000000	5.534332
2301.000000	5.543296
2300.000000	5.556801
2299.000000	5.566580
2298.000000	5.565765
2297.000000	5.582296
2296.000000	5.612099
2295.000000	5.626185
2294.000000	5.633170
2293.000000	5.656686
2292.000000	5.659597
2291.000000	5.678805
2290.000000	5.670889
2289.000000	5.685441
2288.000000	5.705814
2287.000000	5.699178
2286.000000	5.695220
2285.000000	5.695686
2284.000000	5.696850
2283.000000	5.687071
2282.000000	5.697083
2281.000000	5.685674
2280.000000	5.679038
2279.000000	5.669958
2278.000000	5.667862
2277.000000	5.653776
2276.000000	5.614543
2275.000000	5.616872
2274.000000	5.604648
2273.000000	5.599642
2272.000000	5.587651
2271.000000	5.577174
2270.000000	5.581947
2269.000000	5.567395
2268.000000	5.613612
2267.000000	5.602902
2266.000000	5.616639
2265.000000	5.618734
2264.000000	5.627349
2263.000000	5.664952
2262.000000	5.682880
2261.000000	5.699062
2260.000000	5.740157
2259.000000	5.779971
2258.000000	5.832010
2257.000000	5.866702
2256.000000	5.953199
2255.000000	5.964026
2254.000000	5.996390
2253.000000	6.042840
2252.000000	6.126777
2251.000000	6.170899
2250.000000	6.228525
2249.000000	6.282892
2248.000000	6.324569
2247.000000	6.377888
2246.000000	6.414326
2245.000000	6.453558
2244.000000	6.503967
2243.000000	6.532023
2242.000000	6.588951
2241.000000	6.589300
2240.000000	6.619452
2239.000000	6.665087
2238.000000	6.684995
2237.000000	6.726555
2236.000000	6.714332
2235.000000	6.749722
2234.000000	6.784997
2233.000000	6.808862
2232.000000	6.820737
2231.000000	6.822483
2230.000000	6.830050
2229.000000	6.863578
2228.000000	6.866488
2227.000000	6.883951
2226.000000	6.865906
2225.000000	6.890354
2224.000000	6.900249
2223.000000	6.904207
2222.000000	6.884766
2221.000000	6.884300
2220.000000	6.895942
2219.000000	6.885115
2218.000000	6.899667
2217.000000	6.887909
2216.000000	6.880458
2215.000000	6.874405
2214.000000	6.857873
2213.000000	6.843321
2212.000000	6.848560
2211.000000	6.837151
2210.000000	6.840295
2209.000000	6.818874
2208.000000	6.832611
2207.000000	6.840295
2206.000000	6.801528
2205.000000	6.823414
2204.000000	6.823181
2203.000000	6.796988
2202.000000	6.807581
2201.000000	6.820853
2200.000000	6.784880
2199.000000	6.808862
2198.000000	6.804205
2197.000000	6.801295
2196.000000	6.781038
2195.000000	6.783367
2194.000000	6.777430
2193.000000	6.798734
2192.000000	6.798501
2191.000000	6.770910
2190.000000	6.796173
2189.000000	6.769746
2188.000000	6.768815
2187.000000	6.790701
2186.000000	6.795125
2185.000000	6.782552
2184.000000	6.771725
2183.000000	6.756940
2182.000000	6.763692
2181.000000	6.759152
2180.000000	6.750537
2179.000000	6.745997
2178.000000	6.756242
2177.000000	6.769746
2176.000000	6.756591
2175.000000	6.752516
2174.000000	6.762877
2173.000000	6.763227
2172.000000	6.766486
2171.000000	6.768582
2170.000000	6.765788
2169.000000	6.766603
2168.000000	6.772540
2167.000000	6.781271
2166.000000	6.779292
2165.000000	6.803507
2164.000000	6.812122
2163.000000	6.818175
2162.000000	6.810026
2161.000000	6.816429
2160.000000	6.833542
2159.000000	6.829933
2158.000000	6.832378
2157.000000	6.852751
2156.000000	6.872426
2155.000000	6.877548
2154.000000	6.862530
2153.000000	6.865906
2152.000000	6.874521
2151.000000	6.886745
2150.000000	6.912589
2149.000000	6.912473
2148.000000	6.909097
2147.000000	6.922252
2146.000000	6.930168
2145.000000	6.939365
2144.000000	6.962416
2143.000000	6.948795
2142.000000	6.945302
2141.000000	6.950890
2140.000000	6.967305
2139.000000	6.990123
2138.000000	7.002463
2137.000000	7.013173
2136.000000	6.995245
2135.000000	6.997690
2134.000000	7.003511
2133.000000	6.998272
2132.000000	6.994197
2131.000000	6.992335
2130.000000	6.978248
2129.000000	6.990705
2128.000000	6.998738
2127.000000	7.004791
2126.000000	7.000135
2125.000000	6.981508
2124.000000	6.977201
2123.000000	6.972195
2122.000000	6.959854
2121.000000	6.948562
2120.000000	6.941693
2119.000000	6.938434
2118.000000	6.941810
2117.000000	6.931565
2116.000000	6.916780
2115.000000	6.908631
2114.000000	6.899783
2113.000000	6.875918
2112.000000	6.870679
2111.000000	6.870097
2110.000000	6.854730
2109.000000	6.832145
2108.000000	6.812471
2107.000000	6.826092
2106.000000	6.827954
2105.000000	6.798734
2104.000000	6.781970
2103.000000	6.794659
2102.000000	6.768698
2101.000000	6.729815
2100.000000	6.722947
2099.000000	6.737499
2098.000000	6.730630
2097.000000	6.707114
2096.000000	6.708627
2095.000000	6.695589
2094.000000	6.669977
2093.000000	6.671840
2092.000000	6.676729
2091.000000	6.666252
2090.000000	6.643550
2089.000000	6.634703
2088.000000	6.623760
2087.000000	6.611303
2086.000000	6.615378
2085.000000	6.603736
2084.000000	6.585109
2083.000000	6.579521
2082.000000	6.583945
2081.000000	6.580103
2080.000000	6.555772
2079.000000	6.545295
2078.000000	6.541686
2077.000000	6.529346
2076.000000	6.519683
2075.000000	6.515725
2074.000000	6.498612
2073.000000	6.473931
2072.000000	6.469042
2071.000000	6.465316
2070.000000	6.444827
2069.000000	6.431439
2068.000000	6.411299
2067.000000	6.400705
2066.000000	6.385455
2065.000000	6.381613
2064.000000	6.368923
2063.000000	6.347968
2062.000000	6.336909
2061.000000	6.336327
2060.000000	6.319679
2059.000000	6.305709
2058.000000	6.298026
2057.000000	6.298375
2056.000000	6.292554
2055.000000	6.283590
2054.000000	6.296978
2053.000000	6.294300
2052.000000	6.302682
2051.000000	6.296745
2050.000000	6.291739
2049.000000	6.309784
2048.000000	6.314324
2047.000000	6.311996
2046.000000	6.327479
2045.000000	6.340518
2044.000000	6.352392
2043.000000	6.366362
2042.000000	6.374046
2041.000000	6.387783
2040.000000	6.400123
2039.000000	6.398260
2038.000000	6.398260
2037.000000	6.422242
2036.000000	6.427365
2035.000000	6.429693
2034.000000	6.449367
2033.000000	6.425851
2032.000000	6.436911
2031.000000	6.459030
2030.000000	6.471487
2029.000000	6.453326
2028.000000	6.451114
2027.000000	6.464618
2026.000000	6.474630
2025.000000	6.455887
2024.000000	6.460776
2023.000000	6.451346
2022.000000	6.439123
2021.000000	6.435979
2020.000000	6.447505
2019.000000	6.462988
2018.000000	6.453675
2017.000000	6.430857
2016.000000	6.418633
2015.000000	6.424803
2014.000000	6.418284
2013.000000	6.391858
2012.000000	6.409320
2011.000000	6.411532
2010.000000	6.365780
2009.000000	6.360076
2008.000000	6.377189
2007.000000	6.345524
2006.000000	6.331088
2005.000000	6.321193
2004.000000	6.310948
2003.000000	6.308852
2002.000000	6.284987
2001.000000	6.281145
2000.000000	6.258095
1999.000000	6.226662
1998.000000	6.216650
1997.000000	6.199304
1996.000000	6.180911
1995.000000	6.165893
1994.000000	6.137487
1993.000000	6.136439
1992.000000	6.115135
1991.000000	6.107335
1990.000000	6.075553
1989.000000	6.066357
1988.000000	6.031315
1987.000000	6.042957
1986.000000	6.019906
1985.000000	5.984399
1984.000000	5.960184
1983.000000	5.944352
1982.000000	5.935737
1981.000000	5.932594
1980.000000	5.905934
1979.000000	5.888937
1978.000000	5.899182
1977.000000	5.866818
1976.000000	5.850404
1975.000000	5.816410
1974.000000	5.793941
1973.000000	5.786142
1972.000000	5.767049
1971.000000	5.734103
1970.000000	5.732706
1969.000000	5.711053
1968.000000	5.705814
1967.000000	5.721297
1966.000000	5.687304
1965.000000	5.689050
1964.000000	5.675662
1963.000000	5.647955
1962.000000	5.623973
1961.000000	5.626767
1960.000000	5.596964
1959.000000	5.600224
1958.000000	5.601738
1957.000000	5.575777
1956.000000	5.583227
1955.000000	5.596150
1954.000000	5.554240
1953.000000	5.539804
1952.000000	5.524786
1951.000000	5.517103
1950.000000	5.533983
1949.000000	5.512795
1948.000000	5.483109
1947.000000	5.503948
1946.000000	5.497894
1945.000000	5.486136
1944.000000	5.493470
1943.000000	5.469372
1942.000000	5.485903
1941.000000	5.448300
1940.000000	5.470536
1939.000000	5.462852
1938.000000	5.461106
1937.000000	5.443877
1936.000000	5.440850
1935.000000	5.462736
1934.000000	5.460524
1933.000000	5.478103
1932.000000	5.452142
1931.000000	5.460291
1930.000000	5.460291
1929.000000	5.452724
1928.000000	5.471002
1927.000000	5.492888
1926.000000	5.527464
1925.000000	5.522574
1924.000000	5.511049
1923.000000	5.535147
1922.000000	5.592308
1921.000000	5.589863
1920.000000	5.609305
1919.000000	5.613496
1918.000000	5.655289
1917.000000	5.651680
1916.000000	5.664952
1915.000000	5.710820
1914.000000	5.725721
1913.000000	5.734336
1912.000000	5.791147
1911.000000	5.845281
1910.000000	5.852383
1909.000000	5.868332
1908.000000	5.888006
1907.000000	5.957623
1906.000000	6.000930
1905.000000	6.044121
1904.000000	6.117813
1903.000000	6.150293
1902.000000	6.191272
1901.000000	6.268456
1900.000000	6.319563
1899.000000	6.415839
1898.000000	6.422592
1897.000000	6.512582
1896.000000	6.600476
1895.000000	6.668231
1894.000000	6.756475
1893.000000	6.833426
1892.000000	6.944022
1891.000000	7.058110
1890.000000	7.177786
1889.000000	7.315158
1888.000000	7.442402
1887.000000	7.587922
1886.000000	7.749392
1885.000000	7.934378
1884.000000	8.132170
1883.000000	8.390383
1882.000000	8.580724
1881.000000	8.837655
1880.000000	9.068277
1879.000000	9.359668
1878.000000	9.598555
1877.000000	9.876674
1876.000000	10.149904
1875.000000	10.417080
1874.000000	10.699973
1873.000000	10.970758
1872.000000	11.236887
1871.000000	11.496147
1870.000000	11.762624
1869.000000	11.997670
1868.000000	12.222820
1867.000000	12.428295
1866.000000	12.610836
1865.000000	12.788372
1864.000000	12.935988
1863.000000	13.081392
1862.000000	13.216552
1861.000000	13.363121
1860.000000	13.509340
1859.000000	13.640193
1858.000000	13.748809
1857.000000	13.848578
1856.000000	13.947416
1855.000000	14.016568
1854.000000	14.066743
1853.000000	14.125184
1852.000000	14.146489
1851.000000	14.199807
1850.000000	14.251613
1849.000000	14.285956
1848.000000	14.329496
1847.000000	14.331358
1846.000000	14.342534
1845.000000	14.331242
1844.000000	14.315758
1843.000000	14.315409
1842.000000	14.330311
1841.000000	14.352663
1840.000000	14.349170
1839.000000	14.328914
1838.000000	14.335433
1837.000000	14.341952
1836.000000	14.313779
1835.000000	14.302953
1834.000000	14.266514
1833.000000	14.240204
1832.000000	14.221228
1831.000000	14.200157
1830.000000	14.168142
1829.000000	14.150214
1828.000000	14.102134
1827.000000	14.047651
1826.000000	14.009815
1825.000000	13.962317
1824.000000	13.923784
1823.000000	13.909464
1822.000000	13.897357
1821.000000	13.877566
1820.000000	13.854748
1819.000000	13.828322
1818.000000	13.778961
1817.000000	13.753932
1816.000000	13.741591
1815.000000	13.736120
1814.000000	13.716329
1813.000000	13.707365
1812.000000	13.709228
1811.000000	13.685711
1810.000000	13.671392
1809.000000	13.636467
1808.000000	13.613650
1807.000000	13.594790
1806.000000	13.565569
1805.000000	13.542053
1804.000000	13.511319
1803.000000	13.485824
1802.000000	13.448571
1801.000000	13.404332
1800.000000	13.384542
1799.000000	13.347521
1798.000000	13.291175
1797.000000	13.270220
1796.000000	13.243328
1795.000000	13.215621
1794.000000	13.179066
1793.000000	13.136341
1792.000000	13.117947
1791.000000	13.079064
1790.000000	13.039948
1789.000000	13.001531
1788.000000	12.972310
1787.000000	12.951937
1786.000000	12.912472
1785.000000	12.867302
1784.000000	12.824577
1783.000000	12.788139
1782.000000	12.752865
1781.000000	12.715029
1780.000000	12.665901
1779.000000	12.626785
1778.000000	12.582081
1777.000000	12.527016
1776.000000	12.486853
1775.000000	12.432370
1774.000000	12.387316
1773.000000	12.344708
1772.000000	12.283822
1771.000000	12.220142
1770.000000	12.171014
1769.000000	12.115600
1768.000000	12.066006
1767.000000	12.010010
1766.000000	11.942837
1765.000000	11.899414
1764.000000	11.860065
1763.000000	11.818272
1762.000000	11.815128
1761.000000	11.815710
1760.000000	11.821182
1759.000000	11.833871
1758.000000	11.890683
1757.000000	11.931312
1756.000000	11.989520
1755.000000	12.039463
1754.000000	12.070663
1753.000000	12.121304
1752.000000	12.160420
1751.000000	12.177883
1750.000000	12.196277
1749.000000	12.200118
1748.000000	12.200584
1747.000000	12.204309
1746.000000	12.176719
1745.000000	12.161701
1744.000000	12.135740
1743.000000	12.082887
1742.000000	12.007681
1741.000000	11.927470
1740.000000	11.820251
1739.000000	11.715941
1738.000000	11.629444
1737.000000	11.516985
1736.000000	11.403595
1735.000000	11.319543
1734.000000	11.259937
1733.000000	11.210111
1732.000000	11.169016
1731.000000	11.172974
1730.000000	11.204523
1729.000000	11.242475
1728.000000	11.280077
1727.000000	11.344106
1726.000000	11.424434
1725.000000	11.486833
1724.000000	11.556683
1723.000000	11.592889
1722.000000	11.664369
1721.000000	11.671587
1720.000000	11.701040
1719.000000	11.718968
1718.000000	11.745395
1717.000000	11.777875
1716.000000	11.800460
1715.000000	11.838761
1714.000000	11.865537
1713.000000	11.906166
1712.000000	11.963210
1711.000000	11.990219
1710.000000	12.026774
1709.000000	12.039812
1708.000000	12.063445
1707.000000	12.051454
1706.000000	12.038648
1705.000000	12.027589
1704.000000	11.994992
1703.000000	11.949822
1702.000000	11.914781
1701.000000	11.871008
1700.000000	11.793358
1699.000000	11.714777
1698.000000	11.628978
1697.000000	11.544227
1696.000000	11.498824
1695.000000	11.417100
1694.000000	11.394864
1693.000000	11.402082
1692.000000	11.454586
1691.000000	11.527812
1690.000000	11.606742
1689.000000	11.696500
1688.000000	11.791845
1687.000000	11.882184
1686.000000	11.929333
1685.000000	12.000464
1684.000000	12.031780
1683.000000	12.062164
1682.000000	12.172528
1681.000000	12.286150
1680.000000	12.484175
1679.000000	12.743202
1678.000000	13.038900
1677.000000	13.333784
1676.000000	13.662312
1675.000000	13.952655
1674.000000	14.246956
1673.000000	14.509942
1672.000000	14.741378
1671.000000	14.897260
1670.000000	15.072350
1669.000000	15.224507
1668.000000	15.343136
1667.000000	15.447212
1666.000000	15.520089
1665.000000	15.607052
1664.000000	15.673992
1663.000000	15.712060
1662.000000	15.785053
1661.000000	15.801817
1660.000000	15.853739
1659.000000	15.863751
1658.000000	15.889712
1657.000000	15.917536
1656.000000	15.896464
1655.000000	15.922309
1654.000000	15.933485
1653.000000	15.950132
1652.000000	15.912530
1651.000000	15.904846
1650.000000	15.864682
1649.000000	15.847569
1648.000000	15.834763
1647.000000	15.813110
1646.000000	15.764797
1645.000000	15.717182
1644.000000	15.679580
1643.000000	15.651756
1642.000000	15.604724
1641.000000	15.565375
1640.000000	15.511241
1639.000000	15.490636
1638.000000	15.437317
1637.000000	15.387956
1636.000000	15.352798
1635.000000	15.307745
1634.000000	15.256289
1633.000000	15.181782
1632.000000	15.147439
1631.000000	15.094470
1630.000000	15.038473
1629.000000	14.983059
1628.000000	14.931137
1627.000000	14.870368
1626.000000	14.804126
1625.000000	14.759772
1624.000000	14.670713
1623.000000	14.637534
1622.000000	14.583168
1621.000000	14.538114
1620.000000	14.487357
1619.000000	14.428333
1618.000000	14.366865
1617.000000	14.305747
1616.000000	14.260693
1615.000000	14.204231
1614.000000	14.150796
1613.000000	14.096662
1612.000000	14.076522
1611.000000	14.014589
1610.000000	13.940664
1609.000000	13.919942
1608.000000	13.855331
1607.000000	13.816913
1606.000000	13.778961
1605.000000	13.745084
1604.000000	13.670810
1603.000000	13.630879
1602.000000	13.574068
1601.000000	13.522845
1600.000000	13.483496
1599.000000	13.415974
1598.000000	13.398395
1597.000000	13.334599
1596.000000	13.292805
1595.000000	13.239253
1594.000000	13.207705
1593.000000	13.158344
1592.000000	13.113989
1591.000000	13.067190
1590.000000	13.041694
1589.000000	12.997340
1588.000000	12.956361
1587.000000	12.901878
1586.000000	12.869281
1585.000000	12.845299
1584.000000	12.802225
1583.000000	12.770094
1582.000000	12.730396
1581.000000	12.704435
1580.000000	12.684062
1579.000000	12.644597
1578.000000	12.624806
1577.000000	12.588251
1576.000000	12.554141
1575.000000	12.543780
1574.000000	12.517936
1573.000000	12.515491
1572.000000	12.498960
1571.000000	12.484059
1570.000000	12.449017
1569.000000	12.430274
1568.000000	12.418865
1567.000000	12.400355
1566.000000	12.397910
1565.000000	12.396513
1564.000000	12.398376
1563.000000	12.386618
1562.000000	12.365197
1561.000000	12.357746
1560.000000	12.350761
1559.000000	12.335162
1558.000000	12.327012
1557.000000	12.307454
1556.000000	12.290690
1555.000000	12.258559
1554.000000	12.245172
1553.000000	12.230387
1552.000000	12.196509
1551.000000	12.180910
1550.000000	12.166474
1549.000000	12.143889
1548.000000	12.121653
1547.000000	12.089290
1546.000000	12.070779
1545.000000	12.058323
1544.000000	12.040045
1543.000000	12.030616
1542.000000	12.009195
1541.000000	11.975667
1540.000000	11.947145
1539.000000	11.935969
1538.000000	11.907097
1537.000000	11.889286
1536.000000	11.874850
1535.000000	11.845397
1534.000000	11.826421
1533.000000	11.804302
1532.000000	11.782881
1531.000000	11.755290
1530.000000	11.713497
1529.000000	11.710819
1528.000000	11.674264
1527.000000	11.634450
1526.000000	11.610584
1525.000000	11.576358
1524.000000	11.532585
1523.000000	11.500221
1522.000000	11.487532
1521.000000	11.451093
1520.000000	11.404643
1519.000000	11.358891
1518.000000	11.329438
1517.000000	11.292185
1516.000000	11.251322
1515.000000	11.224314
1514.000000	11.182869
1513.000000	11.141425
1512.000000	11.112554
1511.000000	11.081121
1510.000000	11.045731
1509.000000	10.992645
1508.000000	10.947126
1507.000000	10.923609
1506.000000	10.881816
1505.000000	10.831989
1504.000000	10.802420
1503.000000	10.769241
1502.000000	10.717319
1501.000000	10.679949
1500.000000	10.653756
1499.000000	10.620577
1498.000000	10.578550
1497.000000	10.537921
1496.000000	10.493915
1495.000000	10.474474
1494.000000	10.443973
1493.000000	10.397639
1492.000000	10.378430
1491.000000	10.342574
1490.000000	10.310792
1489.000000	10.281455
1488.000000	10.255960
1487.000000	10.235005
1486.000000	10.214166
1485.000000	10.193910
1484.000000	10.162244
1483.000000	10.144665
1482.000000	10.133606
1481.000000	10.106481
1480.000000	10.084245
1479.000000	10.066550
1478.000000	10.059681
1477.000000	10.038261
1476.000000	10.019401
1475.000000	10.005198
1474.000000	10.003336
1473.000000	9.986688
1472.000000	9.978073
1471.000000	9.991345
1470.000000	9.976327
1469.000000	9.953859
1468.000000	9.940005
1467.000000	9.935814
1466.000000	9.936745
1465.000000	9.948620
1464.000000	9.955023
1463.000000	9.940587
1462.000000	9.955488
1461.000000	9.953509
1460.000000	9.957700
1459.000000	9.989715
1458.000000	10.010088
1457.000000	10.029646
1456.000000	10.043616
1455.000000	10.061078
1454.000000	10.088436
1453.000000	10.128716
1452.000000	10.164223
1451.000000	10.198101
1450.000000	10.224877
1449.000000	10.241175
1448.000000	10.279942
1447.000000	10.348278
1446.000000	10.362248
1445.000000	10.433612
1444.000000	10.464578
1443.000000	10.502530
1442.000000	10.543276
1441.000000	10.600670
1440.000000	10.658994
1439.000000	10.712197
1438.000000	10.765283
1437.000000	10.821861
1436.000000	10.881350
1435.000000	10.930827
1434.000000	10.994042
1433.000000	11.082635
1432.000000	11.127921
1431.000000	11.208830
1430.000000	11.303011
1429.000000	11.373094
1428.000000	11.464947
1427.000000	11.548068
1426.000000	11.661808
1425.000000	11.767980
1424.000000	11.856805
1423.000000	11.980207
1422.000000	12.104889
1421.000000	12.232948
1420.000000	12.370669
1419.000000	12.503617
1418.000000	12.659964
1417.000000	12.819921
1416.000000	12.973707
1415.000000	13.128308
1414.000000	13.328778
1413.000000	13.535767
1412.000000	13.717726
1411.000000	13.900384
1410.000000	14.128328
1409.000000	14.396435
1408.000000	14.648012
1407.000000	14.906806
1406.000000	15.205764
1405.000000	15.486095
1404.000000	15.817883
1403.000000	16.113581
1402.000000	16.449210
1401.000000	16.797063
1400.000000	17.156209
1399.000000	17.516286
1398.000000	17.854942
1397.000000	18.128521
1396.000000	18.487899
1395.000000	18.885346
1394.000000	19.262419
1393.000000	19.567548
1392.000000	19.926227
1391.000000	20.306561
1390.000000	20.734159
1389.000000	21.093770
1388.000000	21.552219
1387.000000	22.084825
1386.000000	22.593915
1385.000000	23.114414
1384.000000	23.651328
1383.000000	24.272178
1382.000000	24.846927
1381.000000	25.445425
1380.000000	25.953584
1379.000000	26.347189
1378.000000	26.699699
1377.000000	27.003313
1376.000000	27.269209
1375.000000	27.514965
1374.000000	27.777834
1373.000000	28.050249
1372.000000	28.379708
1371.000000	28.711146
1370.000000	29.067847
1369.000000	29.403709
1368.000000	29.710816
1367.000000	30.008726
1366.000000	30.326427
1365.000000	30.568574
1364.000000	30.801291
1363.000000	30.986743
1362.000000	31.224815
1361.000000	31.418998
1360.000000	31.616208
1359.000000	31.722845
1358.000000	31.845549
1357.000000	31.963944
1356.000000	32.130071
1355.000000	32.309236
1354.000000	32.561395
1353.000000	32.921821
1352.000000	33.295984
1351.000000	33.688541
1350.000000	34.124521
1349.000000	34.561550
1348.000000	34.975760
1347.000000	35.362729
1346.000000	35.733982
1345.000000	36.049587
1344.000000	36.404309
1343.000000	36.763571
1342.000000	37.114567
1341.000000	37.437507
1340.000000	37.774999
1339.000000	38.098870
1338.000000	38.465699
1337.000000	38.790618
1336.000000	39.140217
1335.000000	39.474682
1334.000000	39.789939
1333.000000	40.093554
1332.000000	40.421965
1331.000000	40.727908
1330.000000	41.063654
1329.000000	41.366337
1328.000000	41.656098
1327.000000	41.938641
1326.000000	42.227820
1325.000000	42.509898
1324.000000	42.789531
1323.000000	43.034821
1322.000000	43.282323
1321.000000	43.523887
1320.000000	43.761377
1319.000000	43.974885
1318.000000	44.192701
1317.000000	44.405744
1316.000000	44.641720
1315.000000	44.834041
1314.000000	45.031832
1313.000000	45.221824
1312.000000	45.396799
1311.000000	45.572239
1310.000000	45.741625
1309.000000	45.899602
1308.000000	46.049896
1307.000000	46.183077
1306.000000	46.328598
1305.000000	46.450253
1304.000000	46.562595
1303.000000	46.655845
1302.000000	46.755498
1301.000000	46.857828
1300.000000	46.935711
1299.000000	47.021161
1298.000000	47.090312
1297.000000	47.150383
1296.000000	47.202771
1295.000000	47.272504
1294.000000	47.327569
1293.000000	47.360864
1292.000000	47.388572
1291.000000	47.432228
1290.000000	47.464126
1289.000000	47.497654
1288.000000	47.508015
1287.000000	47.499400
1286.000000	47.497654
1285.000000	47.493347
1284.000000	47.475186
1283.000000	47.444219
1282.000000	47.438049
1281.000000	47.402658
1280.000000	47.375882
1279.000000	47.351784
1278.000000	47.317674
1277.000000	47.287056
1276.000000	47.242818
1275.000000	47.199977
1274.000000	47.169941
1273.000000	47.150500
1272.000000	47.134900
1271.000000	47.121512
1270.000000	47.093455
1269.000000	47.055853
1268.000000	47.028960
1267.000000	46.997062
1266.000000	46.969821
1265.000000	46.921741
1264.000000	46.887165
1263.000000	46.853288
1262.000000	46.816267
1261.000000	46.776918
1260.000000	46.734543
1259.000000	46.689839
1258.000000	46.629186
1257.000000	46.584132
1256.000000	46.542688
1255.000000	46.481453
1254.000000	46.425573
1253.000000	46.350484
1252.000000	46.286106
1251.000000	46.222542
1250.000000	46.162355
1249.000000	46.086102
1248.000000	45.995879
1247.000000	45.902746
1246.000000	45.820323
1245.000000	45.718225
1244.000000	45.617059
1243.000000	45.514380
1242.000000	45.411118
1241.000000	45.288415
1240.000000	45.156980
1239.000000	45.041146
1238.000000	44.924496
1237.000000	44.803074
1236.000000	44.668496
1235.000000	44.527166
1234.000000	44.386651
1233.000000	44.246369
1232.000000	44.117379
1231.000000	43.967435
1230.000000	43.789783
1229.000000	43.614459
1228.000000	43.454154
1227.000000	43.292567
1226.000000	43.117942
1225.000000	42.944481
1224.000000	42.764967
1223.000000	42.587548
1222.000000	42.401048
1221.000000	42.209659
1220.000000	42.021064
1219.000000	41.833983
1218.000000	41.664014
1217.000000	41.485781
1216.000000	41.315463
1215.000000	41.154109
1214.000000	40.994269
1213.000000	40.842113
1212.000000	40.694613
1211.000000	40.552468
1210.000000	40.415911
1209.000000	40.286572
1208.000000	40.150831
1207.000000	40.024286
1206.000000	39.931618
1205.000000	39.838368
1204.000000	39.740927
1203.000000	39.691683
1202.000000	39.645233
1201.000000	39.579574
1200.000000	39.542204
1199.000000	39.488652
1198.000000	39.424158
1197.000000	39.363155
1196.000000	39.283992
1195.000000	39.158960
1194.000000	38.983288
1193.000000	38.753132
1192.000000	38.477923
1191.000000	38.181410
1190.000000	37.837398
1189.000000	37.480348
1188.000000	37.149143
1187.000000	36.859149
1186.000000	36.658563
1185.000000	36.561821
1184.000000	36.554254
1183.000000	36.680217
1182.000000	36.924110
1181.000000	37.258342
1180.000000	37.667663
1179.000000	38.124016
1178.000000	38.613199
1177.000000	39.076887
1176.000000	39.503205
1175.000000	39.858625
1174.000000	40.193206
1173.000000	40.505203
1172.000000	40.808352
1171.000000	41.116623
1170.000000	41.437351
1169.000000	41.753306
1168.000000	42.086956
1167.000000	42.422818
1166.000000	42.738773
1165.000000	43.074635
1164.000000	43.416900
1163.000000	43.770225
1162.000000	44.132397
1161.000000	44.512265
1160.000000	44.890386
1159.000000	45.265597
1158.000000	45.641507
1157.000000	45.995763
1156.000000	46.367714
1155.000000	46.683669
1154.000000	46.993686
1153.000000	47.267382
1152.000000	47.503941
1151.000000	47.709183
1150.000000	47.902784
1149.000000	48.069027
1148.000000	48.219321
1147.000000	48.391501
1146.000000	48.572064
1145.000000	48.810252
1144.000000	49.077545
1143.000000	49.400717
1142.000000	49.772436
1141.000000	50.186879
1140.000000	50.641137
1139.000000	51.076535
1138.000000	51.530560
1137.000000	52.028125
1136.000000	52.519869
1135.000000	53.042231
1134.000000	53.585664
1133.000000	54.129796
1132.000000	54.580212
1131.000000	55.028183
1130.000000	55.440531
1129.000000	55.797115
1128.000000	56.111207
1127.000000	56.376055
1126.000000	56.585955
1125.000000	56.744048
1124.000000	56.912969
1123.000000	57.045800
1122.000000	57.162799
1121.000000	57.218679
1120.000000	57.304245
1119.000000	57.369904
1118.000000	57.429626
1117.000000	57.445110
1116.000000	57.500873
1115.000000	57.530094
1114.000000	57.527533
1113.000000	57.528930
1112.000000	57.544413
1111.000000	57.558034
1110.000000	57.556986
1109.000000	57.572004
1108.000000	57.575147
1107.000000	57.584228
1106.000000	57.575729
1105.000000	57.560595
1104.000000	57.570723
1103.000000	57.584460
1102.000000	57.564902
1101.000000	57.568395
1100.000000	57.573052
1099.000000	57.573750
1098.000000	57.562341
1097.000000	57.555356
1096.000000	57.537661
1095.000000	57.508790
1094.000000	57.509255
1093.000000	57.468277
1092.000000	57.463620
1091.000000	57.430907
1090.000000	57.411116
1089.000000	57.368158
1088.000000	57.347087
1087.000000	57.312511
1086.000000	57.279332
1085.000000	57.255933
1084.000000	57.193417
1083.000000	57.168504
1082.000000	57.109480
1081.000000	57.068036
1080.000000	57.022750
1079.000000	56.955578
1078.000000	56.911572
1077.000000	56.851268
1076.000000	56.829382
1075.000000	56.763606
1074.000000	56.698646
1073.000000	56.643232
1072.000000	56.568376
1071.000000	56.531122
1070.000000	56.491424
1069.000000	56.425882
1068.000000	56.380130
1067.000000	56.307835
1066.000000	56.225296
1065.000000	56.186762
1064.000000	56.109461
1063.000000	56.039611
1062.000000	55.989668
1061.000000	55.935302
1060.000000	55.870923
1059.000000	55.787685
1058.000000	55.722376
1057.000000	55.637508
1056.000000	55.589777
1055.000000	55.512360
1054.000000	55.454384
1053.000000	55.363347
1052.000000	55.324463
1051.000000	55.233658
1050.000000	55.189537
1049.000000	55.117242
1048.000000	55.076496
1047.000000	55.005249
1046.000000	54.975912
1045.000000	54.889531
1044.000000	54.834931
1043.000000	54.767293
1042.000000	54.722589
1041.000000	54.669853
1040.000000	54.594647
1039.000000	54.523284
1038.000000	54.468917
1037.000000	54.415482
1036.000000	54.356459
1035.000000	54.275084
1034.000000	54.228168
1033.000000	54.138178
1032.000000	54.058549
1031.000000	53.992773
1030.000000	53.924902
1029.000000	53.831769
1028.000000	53.767390
1027.000000	53.699170
1026.000000	53.634443
1025.000000	53.548760
1024.000000	53.491949
1023.000000	53.395788
1022.000000	53.320001
1021.000000	53.264354
1020.000000	53.194155
1019.000000	53.113594
1018.000000	53.057947
1017.000000	52.999040
1016.000000	52.927095
1015.000000	52.906140
1014.000000	52.858409
1013.000000	52.805672
1012.000000	52.775753
1011.000000	52.742109
1010.000000	52.722085
1009.000000	52.716730
1008.000000	52.703458
1007.000000	52.695775
1006.000000	52.691584
1005.000000	52.685996
1004.000000	52.691700
1003.000000	52.695542
1002.000000	52.692981
1001.000000	52.702061
1000.000000	52.704157
999.000000	52.705787
998.000000	52.719408
997.000000	52.721387
996.000000	52.732330
995.000000	52.739082
994.000000	52.765741
993.000000	52.791004
992.000000	52.803926
991.000000	52.821389
990.000000	52.856546
989.000000	52.893683
988.000000	52.924650
987.000000	52.963068
986.000000	53.021974
985.000000	53.066678
984.000000	53.116738
983.000000	53.188916
982.000000	53.241304
981.000000	53.292876
980.000000	53.359350
979.000000	53.426057
978.000000	53.498701
977.000000	53.564011
976.000000	53.626410
975.000000	53.685317
974.000000	53.763432
973.000000	53.831769
972.000000	53.900571
971.000000	53.966463
970.000000	54.045510
969.000000	54.135616
968.000000	54.209075
967.000000	54.279624
966.000000	54.368683
965.000000	54.455762
964.000000	54.525612
963.000000	54.626313
962.000000	54.743311
961.000000	54.853558
960.000000	54.965434
959.000000	55.078708
958.000000	55.186277
957.000000	55.298852
956.000000	55.413289
955.000000	55.523303
954.000000	55.624819
953.000000	55.743796
952.000000	55.861377
951.000000	55.969063
950.000000	56.098285
949.000000	56.221338
948.000000	56.331118
947.000000	56.443228
946.000000	56.554406
945.000000	56.650100
944.000000	56.738111
943.000000	56.849755
942.000000	56.945449
941.000000	57.032063
940.000000	57.132065
939.000000	57.240682
938.000000	57.333582
937.000000	57.404713
936.000000	57.473748
935.000000	57.549070
934.000000	57.658269
933.000000	57.750471
932.000000	57.832777
931.000000	57.916946
930.000000	57.999719
929.000000	58.079115
928.000000	58.161887
927.000000	58.241400
926.000000	58.308689
925.000000	58.410087
924.000000	58.479123
923.000000	58.533838
922.000000	58.602408
921.000000	58.652118
920.000000	58.721968
919.000000	58.822319
918.000000	58.881109
917.000000	58.906721
916.000000	58.964580
915.000000	59.017666
914.000000	59.049215
913.000000	59.098226
912.000000	59.145841
911.000000	59.187751
910.000000	59.230127
909.000000	59.281233
908.000000	59.324075
907.000000	59.357486
906.000000	59.415811
905.000000	59.471109
904.000000	59.489037
903.000000	59.527688
902.000000	59.588573
901.000000	59.642707
900.000000	59.719659
899.000000	59.764712
898.000000	59.810580
897.000000	59.844574
896.000000	59.843410
895.000000	59.858660
894.000000	59.897893
893.000000	59.940734
892.000000	59.936077
891.000000	59.882293
890.000000	59.844807
889.000000	59.847251
888.000000	59.777867
887.000000	59.698471
886.000000	59.624197
885.000000	59.592648
884.000000	59.526756
883.000000	59.387988
882.000000	59.284726
881.000000	59.149217
880.000000	59.023021
879.000000	58.850957
878.000000	58.701828
877.000000	58.497749
876.000000	58.175624
875.000000	57.959322
874.000000	57.634054
873.000000	57.238703
872.000000	56.766750
871.000000	56.354984
870.000000	56.124013
869.000000	56.092814
868.000000	56.138565
867.000000	56.235191
866.000000	56.277567
865.000000	56.327393
864.000000	56.384670
863.000000	56.436010
862.000000	56.502484
861.000000	56.545674
860.000000	56.598760
859.000000	56.626002
858.000000	56.712267
857.000000	55.983100
856.000000	57.238800
855.000000	56.914900
854.000000	57.327200
853.000000	56.705000
852.000000	56.641300
851.000000	56.746500
850.000000	57.204300
849.000000	57.138300
848.000000	57.463900
847.000000	57.094400
846.000000	57.125300
845.000000	57.086300
844.000000	56.984000
843.000000	56.999500
842.000000	57.145500
841.000000	57.250800
840.000000	57.604900
839.000000	57.353000
838.000000	57.090600
837.000000	57.234400
836.000000	57.323200
835.000000	57.370400
834.000000	57.474200
833.000000	57.269600
832.000000	57.211700
831.000000	57.217500
830.000000	57.281300
829.000000	57.226700
828.000000	57.115000
827.000000	57.332100
826.000000	57.144000
825.000000	57.004900
824.000000	57.189300
823.000000	56.997300
822.000000	57.093200
821.000000	56.952900
820.000000	56.954700
819.000000	56.796200
818.000000	56.762000
817.000000	56.884300
816.000000	56.766400
815.000000	56.882300
814.000000	56.576200
813.000000	56.534100
812.000000	56.694100
811.000000	56.509400
810.000000	56.483700
809.000000	56.420200
808.000000	56.298400
807.000000	56.291600
806.000000	56.225400
805.000000	56.207700
804.000000	56.144900
803.000000	56.035600
802.000000	56.037600
801.000000	55.882400
800.000000	55.805300
799.000000	55.731100
798.000000	55.552900
797.000000	55.581000
796.000000	55.500800
795.000000	55.343300
794.000000	55.318200
793.000000	55.170400
792.000000	55.018500
791.000000	55.178400
790.000000	55.033700
789.000000	54.837600
788.000000	54.744800
787.000000	54.628500
786.000000	54.543500
785.000000	54.548700
784.000000	54.384800
783.000000	54.146000
782.000000	54.115600
781.000000	53.989500
780.000000	53.895100
779.000000	53.714100
778.000000	53.628400
777.000000	53.479300
776.000000	53.297700
775.000000	53.285900
774.000000	52.992800
773.000000	52.953700
772.000000	52.855300
771.000000	52.733300
770.000000	52.588500
769.000000	52.547900
768.000000	52.325700
767.000000	52.108200
766.000000	52.035700
765.000000	51.921100
764.000000	51.765900
763.000000	51.607800
762.000000	51.453500
761.000000	51.373200
760.000000	51.120800
759.000000	50.904100
758.000000	50.839500
757.000000	50.583800
756.000000	50.403100
755.000000	50.199300
754.000000	50.140200
753.000000	49.944800
752.000000	49.677000
751.000000	49.501600
750.000000	49.350800
749.000000	49.058300
748.000000	48.863800
747.000000	48.761700
746.000000	48.592200
745.000000	48.340600
744.000000	48.197400
743.000000	48.044600
742.000000	47.773700
741.000000	47.530300
740.000000	47.273900
739.000000	47.022900
738.000000	46.743700
737.000000	46.560300
736.000000	46.249000
735.000000	46.062800
734.000000	45.761600
733.000000	45.554100
732.000000	45.217900
731.000000	44.954700
730.000000	44.669400
729.000000	44.411200
728.000000	44.112400
727.000000	43.787100
726.000000	43.552900
725.000000	43.276000
724.000000	42.925300
723.000000	42.608200
722.000000	42.238300
721.000000	41.935700
720.000000	41.536100
719.000000	41.210900
718.000000	40.879400
717.000000	40.498300
716.000000	40.149100
715.000000	39.868200
714.000000	39.581300
713.000000	39.199800
712.000000	38.851400
711.000000	38.563300
710.000000	38.280600
709.000000	37.917100
708.000000	37.573400
707.000000	37.268200
706.000000	36.976100
705.000000	36.644300
704.000000	36.349900
703.000000	36.064400
702.000000	35.748100
701.000000	35.438900
700.000000	35.160900
699.000000	34.895900
698.000000	34.640600
697.000000	34.347200
696.000000	34.080800
695.000000	33.873600
694.000000	33.618600
693.000000	33.406400
692.000000	33.172300
691.000000	32.888600
690.000000	32.675800
689.000000	32.472100
688.000000	32.258600
687.000000	32.052600
686.000000	31.818900
685.000000	31.618900
684.000000	31.459400
683.000000	31.255000
682.000000	31.077700
681.000000	30.898100
680.000000	30.714100
679.000000	30.568000
678.000000	30.407100
677.000000	30.244600
676.000000	30.077000
675.000000	29.945800
674.000000	29.809300
673.000000	29.642700
672.000000	29.506200
671.000000	29.370300
670.000000	29.231900
669.000000	29.086500
668.000000	28.958100
667.000000	28.850500
666.000000	28.718900
665.000000	28.584500
664.000000	28.467100
663.000000	28.351000
662.000000	28.267900
661.000000	28.169700
660.000000	28.043000
659.000000	27.950200
658.000000	27.845700
657.000000	27.766100
656.000000	27.685200
655.000000	27.580300
654.000000	27.498000
653.000000	27.399200
652.000000	27.310300
651.000000	27.253800
650.000000	27.168500
649.000000	27.076500
648.000000	27.013000
647.000000	26.941900
646.000000	26.891700
645.000000	26.845900
644.000000	26.800700
643.000000	26.757200
642.000000	26.727100
641.000000	26.703800
640.000000	26.658800
639.000000	26.627300
638.000000	26.612400
637.000000	26.605600
636.000000	26.602500
635.000000	26.600200
634.000000	26.598300
633.000000	26.617700
632.000000	26.647200
631.000000	26.670300
630.000000	26.695900
629.000000	26.725700
628.000000	26.782300
627.000000	26.848400
626.000000	26.899400
625.000000	26.963100
624.000000	27.027200
623.000000	27.118500
622.000000	27.206300
621.000000	27.279200
620.000000	27.362000
619.000000	27.469200
618.000000	27.573600
617.000000	27.703100
616.000000	27.840100
615.000000	27.960700
614.000000	28.093700
613.000000	28.250900
612.000000	28.383000
611.000000	28.523700
610.000000	28.681700
609.000000	28.834000
608.000000	28.990000
607.000000	29.138300
606.000000	29.294800
605.000000	29.444900
604.000000	29.595600
603.000000	29.739100
602.000000	29.901700
601.000000	30.051200
600.000000	30.191200
599.000000	30.332400
598.000000	30.476800
597.000000	30.609700
596.000000	30.734700
595.000000	30.820200
594.000000	30.929400
593.000000	31.033600
592.000000	31.149700
591.000000	31.231300
590.000000	31.333500
589.000000	31.388700
588.000000	31.444800
587.000000	31.500800
586.000000	31.556000
585.000000	31.600100
584.000000	31.629500
583.000000	31.645900
582.000000	31.674700
581.000000	31.674100
580.000000	31.663000
579.000000	31.658600
578.000000	31.637500
577.000000	31.623300
576.000000	31.567700
575.000000	31.531500
574.000000	31.491900
573.000000	31.429200
572.000000	31.344700
571.000000	31.266900
570.000000	31.184700
569.000000	31.121800
568.000000	31.002800
567.000000	30.901400
566.000000	30.793500
565.000000	30.639200
564.000000	30.494100
563.000000	30.370400
562.000000	30.203900
561.000000	30.045700
560.000000	29.877600
559.000000	29.621300
558.000000	29.434800
557.000000	29.281000
556.000000	29.070900
555.000000	28.849600
554.000000	28.628500
553.000000	28.414300
552.000000	28.196000
551.000000	27.942200
550.000000	27.705200
549.000000	27.451500
548.000000	27.198700
547.000000	26.945700
546.000000	26.681000
545.000000	26.392500
544.000000	26.116800
543.000000	25.820300
542.000000	25.531400
541.000000	25.220500
540.000000	24.912600
539.000000	24.607800
538.000000	24.291600
537.000000	23.979600
536.000000	23.646000
535.000000	23.338500
534.000000	22.997200
533.000000	22.676000
532.000000	22.337800
531.000000	21.993900
530.000000	21.682300
529.000000	21.346200
528.000000	21.013400
527.000000	20.684500
526.000000	20.349300
525.000000	20.031900
524.000000	19.715300
523.000000	19.388000
522.000000	19.068200
521.000000	18.741400
520.000000	18.450500
519.000000	18.143900
518.000000	17.845600
517.000000	17.560100
516.000000	17.268700
515.000000	16.991900
514.000000	16.734700
513.000000	16.464100
512.000000	16.214300
511.000000	15.961400
510.000000	15.723900
509.000000	15.497500
508.000000	15.288700
507.000000	15.088600
506.000000	14.883200
505.000000	14.703700
504.000000	14.526000
503.000000	14.329600
502.000000	14.175700
501.000000	14.018300
500.000000	13.882600
499.000000	13.728000
498.000000	13.594300
497.000000	13.483900
496.000000	13.376000
495.000000	13.256600
494.000000	13.141600
493.000000	13.041500
492.000000	12.953900
491.000000	12.842800
490.000000	12.781400
489.000000	12.710200
488.000000	12.649600
487.000000	12.591300
486.000000	12.516100
485.000000	12.446100
484.000000	12.385800
483.000000	12.330400
482.000000	12.265200
481.000000	12.203000
480.000000	12.143200
479.000000	12.067900
478.000000	11.987200
477.000000	11.936700
476.000000	11.857800
475.000000	11.788600
474.000000	11.718000
473.000000	11.662400
472.000000	11.599200
471.000000	11.529000
470.000000	11.453100
469.000000	11.394300
468.000000	11.335800
467.000000	11.268400
466.000000	11.222300
465.000000	11.168300
464.000000	11.081700
463.000000	11.020900
462.000000	10.976600
461.000000	10.908800
460.000000	10.858700
459.000000	10.810600
458.000000	10.767900
457.000000	10.719900
456.000000	10.640400
455.000000	10.585900
454.000000	10.541000
453.000000	10.507600
452.000000	10.447400
451.000000	10.403600
450.000000	10.345600
449.000000	10.319300
448.000000	10.266800
447.000000	10.237000
446.000000	10.190800
445.000000	10.117800
444.000000	10.088200
443.000000	10.039400
442.000000	9.998500
441.000000	9.962300
440.000000	9.934200
439.000000	9.892500
438.000000	9.840600
437.000000	9.806200
436.000000	9.766100
435.000000	9.722400
434.000000	9.701500
433.000000	9.656500
432.000000	9.624200
431.000000	9.592500
430.000000	9.555000
429.000000	9.541200
428.000000	9.512600
427.000000	9.477100
426.000000	9.450600
425.000000	9.411100
424.000000	9.374300
423.000000	9.343700
422.000000	9.321400
421.000000	9.292500
420.000000	9.261500
419.000000	9.241100
418.000000	9.205000
417.000000	9.154100
416.000000	9.142100
415.000000	9.085700
414.000000	9.040300
413.000000	9.038100
412.000000	8.983000
411.000000	8.938900
410.000000	8.863000
409.000000	8.818100
408.000000	8.778400
407.000000	8.732100
406.000000	8.645400
405.000000	8.595400
404.000000	8.550700
403.000000	8.481600
402.000000	8.424900
401.000000	8.356400
400.000000	8.288300
399.000000	8.208000
398.000000	8.108400
397.000000	8.053200
396.000000	7.987500
395.000000	7.897300
394.000000	7.829600
393.000000	7.752700
392.000000	7.662400
391.000000	7.571800
390.000000	7.481900
389.000000	7.407600
388.000000	7.306900
387.000000	7.212700
386.000000	7.121600
385.000000	7.025900
384.000000	6.949000
383.000000	6.894000
382.000000	6.804500
381.000000	6.698600
380.000000	6.609900
379.000000	6.516200
378.000000	6.435800
377.000000	6.372400
376.000000	6.229200
375.000000	5.961000
374.000000	5.715800
373.000000	5.609000
372.000000	5.724000
371.000000	5.663600
370.000000	5.555300
369.000000	5.553900
368.000000	5.616200
367.000000	5.550100
366.000000	5.432000
365.000000	5.511500
364.000000	5.495600
363.000000	5.517900
362.000000	5.475400
361.000000	5.399400
360.000000	5.211600
359.000000	5.201000
358.000000	5.300900
357.000000	5.502500
356.000000	5.375200
355.000000	5.282100
354.000000	5.302800
353.000000	5.387200
352.000000	5.519900
351.000000	5.523900
350.000000	5.438300
349.000000	5.426600
348.000000	5.513900
347.000000	5.452500
346.000000	5.494100
345.000000	5.483400
344.000000	5.231100
343.000000	5.268600
342.000000	5.427800
341.000000	5.522700
340.000000	5.548600
339.000000	5.714200
338.000000	5.522300
337.000000	5.480400
336.000000	5.695000
335.000000	5.293900
334.000000	5.209600
333.000000	5.204300
332.000000	5.264800
331.000000	5.671800
330.000000	5.709700
329.000000	5.968900
328.000000	5.801300
327.000000	5.422300
326.000000	6.021400
325.000000	6.259200
324.000000	6.312300
323.000000	6.144800
322.000000	6.008900
321.000000	6.060200
320.000000	6.090000
319.000000	5.969700
318.000000	6.474500
317.000000	6.470700
316.000000	5.426200
315.000000	4.986700
314.000000	4.972200
313.000000	4.964500
312.000000	4.964800
311.000000	4.941000
310.000000	4.909000
309.000000	4.931700
308.000000	4.974500
307.000000	4.955000
306.000000	4.969800
305.000000	4.924600
304.000000	4.960400
303.000000	5.009500
302.000000	5.001900
301.000000	4.936600
300.000000	4.949000
299.000000	5.009100
298.000000	4.977800
297.000000	4.957600
296.000000	4.979600
295.000000	5.001300
294.000000	4.962000
293.000000	5.010300
292.000000	4.999500
291.000000	5.012200
290.000000	5.025200
289.000000	5.039000
288.000000	5.026500
287.000000	4.990800
286.000000	5.036600
285.000000	5.011200
284.000000	5.015500
283.000000	5.045300
282.000000	5.059800
281.000000	5.012800
280.000000	5.042900
279.000000	5.095000
278.000000	5.086600
277.000000	5.110800
276.000000	5.094400
275.000000	5.106100
274.000000	5.083500
273.000000	5.107100
272.000000	5.141900
271.000000	5.202900
270.000000	5.162400
269.000000	5.154800
268.000000	5.165100
267.000000	5.233200
266.000000	5.251800
265.000000	5.299300
264.000000	5.288200
263.000000	5.258600
262.000000	5.293700
261.000000	5.372000
260.000000	5.355200
259.000000	5.355100
258.000000	5.411600
257.000000	5.389500
256.000000	5.366800
255.000000	5.392200
254.000000	5.428000
253.000000	5.483800
252.000000	5.470200
251.000000	5.485500
250.000000	5.513400
