PE UV       SUBTECH     SPECTRUM    ASCII       PEDS        4.00        
   -1
INBUCR0144-3.Sample.ASC
24/04/29
14:11:41.00
24/04/29
14:11:41.00
Vinicio Soto Monge
C. cupreomarginata
250,000000
1
Lambda 1050
1050L1511233
PerkinElmer UV WinLab 6.3.2.0749 / 2.02.05 Lambda 900 UV/VIS/NIR, Aug  7 2015 09:38:08

0
0
3350/servo 860,8/2
0
0
UV/VIS
1
1
1
DoubleDePol,CommonBeamDepol,RBeamAtt,SBeamAtt,60mm sphere, WB InGaAs Detector
0
0
0
0
Program
Program
3350/servo 860,8/2
3350/0,2 860,8/0,2
3350/0,2 860,8/0,2
0
15.00
 
 
 
0
 
860,8
319,2
860,8
Front
100
on
S:100 R:100
0
0
0
0
 
0
 
 
 
0
 
 
0
0
0
0
0
 
 
 
 
0
0


0
0
#HDR
-1
-1
#GR
nm
%R
1.0
0.0
2500,000000
-1,000000
2251
8
83,950500
5,540900
#DATA
2500.000000	16.540787
2499.000000	16.430989
2498.000000	16.362043
2497.000000	16.341349
2496.000000	16.219220
2495.000000	16.326981
2494.000000	16.201743
2493.000000	16.280445
2492.000000	16.263504
2491.000000	16.161962
2490.000000	16.130760
2489.000000	16.149417
2488.000000	16.237127
2487.000000	16.256749
2486.000000	16.112746
2485.000000	16.224152
2484.000000	16.359792
2483.000000	16.256749
2482.000000	16.247742
2481.000000	16.265970
2480.000000	16.280445
2479.000000	16.316473
2478.000000	16.379735
2477.000000	16.373945
2476.000000	16.341456
2475.000000	16.401180
2474.000000	16.417586
2473.000000	16.500149
2472.000000	16.554940
2471.000000	16.604264
2470.000000	16.658090
2469.000000	16.700230
2468.000000	16.775501
2467.000000	16.817641
2466.000000	16.815174
2465.000000	16.935480
2464.000000	17.018579
2463.000000	17.063614
2462.000000	17.149501
2461.000000	17.270557
2460.000000	17.337573
2459.000000	17.425711
2458.000000	17.509025
2457.000000	17.573467
2456.000000	17.705460
2455.000000	17.811827
2454.000000	17.903826
2453.000000	18.026598
2452.000000	18.170815
2451.000000	18.265494
2450.000000	18.362532
2449.000000	18.515220
2448.000000	18.649037
2447.000000	18.793468
2446.000000	18.928142
2445.000000	19.062816
2444.000000	19.189985
2443.000000	19.328197
2442.000000	19.466517
2441.000000	19.616417
2440.000000	19.721068
2439.000000	19.863891
2438.000000	20.015078
2437.000000	20.159831
2436.000000	20.283783
2435.000000	20.413310
2434.000000	20.530614
2433.000000	20.670649
2432.000000	20.798461
2431.000000	20.905578
2430.000000	21.035856
2429.000000	21.149728
2428.000000	21.265102
2427.000000	21.360854
2426.000000	21.492847
2425.000000	21.587097
2424.000000	21.696252
2423.000000	21.794899
2422.000000	21.887005
2421.000000	21.969353
2420.000000	22.060280
2419.000000	22.162786
2418.000000	22.247386
2417.000000	22.320085
2416.000000	22.396536
2415.000000	22.474917
2414.000000	22.520273
2413.000000	22.587610
2412.000000	22.648085
2411.000000	22.698266
2410.000000	22.755953
2409.000000	22.808922
2408.000000	22.843662
2407.000000	22.893844
2406.000000	22.940915
2405.000000	22.980695
2404.000000	23.017688
2403.000000	23.051571
2402.000000	23.088563
2401.000000	23.167052
2400.000000	23.242538
2399.000000	23.313628
2398.000000	23.384182
2397.000000	23.422461
2396.000000	23.437687
2395.000000	23.459346
2394.000000	23.485187
2393.000000	23.492586
2392.000000	23.517569
2391.000000	23.570645
2390.000000	23.597237
2389.000000	23.586300
2388.000000	23.583619
2387.000000	23.610747
2386.000000	23.618146
2385.000000	23.592197
2384.000000	23.609032
2383.000000	23.615036
2382.000000	23.588230
2381.000000	23.591983
2380.000000	23.589517
2379.000000	23.571610
2378.000000	23.572039
2377.000000	23.567428
2376.000000	23.534296
2375.000000	23.506203
2374.000000	23.495052
2373.000000	23.482078
2372.000000	23.477574
2371.000000	23.474465
2370.000000	23.457952
2369.000000	23.443906
2368.000000	23.435328
2367.000000	23.441976
2366.000000	23.457738
2365.000000	23.452698
2364.000000	23.437043
2363.000000	23.425463
2362.000000	23.430717
2361.000000	23.429966
2360.000000	23.425999
2359.000000	23.412274
2358.000000	23.394046
2357.000000	23.385683
2356.000000	23.380321
2355.000000	23.377212
2354.000000	23.355981
2353.000000	23.323707
2352.000000	23.306765
2351.000000	23.302691
2350.000000	23.281353
2349.000000	23.243181
2348.000000	23.222058
2347.000000	23.209513
2346.000000	23.201685
2345.000000	23.180455
2344.000000	23.152576
2343.000000	23.135313
2342.000000	23.139281
2341.000000	23.138101
2340.000000	23.128236
2339.000000	23.133812
2338.000000	23.133705
2337.000000	23.130381
2336.000000	23.126092
2335.000000	23.137672
2334.000000	23.175523
2333.000000	23.190319
2332.000000	23.203723
2331.000000	23.222487
2330.000000	23.260444
2329.000000	23.294327
2328.000000	23.318882
2327.000000	23.354802
2326.000000	23.400158
2325.000000	23.438652
2324.000000	23.468675
2323.000000	23.494301
2322.000000	23.506739
2321.000000	23.528613
2320.000000	23.543088
2319.000000	23.561317
2318.000000	23.554454
2317.000000	23.539657
2316.000000	23.530758
2315.000000	23.512208
2314.000000	23.474894
2313.000000	23.454414
2312.000000	23.436829
2311.000000	23.394475
2310.000000	23.334644
2309.000000	23.310304
2308.000000	23.261946
2307.000000	23.226669
2306.000000	23.178525
2305.000000	23.133812
2304.000000	23.110866
2303.000000	23.093496
2302.000000	23.078270
2301.000000	23.061007
2300.000000	23.058112
2299.000000	23.059291
2298.000000	23.048569
2297.000000	23.071193
2296.000000	23.089099
2295.000000	23.074302
2294.000000	23.083309
2293.000000	23.127271
2292.000000	23.143355
2291.000000	23.189354
2290.000000	23.250580
2289.000000	23.256370
2288.000000	23.297222
2287.000000	23.354159
2286.000000	23.408093
2285.000000	23.442512
2284.000000	23.457309
2283.000000	23.521322
2282.000000	23.577936
2281.000000	23.631013
2280.000000	23.674867
2279.000000	23.721403
2278.000000	23.769225
2277.000000	23.806218
2276.000000	23.848678
2275.000000	23.891568
2274.000000	23.923628
2273.000000	23.960192
2272.000000	24.022490
2271.000000	24.065594
2270.000000	24.144297
2269.000000	24.172711
2268.000000	24.230291
2267.000000	24.335049
2266.000000	24.407962
2265.000000	24.501676
2264.000000	24.608686
2263.000000	24.739715
2262.000000	24.874282
2261.000000	25.035011
2260.000000	25.204962
2259.000000	25.363119
2258.000000	25.565451
2257.000000	25.747733
2256.000000	25.942989
2255.000000	26.139317
2254.000000	26.365883
2253.000000	26.591698
2252.000000	26.788026
2251.000000	27.005692
2250.000000	27.197946
2249.000000	27.418399
2248.000000	27.582131
2247.000000	27.758087
2246.000000	27.922141
2245.000000	28.074721
2244.000000	28.242099
2243.000000	28.378060
2242.000000	28.470809
2241.000000	28.590043
2240.000000	28.683113
2239.000000	28.782403
2238.000000	28.815429
2237.000000	28.871400
2236.000000	28.919008
2235.000000	28.947208
2234.000000	28.962648
2233.000000	28.979268
2232.000000	28.964900
2231.000000	28.946993
2230.000000	28.907856
2229.000000	28.878691
2228.000000	28.836016
2227.000000	28.765998
2226.000000	28.720106
2225.000000	28.638615
2224.000000	28.559805
2223.000000	28.457835
2222.000000	28.390069
2221.000000	28.274373
2220.000000	28.191596
2219.000000	28.094129
2218.000000	28.013174
2217.000000	27.901982
2216.000000	27.796795
2215.000000	27.704153
2214.000000	27.591782
2213.000000	27.507610
2212.000000	27.420544
2211.000000	27.329725
2210.000000	27.252309
2209.000000	27.178431
2208.000000	27.107555
2207.000000	27.062521
2206.000000	26.971380
2205.000000	26.884635
2204.000000	26.857400
2203.000000	26.795103
2202.000000	26.750605
2201.000000	26.717794
2200.000000	26.663753
2199.000000	26.632979
2198.000000	26.572719
2197.000000	26.527363
2196.000000	26.507527
2195.000000	26.476646
2194.000000	26.454987
2193.000000	26.447695
2192.000000	26.408451
2191.000000	26.384969
2190.000000	26.376713
2189.000000	26.345939
2188.000000	26.318704
2187.000000	26.288681
2186.000000	26.264877
2185.000000	26.236570
2184.000000	26.229922
2183.000000	26.205368
2182.000000	26.196790
2181.000000	26.180170
2180.000000	26.168804
2179.000000	26.153685
2178.000000	26.125914
2177.000000	26.141140
2176.000000	26.126987
2175.000000	26.141140
2174.000000	26.124091
2173.000000	26.139853
2172.000000	26.153364
2171.000000	26.168482
2170.000000	26.196897
2169.000000	26.229493
2168.000000	26.286429
2167.000000	26.331142
2166.000000	26.390759
2165.000000	26.436544
2164.000000	26.500986
2163.000000	26.570467
2162.000000	26.647776
2161.000000	26.733556
2160.000000	26.824804
2159.000000	26.925059
2158.000000	27.033356
2157.000000	27.144119
2156.000000	27.240943
2155.000000	27.371113
2154.000000	27.515223
2153.000000	27.651291
2152.000000	27.788324
2151.000000	27.923534
2150.000000	28.063891
2149.000000	28.207787
2148.000000	28.340316
2147.000000	28.502762
2146.000000	28.657701
2145.000000	28.793769
2144.000000	28.940560
2143.000000	29.077914
2142.000000	29.210444
2141.000000	29.333967
2140.000000	29.473788
2139.000000	29.606961
2138.000000	29.733164
2137.000000	29.846822
2136.000000	29.972811
2135.000000	30.094189
2134.000000	30.208169
2133.000000	30.315822
2132.000000	30.414469
2131.000000	30.510971
2130.000000	30.606508
2129.000000	30.681565
2128.000000	30.755443
2127.000000	30.826533
2126.000000	30.896229
2125.000000	30.958098
2124.000000	31.016749
2123.000000	31.061140
2122.000000	31.104566
2121.000000	31.159894
2120.000000	31.193348
2119.000000	31.244387
2118.000000	31.277734
2117.000000	31.289743
2116.000000	31.316978
2115.000000	31.344321
2114.000000	31.347966
2113.000000	31.341425
2112.000000	31.355043
2111.000000	31.369840
2110.000000	31.372949
2109.000000	31.370591
2108.000000	31.365122
2107.000000	31.364908
2106.000000	31.366730
2105.000000	31.366838
2104.000000	31.361798
2103.000000	31.349146
2102.000000	31.341104
2101.000000	31.345286
2100.000000	31.353113
2099.000000	31.346358
2098.000000	31.357080
2097.000000	31.365873
2096.000000	31.365229
2095.000000	31.382921
2094.000000	31.404902
2093.000000	31.421951
2092.000000	31.444790
2091.000000	31.458622
2090.000000	31.475778
2089.000000	31.492719
2088.000000	31.493041
2087.000000	31.506980
2086.000000	31.507731
2085.000000	31.493899
2084.000000	31.475671
2083.000000	31.459158
2082.000000	31.423452
2081.000000	31.369089
2080.000000	31.301860
2079.000000	31.248569
2078.000000	31.180374
2077.000000	31.094702
2076.000000	31.001738
2075.000000	30.899553
2074.000000	30.781391
2073.000000	30.655188
2072.000000	30.530164
2071.000000	30.403425
2070.000000	30.255991
2069.000000	30.105019
2068.000000	29.954797
2067.000000	29.799858
2066.000000	29.639021
2065.000000	29.482044
2064.000000	29.323137
2063.000000	29.164123
2062.000000	29.021193
2061.000000	28.888985
2060.000000	28.765248
2059.000000	28.669818
2058.000000	28.577176
2057.000000	28.500081
2056.000000	28.441751
2055.000000	28.413658
2054.000000	28.402614
2053.000000	28.439928
2052.000000	28.490324
2051.000000	28.570635
2050.000000	28.673892
2049.000000	28.804921
2048.000000	28.954713
2047.000000	29.125522
2046.000000	29.295259
2045.000000	29.483867
2044.000000	29.708931
2043.000000	29.922415
2042.000000	30.119494
2041.000000	30.333300
2040.000000	30.525446
2039.000000	30.723812
2038.000000	30.917352
2037.000000	31.088161
2036.000000	31.260471
2035.000000	31.436855
2034.000000	31.621067
2033.000000	31.781046
2032.000000	31.930410
2031.000000	32.066371
2030.000000	32.182173
2029.000000	32.325533
2028.000000	32.443158
2027.000000	32.556387
2026.000000	32.653640
2025.000000	32.744674
2024.000000	32.843320
2023.000000	32.941216
2022.000000	33.018847
2021.000000	33.088865
2020.000000	33.158561
2019.000000	33.218499
2018.000000	33.291734
2017.000000	33.312321
2016.000000	33.355961
2015.000000	33.379979
2014.000000	33.404212
2013.000000	33.424370
2012.000000	33.423084
2011.000000	33.431125
2010.000000	33.418795
2009.000000	33.409681
2008.000000	33.400245
2007.000000	33.376655
2006.000000	33.338162
2005.000000	33.299454
2004.000000	33.238872
2003.000000	33.174108
2002.000000	33.122426
2001.000000	33.053373
2000.000000	32.971775
1999.000000	32.891571
1998.000000	32.803862
1997.000000	32.726660
1996.000000	32.627799
1995.000000	32.533548
1994.000000	32.412492
1993.000000	32.332395
1992.000000	32.217879
1991.000000	32.113550
1990.000000	32.003537
1989.000000	31.873796
1988.000000	31.731616
1987.000000	31.641869
1986.000000	31.500440
1985.000000	31.377346
1984.000000	31.248355
1983.000000	31.142953
1982.000000	31.025006
1981.000000	30.889152
1980.000000	30.764128
1979.000000	30.634601
1978.000000	30.522659
1977.000000	30.394954
1976.000000	30.289552
1975.000000	30.174929
1974.000000	30.055481
1973.000000	29.947506
1972.000000	29.841032
1971.000000	29.727374
1970.000000	29.640200
1969.000000	29.514426
1968.000000	29.409238
1967.000000	29.321850
1966.000000	29.198757
1965.000000	29.085420
1964.000000	28.991920
1963.000000	28.868290
1962.000000	28.781760
1961.000000	28.650303
1960.000000	28.520132
1959.000000	28.430707
1958.000000	28.325627
1957.000000	28.205964
1956.000000	28.112786
1955.000000	28.012853
1954.000000	27.879894
1953.000000	27.743504
1952.000000	27.649790
1951.000000	27.553074
1950.000000	27.453784
1949.000000	27.357925
1948.000000	27.282975
1947.000000	27.191941
1946.000000	27.132860
1945.000000	27.049225
1944.000000	26.968914
1943.000000	26.911549
1942.000000	26.874878
1941.000000	26.838422
1940.000000	26.808720
1939.000000	26.768511
1938.000000	26.747388
1937.000000	26.742563
1936.000000	26.745458
1935.000000	26.763686
1934.000000	26.802287
1933.000000	26.850538
1932.000000	26.920770
1931.000000	27.003548
1930.000000	27.092651
1929.000000	27.208561
1928.000000	27.317930
1927.000000	27.439094
1926.000000	27.582882
1925.000000	27.745113
1924.000000	27.931147
1923.000000	28.109891
1922.000000	28.333025
1921.000000	28.571922
1920.000000	28.806100
1919.000000	29.067085
1918.000000	29.348013
1917.000000	29.641701
1916.000000	29.957156
1915.000000	30.286014
1914.000000	30.685211
1913.000000	31.089126
1912.000000	31.484463
1911.000000	31.895026
1910.000000	32.329393
1909.000000	32.762795
1908.000000	33.262461
1907.000000	33.807913
1906.000000	34.435820
1905.000000	35.043033
1904.000000	35.654213
1903.000000	36.256386
1902.000000	36.926433
1901.000000	37.604414
1900.000000	38.337187
1899.000000	39.078752
1898.000000	39.790187
1897.000000	40.451763
1896.000000	41.105082
1895.000000	41.761940
1894.000000	42.451180
1893.000000	43.175696
1892.000000	43.968407
1891.000000	44.682952
1890.000000	45.360933
1889.000000	46.043632
1888.000000	46.641516
1887.000000	47.220422
1886.000000	47.784209
1885.000000	48.358825
1884.000000	48.896771
1883.000000	49.377030
1882.000000	49.853322
1881.000000	50.306346
1880.000000	50.693855
1879.000000	51.086512
1878.000000	51.466623
1877.000000	51.825289
1876.000000	52.171517
1875.000000	52.497051
1874.000000	52.829984
1873.000000	53.142222
1872.000000	53.402241
1871.000000	53.632667
1870.000000	53.825564
1869.000000	54.012135
1868.000000	54.132655
1867.000000	54.220365
1866.000000	54.278802
1865.000000	54.367691
1864.000000	54.450576
1863.000000	54.552225
1862.000000	54.685291
1861.000000	54.813424
1860.000000	54.927082
1859.000000	55.011361
1858.000000	55.088884
1857.000000	55.154505
1856.000000	55.177880
1855.000000	55.216696
1854.000000	55.252401
1853.000000	55.256476
1852.000000	55.280280
1851.000000	55.327780
1850.000000	55.400479
1849.000000	55.427928
1848.000000	55.431574
1847.000000	55.403374
1846.000000	55.332069
1845.000000	55.277063
1844.000000	55.245325
1843.000000	55.254439
1842.000000	55.274275
1841.000000	55.265590
1840.000000	55.231385
1839.000000	55.189139
1838.000000	55.146678
1837.000000	55.097247
1836.000000	55.029589
1835.000000	54.937483
1834.000000	54.854813
1833.000000	54.798198
1832.000000	54.765173
1831.000000	54.742334
1830.000000	54.711989
1829.000000	54.685934
1828.000000	54.635324
1827.000000	54.590182
1826.000000	54.556299
1825.000000	54.529922
1824.000000	54.532388
1823.000000	54.558873
1822.000000	54.597688
1821.000000	54.632322
1820.000000	54.619884
1819.000000	54.568737
1818.000000	54.541395
1817.000000	54.537642
1816.000000	54.537321
1815.000000	54.511265
1814.000000	54.497648
1813.000000	54.481778
1812.000000	54.465158
1811.000000	54.421089
1810.000000	54.376162
1809.000000	54.349463
1808.000000	54.313972
1807.000000	54.296816
1806.000000	54.273441
1805.000000	54.223903
1804.000000	54.200635
1803.000000	54.213717
1802.000000	54.206962
1801.000000	54.164608
1800.000000	54.113891
1799.000000	54.084726
1798.000000	54.057705
1797.000000	54.026824
1796.000000	54.002699
1795.000000	53.984900
1794.000000	53.953376
1793.000000	53.937828
1792.000000	53.937399
1791.000000	53.922388
1790.000000	53.914560
1789.000000	53.909628
1788.000000	53.916598
1787.000000	53.938900
1786.000000	53.933753
1785.000000	53.937292
1784.000000	53.939544
1783.000000	53.924210
1782.000000	53.922173
1781.000000	53.891185
1780.000000	53.855801
1779.000000	53.827172
1778.000000	53.789215
1777.000000	53.740535
1776.000000	53.691962
1775.000000	53.641781
1774.000000	53.597712
1773.000000	53.531768
1772.000000	53.486627
1771.000000	53.426796
1770.000000	53.381118
1769.000000	53.324718
1768.000000	53.273143
1767.000000	53.230253
1766.000000	53.191330
1765.000000	53.149942
1764.000000	53.121956
1763.000000	53.087966
1762.000000	53.073062
1761.000000	53.070703
1760.000000	53.070059
1759.000000	53.042717
1758.000000	53.039071
1757.000000	53.018806
1756.000000	53.014088
1755.000000	53.020307
1754.000000	52.999184
1753.000000	52.987282
1752.000000	52.969054
1751.000000	52.948038
1750.000000	52.909973
1749.000000	52.833844
1748.000000	52.767257
1747.000000	52.701100
1746.000000	52.606313
1745.000000	52.518818
1744.000000	52.424246
1743.000000	52.326350
1742.000000	52.213228
1741.000000	52.096675
1740.000000	51.975404
1739.000000	51.880939
1738.000000	51.791084
1737.000000	51.710880
1736.000000	51.616630
1735.000000	51.547899
1734.000000	51.479168
1733.000000	51.415798
1732.000000	51.338811
1731.000000	51.273940
1730.000000	51.208855
1729.000000	51.150096
1728.000000	51.074931
1727.000000	51.020354
1726.000000	50.981432
1725.000000	50.964919
1724.000000	51.000946
1723.000000	51.058419
1722.000000	51.170576
1721.000000	51.370228
1720.000000	51.582104
1719.000000	51.879330
1718.000000	52.135597
1717.000000	52.438507
1716.000000	52.724903
1715.000000	53.019557
1714.000000	53.287404
1713.000000	53.505713
1712.000000	53.715766
1711.000000	53.917134
1710.000000	54.051164
1709.000000	54.258429
1708.000000	54.354181
1707.000000	54.462371
1706.000000	54.574956
1705.000000	54.655053
1704.000000	54.694941
1703.000000	54.744371
1702.000000	54.755308
1701.000000	54.805060
1700.000000	54.793695
1699.000000	54.786618
1698.000000	54.787905
1697.000000	54.772679
1696.000000	54.727644
1695.000000	54.659449
1694.000000	54.588681
1693.000000	54.492715
1692.000000	54.391495
1691.000000	54.313221
1690.000000	54.243525
1689.000000	54.250280
1688.000000	54.295744
1687.000000	54.380451
1686.000000	54.584071
1685.000000	54.802809
1684.000000	55.036237
1683.000000	55.328638
1682.000000	55.621254
1681.000000	55.914192
1680.000000	56.195763
1679.000000	56.461037
1678.000000	56.708833
1677.000000	56.947515
1676.000000	57.198206
1675.000000	57.409546
1674.000000	57.617990
1673.000000	57.851204
1672.000000	58.073588
1671.000000	58.299831
1670.000000	58.513744
1669.000000	58.720795
1668.000000	58.951864
1667.000000	59.171353
1666.000000	59.338730
1665.000000	59.511148
1664.000000	59.681849
1663.000000	59.846653
1662.000000	59.988297
1661.000000	60.113643
1660.000000	60.240382
1659.000000	60.338600
1658.000000	60.431885
1657.000000	60.510910
1656.000000	60.584787
1655.000000	60.638936
1654.000000	60.675821
1653.000000	60.714958
1652.000000	60.745946
1651.000000	60.753988
1650.000000	60.751093
1649.000000	60.769750
1648.000000	60.744659
1647.000000	60.747233
1646.000000	60.737904
1645.000000	60.700161
1644.000000	60.690296
1643.000000	60.680539
1642.000000	60.665206
1641.000000	60.651803
1640.000000	60.630251
1639.000000	60.628857
1638.000000	60.603659
1637.000000	60.596046
1636.000000	60.567524
1635.000000	60.538252
1634.000000	60.506406
1633.000000	60.463624
1632.000000	60.433922
1631.000000	60.392319
1630.000000	60.334847
1629.000000	60.294745
1628.000000	60.249818
1627.000000	60.196206
1626.000000	60.149241
1625.000000	60.102920
1624.000000	60.060566
1623.000000	60.017140
1622.000000	59.966638
1621.000000	59.922676
1620.000000	59.893296
1619.000000	59.855982
1618.000000	59.824243
1617.000000	59.781246
1616.000000	59.741788
1615.000000	59.712515
1614.000000	59.670805
1613.000000	59.606470
1612.000000	59.561650
1611.000000	59.525837
1610.000000	59.471367
1609.000000	59.389019
1608.000000	59.314605
1607.000000	59.254130
1606.000000	59.183469
1605.000000	59.096296
1604.000000	59.001509
1603.000000	58.922914
1602.000000	58.835740
1601.000000	58.747494
1600.000000	58.663430
1599.000000	58.573683
1598.000000	58.502486
1597.000000	58.440296
1596.000000	58.367276
1595.000000	58.302190
1594.000000	58.240429
1593.000000	58.192285
1592.000000	58.128379
1591.000000	58.065760
1590.000000	58.006465
1589.000000	57.953496
1588.000000	57.910177
1587.000000	57.864607
1586.000000	57.800808
1585.000000	57.751163
1584.000000	57.716422
1583.000000	57.670101
1582.000000	57.618419
1581.000000	57.588182
1580.000000	57.561483
1579.000000	57.537572
1578.000000	57.526635
1577.000000	57.507227
1576.000000	57.501115
1575.000000	57.499936
1574.000000	57.498971
1573.000000	57.503367
1572.000000	57.524276
1571.000000	57.559446
1570.000000	57.582821
1569.000000	57.604694
1568.000000	57.642652
1567.000000	57.683290
1566.000000	57.715779
1565.000000	57.743979
1564.000000	57.768641
1563.000000	57.779363
1562.000000	57.788799
1561.000000	57.790515
1560.000000	57.781722
1559.000000	57.762529
1558.000000	57.726180
1557.000000	57.683397
1556.000000	57.647799
1555.000000	57.594508
1554.000000	57.516663
1553.000000	57.447825
1552.000000	57.363117
1551.000000	57.262434
1550.000000	57.172794
1549.000000	57.070180
1548.000000	56.970032
1547.000000	56.881679
1546.000000	56.798902
1545.000000	56.721164
1544.000000	56.661011
1543.000000	56.605790
1542.000000	56.550355
1541.000000	56.493848
1540.000000	56.446133
1539.000000	56.416324
1538.000000	56.376866
1537.000000	56.329044
1536.000000	56.285725
1535.000000	56.224928
1534.000000	56.157806
1533.000000	56.095401
1532.000000	56.037822
1531.000000	55.968447
1530.000000	55.896607
1529.000000	55.824552
1528.000000	55.752282
1527.000000	55.680871
1526.000000	55.618681
1525.000000	55.551129
1524.000000	55.478324
1523.000000	55.402301
1522.000000	55.328102
1521.000000	55.238033
1520.000000	55.161689
1519.000000	55.098427
1518.000000	55.008573
1517.000000	54.907031
1516.000000	54.835619
1515.000000	54.752735
1514.000000	54.671888
1513.000000	54.579889
1512.000000	54.484995
1511.000000	54.405863
1510.000000	54.306144
1509.000000	54.203423
1508.000000	54.119145
1507.000000	54.052558
1506.000000	53.977716
1505.000000	53.896547
1504.000000	53.821811
1503.000000	53.739462
1502.000000	53.700218
1501.000000	53.638242
1500.000000	53.597712
1499.000000	53.553428
1498.000000	53.532412
1497.000000	53.521582
1496.000000	53.526514
1495.000000	53.531447
1494.000000	53.526622
1493.000000	53.549568
1492.000000	53.566188
1491.000000	53.590206
1490.000000	53.634597
1489.000000	53.676843
1488.000000	53.718446
1487.000000	53.757691
1486.000000	53.789322
1485.000000	53.817308
1484.000000	53.859125
1483.000000	53.888719
1482.000000	53.958093
1481.000000	54.008489
1480.000000	54.023929
1479.000000	54.082796
1478.000000	54.150669
1477.000000	54.208356
1476.000000	54.265935
1475.000000	54.375840
1474.000000	54.469662
1473.000000	54.576243
1472.000000	54.677999
1471.000000	54.796482
1470.000000	54.862962
1469.000000	54.959142
1468.000000	55.073122
1467.000000	55.221950
1466.000000	55.327995
1465.000000	55.442725
1464.000000	55.543195
1463.000000	55.669827
1462.000000	55.810291
1461.000000	55.916765
1460.000000	56.047793
1459.000000	56.159736
1458.000000	56.290657
1457.000000	56.436697
1456.000000	56.555180
1455.000000	56.680740
1454.000000	56.797401
1453.000000	56.944620
1452.000000	57.083261
1451.000000	57.208714
1450.000000	57.293958
1449.000000	57.395070
1448.000000	57.547865
1447.000000	57.696908
1446.000000	57.844985
1445.000000	57.935268
1444.000000	58.042921
1443.000000	58.168803
1442.000000	58.301654
1441.000000	58.419816
1440.000000	58.590303
1439.000000	58.727014
1438.000000	58.892998
1437.000000	59.004833
1436.000000	59.180896
1435.000000	59.361140
1434.000000	59.541063
1433.000000	59.736212
1432.000000	59.911310
1431.000000	60.085550
1430.000000	60.283594
1429.000000	60.524098
1428.000000	60.745946
1427.000000	60.959752
1426.000000	61.227920
1425.000000	61.516033
1424.000000	61.812295
1423.000000	62.055909
1422.000000	62.347452
1421.000000	62.692394
1420.000000	63.046986
1419.000000	63.347858
1418.000000	63.622246
1417.000000	63.955178
1416.000000	64.344189
1415.000000	64.801073
1414.000000	65.170569
1413.000000	65.526769
1412.000000	65.899589
1411.000000	66.357866
1410.000000	66.858176
1409.000000	67.280105
1408.000000	67.743315
1407.000000	68.146909
1406.000000	68.562940
1405.000000	69.001489
1404.000000	69.437357
1403.000000	69.800526
1402.000000	70.240683
1401.000000	70.743352
1400.000000	71.146838
1399.000000	71.388201
1398.000000	71.663125
1397.000000	72.053851
1396.000000	72.531000
1395.000000	72.832838
1394.000000	73.056294
1393.000000	73.325427
1392.000000	73.651605
1391.000000	73.909909
1390.000000	74.159635
1389.000000	74.547681
1388.000000	74.826250
1387.000000	75.082946
1386.000000	75.360014
1385.000000	75.628290
1384.000000	75.933558
1383.000000	76.200119
1382.000000	76.396661
1381.000000	76.527583
1380.000000	76.591274
1379.000000	76.679305
1378.000000	76.745570
1377.000000	76.854081
1376.000000	76.965488
1375.000000	77.038722
1374.000000	77.156026
1373.000000	77.314075
1372.000000	77.468800
1371.000000	77.601758
1370.000000	77.715845
1369.000000	77.855774
1368.000000	77.966858
1367.000000	78.052960
1366.000000	78.161042
1365.000000	78.260439
1364.000000	78.330028
1363.000000	78.435644
1362.000000	78.557987
1361.000000	78.596267
1360.000000	78.546514
1359.000000	78.619963
1358.000000	78.690088
1357.000000	78.767397
1356.000000	78.870654
1355.000000	79.012083
1354.000000	79.091108
1353.000000	79.170347
1352.000000	79.367640
1351.000000	79.531158
1350.000000	79.695962
1349.000000	79.867307
1348.000000	80.062027
1347.000000	80.220933
1346.000000	80.350782
1345.000000	80.530813
1344.000000	80.700764
1343.000000	80.835545
1342.000000	80.958531
1341.000000	81.098245
1340.000000	81.235814
1339.000000	81.351831
1338.000000	81.457126
1337.000000	81.561777
1336.000000	81.658494
1335.000000	81.741914
1334.000000	81.831018
1333.000000	81.924839
1332.000000	82.002148
1331.000000	82.083961
1330.000000	82.149904
1329.000000	82.207912
1328.000000	82.257557
1327.000000	82.298517
1326.000000	82.353309
1325.000000	82.404133
1324.000000	82.445736
1323.000000	82.495489
1322.000000	82.538915
1321.000000	82.567436
1320.000000	82.587702
1319.000000	82.622871
1318.000000	82.653752
1317.000000	82.691602
1316.000000	82.716264
1315.000000	82.731168
1314.000000	82.767517
1313.000000	82.789391
1312.000000	82.807834
1311.000000	82.830244
1310.000000	82.849223
1309.000000	82.865414
1308.000000	82.865306
1307.000000	82.873670
1306.000000	82.893614
1305.000000	82.906159
1304.000000	82.906481
1303.000000	82.895436
1302.000000	82.898546
1301.000000	82.904443
1300.000000	82.895651
1299.000000	82.880747
1298.000000	82.860267
1297.000000	82.841931
1296.000000	82.840752
1295.000000	82.829922
1294.000000	82.812445
1293.000000	82.792822
1292.000000	82.769126
1291.000000	82.747574
1290.000000	82.719481
1289.000000	82.698036
1288.000000	82.665440
1287.000000	82.620513
1286.000000	82.590597
1285.000000	82.570439
1284.000000	82.535162
1283.000000	82.482300
1282.000000	82.455387
1281.000000	82.434907
1280.000000	82.404026
1279.000000	82.364031
1278.000000	82.335402
1277.000000	82.332293
1276.000000	82.315566
1275.000000	82.293585
1274.000000	82.286722
1273.000000	82.284256
1272.000000	82.260667
1271.000000	82.248550
1270.000000	82.242439
1269.000000	82.242010
1268.000000	82.243511
1267.000000	82.232681
1266.000000	82.229250
1265.000000	82.230215
1264.000000	82.214882
1263.000000	82.202873
1262.000000	82.192686
1261.000000	82.169311
1260.000000	82.148724
1259.000000	82.156123
1258.000000	82.150333
1257.000000	82.125349
1256.000000	82.097257
1255.000000	82.079564
1254.000000	82.062516
1253.000000	82.018339
1252.000000	81.995393
1251.000000	81.956792
1250.000000	81.911865
1249.000000	81.882700
1248.000000	81.819974
1247.000000	81.752101
1246.000000	81.711891
1245.000000	81.633617
1244.000000	81.568318
1243.000000	81.511703
1242.000000	81.447797
1241.000000	81.391397
1240.000000	81.334890
1239.000000	81.291571
1238.000000	81.242784
1237.000000	81.184025
1236.000000	81.138025
1235.000000	81.076586
1234.000000	81.034661
1233.000000	80.979333
1232.000000	80.930331
1231.000000	80.891623
1230.000000	80.845517
1229.000000	80.804771
1228.000000	80.756413
1227.000000	80.706661
1226.000000	80.656051
1225.000000	80.610695
1224.000000	80.561264
1223.000000	80.505079
1222.000000	80.473126
1221.000000	80.428735
1220.000000	80.382199
1219.000000	80.344671
1218.000000	80.301888
1217.000000	80.253744
1216.000000	80.211498
1215.000000	80.176328
1214.000000	80.126254
1213.000000	80.051304
1212.000000	80.004983
1211.000000	79.964667
1210.000000	79.905479
1209.000000	79.828170
1208.000000	79.790105
1207.000000	79.723840
1206.000000	79.659613
1205.000000	79.573404
1204.000000	79.534482
1203.000000	79.469504
1202.000000	79.414390
1201.000000	79.353915
1200.000000	79.265241
1199.000000	79.198440
1198.000000	79.142361
1197.000000	79.062693
1196.000000	78.976914
1195.000000	78.902500
1194.000000	78.832697
1193.000000	78.754959
1192.000000	78.662639
1191.000000	78.602914
1190.000000	78.541689
1189.000000	78.496333
1188.000000	78.458590
1187.000000	78.441005
1186.000000	78.434465
1185.000000	78.431141
1184.000000	78.433821
1183.000000	78.438754
1182.000000	78.483252
1181.000000	78.505555
1180.000000	78.554342
1179.000000	78.610098
1178.000000	78.632080
1177.000000	78.678615
1176.000000	78.746488
1175.000000	78.770828
1174.000000	78.825834
1173.000000	78.897782
1172.000000	78.923087
1171.000000	79.008438
1170.000000	79.086176
1169.000000	79.166380
1168.000000	79.246905
1167.000000	79.345337
1166.000000	79.473149
1165.000000	79.577586
1164.000000	79.666153
1163.000000	79.775308
1162.000000	79.879638
1161.000000	79.990186
1160.000000	80.093872
1159.000000	80.170323
1158.000000	80.265646
1157.000000	80.355393
1156.000000	80.426912
1155.000000	80.510333
1154.000000	80.551400
1153.000000	80.617664
1152.000000	80.648760
1151.000000	80.682428
1150.000000	80.735826
1149.000000	80.748478
1148.000000	80.792119
1147.000000	80.819247
1146.000000	80.825787
1145.000000	80.882938
1144.000000	80.902775
1143.000000	80.936979
1142.000000	80.971720
1141.000000	81.004316
1140.000000	81.059108
1139.000000	81.113793
1138.000000	81.167941
1137.000000	81.255222
1136.000000	81.311408
1135.000000	81.407266
1134.000000	81.447261
1133.000000	81.449406
1132.000000	81.486076
1131.000000	81.524999
1130.000000	81.580327
1129.000000	81.610671
1128.000000	81.641230
1127.000000	81.652811
1126.000000	81.674470
1125.000000	81.677901
1124.000000	81.716824
1123.000000	81.701276
1122.000000	81.684442
1121.000000	81.662032
1120.000000	81.650130
1119.000000	81.616569
1118.000000	81.606704
1117.000000	81.599306
1116.000000	81.561455
1115.000000	81.541619
1114.000000	81.522640
1113.000000	81.514169
1112.000000	81.476105
1111.000000	81.464953
1110.000000	81.439648
1109.000000	81.424851
1108.000000	81.408339
1107.000000	81.378101
1106.000000	81.384535
1105.000000	81.368451
1104.000000	81.337249
1103.000000	81.324274
1102.000000	81.305617
1101.000000	81.279026
1100.000000	81.268947
1099.000000	81.236565
1098.000000	81.205041
1097.000000	81.193139
1096.000000	81.188528
1095.000000	81.168799
1094.000000	81.148641
1093.000000	81.119368
1092.000000	81.100068
1091.000000	81.075621
1090.000000	81.050101
1089.000000	81.025868
1088.000000	81.008284
1087.000000	80.976974
1086.000000	80.947595
1085.000000	80.930653
1084.000000	80.914784
1083.000000	80.872108
1082.000000	80.861493
1081.000000	80.841335
1080.000000	80.801126
1079.000000	80.773033
1078.000000	80.749765
1077.000000	80.727141
1076.000000	80.689934
1075.000000	80.664200
1074.000000	80.635035
1073.000000	80.598793
1072.000000	80.573917
1071.000000	80.546467
1070.000000	80.518053
1069.000000	80.482133
1068.000000	80.452110
1067.000000	80.419728
1066.000000	80.388311
1065.000000	80.359253
1064.000000	80.335557
1063.000000	80.305105
1062.000000	80.287413
1061.000000	80.259534
1060.000000	80.230155
1059.000000	80.213535
1058.000000	80.186836
1057.000000	80.155205
1056.000000	80.136012
1055.000000	80.125289
1054.000000	80.111886
1053.000000	80.084437
1052.000000	80.064171
1051.000000	80.067495
1050.000000	80.044120
1049.000000	80.014204
1048.000000	80.010559
1047.000000	79.996191
1046.000000	79.976783
1045.000000	79.977748
1044.000000	79.971315
1043.000000	79.962951
1042.000000	79.935823
1041.000000	79.916201
1040.000000	79.908910
1039.000000	79.900546
1038.000000	79.894435
1037.000000	79.883819
1036.000000	79.889717
1035.000000	79.900654
1034.000000	79.895829
1033.000000	79.882962
1032.000000	79.874598
1031.000000	79.868272
1030.000000	79.869666
1029.000000	79.886714
1028.000000	79.894864
1027.000000	79.900761
1026.000000	79.908374
1025.000000	79.908481
1024.000000	79.901726
1023.000000	79.885749
1022.000000	79.894220
1021.000000	79.881782
1020.000000	79.871489
1019.000000	79.873740
1018.000000	79.877064
1017.000000	79.880388
1016.000000	79.872990
1015.000000	79.852939
1014.000000	79.859051
1013.000000	79.872990
1012.000000	79.877600
1011.000000	79.878029
1010.000000	79.870631
1009.000000	79.894542
1008.000000	79.911591
1007.000000	79.913199
1006.000000	79.930784
1005.000000	79.932714
1004.000000	79.948690
1003.000000	79.946975
1002.000000	79.947940
1001.000000	79.955874
1000.000000	79.954480
999.000000	79.956089
998.000000	79.963273
997.000000	79.977426
996.000000	79.979678
995.000000	79.962522
994.000000	79.948154
993.000000	79.960056
992.000000	79.969170
991.000000	79.963058
990.000000	79.985576
989.000000	80.002410
988.000000	80.037258
987.000000	80.066637
986.000000	80.083579
985.000000	80.117676
984.000000	80.168072
983.000000	80.205922
982.000000	80.266182
981.000000	80.304998
980.000000	80.363649
979.000000	80.409327
978.000000	80.466907
977.000000	80.509475
976.000000	80.573381
975.000000	80.639431
974.000000	80.696475
973.000000	80.742259
972.000000	80.815279
971.000000	80.876183
970.000000	80.944163
969.000000	81.008605
968.000000	81.076264
967.000000	81.158613
966.000000	81.227558
965.000000	81.310335
964.000000	81.424208
963.000000	81.507629
962.000000	81.591800
961.000000	81.709961
960.000000	81.784482
959.000000	81.873050
958.000000	81.969767
957.000000	82.056511
956.000000	82.160948
955.000000	82.251660
954.000000	82.330148
953.000000	82.411103
952.000000	82.476939
951.000000	82.553068
950.000000	82.646675
949.000000	82.705006
948.000000	82.784888
947.000000	82.870239
946.000000	82.925459
945.000000	82.990545
944.000000	83.082007
943.000000	83.170789
942.000000	83.226117
941.000000	83.305249
940.000000	83.387168
939.000000	83.477237
938.000000	83.541143
937.000000	83.637323
936.000000	83.694367
935.000000	83.759345
934.000000	83.866569
933.000000	83.913212
932.000000	83.968540
931.000000	84.027835
930.000000	84.086058
929.000000	84.170658
928.000000	84.223413
927.000000	84.282601
926.000000	84.333211
925.000000	84.377602
924.000000	84.498873
923.000000	84.530611
922.000000	84.595482
921.000000	84.659174
920.000000	84.731443
919.000000	84.821941
918.000000	84.875338
917.000000	84.951361
916.000000	84.985136
915.000000	85.084855
914.000000	85.142864
913.000000	85.201301
912.000000	85.244942
911.000000	85.289011
910.000000	85.349593
909.000000	85.410818
908.000000	85.441270
907.000000	85.477512
906.000000	85.522224
905.000000	85.541739
904.000000	85.588167
903.000000	85.612615
902.000000	85.640815
901.000000	85.695392
900.000000	85.700753
899.000000	85.649178
898.000000	85.680273
897.000000	85.706758
896.000000	85.696357
895.000000	85.707723
894.000000	85.659794
893.000000	85.639743
892.000000	85.629020
891.000000	85.598032
890.000000	85.505712
889.000000	85.473223
888.000000	85.376184
887.000000	85.323859
886.000000	85.251053
885.000000	85.146938
884.000000	85.051187
883.000000	84.937100
882.000000	84.821726
881.000000	84.671076
880.000000	84.535973
879.000000	84.379532
878.000000	84.196928
877.000000	83.980871
876.000000	83.663593
875.000000	83.339775
874.000000	83.114711
873.000000	82.710045
872.000000	82.339155
871.000000	82.145722
870.000000	82.139825
869.000000	82.160519
868.000000	82.193973
867.000000	82.210915
866.000000	82.213702
865.000000	82.206304
864.000000	82.217455
863.000000	82.215525
862.000000	82.228499
861.000000	82.226784
860.000000	82.241903
859.000000	82.243189
858.000000	83.210033
857.000000	82.951600
856.000000	83.190600
855.000000	83.487900
854.000000	83.836000
853.000000	83.738000
852.000000	83.950500
851.000000	83.599700
850.000000	83.314500
849.000000	83.775000
848.000000	83.274500
847.000000	83.234300
846.000000	83.324300
845.000000	83.286000
844.000000	83.305900
843.000000	83.223600
842.000000	83.025700
841.000000	82.873900
840.000000	82.915100
839.000000	82.592500
838.000000	82.926200
837.000000	82.540700
836.000000	82.507600
835.000000	82.710500
834.000000	82.364400
833.000000	82.184200
832.000000	82.240100
831.000000	82.215700
830.000000	82.232300
829.000000	81.814800
828.000000	81.851000
827.000000	81.746300
826.000000	81.606200
825.000000	81.546100
824.000000	81.628300
823.000000	81.315200
822.000000	81.134800
821.000000	81.112000
820.000000	81.031800
819.000000	80.874100
818.000000	80.700900
817.000000	80.599100
816.000000	80.463300
815.000000	80.111400
814.000000	80.135100
813.000000	80.012000
812.000000	79.860600
811.000000	79.824900
810.000000	79.468300
809.000000	79.187900
808.000000	79.115600
807.000000	78.860000
806.000000	78.836900
805.000000	78.749000
804.000000	78.553800
803.000000	78.443100
802.000000	78.198400
801.000000	78.120800
800.000000	78.016200
799.000000	77.686800
798.000000	77.638700
797.000000	77.460200
796.000000	77.177900
795.000000	77.141700
794.000000	77.110000
793.000000	76.991300
792.000000	76.702800
791.000000	76.431200
790.000000	76.203900
789.000000	75.964900
788.000000	75.798200
787.000000	75.661800
786.000000	75.523100
785.000000	75.332100
784.000000	75.085300
783.000000	74.908100
782.000000	74.766600
781.000000	74.587900
780.000000	74.416800
779.000000	74.225300
778.000000	74.091100
777.000000	73.959300
776.000000	73.787400
775.000000	73.662100
774.000000	73.395300
773.000000	73.310800
772.000000	73.161100
771.000000	73.004100
770.000000	72.805400
769.000000	72.578400
768.000000	72.545100
767.000000	72.349200
766.000000	72.007200
765.000000	71.847500
764.000000	71.630200
763.000000	71.412900
762.000000	71.251800
761.000000	70.994500
760.000000	70.722500
759.000000	70.484500
758.000000	70.323800
757.000000	70.104100
756.000000	69.832500
755.000000	69.611200
754.000000	69.323000
753.000000	69.184000
752.000000	69.057800
751.000000	68.823600
750.000000	68.615700
749.000000	68.419200
748.000000	68.135800
747.000000	67.967900
746.000000	67.888200
745.000000	67.699900
744.000000	67.475900
743.000000	67.234800
742.000000	67.059500
741.000000	66.833800
740.000000	66.563900
739.000000	66.346900
738.000000	66.025800
737.000000	65.726100
736.000000	65.477900
735.000000	65.218700
734.000000	64.852700
733.000000	64.402800
732.000000	64.028100
731.000000	63.655000
730.000000	63.273600
729.000000	62.894900
728.000000	62.499100
727.000000	62.099200
726.000000	61.730500
725.000000	61.378800
724.000000	61.032800
723.000000	60.628300
722.000000	60.259500
721.000000	60.002700
720.000000	59.718600
719.000000	59.429200
718.000000	59.173300
717.000000	58.872500
716.000000	58.673500
715.000000	58.423000
714.000000	58.140800
713.000000	57.898900
712.000000	57.670000
711.000000	57.353900
710.000000	57.069100
709.000000	56.809100
708.000000	56.460000
707.000000	56.037200
706.000000	55.634800
705.000000	55.257200
704.000000	54.916400
703.000000	54.471700
702.000000	53.980300
701.000000	53.532200
700.000000	53.094800
699.000000	52.673700
698.000000	52.282800
697.000000	51.903500
696.000000	51.547000
695.000000	51.269000
694.000000	50.994700
693.000000	50.701600
692.000000	50.555400
691.000000	50.342000
690.000000	50.236000
689.000000	50.144700
688.000000	50.141600
687.000000	50.143100
686.000000	50.185900
685.000000	50.236800
684.000000	50.276500
683.000000	50.243700
682.000000	50.209700
681.000000	50.184600
680.000000	50.157800
679.000000	50.057900
678.000000	49.894900
677.000000	49.711200
676.000000	49.543700
675.000000	49.353000
674.000000	49.093900
673.000000	48.830400
672.000000	48.554300
671.000000	48.298800
670.000000	48.067800
669.000000	47.806900
668.000000	47.577500
667.000000	47.322900
666.000000	47.180400
665.000000	47.079000
664.000000	46.941700
663.000000	46.892000
662.000000	46.859600
661.000000	46.842600
660.000000	46.896400
659.000000	46.923900
658.000000	47.011500
657.000000	47.021200
656.000000	47.026400
655.000000	47.032700
654.000000	47.045200
653.000000	46.967200
652.000000	46.846900
651.000000	46.695800
650.000000	46.483700
649.000000	46.154600
648.000000	45.874300
647.000000	45.484600
646.000000	45.022300
645.000000	44.572700
644.000000	44.064800
643.000000	43.549700
642.000000	43.101600
641.000000	42.668300
640.000000	42.243200
639.000000	41.871900
638.000000	41.628300
637.000000	41.447000
636.000000	41.335000
635.000000	41.323800
634.000000	41.396900
633.000000	41.574900
632.000000	41.848600
631.000000	42.150600
630.000000	42.532900
629.000000	42.916900
628.000000	43.350100
627.000000	43.819900
626.000000	44.342500
625.000000	44.833200
624.000000	45.290200
623.000000	45.783600
622.000000	46.274500
621.000000	46.773800
620.000000	47.275900
619.000000	47.667400
618.000000	48.108400
617.000000	48.502100
616.000000	48.897800
615.000000	49.356100
614.000000	49.709100
613.000000	50.116200
612.000000	50.524400
611.000000	50.936700
610.000000	51.375200
609.000000	51.897800
608.000000	52.397200
607.000000	52.896700
606.000000	53.436600
605.000000	54.035000
604.000000	54.665500
603.000000	55.252100
602.000000	55.915200
601.000000	56.640900
600.000000	57.337000
599.000000	58.047700
598.000000	58.701200
597.000000	59.345700
596.000000	60.020000
595.000000	60.589100
594.000000	61.103300
593.000000	61.515500
592.000000	61.943600
591.000000	62.279300
590.000000	62.541400
589.000000	62.751500
588.000000	62.809800
587.000000	62.932400
586.000000	62.938200
585.000000	62.962300
584.000000	62.978800
583.000000	62.943200
582.000000	62.947500
581.000000	62.934800
580.000000	63.033100
579.000000	63.035400
578.000000	63.137700
577.000000	63.269700
576.000000	63.406200
575.000000	63.567800
574.000000	63.728400
573.000000	63.998900
572.000000	64.188100
571.000000	64.432900
570.000000	64.659200
569.000000	64.869300
568.000000	65.048100
567.000000	65.224500
566.000000	65.327200
565.000000	65.426500
564.000000	65.416700
563.000000	65.425600
562.000000	65.331400
561.000000	65.182200
560.000000	64.988800
559.000000	64.723200
558.000000	64.462500
557.000000	64.174600
556.000000	63.843600
555.000000	63.481600
554.000000	63.106700
553.000000	62.715300
552.000000	62.274400
551.000000	61.847500
550.000000	61.388300
549.000000	60.903000
548.000000	60.433800
547.000000	59.911300
546.000000	59.419200
545.000000	58.922600
544.000000	58.342900
543.000000	57.833000
542.000000	57.264600
541.000000	56.706700
540.000000	56.141900
539.000000	55.563300
538.000000	54.952700
537.000000	54.356000
536.000000	53.716100
535.000000	53.086200
534.000000	52.428200
533.000000	51.745800
532.000000	51.036900
531.000000	50.248100
530.000000	49.481000
529.000000	48.707900
528.000000	47.900000
527.000000	47.105800
526.000000	46.277800
525.000000	45.449200
524.000000	44.625000
523.000000	43.753900
522.000000	42.888500
521.000000	42.033100
520.000000	41.124800
519.000000	40.239500
518.000000	39.387400
517.000000	38.507700
516.000000	37.649700
515.000000	36.735300
514.000000	35.838700
513.000000	34.955700
512.000000	34.068200
511.000000	33.172500
510.000000	32.325400
509.000000	31.474600
508.000000	30.635300
507.000000	29.863600
506.000000	29.111600
505.000000	28.386800
504.000000	27.695900
503.000000	27.032900
502.000000	26.405700
501.000000	25.836200
500.000000	25.344300
499.000000	24.873200
498.000000	24.470400
497.000000	24.130500
496.000000	23.831900
495.000000	23.575400
494.000000	23.346100
493.000000	23.131900
492.000000	22.962000
491.000000	22.813000
490.000000	22.651400
489.000000	22.522400
488.000000	22.404000
487.000000	22.288600
486.000000	22.168600
485.000000	22.066600
484.000000	21.936600
483.000000	21.796200
482.000000	21.650800
481.000000	21.505200
480.000000	21.341600
479.000000	21.180500
478.000000	21.017100
477.000000	20.845900
476.000000	20.656000
475.000000	20.460000
474.000000	20.278600
473.000000	20.085600
472.000000	19.891800
471.000000	19.678700
470.000000	19.477400
469.000000	19.278700
468.000000	19.068900
467.000000	18.851800
466.000000	18.629300
465.000000	18.412200
464.000000	18.179900
463.000000	17.928000
462.000000	17.709100
461.000000	17.466800
460.000000	17.227200
459.000000	17.004600
458.000000	16.746900
457.000000	16.502900
456.000000	16.255700
455.000000	16.012100
454.000000	15.761600
453.000000	15.514900
452.000000	15.265900
451.000000	14.999500
450.000000	14.724100
449.000000	14.443300
448.000000	14.180700
447.000000	13.933300
446.000000	13.656900
445.000000	13.353800
444.000000	13.067900
443.000000	12.768400
442.000000	12.473700
441.000000	12.204900
440.000000	11.928700
439.000000	11.661400
438.000000	11.399800
437.000000	11.127400
436.000000	10.864200
435.000000	10.623400
434.000000	10.381200
433.000000	10.125500
432.000000	9.899100
431.000000	9.685300
430.000000	9.452000
429.000000	9.238500
428.000000	9.050600
427.000000	8.855600
426.000000	8.657500
425.000000	8.470200
424.000000	8.315500
423.000000	8.153900
422.000000	7.977000
421.000000	7.820300
420.000000	7.672000
419.000000	7.534700
418.000000	7.417200
417.000000	7.308100
416.000000	7.190500
415.000000	7.092600
414.000000	6.993300
413.000000	6.894500
412.000000	6.800800
411.000000	6.721100
410.000000	6.656800
409.000000	6.596200
408.000000	6.516000
407.000000	6.473100
406.000000	6.441400
405.000000	6.391200
404.000000	6.358100
403.000000	6.324700
402.000000	6.272000
401.000000	6.238100
400.000000	6.224600
399.000000	6.198900
398.000000	6.196500
397.000000	6.187500
396.000000	6.152900
395.000000	6.148300
394.000000	6.127600
393.000000	6.124400
392.000000	6.106700
391.000000	6.079200
390.000000	6.077700
389.000000	6.089000
388.000000	6.107700
387.000000	6.102800
386.000000	6.084000
385.000000	6.075700
384.000000	6.071000
383.000000	6.082600
382.000000	6.076700
381.000000	6.064600
380.000000	6.068500
379.000000	6.049000
378.000000	6.051300
377.000000	6.082500
376.000000	5.961600
375.000000	5.687000
374.000000	5.540900
373.000000	5.646000
372.000000	5.946800
371.000000	5.999600
370.000000	5.911500
369.000000	5.929100
368.000000	5.949800
367.000000	6.012200
366.000000	5.902000
365.000000	5.815600
364.000000	6.073600
363.000000	6.016800
362.000000	6.121500
361.000000	6.145100
360.000000	6.034000
359.000000	6.045100
358.000000	6.155900
357.000000	6.082100
356.000000	6.205300
355.000000	6.289800
354.000000	6.088500
353.000000	5.965100
352.000000	6.141200
351.000000	6.184500
350.000000	6.389400
349.000000	6.292100
348.000000	6.344100
347.000000	6.427900
346.000000	6.264600
345.000000	6.273800
344.000000	6.135200
343.000000	6.057900
342.000000	5.979600
341.000000	6.019700
340.000000	5.920300
339.000000	6.501400
338.000000	6.212200
337.000000	6.336500
336.000000	6.341600
335.000000	6.562800
334.000000	6.690000
333.000000	6.547700
332.000000	6.546800
331.000000	6.313800
330.000000	6.612000
329.000000	6.918000
328.000000	6.787000
327.000000	6.634100
326.000000	6.474800
325.000000	6.518200
324.000000	7.027000
323.000000	6.967600
322.000000	7.161400
321.000000	7.159600
320.000000	7.576300
319.000000	6.683500
318.000000	7.584900
317.000000	7.515500
316.000000	6.437300
315.000000	6.268200
314.000000	6.264600
313.000000	6.281200
312.000000	6.262000
311.000000	6.261000
310.000000	6.300700
309.000000	6.304700
308.000000	6.339700
307.000000	6.383400
306.000000	6.259600
305.000000	6.308400
304.000000	6.295100
303.000000	6.289900
302.000000	6.320300
301.000000	6.322400
300.000000	6.270100
299.000000	6.286400
298.000000	6.325100
297.000000	6.307400
296.000000	6.341300
295.000000	6.317800
294.000000	6.294500
293.000000	6.369200
292.000000	6.351700
291.000000	6.336000
290.000000	6.389000
289.000000	6.307000
288.000000	6.422300
287.000000	6.361800
286.000000	6.405700
285.000000	6.342300
284.000000	6.352900
283.000000	6.365600
282.000000	6.343300
281.000000	6.419600
280.000000	6.410100
279.000000	6.424000
278.000000	6.446000
277.000000	6.480400
276.000000	6.424600
275.000000	6.450000
274.000000	6.487800
273.000000	6.485100
272.000000	6.472000
271.000000	6.535500
270.000000	6.556000
269.000000	6.591300
268.000000	6.630500
267.000000	6.721100
266.000000	6.614200
265.000000	6.655500
264.000000	6.721600
263.000000	6.715300
262.000000	6.746600
261.000000	6.801400
260.000000	6.803100
259.000000	6.847600
258.000000	6.937100
257.000000	6.940200
256.000000	6.863400
255.000000	6.944800
254.000000	7.005800
253.000000	6.971900
252.000000	6.976900
251.000000	7.036900
250.000000	7.074700
