PE UV       SUBTECH     SPECTRUM    ASCII       PEDS        4.00        
   -1
INBUCR0137-3.Sample.ASC
24/04/29
11:56:09.00
24/04/29
11:56:09.00
Vinicio Soto Monge
C. cupreomarginata
250,000000
1
Lambda 1050
1050L1511233
PerkinElmer UV WinLab 6.3.2.0749 / 2.02.05 Lambda 900 UV/VIS/NIR, Aug  7 2015 09:38:08

0
0
3350/servo 860,8/2
0
0
UV/VIS
1
1
1
DoubleDePol,CommonBeamDepol,RBeamAtt,SBeamAtt,60mm sphere, WB InGaAs Detector
0
0
0
0
Program
Program
3350/servo 860,8/2
3350/0,2 860,8/0,2
3350/0,2 860,8/0,2
0
15.00
 
 
 
0
 
860,8
319,2
860,8
Front
100
on
S:100 R:100
0
0
0
0
 
0
 
 
 
0
 
 
0
0
0
0
0
 
 
 
 
0
0


0
0
#HDR
-1
-1
#GR
nm
%R
1.0
0.0
2500,000000
-1,000000
2251
8
79,629100
5,602400
#DATA
2500.000000	19.629613
2499.000000	19.699276
2498.000000	19.724609
2497.000000	19.569448
2496.000000	19.687666
2495.000000	19.583381
2494.000000	19.558576
2493.000000	19.608397
2492.000000	19.571137
2491.000000	19.538416
2490.000000	19.534405
2489.000000	19.536938
2488.000000	19.493029
2487.000000	19.475507
2486.000000	19.512450
2485.000000	19.605863
2484.000000	19.494084
2483.000000	19.550132
2482.000000	19.580003
2481.000000	19.649140
2480.000000	19.634151
2479.000000	19.611880
2478.000000	19.687771
2477.000000	19.645656
2476.000000	19.743397
2475.000000	19.776012
2474.000000	19.825833
2473.000000	19.901619
2472.000000	19.896341
2471.000000	19.928429
2470.000000	19.949750
2469.000000	20.069340
2468.000000	20.104594
2467.000000	20.154625
2466.000000	20.225767
2465.000000	20.290470
2464.000000	20.358867
2463.000000	20.389266
2462.000000	20.457347
2461.000000	20.519411
2460.000000	20.605330
2459.000000	20.712781
2458.000000	20.822872
2457.000000	20.908790
2456.000000	20.999248
2455.000000	21.114721
2454.000000	21.202751
2453.000000	21.284026
2452.000000	21.403827
2451.000000	21.532283
2450.000000	21.658945
2449.000000	21.775473
2448.000000	21.913429
2447.000000	22.016342
2446.000000	22.116193
2445.000000	22.235783
2444.000000	22.396960
2443.000000	22.509267
2442.000000	22.614185
2441.000000	22.766812
2440.000000	22.873419
2439.000000	22.979815
2438.000000	23.116082
2437.000000	23.249288
2436.000000	23.355684
2435.000000	23.485934
2434.000000	23.591802
2433.000000	23.717198
2432.000000	23.816733
2431.000000	23.932628
2430.000000	24.034063
2429.000000	24.149325
2428.000000	24.266593
2427.000000	24.353778
2426.000000	24.447825
2425.000000	24.558759
2424.000000	24.632012
2423.000000	24.720781
2422.000000	24.802372
2421.000000	24.884808
2420.000000	24.964499
2419.000000	25.024452
2418.000000	25.109843
2417.000000	25.184785
2416.000000	25.237561
2415.000000	25.305852
2414.000000	25.378894
2413.000000	25.429136
2412.000000	25.487717
2411.000000	25.538171
2410.000000	25.589047
2409.000000	25.621240
2408.000000	25.659133
2407.000000	25.700193
2406.000000	25.748430
2405.000000	25.780728
2404.000000	25.807538
2403.000000	25.847226
2402.000000	25.867492
2401.000000	25.887863
2400.000000	25.915412
2399.000000	25.956471
2398.000000	25.975998
2397.000000	25.973782
2396.000000	25.997320
2395.000000	26.015158
2394.000000	26.021174
2393.000000	26.041124
2392.000000	26.059595
2391.000000	26.060123
2390.000000	26.062551
2389.000000	26.071206
2388.000000	26.085666
2387.000000	26.089994
2386.000000	26.078806
2385.000000	26.073845
2384.000000	26.076378
2383.000000	26.073317
2382.000000	26.075322
2381.000000	26.058434
2380.000000	26.054212
2379.000000	26.039329
2378.000000	26.011675
2377.000000	25.993942
2376.000000	25.978954
2375.000000	25.966077
2374.000000	25.957738
2373.000000	25.939478
2372.000000	25.910873
2371.000000	25.903696
2370.000000	25.895463
2369.000000	25.883324
2368.000000	25.880052
2367.000000	25.879208
2366.000000	25.862531
2365.000000	25.849864
2364.000000	25.846487
2363.000000	25.830443
2362.000000	25.823582
2361.000000	25.821682
2360.000000	25.821260
2359.000000	25.803844
2358.000000	25.781889
2357.000000	25.778512
2356.000000	25.766584
2355.000000	25.754974
2354.000000	25.738613
2353.000000	25.723414
2352.000000	25.711698
2351.000000	25.686365
2350.000000	25.672855
2349.000000	25.656494
2348.000000	25.632851
2347.000000	25.624934
2346.000000	25.607307
2345.000000	25.589047
2344.000000	25.561498
2343.000000	25.554637
2342.000000	25.562448
2341.000000	25.553054
2340.000000	25.539332
2339.000000	25.533632
2338.000000	25.530255
2337.000000	25.534688
2336.000000	25.530782
2335.000000	25.547882
2334.000000	25.565720
2333.000000	25.575536
2332.000000	25.583453
2331.000000	25.597702
2330.000000	25.612690
2329.000000	25.652589
2328.000000	25.665044
2327.000000	25.684993
2326.000000	25.710642
2325.000000	25.737980
2324.000000	25.751596
2323.000000	25.761940
2322.000000	25.776084
2321.000000	25.776401
2320.000000	25.796667
2319.000000	25.791811
2318.000000	25.802577
2317.000000	25.791178
2316.000000	25.762679
2315.000000	25.724997
2314.000000	25.721408
2313.000000	25.690798
2312.000000	25.668949
2311.000000	25.632006
2310.000000	25.583664
2309.000000	25.539227
2308.000000	25.508194
2307.000000	25.491728
2306.000000	25.461435
2305.000000	25.417526
2304.000000	25.385016
2303.000000	25.366228
2302.000000	25.366967
2301.000000	25.334457
2300.000000	25.322529
2299.000000	25.323057
2298.000000	25.326963
2297.000000	25.332451
2296.000000	25.332240
2295.000000	25.349128
2294.000000	25.360422
2293.000000	25.375622
2292.000000	25.421853
2291.000000	25.438003
2290.000000	25.455102
2289.000000	25.508300
2288.000000	25.535638
2287.000000	25.570048
2286.000000	25.600869
2285.000000	25.664411
2284.000000	25.710220
2283.000000	25.758879
2282.000000	25.800994
2281.000000	25.841737
2280.000000	25.895779
2279.000000	25.947288
2278.000000	25.993731
2277.000000	26.016741
2276.000000	26.034368
2275.000000	26.094533
2274.000000	26.124193
2273.000000	26.199556
2272.000000	26.203778
2271.000000	26.229533
2270.000000	26.289486
2269.000000	26.343001
2268.000000	26.409498
2267.000000	26.476629
2266.000000	26.551043
2265.000000	26.636856
2264.000000	26.739769
2263.000000	26.840887
2262.000000	26.929445
2261.000000	27.058851
2260.000000	27.193429
2259.000000	27.338773
2258.000000	27.483484
2257.000000	27.651522
2256.000000	27.813755
2255.000000	27.961315
2254.000000	28.123654
2253.000000	28.293697
2252.000000	28.468068
2251.000000	28.650989
2250.000000	28.805938
2249.000000	28.942099
2248.000000	29.099160
2247.000000	29.272687
2246.000000	29.368211
2245.000000	29.498989
2244.000000	29.620267
2243.000000	29.701859
2242.000000	29.815327
2241.000000	29.889846
2240.000000	29.943360
2239.000000	30.009963
2238.000000	30.059784
2237.000000	30.124803
2236.000000	30.133247
2235.000000	30.154569
2234.000000	30.175890
2233.000000	30.141586
2232.000000	30.151719
2231.000000	30.144858
2230.000000	30.093982
2229.000000	30.057673
2228.000000	30.017458
2227.000000	29.969115
2226.000000	29.920245
2225.000000	29.874858
2224.000000	29.804455
2223.000000	29.735319
2222.000000	29.651405
2221.000000	29.580158
2220.000000	29.477245
2219.000000	29.383410
2218.000000	29.330107
2217.000000	29.231733
2216.000000	29.164813
2215.000000	29.085438
2214.000000	29.013030
2213.000000	28.936400
2212.000000	28.833593
2211.000000	28.764773
2210.000000	28.707881
2209.000000	28.649194
2208.000000	28.595574
2207.000000	28.524644
2206.000000	28.466696
2205.000000	28.425953
2204.000000	28.372966
2203.000000	28.341512
2202.000000	28.308791
2201.000000	28.260343
2200.000000	28.208728
2199.000000	28.184029
2198.000000	28.146242
2197.000000	28.123126
2196.000000	28.080166
2195.000000	28.043857
2194.000000	28.030663
2193.000000	27.999314
2192.000000	27.969337
2191.000000	27.951605
2190.000000	27.918356
2189.000000	27.914662
2188.000000	27.886796
2187.000000	27.874447
2186.000000	27.849853
2185.000000	27.821249
2184.000000	27.796444
2183.000000	27.775123
2182.000000	27.762140
2181.000000	27.736913
2180.000000	27.704509
2179.000000	27.698915
2178.000000	27.707781
2177.000000	27.678227
2176.000000	27.677910
2175.000000	27.680549
2174.000000	27.690259
2173.000000	27.702292
2172.000000	27.713586
2171.000000	27.742191
2170.000000	27.764462
2169.000000	27.803411
2168.000000	27.820721
2167.000000	27.866214
2166.000000	27.911812
2165.000000	27.954982
2164.000000	28.022958
2163.000000	28.089244
2162.000000	28.147403
2161.000000	28.225405
2160.000000	28.319557
2159.000000	28.378877
2158.000000	28.488545
2157.000000	28.573092
2156.000000	28.665555
2155.000000	28.794961
2154.000000	28.920145
2153.000000	29.023269
2152.000000	29.128820
2151.000000	29.255059
2150.000000	29.379610
2149.000000	29.495506
2148.000000	29.619634
2147.000000	29.739857
2146.000000	29.855753
2145.000000	29.992231
2144.000000	30.124064
2143.000000	30.226238
2142.000000	30.351000
2141.000000	30.458346
2140.000000	30.572130
2139.000000	30.671665
2138.000000	30.792311
2137.000000	30.907467
2136.000000	31.022307
2135.000000	31.101682
2134.000000	31.201639
2133.000000	31.301385
2132.000000	31.372316
2131.000000	31.458762
2130.000000	31.536554
2129.000000	31.609279
2128.000000	31.673665
2127.000000	31.731402
2126.000000	31.794838
2125.000000	31.848881
2124.000000	31.894479
2123.000000	31.949788
2122.000000	32.007208
2121.000000	32.032435
2120.000000	32.071594
2119.000000	32.106532
2118.000000	32.140625
2117.000000	32.174296
2116.000000	32.193084
2115.000000	32.209867
2114.000000	32.218733
2113.000000	32.224222
2112.000000	32.231082
2111.000000	32.233510
2110.000000	32.233193
2109.000000	32.237099
2108.000000	32.239632
2107.000000	32.238365
2106.000000	32.224960
2105.000000	32.219894
2104.000000	32.233193
2103.000000	32.228971
2102.000000	32.221266
2101.000000	32.219577
2100.000000	32.230660
2099.000000	32.227916
2098.000000	32.220633
2097.000000	32.224538
2096.000000	32.231716
2095.000000	32.238577
2094.000000	32.250715
2093.000000	32.262431
2092.000000	32.265281
2091.000000	32.262748
2090.000000	32.264964
2089.000000	32.265175
2088.000000	32.259687
2087.000000	32.254198
2086.000000	32.249659
2085.000000	32.224010
2084.000000	32.203956
2083.000000	32.182423
2082.000000	32.140941
2081.000000	32.099565
2080.000000	32.034018
2079.000000	31.969209
2078.000000	31.908200
2077.000000	31.824709
2076.000000	31.740163
2075.000000	31.651710
2074.000000	31.544681
2073.000000	31.436069
2072.000000	31.330623
2071.000000	31.207867
2070.000000	31.073816
2069.000000	30.947471
2068.000000	30.833159
2067.000000	30.702170
2066.000000	30.556931
2065.000000	30.413909
2064.000000	30.284080
2063.000000	30.160374
2062.000000	30.047751
2061.000000	29.937238
2060.000000	29.822187
2059.000000	29.740596
2058.000000	29.667449
2057.000000	29.604224
2056.000000	29.549548
2055.000000	29.526538
2054.000000	29.510283
2053.000000	29.532765
2052.000000	29.571714
2051.000000	29.628817
2050.000000	29.706081
2049.000000	29.797383
2048.000000	29.896390
2047.000000	30.038251
2046.000000	30.175046
2045.000000	30.329890
2044.000000	30.496028
2043.000000	30.626489
2042.000000	30.763073
2041.000000	30.922244
2040.000000	31.086166
2039.000000	31.247976
2038.000000	31.387832
2037.000000	31.520721
2036.000000	31.657199
2035.000000	31.806343
2034.000000	31.919178
2033.000000	32.034018
2032.000000	32.155824
2031.000000	32.255676
2030.000000	32.378432
2029.000000	32.475645
2028.000000	32.541298
2027.000000	32.636717
2026.000000	32.719152
2025.000000	32.803488
2024.000000	32.880118
2023.000000	32.947354
2022.000000	32.988414
2021.000000	33.068000
2020.000000	33.103993
2019.000000	33.145897
2018.000000	33.189595
2017.000000	33.234877
2016.000000	33.254087
2015.000000	33.282902
2014.000000	33.298524
2013.000000	33.272136
2012.000000	33.270342
2011.000000	33.306018
2010.000000	33.274353
2009.000000	33.250604
2008.000000	33.220416
2007.000000	33.209333
2006.000000	33.173340
2005.000000	33.137664
2004.000000	33.087843
2003.000000	33.049423
2002.000000	32.994853
2001.000000	32.912839
2000.000000	32.859852
1999.000000	32.780689
1998.000000	32.727596
1997.000000	32.634606
1996.000000	32.558292
1995.000000	32.461923
1994.000000	32.386560
1993.000000	32.301063
1992.000000	32.210816
1991.000000	32.128592
1990.000000	32.023674
1989.000000	31.944932
1988.000000	31.842442
1987.000000	31.724647
1986.000000	31.622578
1985.000000	31.527793
1984.000000	31.434486
1983.000000	31.329251
1982.000000	31.242171
1981.000000	31.130392
1980.000000	31.015658
1979.000000	30.916545
1978.000000	30.827987
1977.000000	30.712936
1976.000000	30.653722
1975.000000	30.543209
1974.000000	30.449691
1973.000000	30.369472
1972.000000	30.270464
1971.000000	30.190667
1970.000000	30.102849
1969.000000	30.015980
1968.000000	29.914650
1967.000000	29.826832
1966.000000	29.745768
1965.000000	29.665760
1964.000000	29.578469
1963.000000	29.472495
1962.000000	29.408531
1961.000000	29.297808
1960.000000	29.207984
1959.000000	29.117843
1958.000000	29.011975
1957.000000	28.956349
1956.000000	28.847103
1955.000000	28.744507
1954.000000	28.673471
1953.000000	28.556626
1952.000000	28.480312
1951.000000	28.390699
1950.000000	28.343939
1949.000000	28.284831
1948.000000	28.167141
1947.000000	28.123442
1946.000000	28.062012
1945.000000	27.978098
1944.000000	27.960260
1943.000000	27.931233
1942.000000	27.905162
1941.000000	27.878563
1940.000000	27.849959
1939.000000	27.872863
1938.000000	27.848692
1937.000000	27.852492
1936.000000	27.859564
1935.000000	27.891018
1934.000000	27.919834
1933.000000	27.973137
1932.000000	28.069506
1931.000000	28.128615
1930.000000	28.214006
1929.000000	28.327579
1928.000000	28.451707
1927.000000	28.574358
1926.000000	28.688565
1925.000000	28.850586
1924.000000	29.014719
1923.000000	29.185396
1922.000000	29.398187
1921.000000	29.648977
1920.000000	29.878868
1919.000000	30.080683
1918.000000	30.365355
1917.000000	30.601263
1916.000000	30.839387
1915.000000	31.141369
1914.000000	31.508055
1913.000000	31.905773
1912.000000	32.272670
1911.000000	32.597451
1910.000000	32.943132
1909.000000	33.292297
1908.000000	33.711441
1907.000000	34.182306
1906.000000	34.750173
1905.000000	35.274130
1904.000000	35.805160
1903.000000	36.336928
1902.000000	36.861096
1901.000000	37.421891
1900.000000	38.029762
1899.000000	38.635838
1898.000000	39.260069
1897.000000	39.783288
1896.000000	40.286241
1895.000000	40.809353
1894.000000	41.386720
1893.000000	41.988363
1892.000000	42.634760
1891.000000	43.223843
1890.000000	43.756350
1889.000000	44.294345
1888.000000	44.762677
1887.000000	45.221509
1886.000000	45.683613
1885.000000	46.152262
1884.000000	46.590195
1883.000000	46.963425
1882.000000	47.339927
1881.000000	47.685924
1880.000000	47.974185
1879.000000	48.318916
1878.000000	48.627971
1877.000000	48.895755
1876.000000	49.190771
1875.000000	49.466260
1874.000000	49.725600
1873.000000	49.989057
1872.000000	50.201532
1871.000000	50.394480
1870.000000	50.542991
1869.000000	50.683057
1868.000000	50.752932
1867.000000	50.793781
1866.000000	50.823863
1865.000000	50.883605
1864.000000	50.944192
1863.000000	51.027261
1862.000000	51.131651
1861.000000	51.231503
1860.000000	51.331460
1859.000000	51.395002
1858.000000	51.432789
1857.000000	51.475432
1856.000000	51.509209
1855.000000	51.556601
1854.000000	51.582250
1853.000000	51.570534
1852.000000	51.583939
1851.000000	51.621093
1850.000000	51.667747
1849.000000	51.710495
1848.000000	51.727700
1847.000000	51.663419
1846.000000	51.588478
1845.000000	51.555335
1844.000000	51.534646
1843.000000	51.585839
1842.000000	51.623415
1841.000000	51.582039
1840.000000	51.553857
1839.000000	51.529791
1838.000000	51.481026
1837.000000	51.433845
1836.000000	51.386241
1835.000000	51.292723
1834.000000	51.207226
1833.000000	51.150545
1832.000000	51.115713
1831.000000	51.096291
1830.000000	51.066631
1829.000000	51.038132
1828.000000	50.982085
1827.000000	50.932792
1826.000000	50.885716
1825.000000	50.850673
1824.000000	50.843285
1823.000000	50.892683
1822.000000	50.942820
1821.000000	50.940392
1820.000000	50.912315
1819.000000	50.874000
1818.000000	50.836635
1817.000000	50.815313
1816.000000	50.796525
1815.000000	50.774887
1814.000000	50.760004
1813.000000	50.729922
1812.000000	50.699101
1811.000000	50.653925
1810.000000	50.617721
1809.000000	50.591228
1808.000000	50.572862
1807.000000	50.565368
1806.000000	50.532963
1805.000000	50.493909
1804.000000	50.471638
1803.000000	50.467733
1802.000000	50.470582
1801.000000	50.424351
1800.000000	50.382447
1799.000000	50.341282
1798.000000	50.312677
1797.000000	50.308033
1796.000000	50.295050
1795.000000	50.273412
1794.000000	50.251669
1793.000000	50.225809
1792.000000	50.210293
1791.000000	50.210187
1790.000000	50.199632
1789.000000	50.197943
1788.000000	50.201426
1787.000000	50.206598
1786.000000	50.194882
1785.000000	50.202904
1784.000000	50.208076
1783.000000	50.197099
1782.000000	50.196782
1781.000000	50.167333
1780.000000	50.144323
1779.000000	50.129862
1778.000000	50.088486
1777.000000	50.063365
1776.000000	50.032755
1775.000000	49.999823
1774.000000	49.964991
1773.000000	49.927415
1772.000000	49.883083
1771.000000	49.836852
1770.000000	49.801914
1769.000000	49.758638
1768.000000	49.720956
1767.000000	49.688446
1766.000000	49.639470
1765.000000	49.620788
1764.000000	49.602422
1763.000000	49.574134
1762.000000	49.568434
1761.000000	49.567273
1760.000000	49.546480
1759.000000	49.553763
1758.000000	49.533602
1757.000000	49.526953
1756.000000	49.531491
1755.000000	49.524630
1754.000000	49.507003
1753.000000	49.495709
1752.000000	49.489587
1751.000000	49.464888
1750.000000	49.430478
1749.000000	49.391002
1748.000000	49.355643
1747.000000	49.298223
1746.000000	49.231725
1745.000000	49.176733
1744.000000	49.090286
1743.000000	49.028750
1742.000000	48.960247
1741.000000	48.886889
1740.000000	48.823874
1739.000000	48.759488
1738.000000	48.717267
1737.000000	48.652775
1736.000000	48.610344
1735.000000	48.581634
1734.000000	48.549335
1733.000000	48.504159
1732.000000	48.472283
1731.000000	48.435762
1730.000000	48.398924
1729.000000	48.360715
1728.000000	48.344038
1727.000000	48.323877
1726.000000	48.338549
1725.000000	48.346571
1724.000000	48.385519
1723.000000	48.457505
1722.000000	48.552185
1721.000000	48.731939
1720.000000	48.893222
1719.000000	49.088703
1718.000000	49.316166
1717.000000	49.550490
1716.000000	49.775421
1715.000000	49.964252
1714.000000	50.175988
1713.000000	50.329566
1712.000000	50.495070
1711.000000	50.619410
1710.000000	50.768132
1709.000000	50.873472
1708.000000	50.953269
1707.000000	51.056815
1706.000000	51.114235
1705.000000	51.156139
1704.000000	51.198993
1703.000000	51.230869
1702.000000	51.241108
1701.000000	51.248813
1700.000000	51.264540
1699.000000	51.267390
1698.000000	51.238258
1697.000000	51.264435
1696.000000	51.224747
1695.000000	51.186960
1694.000000	51.141256
1693.000000	51.091647
1692.000000	51.034333
1691.000000	50.969735
1690.000000	50.962030
1689.000000	50.978074
1688.000000	51.011428
1687.000000	51.125424
1686.000000	51.275095
1685.000000	51.440178
1684.000000	51.642626
1683.000000	51.852356
1682.000000	52.079081
1681.000000	52.286912
1680.000000	52.498753
1679.000000	52.700673
1678.000000	52.881061
1677.000000	53.067570
1676.000000	53.248696
1675.000000	53.396468
1674.000000	53.585089
1673.000000	53.770015
1672.000000	53.916204
1671.000000	54.089414
1670.000000	54.273073
1669.000000	54.449872
1668.000000	54.598171
1667.000000	54.773915
1666.000000	54.899837
1665.000000	55.029455
1664.000000	55.173532
1663.000000	55.301566
1662.000000	55.416301
1661.000000	55.516363
1660.000000	55.630253
1659.000000	55.713639
1658.000000	55.806313
1657.000000	55.888643
1656.000000	55.943636
1655.000000	55.999156
1654.000000	56.052143
1653.000000	56.063964
1652.000000	56.104179
1651.000000	56.129617
1650.000000	56.113257
1649.000000	56.117584
1648.000000	56.114735
1647.000000	56.124445
1646.000000	56.120434
1645.000000	56.111146
1644.000000	56.094574
1643.000000	56.068820
1642.000000	56.052987
1641.000000	56.050982
1640.000000	56.043698
1639.000000	56.024805
1638.000000	56.019211
1637.000000	56.003906
1636.000000	55.984273
1635.000000	55.961368
1634.000000	55.920309
1633.000000	55.894449
1632.000000	55.863839
1631.000000	55.818768
1630.000000	55.786153
1629.000000	55.745516
1628.000000	55.692212
1627.000000	55.665824
1626.000000	55.628881
1625.000000	55.584972
1624.000000	55.549612
1623.000000	55.508658
1622.000000	55.487653
1621.000000	55.449338
1620.000000	55.430022
1619.000000	55.387274
1618.000000	55.351070
1617.000000	55.331015
1616.000000	55.290800
1615.000000	55.257129
1614.000000	55.229052
1613.000000	55.201187
1612.000000	55.142817
1611.000000	55.092891
1610.000000	55.041488
1609.000000	54.980901
1608.000000	54.940158
1607.000000	54.872394
1606.000000	54.806952
1605.000000	54.734016
1604.000000	54.674907
1603.000000	54.613582
1602.000000	54.546662
1601.000000	54.474782
1600.000000	54.403851
1599.000000	54.325954
1598.000000	54.269801
1597.000000	54.216075
1596.000000	54.154433
1595.000000	54.105141
1594.000000	54.062181
1593.000000	53.987979
1592.000000	53.946391
1591.000000	53.924648
1590.000000	53.869339
1589.000000	53.824585
1588.000000	53.780042
1587.000000	53.724417
1586.000000	53.685257
1585.000000	53.654014
1584.000000	53.623509
1583.000000	53.593744
1582.000000	53.558701
1581.000000	53.516058
1580.000000	53.487137
1579.000000	53.465605
1578.000000	53.449455
1577.000000	53.441328
1576.000000	53.443861
1575.000000	53.440061
1574.000000	53.441644
1573.000000	53.434995
1572.000000	53.442067
1571.000000	53.461594
1570.000000	53.474787
1569.000000	53.503603
1568.000000	53.531152
1567.000000	53.546985
1566.000000	53.576434
1565.000000	53.598177
1564.000000	53.600183
1563.000000	53.600921
1562.000000	53.609893
1561.000000	53.626359
1560.000000	53.626359
1559.000000	53.608416
1558.000000	53.582028
1557.000000	53.547196
1556.000000	53.501703
1555.000000	53.457794
1554.000000	53.412934
1553.000000	53.354459
1552.000000	53.289439
1551.000000	53.222414
1550.000000	53.140295
1549.000000	53.069470
1548.000000	53.014583
1547.000000	52.955474
1546.000000	52.891932
1545.000000	52.836835
1544.000000	52.796725
1543.000000	52.740677
1542.000000	52.695396
1541.000000	52.671013
1540.000000	52.647053
1539.000000	52.611904
1538.000000	52.578234
1537.000000	52.557018
1536.000000	52.527991
1535.000000	52.483554
1534.000000	52.429934
1533.000000	52.388663
1532.000000	52.351298
1531.000000	52.304011
1530.000000	52.250285
1529.000000	52.206692
1528.000000	52.144945
1527.000000	52.089741
1526.000000	52.055437
1525.000000	52.012478
1524.000000	51.962130
1523.000000	51.897216
1522.000000	51.835890
1521.000000	51.778048
1520.000000	51.728122
1519.000000	51.659830
1518.000000	51.615288
1517.000000	51.546785
1516.000000	51.486409
1515.000000	51.420968
1514.000000	51.367136
1513.000000	51.312988
1512.000000	51.249130
1511.000000	51.191499
1510.000000	51.126690
1509.000000	51.071487
1508.000000	51.037288
1507.000000	50.969630
1506.000000	50.903554
1505.000000	50.860806
1504.000000	50.828191
1503.000000	50.778476
1502.000000	50.721478
1501.000000	50.698574
1500.000000	50.691079
1499.000000	50.669969
1498.000000	50.653503
1497.000000	50.655192
1496.000000	50.667752
1495.000000	50.670286
1494.000000	50.691924
1493.000000	50.726228
1492.000000	50.769610
1491.000000	50.812780
1490.000000	50.853945
1489.000000	50.899438
1488.000000	50.939442
1487.000000	50.987468
1486.000000	51.022616
1485.000000	51.056604
1484.000000	51.093230
1483.000000	51.147695
1482.000000	51.210076
1481.000000	51.257679
1480.000000	51.299056
1479.000000	51.334415
1478.000000	51.377691
1477.000000	51.445667
1476.000000	51.482610
1475.000000	51.547313
1474.000000	51.653392
1473.000000	51.739100
1472.000000	51.804541
1471.000000	51.868506
1470.000000	51.935003
1469.000000	51.987884
1468.000000	52.075598
1467.000000	52.162889
1466.000000	52.251235
1465.000000	52.299894
1464.000000	52.389719
1463.000000	52.466877
1462.000000	52.562190
1461.000000	52.661830
1460.000000	52.739305
1459.000000	52.823007
1458.000000	52.906710
1457.000000	53.021127
1456.000000	53.120240
1455.000000	53.196871
1454.000000	53.272129
1453.000000	53.391402
1452.000000	53.510569
1451.000000	53.593744
1450.000000	53.650953
1449.000000	53.711012
1448.000000	53.806641
1447.000000	53.947552
1446.000000	54.045187
1445.000000	54.107463
1444.000000	54.177127
1443.000000	54.283417
1442.000000	54.375775
1441.000000	54.461271
1440.000000	54.589200
1439.000000	54.693062
1438.000000	54.823629
1437.000000	54.915037
1436.000000	55.024494
1435.000000	55.178599
1434.000000	55.308849
1433.000000	55.472771
1432.000000	55.587927
1431.000000	55.722717
1430.000000	55.870172
1429.000000	56.061537
1428.000000	56.242874
1427.000000	56.392968
1426.000000	56.609665
1425.000000	56.836073
1424.000000	57.081797
1423.000000	57.254479
1422.000000	57.481415
1421.000000	57.759015
1420.000000	58.049492
1419.000000	58.326248
1418.000000	58.548962
1417.000000	58.776320
1416.000000	59.103424
1415.000000	59.489531
1414.000000	59.784547
1413.000000	60.039665
1412.000000	60.322543
1411.000000	60.733771
1410.000000	61.178248
1409.000000	61.494903
1408.000000	61.843433
1407.000000	62.150483
1406.000000	62.536906
1405.000000	62.831289
1404.000000	63.185942
1403.000000	63.472726
1402.000000	63.891131
1401.000000	64.287266
1400.000000	64.563283
1399.000000	64.721927
1398.000000	64.992666
1397.000000	65.361885
1396.000000	65.729415
1395.000000	65.944951
1394.000000	66.135894
1393.000000	66.368107
1392.000000	66.600531
1391.000000	66.795907
1390.000000	67.011338
1389.000000	67.345725
1388.000000	67.569494
1387.000000	67.778380
1386.000000	68.009115
1385.000000	68.239429
1384.000000	68.488319
1383.000000	68.706388
1382.000000	68.856693
1381.000000	68.945673
1380.000000	68.982088
1379.000000	69.028637
1378.000000	69.068641
1377.000000	69.163743
1376.000000	69.232773
1375.000000	69.337058
1374.000000	69.435643
1373.000000	69.553122
1372.000000	69.693505
1371.000000	69.811195
1370.000000	69.903658
1369.000000	70.041297
1368.000000	70.128694
1367.000000	70.183158
1366.000000	70.280266
1365.000000	70.388245
1364.000000	70.440598
1363.000000	70.528839
1362.000000	70.622463
1361.000000	70.649696
1360.000000	70.602936
1359.000000	70.668906
1358.000000	70.691705
1357.000000	70.732765
1356.000000	70.849505
1355.000000	70.937746
1354.000000	70.999388
1353.000000	71.070424
1352.000000	71.171225
1351.000000	71.259255
1350.000000	71.373884
1349.000000	71.511207
1348.000000	71.629319
1347.000000	71.725476
1346.000000	71.836199
1345.000000	71.960961
1344.000000	72.058385
1343.000000	72.147787
1342.000000	72.249750
1341.000000	72.336935
1340.000000	72.418527
1339.000000	72.502546
1338.000000	72.579598
1337.000000	72.647996
1336.000000	72.714071
1335.000000	72.776135
1334.000000	72.832711
1333.000000	72.897097
1332.000000	72.943434
1331.000000	72.978899
1330.000000	73.027242
1329.000000	73.059963
1328.000000	73.088356
1327.000000	73.116961
1326.000000	73.144087
1325.000000	73.174486
1324.000000	73.203196
1323.000000	73.214807
1322.000000	73.240456
1321.000000	73.259666
1320.000000	73.268849
1319.000000	73.285526
1318.000000	73.301887
1317.000000	73.329858
1316.000000	73.344635
1315.000000	73.344213
1314.000000	73.356562
1313.000000	73.358040
1312.000000	73.369756
1311.000000	73.393189
1310.000000	73.401633
1309.000000	73.403216
1308.000000	73.409021
1307.000000	73.404588
1306.000000	73.401316
1305.000000	73.408177
1304.000000	73.401950
1303.000000	73.406488
1302.000000	73.402055
1301.000000	73.396461
1300.000000	73.405960
1299.000000	73.393505
1298.000000	73.374506
1297.000000	73.362684
1296.000000	73.348646
1295.000000	73.341363
1294.000000	73.336085
1293.000000	73.325741
1292.000000	73.304526
1291.000000	73.282043
1290.000000	73.267688
1289.000000	73.254178
1288.000000	73.234862
1287.000000	73.202457
1286.000000	73.176492
1285.000000	73.152954
1284.000000	73.138493
1283.000000	73.133954
1282.000000	73.113266
1281.000000	73.084345
1280.000000	73.067246
1279.000000	73.051202
1278.000000	73.037375
1277.000000	73.033575
1276.000000	73.030620
1275.000000	73.029564
1274.000000	73.034842
1273.000000	73.025448
1272.000000	73.016898
1271.000000	73.024709
1270.000000	73.036636
1269.000000	73.056057
1268.000000	73.057113
1267.000000	73.058591
1266.000000	73.068829
1265.000000	73.063340
1264.000000	73.057219
1263.000000	73.073579
1262.000000	73.074740
1261.000000	73.076957
1260.000000	73.093106
1259.000000	73.098489
1258.000000	73.096378
1257.000000	73.107355
1256.000000	73.118438
1255.000000	73.098806
1254.000000	73.073896
1253.000000	73.073685
1252.000000	73.057746
1251.000000	73.031675
1250.000000	73.005076
1249.000000	72.984494
1248.000000	72.963067
1247.000000	72.936890
1246.000000	72.889392
1245.000000	72.858148
1244.000000	72.837672
1243.000000	72.783418
1242.000000	72.746475
1241.000000	72.721565
1240.000000	72.677972
1239.000000	72.623930
1238.000000	72.592687
1237.000000	72.569571
1236.000000	72.535900
1235.000000	72.495368
1234.000000	72.449981
1233.000000	72.429187
1232.000000	72.388128
1231.000000	72.355618
1230.000000	72.315614
1229.000000	72.282999
1228.000000	72.234551
1227.000000	72.192752
1226.000000	72.162565
1225.000000	72.139976
1224.000000	72.089312
1223.000000	72.050891
1222.000000	72.012154
1221.000000	71.973627
1220.000000	71.921274
1219.000000	71.886336
1218.000000	71.844538
1217.000000	71.813189
1216.000000	71.773396
1215.000000	71.717771
1214.000000	71.677450
1213.000000	71.625413
1212.000000	71.577387
1211.000000	71.500757
1210.000000	71.469092
1209.000000	71.417371
1208.000000	71.352141
1207.000000	71.293876
1206.000000	71.224740
1205.000000	71.169325
1204.000000	71.098500
1203.000000	71.046991
1202.000000	70.985666
1201.000000	70.925185
1200.000000	70.861326
1199.000000	70.797151
1198.000000	70.724109
1197.000000	70.645051
1196.000000	70.581932
1195.000000	70.519023
1194.000000	70.454109
1193.000000	70.368296
1192.000000	70.304965
1191.000000	70.253667
1190.000000	70.183264
1189.000000	70.127849
1188.000000	70.099773
1187.000000	70.082779
1186.000000	70.090695
1185.000000	70.081301
1184.000000	70.097978
1183.000000	70.113600
1182.000000	70.143049
1181.000000	70.147271
1180.000000	70.200047
1179.000000	70.221157
1178.000000	70.249128
1177.000000	70.283327
1176.000000	70.300532
1175.000000	70.341485
1174.000000	70.384656
1173.000000	70.428249
1172.000000	70.479125
1171.000000	70.554066
1170.000000	70.601036
1169.000000	70.669750
1168.000000	70.749547
1167.000000	70.835994
1166.000000	70.890247
1165.000000	70.972578
1164.000000	71.070107
1163.000000	71.164365
1162.000000	71.211863
1161.000000	71.312559
1160.000000	71.400061
1159.000000	71.465714
1158.000000	71.525350
1157.000000	71.579604
1156.000000	71.644940
1155.000000	71.710910
1154.000000	71.748275
1153.000000	71.802423
1152.000000	71.831661
1151.000000	71.872192
1150.000000	71.867443
1149.000000	71.923702
1148.000000	71.962545
1147.000000	71.982177
1146.000000	72.007298
1145.000000	72.012154
1144.000000	72.022920
1143.000000	72.038225
1142.000000	72.065774
1141.000000	72.101028
1140.000000	72.136282
1139.000000	72.164464
1138.000000	72.230329
1137.000000	72.289332
1136.000000	72.331975
1135.000000	72.377467
1134.000000	72.385911
1133.000000	72.387178
1132.000000	72.396889
1131.000000	72.430771
1130.000000	72.452303
1129.000000	72.486924
1128.000000	72.469508
1127.000000	72.483652
1126.000000	72.489880
1125.000000	72.476791
1124.000000	72.466447
1123.000000	72.457370
1122.000000	72.434676
1121.000000	72.386334
1120.000000	72.364379
1119.000000	72.342741
1118.000000	72.291337
1117.000000	72.264738
1116.000000	72.224523
1115.000000	72.181775
1114.000000	72.148843
1113.000000	72.116016
1112.000000	72.085090
1111.000000	72.039386
1110.000000	72.008776
1109.000000	71.983760
1108.000000	71.932673
1107.000000	71.919374
1106.000000	71.882853
1105.000000	71.831766
1104.000000	71.790707
1103.000000	71.781418
1102.000000	71.759041
1101.000000	71.727693
1100.000000	71.686105
1099.000000	71.658134
1098.000000	71.649690
1097.000000	71.601347
1096.000000	71.538755
1095.000000	71.524928
1094.000000	71.503079
1093.000000	71.479647
1092.000000	71.457903
1091.000000	71.414944
1090.000000	71.377684
1089.000000	71.361957
1088.000000	71.327125
1087.000000	71.297570
1086.000000	71.281527
1085.000000	71.251972
1084.000000	71.210174
1083.000000	71.165842
1082.000000	71.153493
1081.000000	71.142304
1080.000000	71.111800
1079.000000	71.079396
1078.000000	71.057546
1077.000000	71.025142
1076.000000	70.995271
1075.000000	70.973844
1074.000000	70.960334
1073.000000	70.928246
1072.000000	70.909352
1071.000000	70.883598
1070.000000	70.863543
1069.000000	70.840744
1068.000000	70.821111
1067.000000	70.776885
1066.000000	70.759153
1065.000000	70.753136
1064.000000	70.726643
1063.000000	70.702049
1062.000000	70.681994
1061.000000	70.653390
1060.000000	70.624786
1059.000000	70.612436
1058.000000	70.590059
1057.000000	70.561138
1056.000000	70.551638
1055.000000	70.533800
1054.000000	70.514168
1053.000000	70.488730
1052.000000	70.467303
1051.000000	70.447987
1050.000000	70.422021
1049.000000	70.403761
1048.000000	70.391622
1047.000000	70.369879
1046.000000	70.345602
1045.000000	70.333569
1044.000000	70.321431
1043.000000	70.301059
1042.000000	70.270977
1041.000000	70.254722
1040.000000	70.246595
1039.000000	70.213663
1038.000000	70.183369
1037.000000	70.173870
1036.000000	70.162576
1035.000000	70.145160
1034.000000	70.114655
1033.000000	70.089112
1032.000000	70.073807
1031.000000	70.049636
1030.000000	70.032642
1029.000000	70.012904
1028.000000	69.988733
1027.000000	69.980394
1026.000000	69.965933
1025.000000	69.952106
1024.000000	69.958017
1023.000000	69.960128
1022.000000	69.944190
1021.000000	69.915058
1020.000000	69.919596
1019.000000	69.938279
1018.000000	69.936379
1017.000000	69.942396
1016.000000	69.952106
1015.000000	69.970578
1014.000000	69.993905
1013.000000	70.004249
1012.000000	70.021242
1011.000000	70.053436
1010.000000	70.077607
1009.000000	70.113494
1008.000000	70.150226
1007.000000	70.189280
1006.000000	70.237728
1005.000000	70.287654
1004.000000	70.339902
1003.000000	70.398378
1002.000000	70.453792
1001.000000	70.511740
1000.000000	70.564410
999.000000	70.616975
998.000000	70.688750
997.000000	70.749653
996.000000	70.811928
995.000000	70.893203
994.000000	70.968989
993.000000	71.051847
992.000000	71.124783
991.000000	71.202680
990.000000	71.293032
989.000000	71.370401
988.000000	71.444815
987.000000	71.541183
986.000000	71.624991
985.000000	71.719037
984.000000	71.814034
983.000000	71.887603
982.000000	71.981122
981.000000	72.044769
980.000000	72.151482
979.000000	72.230329
978.000000	72.311392
977.000000	72.387389
976.000000	72.465392
975.000000	72.542339
974.000000	72.613691
973.000000	72.708054
972.000000	72.774974
971.000000	72.867015
970.000000	72.964122
969.000000	73.049302
968.000000	73.145460
967.000000	73.238028
966.000000	73.324264
965.000000	73.418521
964.000000	73.506023
963.000000	73.599225
962.000000	73.686094
961.000000	73.792912
960.000000	73.881364
959.000000	73.978049
958.000000	74.083495
957.000000	74.172264
956.000000	74.267155
955.000000	74.384845
954.000000	74.481530
953.000000	74.585709
952.000000	74.718387
951.000000	74.855393
950.000000	74.961894
949.000000	75.089823
948.000000	75.225351
947.000000	75.325730
946.000000	75.469808
945.000000	75.611036
944.000000	75.742975
943.000000	75.880086
942.000000	76.043691
941.000000	76.155259
940.000000	76.297226
939.000000	76.437292
938.000000	76.594142
937.000000	76.730620
936.000000	76.852426
935.000000	76.991437
934.000000	77.141532
933.000000	77.254049
932.000000	77.397072
931.000000	77.488479
930.000000	77.602897
929.000000	77.711509
928.000000	77.855165
927.000000	77.949844
926.000000	78.032808
925.000000	78.139098
924.000000	78.264810
923.000000	78.350412
922.000000	78.457019
921.000000	78.559510
920.000000	78.652606
919.000000	78.745597
918.000000	78.848615
917.000000	78.941500
916.000000	79.027525
915.000000	79.114816
914.000000	79.221528
913.000000	79.300903
912.000000	79.383866
911.000000	79.451630
910.000000	79.529422
909.000000	79.612280
908.000000	79.669172
907.000000	79.733769
906.000000	79.815255
905.000000	79.880591
904.000000	79.933262
903.000000	80.016014
902.000000	80.064040
901.000000	80.120299
900.000000	80.176241
899.000000	80.240311
898.000000	80.295831
897.000000	80.360323
896.000000	80.440120
895.000000	80.451730
894.000000	80.497962
893.000000	80.542188
892.000000	80.577020
891.000000	80.601086
890.000000	80.651539
889.000000	80.654178
888.000000	80.655233
887.000000	80.644784
886.000000	80.614702
885.000000	80.603830
884.000000	80.549365
883.000000	80.496167
882.000000	80.435792
881.000000	80.353040
880.000000	80.255299
879.000000	80.173919
878.000000	80.032585
877.000000	79.796995
876.000000	79.493640
875.000000	79.313252
874.000000	78.929045
873.000000	78.522250
872.000000	78.240533
871.000000	78.150287
870.000000	78.160736
869.000000	78.209923
868.000000	78.225545
867.000000	78.233461
866.000000	78.244439
865.000000	78.253621
864.000000	78.273043
863.000000	78.255205
862.000000	78.235150
861.000000	78.251510
860.000000	78.240639
859.000000	78.231245
858.000000	79.089800
857.000000	79.629100
856.000000	78.856200
855.000000	78.784100
854.000000	78.824000
853.000000	79.054300
852.000000	78.252800
851.000000	78.457000
850.000000	77.925600
849.000000	78.017300
848.000000	78.274800
847.000000	78.212900
846.000000	78.378800
845.000000	78.305100
844.000000	78.149600
843.000000	77.713300
842.000000	77.799900
841.000000	77.728400
840.000000	77.389600
839.000000	77.546200
838.000000	77.602900
837.000000	77.358000
836.000000	77.141000
835.000000	77.140200
834.000000	77.134900
833.000000	77.072000
832.000000	76.922500
831.000000	76.723600
830.000000	76.566800
829.000000	76.114600
828.000000	76.253800
827.000000	76.242800
826.000000	76.005000
825.000000	75.965800
824.000000	75.783100
823.000000	75.784800
822.000000	75.401300
821.000000	75.354800
820.000000	75.316200
819.000000	75.131600
818.000000	74.966400
817.000000	74.890600
816.000000	74.832600
815.000000	74.670000
814.000000	74.672500
813.000000	74.612600
812.000000	74.383900
811.000000	74.326400
810.000000	74.230400
809.000000	74.120000
808.000000	73.908200
807.000000	73.844100
806.000000	73.762800
805.000000	73.531000
804.000000	73.585100
803.000000	73.442400
802.000000	73.233400
801.000000	73.221200
800.000000	73.219800
799.000000	72.879900
798.000000	72.806000
797.000000	72.754000
796.000000	72.599800
795.000000	72.452000
794.000000	72.365300
793.000000	72.238300
792.000000	72.132000
791.000000	71.967600
790.000000	71.912100
789.000000	71.784200
788.000000	71.614900
787.000000	71.412100
786.000000	71.258100
785.000000	71.127400
784.000000	71.103500
783.000000	70.987000
782.000000	70.865900
781.000000	70.685300
780.000000	70.530300
779.000000	70.290300
778.000000	70.238700
777.000000	70.057200
776.000000	69.912200
775.000000	69.745400
774.000000	69.631600
773.000000	69.427200
772.000000	69.266500
771.000000	69.156600
770.000000	69.044800
769.000000	68.839400
768.000000	68.602600
767.000000	68.512200
766.000000	68.486900
765.000000	68.243000
764.000000	68.029800
763.000000	67.919600
762.000000	67.835200
761.000000	67.702600
760.000000	67.459100
759.000000	67.271200
758.000000	67.205300
757.000000	67.139400
756.000000	66.974300
755.000000	66.844800
754.000000	66.725200
753.000000	66.555600
752.000000	66.425700
751.000000	66.263500
750.000000	66.125200
749.000000	65.960100
748.000000	65.815900
747.000000	65.717300
746.000000	65.557100
745.000000	65.386100
744.000000	65.136900
743.000000	64.968500
742.000000	64.812500
741.000000	64.662800
740.000000	64.470800
739.000000	64.226000
738.000000	64.011200
737.000000	63.818900
736.000000	63.652400
735.000000	63.460300
734.000000	63.272500
733.000000	63.114400
732.000000	62.902800
731.000000	62.679300
730.000000	62.437900
729.000000	62.191200
728.000000	62.012100
727.000000	61.819300
726.000000	61.607900
725.000000	61.366800
724.000000	61.177900
723.000000	61.024500
722.000000	60.811000
721.000000	60.506700
720.000000	60.308300
719.000000	60.070800
718.000000	59.823200
717.000000	59.602400
716.000000	59.368400
715.000000	59.154200
714.000000	59.006500
713.000000	58.776600
712.000000	58.465600
711.000000	58.176200
710.000000	57.929900
709.000000	57.716700
708.000000	57.471700
707.000000	57.146600
706.000000	56.840500
705.000000	56.598900
704.000000	56.283800
703.000000	56.020600
702.000000	55.706100
701.000000	55.446900
700.000000	55.172600
699.000000	54.915600
698.000000	54.566200
697.000000	54.253200
696.000000	54.023900
695.000000	53.734800
694.000000	53.418400
693.000000	53.085800
692.000000	52.760200
691.000000	52.412800
690.000000	52.073400
689.000000	51.766200
688.000000	51.436900
687.000000	51.147100
686.000000	50.822600
685.000000	50.551700
684.000000	50.241800
683.000000	50.008200
682.000000	49.743700
681.000000	49.492200
680.000000	49.277000
679.000000	49.070500
678.000000	48.818100
677.000000	48.633300
676.000000	48.472400
675.000000	48.297900
674.000000	48.143400
673.000000	48.009100
672.000000	47.933000
671.000000	47.864500
670.000000	47.775300
669.000000	47.714300
668.000000	47.658900
667.000000	47.604600
666.000000	47.541400
665.000000	47.439900
664.000000	47.320700
663.000000	47.212700
662.000000	47.088900
661.000000	46.996300
660.000000	46.891600
659.000000	46.725700
658.000000	46.603800
657.000000	46.497500
656.000000	46.335000
655.000000	46.283500
654.000000	46.137700
653.000000	46.047000
652.000000	45.925000
651.000000	45.808900
650.000000	45.648100
649.000000	45.564200
648.000000	45.472700
647.000000	45.340900
646.000000	45.217800
645.000000	45.096900
644.000000	44.965300
643.000000	44.850100
642.000000	44.767100
641.000000	44.575100
640.000000	44.449300
639.000000	44.361400
638.000000	44.179400
637.000000	44.036400
636.000000	43.913300
635.000000	43.722100
634.000000	43.563900
633.000000	43.419000
632.000000	43.290700
631.000000	43.134000
630.000000	43.028100
629.000000	42.923000
628.000000	42.803200
627.000000	42.720400
626.000000	42.643600
625.000000	42.622100
624.000000	42.585300
623.000000	42.537000
622.000000	42.573900
621.000000	42.572500
620.000000	42.644700
619.000000	42.758000
618.000000	42.962900
617.000000	43.178000
616.000000	43.443300
615.000000	43.825800
614.000000	44.233600
613.000000	44.686500
612.000000	45.254600
611.000000	45.834700
610.000000	46.475800
609.000000	47.108700
608.000000	47.782700
607.000000	48.510300
606.000000	49.202800
605.000000	49.970900
604.000000	50.714500
603.000000	51.427700
602.000000	52.201600
601.000000	52.983100
600.000000	53.673400
599.000000	54.416700
598.000000	55.085500
597.000000	55.751400
596.000000	56.388600
595.000000	57.016800
594.000000	57.611900
593.000000	58.225900
592.000000	58.728500
591.000000	59.225900
590.000000	59.684900
589.000000	60.096200
588.000000	60.422900
587.000000	60.712500
586.000000	60.997800
585.000000	61.193500
584.000000	61.373900
583.000000	61.523300
582.000000	61.719000
581.000000	61.852600
580.000000	62.004200
579.000000	62.125700
578.000000	62.224600
577.000000	62.404800
576.000000	62.470900
575.000000	62.665400
574.000000	62.794600
573.000000	62.861400
572.000000	63.005600
571.000000	63.110800
570.000000	63.231700
569.000000	63.363600
568.000000	63.452000
567.000000	63.572400
566.000000	63.640600
565.000000	63.696800
564.000000	63.776400
563.000000	63.789200
562.000000	63.768300
561.000000	63.737600
560.000000	63.681600
559.000000	63.566900
558.000000	63.502600
557.000000	63.393200
556.000000	63.272600
555.000000	63.117100
554.000000	62.966900
553.000000	62.762900
552.000000	62.554400
551.000000	62.311400
550.000000	62.057400
549.000000	61.794300
548.000000	61.472900
547.000000	61.063300
546.000000	60.705600
545.000000	60.259300
544.000000	59.813000
543.000000	59.275200
542.000000	58.732900
541.000000	58.160900
540.000000	57.570600
539.000000	56.964600
538.000000	56.319500
537.000000	55.683400
536.000000	54.985700
535.000000	54.280800
534.000000	53.488200
533.000000	52.689900
532.000000	51.879500
531.000000	51.029100
530.000000	50.151400
529.000000	49.206800
528.000000	48.259100
527.000000	47.335300
526.000000	46.366500
525.000000	45.406700
524.000000	44.375600
523.000000	43.310600
522.000000	42.279200
521.000000	41.215700
520.000000	40.167400
519.000000	39.102300
518.000000	38.057500
517.000000	37.015400
516.000000	35.970100
515.000000	34.949200
514.000000	33.967000
513.000000	33.001200
512.000000	32.059700
511.000000	31.162000
510.000000	30.308600
509.000000	29.509300
508.000000	28.716400
507.000000	27.964500
506.000000	27.236200
505.000000	26.556900
504.000000	25.876200
503.000000	25.235700
502.000000	24.635400
501.000000	24.032200
500.000000	23.457100
499.000000	22.904900
498.000000	22.379600
497.000000	21.883100
496.000000	21.393700
495.000000	20.943100
494.000000	20.510400
493.000000	20.120100
492.000000	19.746400
491.000000	19.408000
490.000000	19.098400
489.000000	18.838300
488.000000	18.613100
487.000000	18.395200
486.000000	18.238600
485.000000	18.100600
484.000000	17.983300
483.000000	17.890300
482.000000	17.804900
481.000000	17.740700
480.000000	17.691200
479.000000	17.642100
478.000000	17.596400
477.000000	17.553200
476.000000	17.489100
475.000000	17.412500
474.000000	17.363600
473.000000	17.304300
472.000000	17.221300
471.000000	17.140600
470.000000	17.046100
469.000000	16.943100
468.000000	16.853100
467.000000	16.756900
466.000000	16.659800
465.000000	16.542300
464.000000	16.433600
463.000000	16.327200
462.000000	16.222100
461.000000	16.118000
460.000000	15.998100
459.000000	15.890500
458.000000	15.727100
457.000000	15.583400
456.000000	15.452500
455.000000	15.307200
454.000000	15.164900
453.000000	14.999400
452.000000	14.833200
451.000000	14.672800
450.000000	14.478800
449.000000	14.292700
448.000000	14.136100
447.000000	13.960700
446.000000	13.773800
445.000000	13.579900
444.000000	13.392100
443.000000	13.189300
442.000000	12.983700
441.000000	12.773700
440.000000	12.549800
439.000000	12.343100
438.000000	12.139300
437.000000	11.945900
436.000000	11.737100
435.000000	11.524300
434.000000	11.321100
433.000000	11.114500
432.000000	10.915800
431.000000	10.729000
430.000000	10.545700
429.000000	10.352600
428.000000	10.174800
427.000000	9.991500
426.000000	9.804600
425.000000	9.615300
424.000000	9.424600
423.000000	9.247700
422.000000	9.088000
421.000000	8.919900
420.000000	8.753800
419.000000	8.587500
418.000000	8.429400
417.000000	8.289600
416.000000	8.150600
415.000000	8.000500
414.000000	7.874900
413.000000	7.779800
412.000000	7.659800
411.000000	7.543600
410.000000	7.438900
409.000000	7.338300
408.000000	7.238200
407.000000	7.144500
406.000000	7.060600
405.000000	6.997900
404.000000	6.945200
403.000000	6.875100
402.000000	6.824900
401.000000	6.789700
400.000000	6.744900
399.000000	6.691900
398.000000	6.658200
397.000000	6.617700
396.000000	6.569600
395.000000	6.567900
394.000000	6.551200
393.000000	6.514400
392.000000	6.504400
391.000000	6.492100
390.000000	6.470200
389.000000	6.430400
388.000000	6.422500
387.000000	6.402000
386.000000	6.401200
385.000000	6.390000
384.000000	6.381500
383.000000	6.383900
382.000000	6.377200
381.000000	6.361700
380.000000	6.382300
379.000000	6.360800
378.000000	6.330200
377.000000	6.338500
376.000000	6.277000
375.000000	5.849500
374.000000	5.602400
373.000000	5.731000
372.000000	5.908600
371.000000	6.080600
370.000000	6.075700
369.000000	6.002900
368.000000	6.198100
367.000000	6.304200
366.000000	6.211600
365.000000	6.397100
364.000000	6.335800
363.000000	6.344400
362.000000	6.442800
361.000000	6.335100
360.000000	6.349400
359.000000	6.430000
358.000000	6.460700
357.000000	6.291700
356.000000	6.261200
355.000000	6.401700
354.000000	6.310500
353.000000	6.434700
352.000000	6.253100
351.000000	6.343400
350.000000	6.369300
349.000000	6.558600
348.000000	6.515400
347.000000	6.253400
346.000000	6.231100
345.000000	6.490600
344.000000	6.434400
343.000000	6.500300
342.000000	6.369300
341.000000	6.277200
340.000000	6.532300
339.000000	6.644300
338.000000	6.622800
337.000000	6.441400
336.000000	6.316000
335.000000	6.511300
334.000000	6.604800
333.000000	6.615900
332.000000	6.960100
331.000000	6.560400
330.000000	7.052300
329.000000	6.944200
328.000000	6.284300
327.000000	6.492900
326.000000	7.088500
325.000000	7.019900
324.000000	6.848600
323.000000	7.459900
322.000000	7.818700
321.000000	6.421500
320.000000	6.884500
319.000000	7.117900
318.000000	7.704500
317.000000	6.723300
316.000000	6.460100
315.000000	6.497300
314.000000	6.497800
313.000000	6.535000
312.000000	6.559400
311.000000	6.524000
310.000000	6.568400
309.000000	6.486000
308.000000	6.512100
307.000000	6.530900
306.000000	6.609400
305.000000	6.627700
304.000000	6.583300
303.000000	6.608800
302.000000	6.598600
301.000000	6.528900
300.000000	6.584700
299.000000	6.665900
298.000000	6.644700
297.000000	6.576700
296.000000	6.626900
295.000000	6.615400
294.000000	6.662500
293.000000	6.642100
292.000000	6.653600
291.000000	6.671200
290.000000	6.725000
289.000000	6.673300
288.000000	6.681600
287.000000	6.644800
286.000000	6.691300
285.000000	6.750500
284.000000	6.731700
283.000000	6.725400
282.000000	6.702400
281.000000	6.775500
280.000000	6.777100
279.000000	6.727400
278.000000	6.794800
277.000000	6.744000
276.000000	6.783500
275.000000	6.796600
274.000000	6.843800
273.000000	6.886500
272.000000	6.882000
271.000000	6.910600
270.000000	6.965600
269.000000	6.951900
268.000000	7.005700
267.000000	7.044800
266.000000	7.005200
265.000000	7.037000
264.000000	7.184000
263.000000	7.179000
262.000000	7.259900
261.000000	7.273800
260.000000	7.345900
259.000000	7.310900
258.000000	7.303600
257.000000	7.453700
256.000000	7.461700
255.000000	7.486700
254.000000	7.479700
253.000000	7.485900
252.000000	7.544300
251.000000	7.661200
250.000000	7.600600
