PE UV       SUBTECH     SPECTRUM    ASCII       PEDS        4.00        
   -1
INBUCR0137-1.Sample.ASC
24/04/26
11:03:33.00
24/04/26
11:03:33.00
Vinicio Soto Monge
C. cupreomarginata
250,000000
1
Lambda 1050
1050L1511233
PerkinElmer UV WinLab 6.3.2.0749 / 2.02.05 Lambda 900 UV/VIS/NIR, Aug  7 2015 09:38:08

0
0
3350/servo 860,8/2
0
0
UV/VIS
1
1
1
DoubleDePol,CommonBeamDepol,RBeamAtt,SBeamAtt,60mm sphere, WB InGaAs Detector
0
0
0
0
Program
Program
3350/servo 860,8/2
3350/0,2 860,8/0,2
3350/0,2 860,8/0,2
0
15.00
 
 
 
0
 
860,8
319,2
860,8
Front
100
on
S:100 R:100
0
0
0
0
 
0
 
 
 
0
 
 
0
0
0
0
0
 
 
 
 
0
0


0
0
#HDR
-1
-1
#GR
nm
%R
1.0
0.0
2500,000000
-1,000000
2251
8
78,033100
6,521300
#DATA
2500.000000	21.297691
2499.000000	21.238298
2498.000000	21.197204
2497.000000	21.254819
2496.000000	21.186748
2495.000000	21.339203
2494.000000	21.191767
2493.000000	21.108638
2492.000000	21.085843
2491.000000	21.211007
2490.000000	21.232338
2489.000000	21.104560
2488.000000	21.131747
2487.000000	21.188421
2486.000000	21.282947
2485.000000	21.174200
2484.000000	21.216339
2483.000000	21.133106
2482.000000	21.287966
2481.000000	21.207661
2480.000000	21.254087
2479.000000	21.257224
2478.000000	21.282424
2477.000000	21.325609
2476.000000	21.422541
2475.000000	21.418358
2474.000000	21.444917
2473.000000	21.502846
2472.000000	21.561193
2471.000000	21.592876
2470.000000	21.614312
2469.000000	21.669208
2468.000000	21.759238
2467.000000	21.810475
2466.000000	21.872168
2465.000000	21.913680
2464.000000	22.035079
2463.000000	22.098654
2462.000000	22.145918
2461.000000	22.232079
2460.000000	22.320540
2459.000000	22.404296
2458.000000	22.499659
2457.000000	22.583415
2456.000000	22.681706
2455.000000	22.785120
2454.000000	22.910075
2453.000000	22.986616
2452.000000	23.121190
2451.000000	23.220108
2450.000000	23.356983
2449.000000	23.475350
2448.000000	23.599782
2447.000000	23.697863
2446.000000	23.830556
2445.000000	23.970463
2444.000000	24.093954
2443.000000	24.222359
2442.000000	24.355469
2441.000000	24.499036
2440.000000	24.614998
2439.000000	24.721549
2438.000000	24.856856
2437.000000	24.986307
2436.000000	25.124332
2435.000000	25.251273
2434.000000	25.345067
2433.000000	25.461343
2432.000000	25.583579
2431.000000	25.707906
2430.000000	25.802432
2429.000000	25.911389
2428.000000	26.012712
2427.000000	26.118426
2426.000000	26.234702
2425.000000	26.329333
2424.000000	26.410057
2423.000000	26.509393
2422.000000	26.585829
2421.000000	26.671049
2420.000000	26.754178
2419.000000	26.823086
2418.000000	26.909770
2417.000000	26.990285
2416.000000	27.050932
2415.000000	27.110220
2414.000000	27.159784
2413.000000	27.208615
2412.000000	27.241553
2411.000000	27.266753
2410.000000	27.305756
2409.000000	27.337962
2408.000000	27.380938
2407.000000	27.428828
2406.000000	27.451832
2405.000000	27.462393
2404.000000	27.491462
2403.000000	27.534125
2402.000000	27.537261
2401.000000	27.545104
2400.000000	27.578669
2399.000000	27.588916
2398.000000	27.603660
2397.000000	27.636179
2396.000000	27.646113
2395.000000	27.654583
2394.000000	27.659288
2393.000000	27.661170
2392.000000	27.668281
2391.000000	27.660125
2390.000000	27.662007
2389.000000	27.682397
2388.000000	27.668072
2387.000000	27.649982
2386.000000	27.645904
2385.000000	27.654269
2384.000000	27.647263
2383.000000	27.623632
2382.000000	27.606483
2381.000000	27.582433
2380.000000	27.566853
2379.000000	27.559220
2378.000000	27.542071
2377.000000	27.513316
2376.000000	27.493449
2375.000000	27.460929
2374.000000	27.439494
2373.000000	27.426005
2372.000000	27.403733
2371.000000	27.377069
2370.000000	27.357306
2369.000000	27.353751
2368.000000	27.336602
2367.000000	27.308893
2366.000000	27.292999
2365.000000	27.284320
2364.000000	27.276059
2363.000000	27.253892
2362.000000	27.234234
2361.000000	27.223882
2360.000000	27.215307
2359.000000	27.191153
2358.000000	27.172541
2357.000000	27.154660
2356.000000	27.135734
2355.000000	27.119004
2354.000000	27.094431
2353.000000	27.070904
2352.000000	27.045913
2351.000000	27.021550
2350.000000	27.010361
2349.000000	26.985998
2348.000000	26.957661
2347.000000	26.926500
2346.000000	26.889589
2345.000000	26.867735
2344.000000	26.853828
2343.000000	26.845045
2342.000000	26.822250
2341.000000	26.805833
2340.000000	26.782411
2339.000000	26.773941
2338.000000	26.766308
2337.000000	26.751982
2336.000000	26.754492
2335.000000	26.754806
2334.000000	26.765994
2333.000000	26.766621
2332.000000	26.760034
2331.000000	26.763171
2330.000000	26.783247
2329.000000	26.799977
2328.000000	26.823191
2327.000000	26.852573
2326.000000	26.863343
2325.000000	26.869931
2324.000000	26.896386
2323.000000	26.921900
2322.000000	26.929637
2321.000000	26.947413
2320.000000	26.952328
2319.000000	26.937793
2318.000000	26.926814
2317.000000	26.907783
2316.000000	26.884465
2315.000000	26.865226
2314.000000	26.824236
2313.000000	26.779796
2312.000000	26.744140
2311.000000	26.701478
2310.000000	26.664880
2309.000000	26.615003
2308.000000	26.570354
2307.000000	26.548500
2306.000000	26.516085
2305.000000	26.479174
2304.000000	26.449477
2303.000000	26.436825
2302.000000	26.400959
2301.000000	26.367290
2300.000000	26.354115
2299.000000	26.359970
2298.000000	26.354637
2297.000000	26.350350
2296.000000	26.368858
2295.000000	26.365303
2294.000000	26.386530
2293.000000	26.407965
2292.000000	26.437452
2291.000000	26.453660
2290.000000	26.459516
2289.000000	26.495590
2288.000000	26.528946
2287.000000	26.568681
2286.000000	26.604546
2285.000000	26.646895
2284.000000	26.677742
2283.000000	26.715385
2282.000000	26.764635
2281.000000	26.824236
2280.000000	26.862716
2279.000000	26.902869
2278.000000	26.929324
2277.000000	26.980351
2276.000000	27.015589
2275.000000	27.052710
2274.000000	27.055219
2273.000000	27.102273
2272.000000	27.129774
2271.000000	27.176723
2270.000000	27.209138
2269.000000	27.255669
2268.000000	27.291640
2267.000000	27.351555
2266.000000	27.403942
2265.000000	27.493240
2264.000000	27.584002
2263.000000	27.673614
2262.000000	27.793235
2261.000000	27.894558
2260.000000	28.048163
2259.000000	28.161093
2258.000000	28.308320
2257.000000	28.453246
2256.000000	28.644181
2255.000000	28.785866
2254.000000	28.956306
2253.000000	29.104787
2252.000000	29.292481
2251.000000	29.470449
2250.000000	29.608579
2249.000000	29.750055
2248.000000	29.908470
2247.000000	30.077446
2246.000000	30.185879
2245.000000	30.323068
2244.000000	30.427528
2243.000000	30.520067
2242.000000	30.641467
2241.000000	30.679215
2240.000000	30.765585
2239.000000	30.828533
2238.000000	30.855301
2237.000000	30.914485
2236.000000	30.942403
2235.000000	30.938848
2234.000000	30.951605
2233.000000	30.950664
2232.000000	30.924105
2231.000000	30.923163
2230.000000	30.888343
2229.000000	30.856974
2228.000000	30.801346
2227.000000	30.758893
2226.000000	30.711630
2225.000000	30.649937
2224.000000	30.580192
2223.000000	30.514735
2222.000000	30.422718
2221.000000	30.337289
2220.000000	30.278837
2219.000000	30.187657
2218.000000	30.104110
2217.000000	30.012825
2216.000000	29.924155
2215.000000	29.832452
2214.000000	29.760407
2213.000000	29.683970
2212.000000	29.600214
2211.000000	29.527960
2210.000000	29.457797
2209.000000	29.378014
2208.000000	29.313498
2207.000000	29.264562
2206.000000	29.195340
2205.000000	29.140653
2204.000000	29.068713
2203.000000	29.047800
2202.000000	28.983283
2201.000000	28.921486
2200.000000	28.911866
2199.000000	28.864603
2198.000000	28.817653
2197.000000	28.776978
2196.000000	28.744249
2195.000000	28.734734
2194.000000	28.688725
2193.000000	28.654428
2192.000000	28.639057
2191.000000	28.628078
2190.000000	28.604760
2189.000000	28.581338
2188.000000	28.551955
2187.000000	28.538675
2186.000000	28.507306
2185.000000	28.484093
2184.000000	28.477505
2183.000000	28.463075
2182.000000	28.436411
2181.000000	28.429196
2180.000000	28.408179
2179.000000	28.382351
2178.000000	28.383188
2177.000000	28.388625
2176.000000	28.368967
2175.000000	28.383606
2174.000000	28.391762
2173.000000	28.385279
2172.000000	28.420099
2171.000000	28.438816
2170.000000	28.452723
2169.000000	28.488484
2168.000000	28.515148
2167.000000	28.556765
2166.000000	28.624000
2165.000000	28.663525
2164.000000	28.726682
2163.000000	28.783043
2162.000000	28.866067
2161.000000	28.928073
2160.000000	29.013398
2159.000000	29.096109
2158.000000	29.193876
2157.000000	29.286311
2156.000000	29.385229
2155.000000	29.517712
2154.000000	29.612552
2153.000000	29.713980
2152.000000	29.848659
2151.000000	29.977901
2150.000000	30.101182
2149.000000	30.220595
2148.000000	30.345549
2147.000000	30.467681
2146.000000	30.600478
2145.000000	30.714557
2144.000000	30.844217
2143.000000	30.976700
2142.000000	31.093917
2141.000000	31.219708
2140.000000	31.325946
2139.000000	31.426328
2138.000000	31.552014
2137.000000	31.673936
2136.000000	31.777037
2135.000000	31.878569
2134.000000	31.967867
2133.000000	32.047231
2132.000000	32.144895
2131.000000	32.222795
2130.000000	32.294108
2129.000000	32.366258
2128.000000	32.439766
2127.000000	32.505747
2126.000000	32.564616
2125.000000	32.627564
2124.000000	32.677232
2123.000000	32.727946
2122.000000	32.766530
2121.000000	32.792672
2120.000000	32.835020
2119.000000	32.875696
2118.000000	32.885211
2117.000000	32.912502
2116.000000	32.937598
2115.000000	32.960916
2114.000000	32.980678
2113.000000	32.985802
2112.000000	32.996049
2111.000000	33.005879
2110.000000	33.008597
2109.000000	33.017381
2108.000000	33.023759
2107.000000	33.017590
2106.000000	33.004624
2105.000000	32.994690
2104.000000	32.997409
2103.000000	33.003996
2102.000000	32.993854
2101.000000	32.975869
2100.000000	32.982142
2099.000000	32.978692
2098.000000	32.970954
2097.000000	32.975346
2096.000000	32.977332
2095.000000	32.984861
2094.000000	32.995527
2093.000000	33.008493
2092.000000	33.001696
2091.000000	33.000755
2090.000000	33.018426
2089.000000	33.016649
2088.000000	33.018740
2087.000000	33.018949
2086.000000	33.005565
2085.000000	33.001591
2084.000000	32.976287
2083.000000	32.941153
2082.000000	32.908111
2081.000000	32.853214
2080.000000	32.796122
2079.000000	32.723136
2078.000000	32.656319
2077.000000	32.592117
2076.000000	32.512334
2075.000000	32.416553
2074.000000	32.326000
2073.000000	32.217985
2072.000000	32.103487
2071.000000	31.986166
2070.000000	31.866126
2069.000000	31.746190
2068.000000	31.607852
2067.000000	31.466480
2066.000000	31.328769
2065.000000	31.190221
2064.000000	31.064325
2063.000000	30.943658
2062.000000	30.828742
2061.000000	30.710793
2060.000000	30.580506
2059.000000	30.472700
2058.000000	30.382983
2057.000000	30.313343
2056.000000	30.262525
2055.000000	30.235443
2054.000000	30.233038
2053.000000	30.230738
2052.000000	30.256147
2051.000000	30.317840
2050.000000	30.392499
2049.000000	30.476673
2048.000000	30.586466
2047.000000	30.699500
2046.000000	30.856138
2045.000000	30.995731
2044.000000	31.147559
2043.000000	31.312562
2042.000000	31.472441
2041.000000	31.611825
2040.000000	31.791990
2039.000000	31.932211
2038.000000	32.085084
2037.000000	32.228442
2036.000000	32.370440
2035.000000	32.525614
2034.000000	32.635720
2033.000000	32.763916
2032.000000	32.878205
2031.000000	32.990194
2030.000000	33.092144
2029.000000	33.177992
2028.000000	33.301587
2027.000000	33.383043
2026.000000	33.466590
2025.000000	33.566344
2024.000000	33.640376
2023.000000	33.706147
2022.000000	33.756233
2021.000000	33.831729
2020.000000	33.885893
2019.000000	33.932529
2018.000000	33.974564
2017.000000	34.018481
2016.000000	34.067208
2015.000000	34.064280
2014.000000	34.082161
2013.000000	34.098473
2012.000000	34.114262
2011.000000	34.108197
2010.000000	34.097427
2009.000000	34.079337
2008.000000	34.084775
2007.000000	34.056333
2006.000000	34.023500
2005.000000	33.993385
2004.000000	33.929183
2003.000000	33.899696
2002.000000	33.844381
2001.000000	33.773173
2000.000000	33.714303
1999.000000	33.638284
1998.000000	33.570004
1997.000000	33.485202
1996.000000	33.406988
1995.000000	33.344667
1994.000000	33.249618
1993.000000	33.158752
1992.000000	33.078969
1991.000000	32.953701
1990.000000	32.871618
1989.000000	32.794135
1988.000000	32.697518
1987.000000	32.585007
1986.000000	32.488284
1985.000000	32.390203
1984.000000	32.279783
1983.000000	32.176369
1982.000000	32.074941
1981.000000	31.985016
1980.000000	31.857447
1979.000000	31.773900
1978.000000	31.679269
1977.000000	31.582442
1976.000000	31.482792
1975.000000	31.379692
1974.000000	31.308170
1973.000000	31.171922
1972.000000	31.102492
1971.000000	31.000332
1970.000000	30.925568
1969.000000	30.832192
1968.000000	30.738189
1967.000000	30.635820
1966.000000	30.542862
1965.000000	30.463080
1964.000000	30.405778
1963.000000	30.309265
1962.000000	30.202505
1961.000000	30.104005
1960.000000	29.997454
1959.000000	29.921540
1958.000000	29.822204
1957.000000	29.732802
1956.000000	29.631479
1955.000000	29.527960
1954.000000	29.435838
1953.000000	29.334934
1952.000000	29.236329
1951.000000	29.143058
1950.000000	29.066308
1949.000000	28.990185
1948.000000	28.912807
1947.000000	28.851428
1946.000000	28.805001
1945.000000	28.703364
1944.000000	28.641567
1943.000000	28.623582
1942.000000	28.604865
1941.000000	28.563248
1940.000000	28.530415
1939.000000	28.511802
1938.000000	28.512011
1937.000000	28.500196
1936.000000	28.500823
1935.000000	28.525918
1934.000000	28.571613
1933.000000	28.597231
1932.000000	28.668440
1931.000000	28.754810
1930.000000	28.812530
1929.000000	28.939576
1928.000000	29.034729
1927.000000	29.142012
1926.000000	29.261111
1925.000000	29.418376
1924.000000	29.555774
1923.000000	29.726109
1922.000000	29.933879
1921.000000	30.165594
1920.000000	30.375141
1919.000000	30.560220
1918.000000	30.805842
1917.000000	31.026473
1916.000000	31.296249
1915.000000	31.569267
1914.000000	31.946850
1913.000000	32.305715
1912.000000	32.661129
1911.000000	32.974405
1910.000000	33.309325
1909.000000	33.665785
1908.000000	34.101296
1907.000000	34.551864
1906.000000	35.078033
1905.000000	35.641635
1904.000000	36.123677
1903.000000	36.629246
1902.000000	37.157611
1901.000000	37.722050
1900.000000	38.313362
1899.000000	38.885957
1898.000000	39.480615
1897.000000	40.086357
1896.000000	40.601755
1895.000000	41.139007
1894.000000	41.702087
1893.000000	42.302496
1892.000000	42.942640
1891.000000	43.558420
1890.000000	44.113866
1889.000000	44.621004
1888.000000	45.133474
1887.000000	45.625346
1886.000000	46.099232
1885.000000	46.542585
1884.000000	46.995559
1883.000000	47.389976
1882.000000	47.739430
1881.000000	48.105197
1880.000000	48.426628
1879.000000	48.747745
1878.000000	49.068340
1877.000000	49.353278
1876.000000	49.645222
1875.000000	49.944276
1874.000000	50.208511
1873.000000	50.460302
1872.000000	50.671941
1871.000000	50.847086
1870.000000	50.980092
1869.000000	51.116235
1868.000000	51.183888
1867.000000	51.237112
1866.000000	51.285211
1865.000000	51.335611
1864.000000	51.401591
1863.000000	51.498941
1862.000000	51.611975
1861.000000	51.717062
1860.000000	51.812739
1859.000000	51.880392
1858.000000	51.922636
1857.000000	51.972095
1856.000000	52.003465
1855.000000	52.034834
1854.000000	52.053133
1853.000000	52.039853
1852.000000	52.062962
1851.000000	52.114303
1850.000000	52.164912
1849.000000	52.220227
1848.000000	52.226814
1847.000000	52.179969
1846.000000	52.111793
1845.000000	52.051041
1844.000000	52.045499
1843.000000	52.092553
1842.000000	52.112734
1841.000000	52.094854
1840.000000	52.061916
1839.000000	52.018522
1838.000000	51.981611
1837.000000	51.944595
1836.000000	51.874014
1835.000000	51.782102
1834.000000	51.711730
1833.000000	51.672100
1832.000000	51.644181
1831.000000	51.617517
1830.000000	51.592003
1829.000000	51.558124
1828.000000	51.505424
1827.000000	51.457324
1826.000000	51.427419
1825.000000	51.405042
1824.000000	51.398245
1823.000000	51.468617
1822.000000	51.529474
1821.000000	51.506156
1820.000000	51.459206
1819.000000	51.423550
1818.000000	51.401173
1817.000000	51.398036
1816.000000	51.371791
1815.000000	51.336343
1814.000000	51.325573
1813.000000	51.327874
1812.000000	51.319613
1811.000000	51.279356
1810.000000	51.231256
1809.000000	51.208984
1808.000000	51.205533
1807.000000	51.202605
1806.000000	51.165694
1805.000000	51.114562
1804.000000	51.104733
1803.000000	51.113935
1802.000000	51.100446
1801.000000	51.080056
1800.000000	51.039903
1799.000000	51.007802
1798.000000	51.004142
1797.000000	50.995359
1796.000000	50.981765
1795.000000	50.953324
1794.000000	50.933665
1793.000000	50.914321
1792.000000	50.896650
1791.000000	50.899055
1790.000000	50.888075
1789.000000	50.899891
1788.000000	50.900519
1787.000000	50.902924
1786.000000	50.904074
1785.000000	50.894245
1784.000000	50.908779
1783.000000	50.903969
1782.000000	50.894767
1781.000000	50.883893
1780.000000	50.867790
1779.000000	50.839871
1778.000000	50.808502
1777.000000	50.775355
1776.000000	50.746809
1775.000000	50.706656
1774.000000	50.663680
1773.000000	50.627292
1772.000000	50.570618
1771.000000	50.545940
1770.000000	50.500978
1769.000000	50.462393
1768.000000	50.424959
1767.000000	50.403314
1766.000000	50.360234
1765.000000	50.308475
1764.000000	50.300528
1763.000000	50.280242
1762.000000	50.238312
1761.000000	50.254938
1760.000000	50.229737
1759.000000	50.211125
1758.000000	50.212171
1757.000000	50.211125
1756.000000	50.192408
1755.000000	50.192617
1754.000000	50.186657
1753.000000	50.182474
1752.000000	50.167312
1751.000000	50.136361
1750.000000	50.108234
1749.000000	50.069440
1748.000000	50.015694
1747.000000	49.967281
1746.000000	49.890844
1745.000000	49.834797
1744.000000	49.754387
1743.000000	49.676278
1742.000000	49.608206
1741.000000	49.522882
1740.000000	49.456588
1739.000000	49.388098
1738.000000	49.326719
1737.000000	49.265130
1736.000000	49.211384
1735.000000	49.178237
1734.000000	49.124805
1733.000000	49.094063
1732.000000	49.033102
1731.000000	48.994936
1730.000000	48.960325
1729.000000	48.912853
1728.000000	48.893194
1727.000000	48.857120
1726.000000	48.841121
1725.000000	48.848336
1724.000000	48.884725
1723.000000	48.940144
1722.000000	49.025573
1721.000000	49.157638
1720.000000	49.331529
1719.000000	49.555192
1718.000000	49.773209
1717.000000	49.991749
1716.000000	50.199309
1715.000000	50.433115
1714.000000	50.620704
1713.000000	50.803274
1712.000000	50.960539
1711.000000	51.114353
1710.000000	51.237739
1709.000000	51.358197
1708.000000	51.440071
1707.000000	51.537734
1706.000000	51.580083
1705.000000	51.632783
1704.000000	51.696672
1703.000000	51.721559
1702.000000	51.725637
1701.000000	51.701064
1700.000000	51.738289
1699.000000	51.747491
1698.000000	51.732643
1697.000000	51.727205
1696.000000	51.699809
1695.000000	51.655788
1694.000000	51.588971
1693.000000	51.525605
1692.000000	51.454292
1691.000000	51.399082
1690.000000	51.358929
1689.000000	51.372313
1688.000000	51.401487
1687.000000	51.502601
1686.000000	51.630483
1685.000000	51.807092
1684.000000	51.999909
1683.000000	52.212489
1682.000000	52.461666
1681.000000	52.664939
1680.000000	52.887766
1679.000000	53.101601
1678.000000	53.277896
1677.000000	53.478346
1676.000000	53.658825
1675.000000	53.854674
1674.000000	53.997195
1673.000000	54.188339
1672.000000	54.372477
1671.000000	54.540826
1670.000000	54.722873
1669.000000	54.890280
1668.000000	55.059988
1667.000000	55.242035
1666.000000	55.397313
1665.000000	55.522268
1664.000000	55.663325
1663.000000	55.824564
1662.000000	55.951505
1661.000000	56.059311
1660.000000	56.167326
1659.000000	56.280674
1658.000000	56.373423
1657.000000	56.429051
1656.000000	56.520336
1655.000000	56.572723
1654.000000	56.622704
1653.000000	56.682934
1652.000000	56.696422
1651.000000	56.716812
1650.000000	56.721100
1649.000000	56.745986
1648.000000	56.749959
1647.000000	56.743476
1646.000000	56.732393
1645.000000	56.731138
1644.000000	56.717231
1643.000000	56.718172
1642.000000	56.720577
1641.000000	56.696422
1640.000000	56.700500
1639.000000	56.683770
1638.000000	56.671327
1637.000000	56.665994
1636.000000	56.649368
1635.000000	56.628978
1634.000000	56.601164
1633.000000	56.575023
1632.000000	56.550973
1631.000000	56.515944
1630.000000	56.479137
1629.000000	56.439926
1628.000000	56.389839
1627.000000	56.361607
1626.000000	56.347804
1625.000000	56.302319
1624.000000	56.260807
1623.000000	56.236130
1622.000000	56.198800
1621.000000	56.179665
1620.000000	56.162725
1619.000000	56.132088
1618.000000	56.099987
1617.000000	56.082943
1616.000000	56.055442
1615.000000	56.036411
1614.000000	56.009748
1613.000000	55.969281
1612.000000	55.922227
1611.000000	55.879669
1610.000000	55.842235
1609.000000	55.795390
1608.000000	55.747186
1607.000000	55.691244
1606.000000	55.620036
1605.000000	55.547050
1604.000000	55.471763
1603.000000	55.418122
1602.000000	55.363853
1601.000000	55.295049
1600.000000	55.232834
1599.000000	55.177728
1598.000000	55.107042
1597.000000	55.046918
1596.000000	54.992544
1595.000000	54.946118
1594.000000	54.886725
1593.000000	54.848350
1592.000000	54.816772
1591.000000	54.771704
1590.000000	54.721095
1589.000000	54.679687
1588.000000	54.643926
1587.000000	54.603355
1586.000000	54.555151
1585.000000	54.523573
1584.000000	54.487707
1583.000000	54.446509
1582.000000	54.415976
1581.000000	54.384607
1580.000000	54.366726
1579.000000	54.364739
1578.000000	54.350100
1577.000000	54.323018
1576.000000	54.314235
1575.000000	54.308902
1574.000000	54.294158
1573.000000	54.294367
1572.000000	54.305033
1571.000000	54.325737
1570.000000	54.349368
1569.000000	54.378856
1568.000000	54.403428
1567.000000	54.415139
1566.000000	54.437621
1565.000000	54.466167
1564.000000	54.486139
1563.000000	54.498477
1562.000000	54.504751
1561.000000	54.498164
1560.000000	54.486034
1559.000000	54.473382
1558.000000	54.453201
1557.000000	54.422250
1556.000000	54.378542
1555.000000	54.327619
1554.000000	54.269690
1553.000000	54.209566
1552.000000	54.138671
1551.000000	54.066626
1550.000000	53.994372
1549.000000	53.912916
1548.000000	53.833866
1547.000000	53.758475
1546.000000	53.709120
1545.000000	53.655165
1544.000000	53.598282
1543.000000	53.532197
1542.000000	53.490371
1541.000000	53.457643
1540.000000	53.427319
1539.000000	53.389153
1538.000000	53.335616
1537.000000	53.308534
1536.000000	53.285843
1535.000000	53.232202
1534.000000	53.187866
1533.000000	53.142799
1532.000000	53.083825
1531.000000	53.032170
1530.000000	52.970686
1529.000000	52.898745
1528.000000	52.857547
1527.000000	52.810493
1526.000000	52.750578
1525.000000	52.687316
1524.000000	52.638066
1523.000000	52.576269
1522.000000	52.509975
1521.000000	52.460725
1520.000000	52.395268
1519.000000	52.333261
1518.000000	52.257974
1517.000000	52.180806
1516.000000	52.116080
1515.000000	52.058047
1514.000000	51.992172
1513.000000	51.924309
1512.000000	51.867740
1511.000000	51.805838
1510.000000	51.721768
1509.000000	51.680465
1508.000000	51.620340
1507.000000	51.544008
1506.000000	51.488798
1505.000000	51.456697
1504.000000	51.414348
1503.000000	51.359243
1502.000000	51.326514
1501.000000	51.298595
1500.000000	51.253737
1499.000000	51.249450
1498.000000	51.242758
1497.000000	51.215467
1496.000000	51.208043
1495.000000	51.243595
1494.000000	51.270363
1493.000000	51.285420
1492.000000	51.326828
1491.000000	51.372209
1490.000000	51.416753
1489.000000	51.487962
1488.000000	51.534807
1487.000000	51.579769
1486.000000	51.628496
1485.000000	51.674609
1484.000000	51.747909
1483.000000	51.785029
1482.000000	51.840030
1481.000000	51.901723
1480.000000	51.947209
1479.000000	52.010889
1478.000000	52.073104
1477.000000	52.140026
1476.000000	52.202346
1475.000000	52.258184
1474.000000	52.362539
1473.000000	52.458843
1472.000000	52.533397
1471.000000	52.624368
1470.000000	52.686793
1469.000000	52.733325
1468.000000	52.840712
1467.000000	52.951864
1466.000000	53.036666
1465.000000	53.118854
1464.000000	53.195186
1463.000000	53.306338
1462.000000	53.410589
1461.000000	53.505533
1460.000000	53.608947
1459.000000	53.716230
1458.000000	53.830624
1457.000000	53.924105
1456.000000	54.022500
1455.000000	54.106047
1454.000000	54.217931
1453.000000	54.336925
1452.000000	54.449959
1451.000000	54.554315
1450.000000	54.615589
1449.000000	54.669126
1448.000000	54.782474
1447.000000	54.921441
1446.000000	55.044304
1445.000000	55.116244
1444.000000	55.194667
1443.000000	55.308643
1442.000000	55.410175
1441.000000	55.527810
1440.000000	55.636661
1439.000000	55.746245
1438.000000	55.878101
1437.000000	55.956733
1436.000000	56.083361
1435.000000	56.225882
1434.000000	56.368717
1433.000000	56.503083
1432.000000	56.654492
1431.000000	56.786348
1430.000000	56.935457
1429.000000	57.137894
1428.000000	57.301851
1427.000000	57.472082
1426.000000	57.664167
1425.000000	57.895045
1424.000000	58.122473
1423.000000	58.308911
1422.000000	58.520236
1421.000000	58.808311
1420.000000	59.103601
1419.000000	59.354347
1418.000000	59.596100
1417.000000	59.795504
1416.000000	60.163362
1415.000000	60.522750
1414.000000	60.821700
1413.000000	61.071713
1412.000000	61.339817
1411.000000	61.725764
1410.000000	62.138271
1409.000000	62.495881
1408.000000	62.842617
1407.000000	63.203992
1406.000000	63.540062
1405.000000	63.864630
1404.000000	64.152601
1403.000000	64.512512
1402.000000	64.933906
1401.000000	65.373496
1400.000000	65.590362
1399.000000	65.772723
1398.000000	66.005901
1397.000000	66.352533
1396.000000	66.737644
1395.000000	66.926801
1394.000000	67.110207
1393.000000	67.342549
1392.000000	67.595804
1391.000000	67.782661
1390.000000	68.024518
1389.000000	68.349505
1388.000000	68.575991
1387.000000	68.778742
1386.000000	68.987453
1385.000000	69.267685
1384.000000	69.443458
1383.000000	69.653319
1382.000000	69.790717
1381.000000	69.871754
1380.000000	69.929474
1379.000000	70.003924
1378.000000	70.071054
1377.000000	70.181056
1376.000000	70.250173
1375.000000	70.324309
1374.000000	70.446022
1373.000000	70.605065
1372.000000	70.685580
1371.000000	70.771322
1370.000000	70.870345
1369.000000	70.991431
1368.000000	71.069017
1367.000000	71.128306
1366.000000	71.228060
1365.000000	71.337121
1364.000000	71.416694
1363.000000	71.525128
1362.000000	71.596127
1361.000000	71.614007
1360.000000	71.609825
1359.000000	71.650919
1358.000000	71.683647
1357.000000	71.745863
1356.000000	71.857747
1355.000000	71.947673
1354.000000	71.995668
1353.000000	72.045336
1352.000000	72.190158
1351.000000	72.329333
1350.000000	72.473841
1349.000000	72.612075
1348.000000	72.748846
1347.000000	72.851319
1346.000000	72.968849
1345.000000	73.104678
1344.000000	73.214367
1343.000000	73.318827
1342.000000	73.420568
1341.000000	73.517917
1340.000000	73.614953
1339.000000	73.699546
1338.000000	73.788426
1337.000000	73.870509
1336.000000	73.941926
1335.000000	74.011252
1334.000000	74.068449
1333.000000	74.123555
1332.000000	74.184097
1331.000000	74.235543
1330.000000	74.290021
1329.000000	74.344499
1328.000000	74.380260
1327.000000	74.416858
1326.000000	74.445090
1325.000000	74.477505
1324.000000	74.505529
1323.000000	74.526023
1322.000000	74.545054
1321.000000	74.570359
1320.000000	74.602983
1319.000000	74.626928
1318.000000	74.650246
1317.000000	74.660598
1316.000000	74.675760
1315.000000	74.702737
1314.000000	74.717167
1313.000000	74.730551
1312.000000	74.751569
1311.000000	74.767881
1310.000000	74.774155
1309.000000	74.780220
1308.000000	74.786493
1307.000000	74.792872
1306.000000	74.796532
1305.000000	74.794963
1304.000000	74.797264
1303.000000	74.793186
1302.000000	74.792349
1301.000000	74.791408
1300.000000	74.783984
1299.000000	74.772691
1298.000000	74.763594
1297.000000	74.743413
1296.000000	74.725951
1295.000000	74.714658
1294.000000	74.689771
1293.000000	74.680570
1292.000000	74.663735
1291.000000	74.627033
1290.000000	74.609779
1289.000000	74.593258
1288.000000	74.576005
1287.000000	74.553419
1286.000000	74.513057
1285.000000	74.470186
1284.000000	74.435575
1283.000000	74.409434
1282.000000	74.390299
1281.000000	74.360079
1280.000000	74.308634
1279.000000	74.294622
1278.000000	74.292008
1277.000000	74.260116
1276.000000	74.247045
1275.000000	74.239830
1274.000000	74.224146
1273.000000	74.211180
1272.000000	74.205533
1271.000000	74.205638
1270.000000	74.203546
1269.000000	74.205742
1268.000000	74.200200
1267.000000	74.187548
1266.000000	74.190580
1265.000000	74.205429
1264.000000	74.192985
1263.000000	74.182215
1262.000000	74.182738
1261.000000	74.170295
1260.000000	74.171550
1259.000000	74.165067
1258.000000	74.155761
1257.000000	74.143108
1256.000000	74.134116
1255.000000	74.124077
1254.000000	74.100864
1253.000000	74.080683
1252.000000	74.053078
1251.000000	74.027042
1250.000000	74.012821
1249.000000	73.965871
1248.000000	73.931574
1247.000000	73.910348
1246.000000	73.865176
1245.000000	73.821050
1244.000000	73.770231
1243.000000	73.724223
1242.000000	73.678947
1241.000000	73.646636
1240.000000	73.609202
1239.000000	73.566017
1238.000000	73.530151
1237.000000	73.491672
1236.000000	73.452774
1235.000000	73.420568
1234.000000	73.401014
1233.000000	73.358770
1232.000000	73.323427
1231.000000	73.296450
1230.000000	73.254833
1229.000000	73.233920
1228.000000	73.188748
1227.000000	73.153196
1226.000000	73.101960
1225.000000	73.081779
1224.000000	73.048005
1223.000000	73.021968
1222.000000	72.991853
1221.000000	72.958184
1220.000000	72.916567
1219.000000	72.876101
1218.000000	72.835843
1217.000000	72.807402
1216.000000	72.762962
1215.000000	72.732638
1214.000000	72.699073
1213.000000	72.656933
1212.000000	72.603919
1211.000000	72.538671
1210.000000	72.494440
1209.000000	72.439753
1208.000000	72.398346
1207.000000	72.338116
1206.000000	72.286252
1205.000000	72.210339
1204.000000	72.170395
1203.000000	72.105147
1202.000000	72.047218
1201.000000	71.970468
1200.000000	71.902919
1199.000000	71.831711
1198.000000	71.772109
1197.000000	71.721813
1196.000000	71.635025
1195.000000	71.557020
1194.000000	71.462598
1193.000000	71.395154
1192.000000	71.294877
1191.000000	71.252424
1190.000000	71.209238
1189.000000	71.149114
1188.000000	71.095472
1187.000000	71.093067
1186.000000	71.071213
1185.000000	71.057306
1184.000000	71.068704
1183.000000	71.046222
1182.000000	71.072050
1181.000000	71.065776
1180.000000	71.113144
1179.000000	71.121718
1178.000000	71.140644
1177.000000	71.172641
1176.000000	71.180483
1175.000000	71.230988
1174.000000	71.242908
1173.000000	71.280656
1172.000000	71.310771
1171.000000	71.361171
1170.000000	71.422132
1169.000000	71.477446
1168.000000	71.539558
1167.000000	71.609093
1166.000000	71.690444
1165.000000	71.773991
1164.000000	71.823032
1163.000000	71.919231
1162.000000	71.974127
1161.000000	72.043245
1160.000000	72.150528
1159.000000	72.162030
1158.000000	72.245159
1157.000000	72.287612
1156.000000	72.349618
1155.000000	72.378060
1154.000000	72.431911
1153.000000	72.483461
1152.000000	72.503537
1151.000000	72.528947
1150.000000	72.531874
1149.000000	72.554983
1148.000000	72.591894
1147.000000	72.615003
1146.000000	72.623996
1145.000000	72.637798
1144.000000	72.637484
1143.000000	72.669690
1142.000000	72.685270
1141.000000	72.723123
1140.000000	72.755224
1139.000000	72.786280
1138.000000	72.829779
1137.000000	72.917717
1136.000000	72.980456
1135.000000	73.010989
1134.000000	73.036607
1133.000000	73.015380
1132.000000	73.065676
1131.000000	73.120259
1130.000000	73.147341
1129.000000	73.163444
1128.000000	73.159679
1127.000000	73.161980
1126.000000	73.179338
1125.000000	73.184252
1124.000000	73.187912
1123.000000	73.175782
1122.000000	73.135630
1121.000000	73.107083
1120.000000	73.100496
1119.000000	73.062644
1118.000000	73.030019
1117.000000	72.995200
1116.000000	72.959229
1115.000000	72.930579
1114.000000	72.901719
1113.000000	72.869408
1112.000000	72.841490
1111.000000	72.801651
1110.000000	72.765785
1109.000000	72.732638
1108.000000	72.708170
1107.000000	72.680356
1106.000000	72.635079
1105.000000	72.603396
1104.000000	72.567531
1103.000000	72.534488
1102.000000	72.495904
1101.000000	72.453137
1100.000000	72.410370
1099.000000	72.376492
1098.000000	72.349932
1097.000000	72.313753
1096.000000	72.263562
1095.000000	72.201032
1094.000000	72.183779
1093.000000	72.121459
1092.000000	72.077123
1091.000000	72.030906
1090.000000	72.005706
1089.000000	71.966285
1088.000000	71.934184
1087.000000	71.892567
1086.000000	71.844990
1085.000000	71.813412
1084.000000	71.771272
1083.000000	71.742726
1082.000000	71.690444
1081.000000	71.648618
1080.000000	71.611498
1079.000000	71.586089
1078.000000	71.540917
1077.000000	71.487380
1076.000000	71.459879
1075.000000	71.414708
1074.000000	71.369431
1073.000000	71.344859
1072.000000	71.316731
1071.000000	71.280761
1070.000000	71.236216
1069.000000	71.199409
1068.000000	71.178496
1067.000000	71.150159
1066.000000	71.115340
1065.000000	71.084493
1064.000000	71.057829
1063.000000	71.021754
1062.000000	70.980033
1061.000000	70.961734
1060.000000	70.936221
1059.000000	70.910079
1058.000000	70.881952
1057.000000	70.852046
1056.000000	70.817854
1055.000000	70.788262
1054.000000	70.764317
1053.000000	70.738280
1052.000000	70.721759
1051.000000	70.707329
1050.000000	70.679410
1049.000000	70.650969
1048.000000	70.642394
1047.000000	70.622527
1046.000000	70.599418
1045.000000	70.585093
1044.000000	70.568990
1043.000000	70.539398
1042.000000	70.525073
1041.000000	70.511480
1040.000000	70.488371
1039.000000	70.465785
1038.000000	70.443513
1037.000000	70.425737
1036.000000	70.400014
1035.000000	70.383388
1034.000000	70.371572
1033.000000	70.350032
1032.000000	70.323159
1031.000000	70.310507
1030.000000	70.303083
1029.000000	70.276732
1028.000000	70.248605
1027.000000	70.229469
1026.000000	70.204374
1025.000000	70.190153
1024.000000	70.194859
1023.000000	70.176769
1022.000000	70.158784
1021.000000	70.146550
1020.000000	70.129087
1019.000000	70.136093
1018.000000	70.149478
1017.000000	70.136930
1016.000000	70.121350
1015.000000	70.128878
1014.000000	70.139648
1013.000000	70.136616
1012.000000	70.141949
1011.000000	70.151883
1010.000000	70.164953
1009.000000	70.177919
1008.000000	70.201551
1007.000000	70.217131
1006.000000	70.234070
1005.000000	70.263767
1004.000000	70.291372
1003.000000	70.316572
1002.000000	70.349509
1001.000000	70.399177
1000.000000	70.430547
999.000000	70.473314
998.000000	70.522773
997.000000	70.568781
996.000000	70.609038
995.000000	70.648668
994.000000	70.691749
993.000000	70.761493
992.000000	70.815239
991.000000	70.870659
990.000000	70.946991
989.000000	71.009729
988.000000	71.090662
987.000000	71.154551
986.000000	71.240503
985.000000	71.313071
984.000000	71.397664
983.000000	71.470336
982.000000	71.545727
981.000000	71.632202
980.000000	71.726728
979.000000	71.806406
978.000000	71.905847
977.000000	71.976742
976.000000	72.045336
975.000000	72.122609
974.000000	72.197791
973.000000	72.273286
972.000000	72.353487
971.000000	72.448223
970.000000	72.529156
969.000000	72.595450
968.000000	72.666553
967.000000	72.773627
966.000000	72.864494
965.000000	72.957975
964.000000	73.044972
963.000000	73.117226
962.000000	73.226810
961.000000	73.283484
960.000000	73.370063
959.000000	73.482993
958.000000	73.551169
957.000000	73.630429
956.000000	73.714080
955.000000	73.799823
954.000000	73.872182
953.000000	73.970159
952.000000	74.062594
951.000000	74.134220
950.000000	74.244117
949.000000	74.351714
948.000000	74.450737
947.000000	74.565340
946.000000	74.688412
945.000000	74.763907
944.000000	74.881020
943.000000	75.004615
942.000000	75.107193
941.000000	75.234552
940.000000	75.345600
939.000000	75.462294
938.000000	75.584843
937.000000	75.729037
936.000000	75.846254
935.000000	75.974764
934.000000	76.084975
933.000000	76.196127
932.000000	76.308952
931.000000	76.433175
930.000000	76.555829
929.000000	76.655688
928.000000	76.753978
927.000000	76.851014
926.000000	76.943658
925.000000	77.067463
924.000000	77.158120
923.000000	77.281088
922.000000	77.383456
921.000000	77.493667
920.000000	77.583593
919.000000	77.684393
918.000000	77.775573
917.000000	77.872818
916.000000	77.970168
915.000000	78.036880
914.000000	78.129942
913.000000	78.208888
912.000000	78.280724
911.000000	78.366676
910.000000	78.426069
909.000000	78.474587
908.000000	78.548305
907.000000	78.606756
906.000000	78.666253
905.000000	78.717595
904.000000	78.762975
903.000000	78.820381
902.000000	78.879147
901.000000	78.936866
900.000000	78.959243
899.000000	79.016126
898.000000	79.041222
897.000000	79.111384
896.000000	79.146936
895.000000	79.186357
894.000000	79.212184
893.000000	79.240835
892.000000	79.288203
891.000000	79.297614
890.000000	79.325009
889.000000	79.349791
888.000000	79.370390
887.000000	79.366208
886.000000	79.381056
885.000000	79.394231
884.000000	79.361921
883.000000	79.364430
882.000000	79.359098
881.000000	79.322291
880.000000	79.290190
879.000000	79.237280
878.000000	79.198277
877.000000	79.149446
876.000000	79.110025
875.000000	79.026269
874.000000	78.935089
873.000000	78.843699
872.000000	78.757538
871.000000	78.617108
870.000000	78.495709
869.000000	78.267340
868.000000	78.031965
867.000000	77.752778
866.000000	77.513953
865.000000	77.356061
864.000000	77.327305
863.000000	77.330129
862.000000	77.363903
861.000000	77.356793
860.000000	77.318313
859.000000	77.298446
858.000000	77.922800
857.000000	78.012800
856.000000	78.033100
855.000000	77.722500
854.000000	77.609900
853.000000	77.424600
852.000000	77.790100
851.000000	77.105800
850.000000	77.307900
849.000000	77.180400
848.000000	77.271900
847.000000	77.516300
846.000000	77.168200
845.000000	76.829800
844.000000	77.165000
843.000000	76.980700
842.000000	76.602800
841.000000	76.805200
840.000000	76.622600
839.000000	76.383900
838.000000	76.359600
837.000000	76.299300
836.000000	76.161200
835.000000	75.945900
834.000000	76.014700
833.000000	75.806700
832.000000	75.814400
831.000000	75.713300
830.000000	75.434500
829.000000	75.274200
828.000000	75.254400
827.000000	75.152900
826.000000	75.214300
825.000000	74.965600
824.000000	74.701900
823.000000	74.695600
822.000000	74.497100
821.000000	74.315200
820.000000	74.208300
819.000000	74.064300
818.000000	74.020400
817.000000	73.965300
816.000000	73.843700
815.000000	73.659800
814.000000	73.615100
813.000000	73.398900
812.000000	73.478900
811.000000	73.263700
810.000000	73.200400
809.000000	73.101500
808.000000	72.904100
807.000000	72.719800
806.000000	72.713900
805.000000	72.430300
804.000000	72.306200
803.000000	72.156000
802.000000	72.099600
801.000000	71.941000
800.000000	71.772200
799.000000	71.700900
798.000000	71.657300
797.000000	71.573800
796.000000	71.354600
795.000000	71.262300
794.000000	71.261300
793.000000	71.085300
792.000000	71.043200
791.000000	70.874100
790.000000	70.714200
789.000000	70.720100
788.000000	70.655300
787.000000	70.522500
786.000000	70.362600
785.000000	70.113300
784.000000	69.973600
783.000000	69.907100
782.000000	69.783000
781.000000	69.622600
780.000000	69.407300
779.000000	69.320900
778.000000	69.212800
777.000000	69.047600
776.000000	68.837500
775.000000	68.695500
774.000000	68.574600
773.000000	68.422900
772.000000	68.226300
771.000000	68.097000
770.000000	67.940000
769.000000	67.765800
768.000000	67.594600
767.000000	67.445900
766.000000	67.341100
765.000000	67.272500
764.000000	67.197200
763.000000	67.023100
762.000000	66.825000
761.000000	66.716900
760.000000	66.577300
759.000000	66.428800
758.000000	66.299700
757.000000	66.186800
756.000000	65.993800
755.000000	65.837500
754.000000	65.708000
753.000000	65.575900
752.000000	65.509500
751.000000	65.410000
750.000000	65.246600
749.000000	65.161100
748.000000	65.039500
747.000000	64.836500
746.000000	64.679200
745.000000	64.529800
744.000000	64.311200
743.000000	64.105700
742.000000	63.964900
741.000000	63.810400
740.000000	63.615500
739.000000	63.381700
738.000000	63.219600
737.000000	63.109300
736.000000	62.900600
735.000000	62.724600
734.000000	62.517000
733.000000	62.283200
732.000000	62.115000
731.000000	61.931600
730.000000	61.705100
729.000000	61.500400
728.000000	61.339100
727.000000	61.145000
726.000000	60.985300
725.000000	60.757500
724.000000	60.588300
723.000000	60.382100
722.000000	60.130800
721.000000	59.893100
720.000000	59.683800
719.000000	59.504000
718.000000	59.283600
717.000000	59.041100
716.000000	58.790700
715.000000	58.538400
714.000000	58.320600
713.000000	58.023800
712.000000	57.785100
711.000000	57.568300
710.000000	57.315500
709.000000	57.110200
708.000000	56.905500
707.000000	56.714800
706.000000	56.459400
705.000000	56.196300
704.000000	55.966900
703.000000	55.747800
702.000000	55.489000
701.000000	55.233300
700.000000	55.087400
699.000000	54.848500
698.000000	54.587700
697.000000	54.360000
696.000000	54.127400
695.000000	53.878900
694.000000	53.612200
693.000000	53.339200
692.000000	53.037800
691.000000	52.707100
690.000000	52.380900
689.000000	52.079900
688.000000	51.744300
687.000000	51.406500
686.000000	51.133200
685.000000	50.763100
684.000000	50.412700
683.000000	50.079200
682.000000	49.790400
681.000000	49.544900
680.000000	49.250400
679.000000	48.971800
678.000000	48.701800
677.000000	48.498600
676.000000	48.292500
675.000000	48.106600
674.000000	47.964800
673.000000	47.806800
672.000000	47.638400
671.000000	47.562800
670.000000	47.449600
669.000000	47.328200
668.000000	47.255600
667.000000	47.186000
666.000000	47.116900
665.000000	47.044900
664.000000	46.945600
663.000000	46.836300
662.000000	46.733100
661.000000	46.644000
660.000000	46.539500
659.000000	46.393000
658.000000	46.287300
657.000000	46.185900
656.000000	46.105500
655.000000	45.989300
654.000000	45.886900
653.000000	45.796300
652.000000	45.699200
651.000000	45.575200
650.000000	45.517000
649.000000	45.434400
648.000000	45.338600
647.000000	45.258100
646.000000	45.161200
645.000000	45.078600
644.000000	44.986700
643.000000	44.924300
642.000000	44.859800
641.000000	44.785800
640.000000	44.672300
639.000000	44.587400
638.000000	44.460200
637.000000	44.358900
636.000000	44.282900
635.000000	44.137800
634.000000	43.993100
633.000000	43.841700
632.000000	43.713900
631.000000	43.561900
630.000000	43.436200
629.000000	43.324100
628.000000	43.174400
627.000000	43.069700
626.000000	42.974500
625.000000	42.866600
624.000000	42.783300
623.000000	42.712300
622.000000	42.623500
621.000000	42.615100
620.000000	42.627800
619.000000	42.676600
618.000000	42.694400
617.000000	42.848000
616.000000	43.009000
615.000000	43.247400
614.000000	43.572900
613.000000	43.951100
612.000000	44.416700
611.000000	44.964500
610.000000	45.544300
609.000000	46.226400
608.000000	46.936800
607.000000	47.678500
606.000000	48.438700
605.000000	49.262500
604.000000	50.029900
603.000000	50.833100
602.000000	51.642300
601.000000	52.400000
600.000000	53.162100
599.000000	53.925200
598.000000	54.633500
597.000000	55.284100
596.000000	55.936800
595.000000	56.591600
594.000000	57.179200
593.000000	57.851600
592.000000	58.369300
591.000000	58.907800
590.000000	59.336000
589.000000	59.768000
588.000000	60.140300
587.000000	60.439900
586.000000	60.707300
585.000000	60.949600
584.000000	61.134500
583.000000	61.286400
582.000000	61.422800
581.000000	61.556100
580.000000	61.631700
579.000000	61.747900
578.000000	61.895100
577.000000	61.988100
576.000000	62.119200
575.000000	62.177300
574.000000	62.264800
573.000000	62.403000
572.000000	62.517400
571.000000	62.610700
570.000000	62.708900
569.000000	62.798000
568.000000	62.896700
567.000000	62.984000
566.000000	63.067700
565.000000	63.137900
564.000000	63.169900
563.000000	63.214200
562.000000	63.212000
561.000000	63.153100
560.000000	63.106200
559.000000	62.905100
558.000000	62.819100
557.000000	62.684900
556.000000	62.533100
555.000000	62.392500
554.000000	62.250200
553.000000	62.039600
552.000000	61.858800
551.000000	61.649500
550.000000	61.404700
549.000000	61.120500
548.000000	60.864100
547.000000	60.559300
546.000000	60.204300
545.000000	59.829600
544.000000	59.405900
543.000000	58.898000
542.000000	58.399400
541.000000	57.878600
540.000000	57.320600
539.000000	56.709300
538.000000	56.091200
537.000000	55.431900
536.000000	54.725400
535.000000	54.026900
534.000000	53.276800
533.000000	52.490700
532.000000	51.674800
531.000000	50.819200
530.000000	49.950600
529.000000	49.042500
528.000000	48.102900
527.000000	47.137000
526.000000	46.122600
525.000000	45.080900
524.000000	44.066500
523.000000	43.010000
522.000000	41.937700
521.000000	40.857900
520.000000	39.803000
519.000000	38.758900
518.000000	37.719600
517.000000	36.720700
516.000000	35.732300
515.000000	34.788300
514.000000	33.837900
513.000000	32.933500
512.000000	32.062700
511.000000	31.229900
510.000000	30.406000
509.000000	29.617900
508.000000	28.898600
507.000000	28.161500
506.000000	27.468700
505.000000	26.809400
504.000000	26.166400
503.000000	25.542300
502.000000	24.954500
501.000000	24.346700
500.000000	23.760000
499.000000	23.193500
498.000000	22.635100
497.000000	22.140500
496.000000	21.655100
495.000000	21.187700
494.000000	20.757600
493.000000	20.344300
492.000000	19.964000
491.000000	19.634100
490.000000	19.336500
489.000000	19.069800
488.000000	18.860300
487.000000	18.670900
486.000000	18.511900
485.000000	18.388700
484.000000	18.301800
483.000000	18.222300
482.000000	18.164400
481.000000	18.112800
480.000000	18.081900
479.000000	18.056100
478.000000	18.010700
477.000000	17.971000
476.000000	17.929400
475.000000	17.879800
474.000000	17.824900
473.000000	17.762300
472.000000	17.701200
471.000000	17.630500
470.000000	17.564100
469.000000	17.479200
468.000000	17.379900
467.000000	17.287000
466.000000	17.200200
465.000000	17.098700
464.000000	17.005200
463.000000	16.898300
462.000000	16.776100
461.000000	16.663700
460.000000	16.547700
459.000000	16.415500
458.000000	16.272200
457.000000	16.133300
456.000000	15.999700
455.000000	15.859900
454.000000	15.701600
453.000000	15.540600
452.000000	15.385200
451.000000	15.188500
450.000000	15.019600
449.000000	14.859200
448.000000	14.662000
447.000000	14.489100
446.000000	14.313900
445.000000	14.128400
444.000000	13.933800
443.000000	13.717500
442.000000	13.516000
441.000000	13.306100
440.000000	13.093500
439.000000	12.896000
438.000000	12.687700
437.000000	12.490900
436.000000	12.296400
435.000000	12.092100
434.000000	11.900400
433.000000	11.696900
432.000000	11.498400
431.000000	11.300100
430.000000	11.114400
429.000000	10.928300
428.000000	10.728000
427.000000	10.549600
426.000000	10.357800
425.000000	10.168800
424.000000	9.988900
423.000000	9.811200
422.000000	9.630800
421.000000	9.453000
420.000000	9.296700
419.000000	9.142000
418.000000	8.980500
417.000000	8.835200
416.000000	8.698100
415.000000	8.558900
414.000000	8.426200
413.000000	8.305500
412.000000	8.195000
411.000000	8.084500
410.000000	7.977600
409.000000	7.890500
408.000000	7.797000
407.000000	7.718400
406.000000	7.643400
405.000000	7.558200
404.000000	7.503100
403.000000	7.444500
402.000000	7.383600
401.000000	7.337200
400.000000	7.297800
399.000000	7.262700
398.000000	7.220700
397.000000	7.201300
396.000000	7.179600
395.000000	7.141900
394.000000	7.123600
393.000000	7.110600
392.000000	7.090600
391.000000	7.067300
390.000000	7.025200
389.000000	7.040700
388.000000	7.040600
387.000000	7.014900
386.000000	7.014000
385.000000	7.004500
384.000000	6.981500
383.000000	6.962600
382.000000	6.961300
381.000000	6.969700
380.000000	6.946800
379.000000	6.945500
378.000000	6.940900
377.000000	6.938900
376.000000	7.189500
375.000000	6.807500
374.000000	6.582100
373.000000	6.521300
372.000000	6.623300
371.000000	6.683000
370.000000	6.900600
369.000000	6.973700
368.000000	7.037700
367.000000	6.877800
366.000000	6.862000
365.000000	6.835000
364.000000	6.900900
363.000000	6.965000
362.000000	7.150100
361.000000	7.073800
360.000000	6.996500
359.000000	7.058900
358.000000	7.036100
357.000000	7.047800
356.000000	7.100700
355.000000	7.077600
354.000000	6.964200
353.000000	7.058300
352.000000	6.966600
351.000000	6.996200
350.000000	6.946400
349.000000	6.916400
348.000000	7.123000
347.000000	6.923300
346.000000	7.023700
345.000000	6.969000
344.000000	7.000000
343.000000	7.080200
342.000000	7.211200
341.000000	7.101800
340.000000	7.140400
339.000000	7.318800
338.000000	6.977900
337.000000	6.802300
336.000000	6.962600
335.000000	7.238000
334.000000	7.118300
333.000000	7.119500
332.000000	7.065100
331.000000	7.447800
330.000000	7.629600
329.000000	7.206400
328.000000	7.344100
327.000000	7.417900
326.000000	7.722000
325.000000	7.682300
324.000000	7.413700
323.000000	8.068100
322.000000	7.641800
321.000000	7.235200
320.000000	7.807600
319.000000	7.883800
318.000000	7.994500
317.000000	7.933800
316.000000	7.018800
315.000000	6.985600
314.000000	7.012500
313.000000	6.965000
312.000000	6.979700
311.000000	6.974000
310.000000	7.019400
309.000000	7.064700
308.000000	6.988100
307.000000	6.987400
306.000000	6.981700
305.000000	7.067600
304.000000	7.113000
303.000000	7.041500
302.000000	6.979000
301.000000	7.006200
300.000000	7.051200
299.000000	6.964100
298.000000	6.972800
297.000000	7.030900
296.000000	6.976800
295.000000	7.049000
294.000000	7.061500
293.000000	7.090800
292.000000	7.046000
291.000000	7.092700
290.000000	7.140800
289.000000	7.039300
288.000000	7.130800
287.000000	7.112400
286.000000	7.119900
285.000000	7.027800
284.000000	7.093000
283.000000	7.096500
282.000000	7.111300
281.000000	7.163700
280.000000	7.177300
279.000000	7.176300
278.000000	7.146900
277.000000	7.176200
276.000000	7.099300
275.000000	7.247400
274.000000	7.188200
273.000000	7.228300
272.000000	7.268900
271.000000	7.261300
270.000000	7.256200
269.000000	7.315600
268.000000	7.309700
267.000000	7.356400
266.000000	7.431100
265.000000	7.486500
264.000000	7.505000
263.000000	7.488800
262.000000	7.568600
261.000000	7.591800
260.000000	7.609900
259.000000	7.718300
258.000000	7.719000
257.000000	7.723400
256.000000	7.713000
255.000000	7.717200
254.000000	7.815900
253.000000	7.903700
252.000000	7.879900
251.000000	7.871800
250.000000	7.955900
