PE UV       SUBTECH     SPECTRUM    ASCII       PEDS        4.00        
   -1
INBUCR0146-3.Sample.ASC
24/04/29
15:55:43.00
24/04/29
15:55:43.00
Vinicio Soto Monge
Chrysina sp.
250,000000
1
Lambda 1050
1050L1511233
PerkinElmer UV WinLab 6.3.2.0749 / 2.02.05 Lambda 900 UV/VIS/NIR, Aug  7 2015 09:38:08

0
0
3350/servo 860,8/2
0
0
UV/VIS
1
1
1
DoubleDePol,CommonBeamDepol,RBeamAtt,SBeamAtt,60mm sphere, WB InGaAs Detector
0
0
0
0
Program
Program
3350/servo 860,8/2
3350/0,2 860,8/0,2
3350/0,2 860,8/0,2
0
15.00
 
 
 
0
 
860,8
319,2
860,8
Front
100
on
S:100 R:100
0
0
0
0
 
0
 
 
 
0
 
 
0
0
0
0
0
 
 
 
 
0
0


0
0
#HDR
-1
-1
#GR
nm
%R
1.0
0.0
2500,000000
-1,000000
2251
8
99,256500
5,999300
#DATA
2500.000000	15.132597
2499.000000	15.061783
2498.000000	15.148002
2497.000000	15.121959
2496.000000	15.083615
2495.000000	15.000388
2494.000000	15.041946
2493.000000	15.002604
2492.000000	14.890897
2491.000000	15.013022
2490.000000	14.964260
2489.000000	15.017676
2488.000000	14.925473
2487.000000	14.899652
2486.000000	14.978667
2485.000000	14.934893
2484.000000	14.913394
2483.000000	14.960049
2482.000000	14.939880
2481.000000	14.975121
2480.000000	14.935558
2479.000000	15.014019
2478.000000	15.001940
2477.000000	14.952181
2476.000000	15.077741
2475.000000	15.108993
2474.000000	15.102897
2473.000000	15.182356
2472.000000	15.193881
2471.000000	15.269240
2470.000000	15.340387
2469.000000	15.356012
2468.000000	15.387042
2467.000000	15.416188
2466.000000	15.487446
2465.000000	15.516259
2464.000000	15.602921
2463.000000	15.669192
2462.000000	15.752862
2461.000000	15.773918
2460.000000	15.905019
2459.000000	15.972398
2458.000000	16.050527
2457.000000	16.130872
2456.000000	16.232384
2455.000000	16.334340
2454.000000	16.407038
2453.000000	16.506999
2452.000000	16.589560
2451.000000	16.700492
2450.000000	16.786156
2449.000000	16.885674
2448.000000	17.000263
2447.000000	17.119727
2446.000000	17.221794
2445.000000	17.349792
2444.000000	17.434681
2443.000000	17.572874
2442.000000	17.683917
2441.000000	17.796289
2440.000000	17.924509
2439.000000	18.032892
2438.000000	18.139723
2437.000000	18.227161
2436.000000	18.325570
2435.000000	18.462101
2434.000000	18.558294
2433.000000	18.680419
2432.000000	18.800659
2431.000000	18.891976
2430.000000	18.984844
2429.000000	19.076493
2428.000000	19.159165
2427.000000	19.260566
2426.000000	19.345012
2425.000000	19.436771
2424.000000	19.523987
2423.000000	19.613531
2422.000000	19.700525
2421.000000	19.765134
2420.000000	19.834064
2419.000000	19.890361
2418.000000	19.949983
2417.000000	20.005061
2416.000000	20.073992
2415.000000	20.149682
2414.000000	20.177166
2413.000000	20.218835
2412.000000	20.261722
2411.000000	20.325998
2410.000000	20.360464
2409.000000	20.386507
2408.000000	20.411996
2407.000000	20.446461
2406.000000	20.478266
2405.000000	20.514283
2404.000000	20.534563
2403.000000	20.566702
2402.000000	20.588422
2401.000000	20.607151
2400.000000	20.615684
2399.000000	20.620339
2398.000000	20.613800
2397.000000	20.620561
2396.000000	20.623774
2395.000000	20.627210
2394.000000	20.643057
2393.000000	20.663559
2392.000000	20.661010
2391.000000	20.649706
2390.000000	20.647490
2389.000000	20.633748
2388.000000	20.637959
2387.000000	20.629869
2386.000000	20.617568
2385.000000	20.616903
2384.000000	20.595072
2383.000000	20.563266
2382.000000	20.540437
2381.000000	20.525809
2380.000000	20.499655
2379.000000	20.478931
2378.000000	20.460978
2377.000000	20.422856
2376.000000	20.382850
2375.000000	20.372432
2374.000000	20.361683
2373.000000	20.317465
2372.000000	20.285660
2371.000000	20.271364
2370.000000	20.263495
2369.000000	20.256514
2368.000000	20.225595
2367.000000	20.186142
2366.000000	20.170184
2365.000000	20.155223
2364.000000	20.141592
2363.000000	20.120315
2362.000000	20.094272
2361.000000	20.071886
2360.000000	20.052160
2359.000000	20.035426
2358.000000	19.996528
2357.000000	19.957297
2356.000000	19.921059
2355.000000	19.877617
2354.000000	19.835727
2353.000000	19.814560
2352.000000	19.785082
2351.000000	19.722246
2350.000000	19.670825
2349.000000	19.626054
2348.000000	19.579952
2347.000000	19.560448
2346.000000	19.534959
2345.000000	19.478883
2344.000000	19.425800
2343.000000	19.402195
2342.000000	19.375044
2341.000000	19.359640
2340.000000	19.334040
2339.000000	19.304119
2338.000000	19.280071
2337.000000	19.271205
2336.000000	19.263004
2335.000000	19.251811
2334.000000	19.231974
2333.000000	19.231088
2332.000000	19.245051
2331.000000	19.236407
2330.000000	19.249152
2329.000000	19.263669
2328.000000	19.270983
2327.000000	19.295364
2326.000000	19.292815
2325.000000	19.307776
2324.000000	19.296694
2323.000000	19.294699
2322.000000	19.315866
2321.000000	19.294810
2320.000000	19.287717
2319.000000	19.288604
2318.000000	19.253363
2317.000000	19.222111
2316.000000	19.162822
2315.000000	19.118272
2314.000000	19.074609
2313.000000	19.044244
2312.000000	18.975646
2311.000000	18.914251
2310.000000	18.841774
2309.000000	18.799108
2308.000000	18.780268
2307.000000	18.726409
2306.000000	18.671553
2305.000000	18.622238
2304.000000	18.592870
2303.000000	18.567049
2302.000000	18.557961
2301.000000	18.531364
2300.000000	18.499226
2299.000000	18.515739
2298.000000	18.509533
2297.000000	18.509422
2296.000000	18.518842
2295.000000	18.510863
2294.000000	18.560289
2293.000000	18.558737
2292.000000	18.561729
2291.000000	18.603841
2290.000000	18.619135
2289.000000	18.644513
2288.000000	18.688952
2287.000000	18.706683
2286.000000	18.716989
2285.000000	18.753893
2284.000000	18.806200
2283.000000	18.838338
2282.000000	18.867263
2281.000000	18.892973
2280.000000	18.936415
2279.000000	18.958357
2278.000000	19.018755
2277.000000	19.053442
2276.000000	19.091564
2275.000000	19.094113
2274.000000	19.119380
2273.000000	19.143650
2272.000000	19.197287
2271.000000	19.197177
2270.000000	19.252587
2269.000000	19.293369
2268.000000	19.373049
2267.000000	19.401863
2266.000000	19.473010
2265.000000	19.542162
2264.000000	19.647553
2263.000000	19.746959
2262.000000	19.845701
2261.000000	19.990544
2260.000000	20.115328
2259.000000	20.275243
2258.000000	20.420640
2257.000000	20.581995
2256.000000	20.766955
2255.000000	20.931081
2254.000000	21.128010
2253.000000	21.309867
2252.000000	21.485961
2251.000000	21.662388
2250.000000	21.843248
2249.000000	21.993299
2248.000000	22.209400
2247.000000	22.341942
2246.000000	22.500859
2245.000000	22.620324
2244.000000	22.760180
2243.000000	22.893941
2242.000000	22.991907
2241.000000	23.075022
2240.000000	23.181854
2239.000000	23.237043
2238.000000	23.318053
2237.000000	23.356618
2236.000000	23.398841
2235.000000	23.409147
2234.000000	23.423997
2233.000000	23.438626
2232.000000	23.439180
2231.000000	23.405712
2230.000000	23.403828
2229.000000	23.380777
2228.000000	23.302205
2227.000000	23.292121
2226.000000	23.236488
2225.000000	23.189057
2224.000000	23.087324
2223.000000	23.050531
2222.000000	22.983373
2221.000000	22.892833
2220.000000	22.804841
2219.000000	22.728929
2218.000000	22.639939
2217.000000	22.541198
2216.000000	22.427496
2215.000000	22.367098
2214.000000	22.265254
2213.000000	22.214609
2212.000000	22.119746
2211.000000	22.049486
2210.000000	21.984323
2209.000000	21.912954
2208.000000	21.841807
2207.000000	21.797590
2206.000000	21.725334
2205.000000	21.684663
2204.000000	21.611410
2203.000000	21.563979
2202.000000	21.502584
2201.000000	21.461913
2200.000000	21.433100
2199.000000	21.371372
2198.000000	21.321725
2197.000000	21.317957
2196.000000	21.274958
2195.000000	21.233068
2194.000000	21.216112
2193.000000	21.172892
2192.000000	21.127899
2191.000000	21.133772
2190.000000	21.081243
2189.000000	21.068942
2188.000000	21.065617
2187.000000	21.037026
2186.000000	21.010096
2185.000000	21.008212
2184.000000	20.975187
2183.000000	20.960005
2182.000000	20.929862
2181.000000	20.898056
2180.000000	20.890409
2179.000000	20.887085
2178.000000	20.884647
2177.000000	20.873676
2176.000000	20.856277
2175.000000	20.871237
2174.000000	20.887417
2173.000000	20.903154
2172.000000	20.926537
2171.000000	20.944379
2170.000000	20.976739
2169.000000	21.001009
2168.000000	21.033479
2167.000000	21.071602
2166.000000	21.135767
2165.000000	21.211679
2164.000000	21.243042
2163.000000	21.310753
2162.000000	21.387885
2161.000000	21.461802
2160.000000	21.524748
2159.000000	21.604540
2158.000000	21.700732
2157.000000	21.809447
2156.000000	21.946865
2155.000000	22.060235
2154.000000	22.190782
2153.000000	22.289191
2152.000000	22.400788
2151.000000	22.544190
2150.000000	22.687260
2149.000000	22.811269
2148.000000	22.937826
2147.000000	23.068927
2146.000000	23.200028
2145.000000	23.337557
2144.000000	23.462120
2143.000000	23.584688
2142.000000	23.703931
2141.000000	23.845006
2140.000000	23.970899
2139.000000	24.093910
2138.000000	24.205063
2137.000000	24.301921
2136.000000	24.431914
2135.000000	24.524560
2134.000000	24.618315
2133.000000	24.726919
2132.000000	24.807264
2131.000000	24.908333
2130.000000	25.002309
2129.000000	25.061266
2128.000000	25.130861
2127.000000	25.210985
2126.000000	25.265841
2125.000000	25.316265
2124.000000	25.374889
2123.000000	25.422431
2122.000000	25.476512
2121.000000	25.527157
2120.000000	25.557744
2119.000000	25.586779
2118.000000	25.608056
2117.000000	25.627007
2116.000000	25.652717
2115.000000	25.680976
2114.000000	25.689177
2113.000000	25.695605
2112.000000	25.698819
2111.000000	25.696935
2110.000000	25.690840
2109.000000	25.687737
2108.000000	25.700481
2107.000000	25.702254
2106.000000	25.682528
2105.000000	25.673441
2104.000000	25.673330
2103.000000	25.660475
2102.000000	25.646511
2101.000000	25.653715
2100.000000	25.656374
2099.000000	25.651498
2098.000000	25.646290
2097.000000	25.648063
2096.000000	25.657926
2095.000000	25.671557
2094.000000	25.687072
2093.000000	25.708128
2092.000000	25.736054
2091.000000	25.748466
2090.000000	25.766752
2089.000000	25.781934
2088.000000	25.797228
2087.000000	25.807756
2086.000000	25.811524
2085.000000	25.798336
2084.000000	25.773401
2083.000000	25.763206
2082.000000	25.748134
2081.000000	25.706909
2080.000000	25.659256
2079.000000	25.605175
2078.000000	25.538904
2077.000000	25.459335
2076.000000	25.373892
2075.000000	25.276591
2074.000000	25.166213
2073.000000	25.065809
2072.000000	24.947674
2071.000000	24.800837
2070.000000	24.672728
2069.000000	24.549273
2068.000000	24.410525
2067.000000	24.262358
2066.000000	24.109979
2065.000000	23.959041
2064.000000	23.801786
2063.000000	23.655170
2062.000000	23.504343
2061.000000	23.357837
2060.000000	23.237597
2059.000000	23.118243
2058.000000	23.016066
2057.000000	22.921979
2056.000000	22.870779
2055.000000	22.810936
2054.000000	22.792872
2053.000000	22.814482
2052.000000	22.828667
2051.000000	22.869450
2050.000000	22.962318
2049.000000	23.071476
2048.000000	23.190830
2047.000000	23.349969
2046.000000	23.484506
2045.000000	23.668247
2044.000000	23.856199
2043.000000	24.039940
2042.000000	24.250832
2041.000000	24.436457
2040.000000	24.638816
2039.000000	24.837408
2038.000000	25.013945
2037.000000	25.225502
2036.000000	25.396277
2035.000000	25.571818
2034.000000	25.739047
2033.000000	25.893199
2032.000000	26.047572
2031.000000	26.191528
2030.000000	26.342356
2029.000000	26.454728
2028.000000	26.600347
2027.000000	26.707511
2026.000000	26.832628
2025.000000	26.938129
2024.000000	27.022131
2023.000000	27.126081
2022.000000	27.218395
2021.000000	27.313369
2020.000000	27.371328
2019.000000	27.445911
2018.000000	27.489685
2017.000000	27.558061
2016.000000	27.610480
2015.000000	27.642728
2014.000000	27.697474
2013.000000	27.711659
2012.000000	27.732826
2011.000000	27.734045
2010.000000	27.757650
2009.000000	27.759866
2008.000000	27.748452
2007.000000	27.730388
2006.000000	27.713765
2005.000000	27.676972
2004.000000	27.635082
2003.000000	27.573687
2002.000000	27.545871
2001.000000	27.480487
2000.000000	27.408231
1999.000000	27.333871
1998.000000	27.267932
1997.000000	27.182378
1996.000000	27.094941
1995.000000	26.996975
1994.000000	26.918292
1993.000000	26.818442
1992.000000	26.714603
1991.000000	26.612537
1990.000000	26.495954
1989.000000	26.359090
1988.000000	26.255915
1987.000000	26.110075
1986.000000	26.006014
1985.000000	25.879568
1984.000000	25.761654
1983.000000	25.644406
1982.000000	25.522946
1981.000000	25.389407
1980.000000	25.286232
1979.000000	25.155242
1978.000000	25.028795
1977.000000	24.895589
1976.000000	24.790752
1975.000000	24.676717
1974.000000	24.561907
1973.000000	24.454965
1972.000000	24.348133
1971.000000	24.207612
1970.000000	24.097678
1969.000000	24.004588
1968.000000	23.894211
1967.000000	23.776630
1966.000000	23.661487
1965.000000	23.542576
1964.000000	23.443945
1963.000000	23.324259
1962.000000	23.222857
1961.000000	23.118243
1960.000000	22.963869
1959.000000	22.871334
1958.000000	22.751647
1957.000000	22.619659
1956.000000	22.488226
1955.000000	22.402229
1954.000000	22.280990
1953.000000	22.173051
1952.000000	22.045164
1951.000000	21.920601
1950.000000	21.836266
1949.000000	21.740960
1948.000000	21.649533
1947.000000	21.534057
1946.000000	21.446731
1945.000000	21.376470
1944.000000	21.299228
1943.000000	21.222872
1942.000000	21.161145
1941.000000	21.118590
1940.000000	21.061739
1939.000000	21.061185
1938.000000	21.027162
1937.000000	20.986380
1936.000000	20.963773
1935.000000	20.962554
1934.000000	20.993251
1933.000000	21.003225
1932.000000	21.030044
1931.000000	21.076921
1930.000000	21.169457
1929.000000	21.248029
1928.000000	21.322168
1927.000000	21.432324
1926.000000	21.546913
1925.000000	21.660504
1924.000000	21.793932
1923.000000	21.957837
1922.000000	22.133155
1921.000000	22.329198
1920.000000	22.562254
1919.000000	22.755304
1918.000000	22.961431
1917.000000	23.215432
1916.000000	23.469434
1915.000000	23.741389
1914.000000	24.104992
1913.000000	24.493974
1912.000000	24.845608
1911.000000	25.210874
1910.000000	25.602515
1909.000000	25.986953
1908.000000	26.415387
1907.000000	26.913859
1906.000000	27.529248
1905.000000	28.148294
1904.000000	28.768447
1903.000000	29.370205
1902.000000	30.011193
1901.000000	30.686536
1900.000000	31.423828
1899.000000	32.181954
1898.000000	32.907831
1897.000000	33.604008
1896.000000	34.246769
1895.000000	34.904602
1894.000000	35.585597
1893.000000	36.316128
1892.000000	37.121131
1891.000000	37.915496
1890.000000	38.606021
1889.000000	39.282361
1888.000000	39.937313
1887.000000	40.525661
1886.000000	41.100933
1885.000000	41.724633
1884.000000	42.299572
1883.000000	42.788514
1882.000000	43.270031
1881.000000	43.717415
1880.000000	44.088332
1879.000000	44.500697
1878.000000	44.904972
1877.000000	45.253171
1876.000000	45.604473
1875.000000	45.946688
1874.000000	46.267293
1873.000000	46.572937
1872.000000	46.859188
1871.000000	47.090139
1870.000000	47.289395
1869.000000	47.482777
1868.000000	47.596590
1867.000000	47.708519
1866.000000	47.782769
1865.000000	47.858571
1864.000000	47.949001
1863.000000	48.054281
1862.000000	48.171973
1861.000000	48.300857
1860.000000	48.416000
1859.000000	48.512525
1858.000000	48.579794
1857.000000	48.632434
1856.000000	48.675100
1855.000000	48.730732
1854.000000	48.742035
1853.000000	48.743033
1852.000000	48.782707
1851.000000	48.815731
1850.000000	48.843658
1849.000000	48.879010
1848.000000	48.910594
1847.000000	48.867706
1846.000000	48.796448
1845.000000	48.732394
1844.000000	48.699480
1843.000000	48.704800
1842.000000	48.721755
1841.000000	48.702805
1840.000000	48.654376
1839.000000	48.610713
1838.000000	48.571260
1837.000000	48.529481
1836.000000	48.461880
1835.000000	48.370342
1834.000000	48.302409
1833.000000	48.253204
1832.000000	48.207103
1831.000000	48.180062
1830.000000	48.163993
1829.000000	48.134737
1828.000000	48.069131
1827.000000	48.030787
1826.000000	48.005630
1825.000000	47.978036
1824.000000	47.982469
1823.000000	48.009177
1822.000000	48.052397
1821.000000	48.091960
1820.000000	48.092846
1819.000000	48.036328
1818.000000	47.994216
1817.000000	48.001087
1816.000000	48.006184
1815.000000	47.990891
1814.000000	47.974046
1813.000000	47.952547
1812.000000	47.935037
1811.000000	47.891706
1810.000000	47.840175
1809.000000	47.811805
1808.000000	47.789197
1807.000000	47.763265
1806.000000	47.726140
1805.000000	47.693115
1804.000000	47.671727
1803.000000	47.655436
1802.000000	47.660866
1801.000000	47.615541
1800.000000	47.567666
1799.000000	47.535750
1798.000000	47.516910
1797.000000	47.502171
1796.000000	47.471473
1795.000000	47.435346
1794.000000	47.405092
1793.000000	47.395340
1792.000000	47.353006
1791.000000	47.335385
1790.000000	47.342700
1789.000000	47.360985
1788.000000	47.375503
1787.000000	47.363201
1786.000000	47.365640
1785.000000	47.370516
1784.000000	47.355666
1783.000000	47.347354
1782.000000	47.340594
1781.000000	47.291833
1780.000000	47.272772
1779.000000	47.233763
1778.000000	47.173698
1777.000000	47.123274
1776.000000	47.077838
1775.000000	47.004474
1774.000000	46.936430
1773.000000	46.868054
1772.000000	46.809097
1771.000000	46.760114
1770.000000	46.674117
1769.000000	46.598426
1768.000000	46.565291
1767.000000	46.505891
1766.000000	46.454913
1765.000000	46.394737
1764.000000	46.360383
1763.000000	46.360715
1762.000000	46.340103
1761.000000	46.331015
1760.000000	46.323036
1759.000000	46.312508
1758.000000	46.323480
1757.000000	46.339770
1756.000000	46.336224
1755.000000	46.327137
1754.000000	46.350409
1753.000000	46.363597
1752.000000	46.348082
1751.000000	46.341876
1750.000000	46.307854
1749.000000	46.271172
1748.000000	46.212991
1747.000000	46.134751
1746.000000	46.061277
1745.000000	45.973507
1744.000000	45.867119
1743.000000	45.739010
1742.000000	45.626083
1741.000000	45.499748
1740.000000	45.361111
1739.000000	45.251952
1738.000000	45.132598
1737.000000	45.030421
1736.000000	44.924255
1735.000000	44.824072
1734.000000	44.743062
1733.000000	44.642769
1732.000000	44.537046
1731.000000	44.446284
1730.000000	44.381564
1729.000000	44.301219
1728.000000	44.224199
1727.000000	44.168345
1726.000000	44.127009
1725.000000	44.101631
1724.000000	44.104512
1723.000000	44.157928
1722.000000	44.291689
1721.000000	44.507568
1720.000000	44.750044
1719.000000	45.049371
1718.000000	45.334181
1717.000000	45.674845
1716.000000	45.993676
1715.000000	46.304418
1714.000000	46.603524
1713.000000	46.854866
1712.000000	47.095236
1711.000000	47.295490
1710.000000	47.507934
1709.000000	47.696551
1708.000000	47.827319
1707.000000	47.973492
1706.000000	48.104039
1705.000000	48.217520
1704.000000	48.286451
1703.000000	48.355935
1702.000000	48.395609
1701.000000	48.431515
1700.000000	48.459220
1699.000000	48.511971
1698.000000	48.521834
1697.000000	48.499670
1696.000000	48.445368
1695.000000	48.383308
1694.000000	48.288667
1693.000000	48.167872
1692.000000	48.012058
1691.000000	47.910768
1690.000000	47.805931
1689.000000	47.773682
1688.000000	47.791524
1687.000000	47.857463
1686.000000	48.010617
1685.000000	48.200454
1684.000000	48.457336
1683.000000	48.738822
1682.000000	48.998364
1681.000000	49.281733
1680.000000	49.560891
1679.000000	49.820988
1678.000000	50.064018
1677.000000	50.272694
1676.000000	50.491676
1675.000000	50.668879
1674.000000	50.875560
1673.000000	51.082573
1672.000000	51.288811
1671.000000	51.524970
1670.000000	51.756808
1669.000000	51.984434
1668.000000	52.209401
1667.000000	52.447222
1666.000000	52.657117
1665.000000	52.864463
1664.000000	53.053856
1663.000000	53.260869
1662.000000	53.438626
1661.000000	53.626024
1660.000000	53.793696
1659.000000	53.934882
1658.000000	54.080279
1657.000000	54.198415
1656.000000	54.305135
1655.000000	54.391575
1654.000000	54.481008
1653.000000	54.528661
1652.000000	54.579417
1651.000000	54.638041
1650.000000	54.663641
1649.000000	54.686913
1648.000000	54.715616
1647.000000	54.728471
1646.000000	54.746646
1645.000000	54.733347
1644.000000	54.717056
1643.000000	54.707969
1642.000000	54.717389
1641.000000	54.718719
1640.000000	54.715062
1639.000000	54.713621
1638.000000	54.695003
1637.000000	54.676164
1636.000000	54.668960
1635.000000	54.654886
1634.000000	54.645799
1633.000000	54.600030
1632.000000	54.561021
1631.000000	54.527331
1630.000000	54.497742
1629.000000	54.451862
1628.000000	54.414072
1627.000000	54.358218
1626.000000	54.315663
1625.000000	54.279535
1624.000000	54.223460
1623.000000	54.174477
1622.000000	54.138128
1621.000000	54.090586
1620.000000	54.048917
1619.000000	54.010573
1618.000000	53.982757
1617.000000	53.947073
1616.000000	53.902412
1615.000000	53.851102
1614.000000	53.804889
1613.000000	53.751585
1612.000000	53.710359
1611.000000	53.655724
1610.000000	53.599538
1609.000000	53.529278
1608.000000	53.451925
1607.000000	53.373020
1606.000000	53.290569
1605.000000	53.202910
1604.000000	53.112480
1603.000000	53.014515
1602.000000	52.931953
1601.000000	52.847397
1600.000000	52.774809
1599.000000	52.688369
1598.000000	52.598382
1597.000000	52.524908
1596.000000	52.461296
1595.000000	52.398572
1594.000000	52.319335
1593.000000	52.268357
1592.000000	52.221702
1591.000000	52.174159
1590.000000	52.127504
1589.000000	52.075086
1588.000000	52.028208
1587.000000	51.970581
1586.000000	51.911736
1585.000000	51.861977
1584.000000	51.805791
1583.000000	51.754591
1582.000000	51.724670
1581.000000	51.697186
1580.000000	51.669370
1579.000000	51.649755
1578.000000	51.632356
1577.000000	51.611411
1576.000000	51.608529
1575.000000	51.612187
1574.000000	51.615179
1573.000000	51.626150
1572.000000	51.632134
1571.000000	51.652969
1570.000000	51.675687
1569.000000	51.707160
1568.000000	51.743842
1567.000000	51.760797
1566.000000	51.792160
1565.000000	51.835823
1564.000000	51.858098
1563.000000	51.874389
1562.000000	51.892453
1561.000000	51.885139
1560.000000	51.875054
1559.000000	51.852557
1558.000000	51.801912
1557.000000	51.761241
1556.000000	51.704168
1555.000000	51.639559
1554.000000	51.576946
1553.000000	51.507904
1552.000000	51.413263
1551.000000	51.313524
1550.000000	51.203701
1549.000000	51.106732
1548.000000	51.004666
1547.000000	50.900273
1546.000000	50.824471
1545.000000	50.737255
1544.000000	50.659237
1543.000000	50.602386
1542.000000	50.534231
1541.000000	50.478932
1540.000000	50.437374
1539.000000	50.392713
1538.000000	50.350269
1537.000000	50.292199
1536.000000	50.228587
1535.000000	50.174063
1534.000000	50.123307
1533.000000	50.048614
1532.000000	49.977800
1531.000000	49.910420
1530.000000	49.827526
1529.000000	49.758374
1528.000000	49.688446
1527.000000	49.597795
1526.000000	49.512019
1525.000000	49.429790
1524.000000	49.345123
1523.000000	49.250039
1522.000000	49.179113
1521.000000	49.086910
1520.000000	49.002243
1519.000000	48.923117
1518.000000	48.819388
1517.000000	48.729291
1516.000000	48.645400
1515.000000	48.557408
1514.000000	48.457891
1513.000000	48.354605
1512.000000	48.259743
1511.000000	48.164658
1510.000000	48.065141
1509.000000	47.964627
1508.000000	47.849262
1507.000000	47.741655
1506.000000	47.661199
1505.000000	47.579191
1504.000000	47.486213
1503.000000	47.405092
1502.000000	47.341813
1501.000000	47.277537
1500.000000	47.224564
1499.000000	47.184336
1498.000000	47.162616
1497.000000	47.115184
1496.000000	47.103437
1495.000000	47.092355
1494.000000	47.104213
1493.000000	47.099891
1492.000000	47.127818
1491.000000	47.155966
1490.000000	47.177022
1489.000000	47.205725
1488.000000	47.227778
1487.000000	47.255262
1486.000000	47.301363
1485.000000	47.325301
1484.000000	47.348019
1483.000000	47.390907
1482.000000	47.457399
1481.000000	47.488540
1480.000000	47.526773
1479.000000	47.590938
1478.000000	47.632275
1477.000000	47.687020
1476.000000	47.778558
1475.000000	47.853473
1474.000000	47.952104
1473.000000	48.051178
1472.000000	48.159117
1471.000000	48.271379
1470.000000	48.354495
1469.000000	48.432956
1468.000000	48.571150
1467.000000	48.681638
1466.000000	48.789910
1465.000000	48.893971
1464.000000	49.001689
1463.000000	49.149635
1462.000000	49.244719
1461.000000	49.369614
1460.000000	49.508473
1459.000000	49.615637
1458.000000	49.729007
1457.000000	49.857448
1456.000000	49.994755
1455.000000	50.102695
1454.000000	50.211964
1453.000000	50.365673
1452.000000	50.497439
1451.000000	50.606487
1450.000000	50.699465
1449.000000	50.785906
1448.000000	50.882763
1447.000000	51.037580
1446.000000	51.189959
1445.000000	51.281719
1444.000000	51.370819
1443.000000	51.504801
1442.000000	51.644768
1441.000000	51.770993
1440.000000	51.913287
1439.000000	52.055138
1438.000000	52.199981
1437.000000	52.342053
1436.000000	52.484015
1435.000000	52.644927
1434.000000	52.832214
1433.000000	53.043217
1432.000000	53.222304
1431.000000	53.409148
1430.000000	53.606963
1429.000000	53.852653
1428.000000	54.089034
1427.000000	54.297710
1426.000000	54.579749
1425.000000	54.868327
1424.000000	55.165327
1423.000000	55.434511
1422.000000	55.704803
1421.000000	56.038928
1420.000000	56.446639
1419.000000	56.779212
1418.000000	57.121981
1417.000000	57.423636
1416.000000	57.845199
1415.000000	58.315412
1414.000000	58.748500
1413.000000	59.117534
1412.000000	59.518041
1411.000000	60.027041
1410.000000	60.560090
1409.000000	61.057787
1408.000000	61.546507
1407.000000	62.010071
1406.000000	62.509208
1405.000000	62.987401
1404.000000	63.470580
1403.000000	63.868427
1402.000000	64.381528
1401.000000	64.915574
1400.000000	65.330598
1399.000000	65.616959
1398.000000	65.959064
1397.000000	66.388827
1396.000000	66.866687
1395.000000	67.200590
1394.000000	67.456476
1393.000000	67.748711
1392.000000	68.109211
1391.000000	68.386818
1390.000000	68.710082
1389.000000	69.110589
1388.000000	69.465549
1387.000000	69.738390
1386.000000	70.051570
1385.000000	70.340369
1384.000000	70.663079
1383.000000	70.944121
1382.000000	71.122654
1381.000000	71.267164
1380.000000	71.374107
1379.000000	71.504764
1378.000000	71.601289
1377.000000	71.723303
1376.000000	71.843544
1375.000000	71.943172
1374.000000	72.079482
1373.000000	72.255576
1372.000000	72.423137
1371.000000	72.562439
1370.000000	72.690216
1369.000000	72.840378
1368.000000	72.955189
1367.000000	73.066342
1366.000000	73.168962
1365.000000	73.287097
1364.000000	73.408668
1363.000000	73.558165
1362.000000	73.637846
1361.000000	73.657461
1360.000000	73.638400
1359.000000	73.745120
1358.000000	73.824136
1357.000000	73.928640
1356.000000	74.054311
1355.000000	74.182420
1354.000000	74.288032
1353.000000	74.416030
1352.000000	74.650527
1351.000000	74.858760
1350.000000	75.071536
1349.000000	75.293843
1348.000000	75.511163
1347.000000	75.705542
1346.000000	75.900476
1345.000000	76.117685
1344.000000	76.336114
1343.000000	76.520852
1342.000000	76.696392
1341.000000	76.862956
1340.000000	77.021430
1339.000000	77.168268
1338.000000	77.309897
1337.000000	77.450529
1336.000000	77.573762
1335.000000	77.715834
1334.000000	77.836629
1333.000000	77.936257
1332.000000	78.038545
1331.000000	78.142051
1330.000000	78.223616
1329.000000	78.300858
1328.000000	78.377989
1327.000000	78.464651
1326.000000	78.526046
1325.000000	78.583562
1324.000000	78.652603
1323.000000	78.705465
1322.000000	78.756221
1321.000000	78.814291
1320.000000	78.869812
1319.000000	78.917133
1318.000000	78.962791
1317.000000	78.999140
1316.000000	79.035711
1315.000000	79.082145
1314.000000	79.118494
1313.000000	79.138996
1312.000000	79.173351
1311.000000	79.198950
1310.000000	79.230645
1309.000000	79.259680
1308.000000	79.285612
1307.000000	79.302125
1306.000000	79.311212
1305.000000	79.320410
1304.000000	79.332601
1303.000000	79.340801
1302.000000	79.343129
1301.000000	79.337920
1300.000000	79.325065
1299.000000	79.338474
1298.000000	79.342907
1297.000000	79.325840
1296.000000	79.305449
1295.000000	79.293370
1294.000000	79.275749
1293.000000	79.261343
1292.000000	79.252809
1291.000000	79.231310
1290.000000	79.197621
1289.000000	79.159942
1288.000000	79.133677
1287.000000	79.104088
1286.000000	79.066963
1285.000000	79.031611
1284.000000	79.000027
1283.000000	78.974316
1282.000000	78.962680
1281.000000	78.920568
1280.000000	78.881892
1279.000000	78.863939
1278.000000	78.845543
1277.000000	78.831579
1276.000000	78.808861
1275.000000	78.805204
1274.000000	78.814069
1273.000000	78.811077
1272.000000	78.820386
1271.000000	78.818502
1270.000000	78.807531
1269.000000	78.819056
1268.000000	78.840112
1267.000000	78.837896
1266.000000	78.839891
1265.000000	78.836566
1264.000000	78.842107
1263.000000	78.851527
1262.000000	78.854962
1261.000000	78.850529
1260.000000	78.846318
1259.000000	78.859174
1258.000000	78.869480
1257.000000	78.846983
1256.000000	78.842107
1255.000000	78.848867
1254.000000	78.809747
1253.000000	78.800771
1252.000000	78.779604
1251.000000	78.721423
1250.000000	78.688288
1249.000000	78.637199
1248.000000	78.579018
1247.000000	78.518953
1246.000000	78.464319
1245.000000	78.411235
1244.000000	78.338980
1243.000000	78.270271
1242.000000	78.210760
1241.000000	78.149476
1240.000000	78.086641
1239.000000	78.024581
1238.000000	77.961856
1237.000000	77.909106
1236.000000	77.849706
1235.000000	77.790860
1234.000000	77.748637
1233.000000	77.685358
1232.000000	77.622634
1231.000000	77.572543
1230.000000	77.513364
1229.000000	77.471696
1228.000000	77.404316
1227.000000	77.363756
1226.000000	77.311892
1225.000000	77.251162
1224.000000	77.191873
1223.000000	77.142114
1222.000000	77.093796
1221.000000	77.042819
1220.000000	77.007577
1219.000000	76.956267
1218.000000	76.903184
1217.000000	76.868608
1216.000000	76.815968
1215.000000	76.775408
1214.000000	76.748589
1213.000000	76.689743
1212.000000	76.641647
1211.000000	76.586901
1210.000000	76.545343
1209.000000	76.506889
1208.000000	76.467990
1207.000000	76.407925
1206.000000	76.338773
1205.000000	76.295553
1204.000000	76.262861
1203.000000	76.204569
1202.000000	76.133200
1201.000000	76.066597
1200.000000	76.018279
1199.000000	75.956773
1198.000000	75.891278
1197.000000	75.828221
1196.000000	75.755079
1195.000000	75.682048
1194.000000	75.601482
1193.000000	75.511163
1192.000000	75.450987
1191.000000	75.376958
1190.000000	75.308804
1189.000000	75.257604
1188.000000	75.216046
1187.000000	75.216490
1186.000000	75.195877
1185.000000	75.203080
1184.000000	75.236659
1183.000000	75.265916
1182.000000	75.291294
1181.000000	75.333073
1180.000000	75.397460
1179.000000	75.440015
1178.000000	75.510054
1177.000000	75.560256
1176.000000	75.610680
1175.000000	75.662544
1174.000000	75.720392
1173.000000	75.772367
1172.000000	75.843736
1171.000000	75.923195
1170.000000	76.022269
1169.000000	76.142620
1168.000000	76.247789
1167.000000	76.353734
1166.000000	76.499242
1165.000000	76.634443
1164.000000	76.767983
1163.000000	76.911828
1162.000000	77.067088
1161.000000	77.187329
1160.000000	77.311559
1159.000000	77.452634
1158.000000	77.590828
1157.000000	77.703644
1156.000000	77.817346
1155.000000	77.928721
1154.000000	78.027684
1153.000000	78.094287
1152.000000	78.160448
1151.000000	78.230597
1150.000000	78.288889
1149.000000	78.360923
1148.000000	78.416001
1147.000000	78.471854
1146.000000	78.512969
1145.000000	78.563503
1144.000000	78.589103
1143.000000	78.639970
1142.000000	78.716658
1141.000000	78.771957
1140.000000	78.848756
1139.000000	78.932648
1138.000000	79.024962
1137.000000	79.131017
1136.000000	79.245384
1135.000000	79.357646
1134.000000	79.413500
1133.000000	79.444640
1132.000000	79.540057
1131.000000	79.611426
1130.000000	79.690774
1129.000000	79.757045
1128.000000	79.798159
1127.000000	79.807247
1126.000000	79.864873
1125.000000	79.899782
1124.000000	79.920838
1123.000000	79.939234
1122.000000	79.929039
1121.000000	79.922500
1120.000000	79.922611
1119.000000	79.914078
1118.000000	79.887148
1117.000000	79.874847
1116.000000	79.858224
1115.000000	79.854345
1114.000000	79.843817
1113.000000	79.815004
1112.000000	79.807247
1111.000000	79.779652
1110.000000	79.771341
1109.000000	79.760148
1108.000000	79.747957
1107.000000	79.716484
1106.000000	79.699196
1105.000000	79.677586
1104.000000	79.650657
1103.000000	79.650546
1102.000000	79.624503
1101.000000	79.607326
1100.000000	79.583388
1099.000000	79.554464
1098.000000	79.538063
1097.000000	79.511133
1096.000000	79.487196
1095.000000	79.451622
1094.000000	79.418708
1093.000000	79.386681
1092.000000	79.375599
1091.000000	79.348891
1090.000000	79.311877
1089.000000	79.287053
1088.000000	79.245939
1087.000000	79.208924
1086.000000	79.189420
1085.000000	79.151741
1084.000000	79.117165
1083.000000	79.081591
1082.000000	79.041696
1081.000000	79.006787
1080.000000	78.972100
1079.000000	78.934643
1078.000000	78.894969
1077.000000	78.852857
1076.000000	78.833352
1075.000000	78.797668
1074.000000	78.754669
1073.000000	78.718985
1072.000000	78.671443
1071.000000	78.645178
1070.000000	78.613594
1069.000000	78.584448
1068.000000	78.546769
1067.000000	78.507650
1066.000000	78.480609
1065.000000	78.454677
1064.000000	78.417330
1063.000000	78.387409
1062.000000	78.362807
1061.000000	78.329228
1060.000000	78.300193
1059.000000	78.271158
1058.000000	78.242123
1057.000000	78.204222
1056.000000	78.167762
1055.000000	78.140832
1054.000000	78.104261
1053.000000	78.079216
1052.000000	78.048408
1051.000000	78.011837
1050.000000	77.983467
1049.000000	77.963851
1048.000000	77.917085
1047.000000	77.888936
1046.000000	77.895364
1045.000000	77.861785
1044.000000	77.822444
1043.000000	77.787092
1042.000000	77.763155
1041.000000	77.737998
1040.000000	77.698324
1039.000000	77.681480
1038.000000	77.649896
1037.000000	77.618644
1036.000000	77.598475
1035.000000	77.570326
1034.000000	77.547275
1033.000000	77.517021
1032.000000	77.481115
1031.000000	77.450861
1030.000000	77.427478
1029.000000	77.398554
1028.000000	77.376722
1027.000000	77.362204
1026.000000	77.343808
1025.000000	77.317987
1024.000000	77.299480
1023.000000	77.298704
1022.000000	77.269669
1021.000000	77.252603
1020.000000	77.255041
1019.000000	77.238639
1018.000000	77.228222
1017.000000	77.243848
1016.000000	77.242629
1015.000000	77.232101
1014.000000	77.228887
1013.000000	77.237863
1012.000000	77.248391
1011.000000	77.238196
1010.000000	77.245842
1009.000000	77.259806
1008.000000	77.269669
1007.000000	77.275210
1006.000000	77.281748
1005.000000	77.287844
1004.000000	77.311116
1003.000000	77.326188
1002.000000	77.342478
1001.000000	77.335386
1000.000000	77.336051
999.000000	77.352563
998.000000	77.363978
997.000000	77.356996
996.000000	77.356774
995.000000	77.371624
994.000000	77.389245
993.000000	77.408528
992.000000	77.410522
991.000000	77.424597
990.000000	77.453853
989.000000	77.465600
988.000000	77.480783
987.000000	77.500287
986.000000	77.516246
985.000000	77.562015
984.000000	77.581297
983.000000	77.621415
982.000000	77.638813
981.000000	77.672060
980.000000	77.707079
979.000000	77.737222
978.000000	77.767477
977.000000	77.822000
976.000000	77.846270
975.000000	77.878741
974.000000	77.926837
973.000000	77.995546
972.000000	78.035220
971.000000	78.063812
970.000000	78.144379
969.000000	78.183388
968.000000	78.246001
967.000000	78.298087
966.000000	78.346848
965.000000	78.416111
964.000000	78.477839
963.000000	78.522610
962.000000	78.584005
961.000000	78.635204
960.000000	78.705797
959.000000	78.750015
958.000000	78.830803
957.000000	78.887655
956.000000	78.946390
955.000000	79.031278
954.000000	79.074055
953.000000	79.124811
952.000000	79.196734
951.000000	79.240065
950.000000	79.288826
949.000000	79.371166
948.000000	79.428682
947.000000	79.480546
946.000000	79.535624
945.000000	79.624724
944.000000	79.640572
943.000000	79.665396
942.000000	79.700526
941.000000	79.807690
940.000000	79.851907
939.000000	79.868531
938.000000	79.923941
937.000000	80.021463
936.000000	80.056704
935.000000	80.095935
934.000000	80.126189
933.000000	80.160654
932.000000	80.247760
931.000000	80.285882
930.000000	80.321123
929.000000	80.326664
928.000000	80.435380
927.000000	80.443359
926.000000	80.464969
925.000000	80.485360
924.000000	80.519049
923.000000	80.612361
922.000000	80.612361
921.000000	80.635633
920.000000	80.654362
919.000000	80.671761
918.000000	80.671982
917.000000	80.666220
916.000000	80.699687
915.000000	80.683175
914.000000	80.693038
913.000000	80.701571
912.000000	80.701017
911.000000	80.712099
910.000000	80.695144
909.000000	80.676193
908.000000	80.647712
907.000000	80.657576
906.000000	80.633084
905.000000	80.621226
904.000000	80.598619
903.000000	80.509962
902.000000	80.495112
901.000000	80.364454
900.000000	80.326553
899.000000	80.294415
898.000000	80.273249
897.000000	80.199553
896.000000	80.153894
895.000000	80.003400
894.000000	79.954417
893.000000	79.906985
892.000000	79.832846
891.000000	79.680246
890.000000	79.604333
889.000000	79.546263
888.000000	79.394549
887.000000	79.327392
886.000000	79.198618
885.000000	79.141324
884.000000	79.058097
883.000000	78.906272
882.000000	78.799884
881.000000	78.670113
880.000000	78.555081
879.000000	78.379762
878.000000	78.269274
877.000000	78.046413
876.000000	77.804158
875.000000	77.545502
874.000000	77.327296
873.000000	77.041489
872.000000	76.844449
871.000000	76.828491
870.000000	76.923908
869.000000	77.032845
868.000000	77.160289
867.000000	77.240191
866.000000	77.356442
865.000000	77.437784
864.000000	77.559909
863.000000	77.651558
862.000000	77.755951
861.000000	77.892483
860.000000	78.012391
859.000000	78.152801
858.000000	79.701967
857.000000	79.529000
856.000000	79.773400
855.000000	79.803500
854.000000	79.793000
853.000000	79.509900
852.000000	79.521100
851.000000	79.914800
850.000000	80.310500
849.000000	80.428400
848.000000	80.630700
847.000000	80.797700
846.000000	80.987700
845.000000	81.448200
844.000000	81.618700
843.000000	82.039200
842.000000	82.104200
841.000000	82.575500
840.000000	82.980500
839.000000	83.122600
838.000000	83.611700
837.000000	83.834100
836.000000	84.355900
835.000000	84.841200
834.000000	85.287700
833.000000	85.375500
832.000000	85.868900
831.000000	86.297500
830.000000	86.937900
829.000000	87.126400
828.000000	87.810800
827.000000	88.095900
826.000000	88.751200
825.000000	89.086600
824.000000	89.627700
823.000000	90.259200
822.000000	90.519000
821.000000	91.041700
820.000000	91.377800
819.000000	91.772500
818.000000	92.388800
817.000000	92.898400
816.000000	93.239600
815.000000	93.621200
814.000000	94.219200
813.000000	94.348100
812.000000	94.729500
811.000000	95.420500
810.000000	95.882400
809.000000	95.904700
808.000000	96.109200
807.000000	96.602500
806.000000	96.842900
805.000000	97.174100
804.000000	97.466300
803.000000	97.544400
802.000000	97.714200
801.000000	97.852300
800.000000	98.205000
799.000000	98.353600
798.000000	98.338600
797.000000	98.572200
796.000000	98.626400
795.000000	98.757400
794.000000	98.848400
793.000000	98.971900
792.000000	99.080200
791.000000	98.936800
790.000000	98.967600
789.000000	99.082700
788.000000	99.240900
787.000000	99.256500
786.000000	99.193400
785.000000	99.104800
784.000000	99.010300
783.000000	98.989500
782.000000	99.042500
781.000000	99.044500
780.000000	98.947600
779.000000	98.858400
778.000000	98.898300
777.000000	98.908400
776.000000	98.829200
775.000000	98.769600
774.000000	98.749600
773.000000	98.710500
772.000000	98.733100
771.000000	98.714200
770.000000	98.707000
769.000000	98.660900
768.000000	98.703700
767.000000	98.661200
766.000000	98.478200
765.000000	98.470800
764.000000	98.463500
763.000000	98.454900
762.000000	98.453700
761.000000	98.452800
760.000000	98.415500
759.000000	98.452700
758.000000	98.412500
757.000000	98.321300
756.000000	98.382400
755.000000	98.332400
754.000000	98.204900
753.000000	98.167200
752.000000	98.151200
751.000000	98.180600
750.000000	98.161700
749.000000	97.981600
748.000000	97.944500
747.000000	97.971500
746.000000	97.997400
745.000000	97.950300
744.000000	97.751200
743.000000	97.587900
742.000000	97.480300
741.000000	97.335800
740.000000	97.267500
739.000000	97.280800
738.000000	97.109700
737.000000	96.911500
736.000000	96.660800
735.000000	96.518200
734.000000	96.431600
733.000000	96.149100
732.000000	95.950900
731.000000	95.680200
730.000000	95.372200
729.000000	95.039200
728.000000	94.718100
727.000000	94.443700
726.000000	94.115600
725.000000	93.723600
724.000000	93.309300
723.000000	92.731900
722.000000	92.165400
721.000000	91.685100
720.000000	91.108100
719.000000	90.543900
718.000000	90.052600
717.000000	89.420500
716.000000	88.716700
715.000000	87.972500
714.000000	87.327100
713.000000	86.624900
712.000000	85.899400
711.000000	85.120500
710.000000	84.382600
709.000000	83.644100
708.000000	82.913800
707.000000	82.251700
706.000000	81.605800
705.000000	80.976300
704.000000	80.401900
703.000000	79.859600
702.000000	79.368600
701.000000	78.932600
700.000000	78.494900
699.000000	78.165700
698.000000	77.861400
697.000000	77.622700
696.000000	77.377100
695.000000	77.125300
694.000000	76.923000
693.000000	76.740200
692.000000	76.539100
691.000000	76.391400
690.000000	76.173000
689.000000	75.918800
688.000000	75.716400
687.000000	75.452700
686.000000	75.144700
685.000000	74.839500
684.000000	74.520400
683.000000	74.162200
682.000000	73.743400
681.000000	73.311200
680.000000	72.874900
679.000000	72.414200
678.000000	71.912600
677.000000	71.494000
676.000000	71.031300
675.000000	70.570400
674.000000	70.124900
673.000000	69.766900
672.000000	69.275900
671.000000	68.874700
670.000000	68.570400
669.000000	68.291000
668.000000	68.075100
667.000000	67.855400
666.000000	67.677300
665.000000	67.497500
664.000000	67.365300
663.000000	67.328100
662.000000	67.210100
661.000000	67.156300
660.000000	67.124300
659.000000	67.101200
658.000000	67.063500
657.000000	66.988300
656.000000	66.856200
655.000000	66.738500
654.000000	66.586700
653.000000	66.371500
652.000000	66.102400
651.000000	65.828400
650.000000	65.501800
649.000000	65.118600
648.000000	64.735100
647.000000	64.275900
646.000000	63.790900
645.000000	63.348400
644.000000	62.833700
643.000000	62.274900
642.000000	61.743100
641.000000	61.178800
640.000000	60.728300
639.000000	60.298300
638.000000	59.818100
637.000000	59.449500
636.000000	59.012900
635.000000	58.702100
634.000000	58.408100
633.000000	58.161200
632.000000	57.863400
631.000000	57.659600
630.000000	57.431000
629.000000	57.248300
628.000000	57.066500
627.000000	56.879500
626.000000	56.688000
625.000000	56.543200
624.000000	56.388300
623.000000	56.170700
622.000000	56.055500
621.000000	55.959600
620.000000	55.764800
619.000000	55.628900
618.000000	55.488600
617.000000	55.361300
616.000000	55.327100
615.000000	55.224400
614.000000	55.205000
613.000000	55.196700
612.000000	55.189000
611.000000	55.228500
610.000000	55.328100
609.000000	55.496200
608.000000	55.700600
607.000000	55.895900
606.000000	56.139400
605.000000	56.423200
604.000000	56.749700
603.000000	57.128100
602.000000	57.453600
601.000000	57.827700
600.000000	58.248500
599.000000	58.603700
598.000000	58.963800
597.000000	59.310500
596.000000	59.658100
595.000000	59.967600
594.000000	60.273200
593.000000	60.614400
592.000000	60.860800
591.000000	61.143300
590.000000	61.380700
589.000000	61.652100
588.000000	61.825800
587.000000	61.935100
586.000000	62.119300
585.000000	62.263300
584.000000	62.437900
583.000000	62.634500
582.000000	62.851800
581.000000	62.995900
580.000000	63.246400
579.000000	63.470900
578.000000	63.665800
577.000000	63.838800
576.000000	63.962300
575.000000	64.046500
574.000000	64.192500
573.000000	64.265500
572.000000	64.307400
571.000000	64.359400
570.000000	64.372100
569.000000	64.466100
568.000000	64.418000
567.000000	64.376500
566.000000	64.359300
565.000000	64.245400
564.000000	64.169600
563.000000	64.088900
562.000000	63.962900
561.000000	63.885300
560.000000	63.763700
559.000000	63.628700
558.000000	63.562700
557.000000	63.501600
556.000000	63.367200
555.000000	63.148300
554.000000	63.002000
553.000000	62.784400
552.000000	62.552700
551.000000	62.312000
550.000000	62.112900
549.000000	61.884700
548.000000	61.632700
547.000000	61.323500
546.000000	60.985900
545.000000	60.656000
544.000000	60.283100
543.000000	59.909800
542.000000	59.569000
541.000000	59.201000
540.000000	58.820400
539.000000	58.457200
538.000000	58.071300
537.000000	57.670400
536.000000	57.294200
535.000000	56.830600
534.000000	56.370100
533.000000	55.906500
532.000000	55.424000
531.000000	54.970300
530.000000	54.478700
529.000000	53.966200
528.000000	53.465600
527.000000	52.937000
526.000000	52.349900
525.000000	51.810100
524.000000	51.236400
523.000000	50.645600
522.000000	50.116300
521.000000	49.574500
520.000000	49.002500
519.000000	48.433200
518.000000	47.838600
517.000000	47.257400
516.000000	46.671800
515.000000	46.103000
514.000000	45.504300
513.000000	44.909400
512.000000	44.315400
511.000000	43.725200
510.000000	43.137400
509.000000	42.542400
508.000000	41.947100
507.000000	41.396900
506.000000	40.828600
505.000000	40.241600
504.000000	39.702200
503.000000	39.103900
502.000000	38.569400
501.000000	37.985800
500.000000	37.428800
499.000000	36.867200
498.000000	36.311900
497.000000	35.783500
496.000000	35.233400
495.000000	34.657400
494.000000	34.061100
493.000000	33.479100
492.000000	32.936700
491.000000	32.381300
490.000000	31.850000
489.000000	31.348700
488.000000	30.856100
487.000000	30.387500
486.000000	29.953300
485.000000	29.517400
484.000000	29.156900
483.000000	28.796000
482.000000	28.439900
481.000000	28.103600
480.000000	27.775500
479.000000	27.481600
478.000000	27.206800
477.000000	26.964600
476.000000	26.730600
475.000000	26.506600
474.000000	26.273500
473.000000	26.037700
472.000000	25.798700
471.000000	25.571800
470.000000	25.318600
469.000000	25.036000
468.000000	24.757800
467.000000	24.462300
466.000000	24.145000
465.000000	23.803300
464.000000	23.475800
463.000000	23.107400
462.000000	22.709900
461.000000	22.319300
460.000000	21.945400
459.000000	21.565100
458.000000	21.174700
457.000000	20.824100
456.000000	20.507200
455.000000	20.187600
454.000000	19.887200
453.000000	19.612400
452.000000	19.376100
451.000000	19.165000
450.000000	18.945000
449.000000	18.779700
448.000000	18.659300
447.000000	18.551900
446.000000	18.473900
445.000000	18.427100
444.000000	18.374800
443.000000	18.332500
442.000000	18.322600
441.000000	18.332000
440.000000	18.321100
439.000000	18.321100
438.000000	18.317100
437.000000	18.300300
436.000000	18.280500
435.000000	18.268600
434.000000	18.246500
433.000000	18.202200
432.000000	18.164500
431.000000	18.101400
430.000000	18.010500
429.000000	17.932000
428.000000	17.827600
427.000000	17.730000
426.000000	17.609600
425.000000	17.447200
424.000000	17.294000
423.000000	17.143900
422.000000	16.986300
421.000000	16.825700
420.000000	16.622300
419.000000	16.407500
418.000000	16.200400
417.000000	16.004100
416.000000	15.791000
415.000000	15.555100
414.000000	15.324600
413.000000	15.103000
412.000000	14.846100
411.000000	14.590900
410.000000	14.344600
409.000000	14.112900
408.000000	13.860900
407.000000	13.616000
406.000000	13.376700
405.000000	13.101400
404.000000	12.819500
403.000000	12.563700
402.000000	12.304600
401.000000	12.056000
400.000000	11.779200
399.000000	11.512500
398.000000	11.272800
397.000000	11.004900
396.000000	10.739500
395.000000	10.473500
394.000000	10.248300
393.000000	10.001900
392.000000	9.760300
391.000000	9.522400
390.000000	9.295000
389.000000	9.079300
388.000000	8.900600
387.000000	8.717500
386.000000	8.522800
385.000000	8.339000
384.000000	8.161800
383.000000	7.988700
382.000000	7.850900
381.000000	7.712100
380.000000	7.628800
379.000000	7.522900
378.000000	7.409000
377.000000	7.281500
376.000000	6.917500
375.000000	6.438800
374.000000	6.534800
373.000000	6.554200
372.000000	6.346100
371.000000	6.479000
370.000000	6.389300
369.000000	6.562800
368.000000	6.603400
367.000000	6.605100
366.000000	6.724200
365.000000	6.650800
364.000000	6.607000
363.000000	6.634600
362.000000	6.425700
361.000000	6.538000
360.000000	6.654100
359.000000	6.572400
358.000000	6.462900
357.000000	6.356900
356.000000	6.405400
355.000000	6.298400
354.000000	6.334300
353.000000	6.488200
352.000000	6.441000
351.000000	6.072200
350.000000	6.200900
349.000000	6.305800
348.000000	6.093800
347.000000	6.140700
346.000000	5.999300
345.000000	6.354500
344.000000	6.399800
343.000000	6.443300
342.000000	6.255200
341.000000	6.302800
340.000000	6.470700
339.000000	6.468100
338.000000	6.295400
337.000000	6.553900
336.000000	6.813400
335.000000	6.726700
334.000000	6.540100
333.000000	6.274900
332.000000	6.528100
331.000000	6.482100
330.000000	6.489500
329.000000	6.341200
328.000000	6.649400
327.000000	6.182100
326.000000	6.769000
325.000000	7.072500
324.000000	7.208900
323.000000	7.115000
322.000000	6.849700
321.000000	7.088700
320.000000	7.427800
319.000000	7.714300
318.000000	7.266900
317.000000	7.926700
316.000000	6.461600
315.000000	6.246300
314.000000	6.221000
313.000000	6.206900
312.000000	6.175200
311.000000	6.219200
310.000000	6.234200
309.000000	6.186400
308.000000	6.270800
307.000000	6.211500
306.000000	6.178300
305.000000	6.224200
304.000000	6.291700
303.000000	6.215000
302.000000	6.227800
301.000000	6.223300
300.000000	6.256300
299.000000	6.265500
298.000000	6.217200
297.000000	6.264800
296.000000	6.186500
295.000000	6.270600
294.000000	6.295400
293.000000	6.350900
292.000000	6.257600
291.000000	6.339200
290.000000	6.327000
289.000000	6.254400
288.000000	6.291300
287.000000	6.213400
286.000000	6.354800
285.000000	6.338200
284.000000	6.298200
283.000000	6.298800
282.000000	6.288100
281.000000	6.329700
280.000000	6.326300
279.000000	6.364000
278.000000	6.372100
277.000000	6.404600
276.000000	6.316300
275.000000	6.446600
274.000000	6.469900
273.000000	6.395800
272.000000	6.467300
271.000000	6.484200
270.000000	6.556600
269.000000	6.470100
268.000000	6.501300
267.000000	6.578200
266.000000	6.551200
265.000000	6.616400
264.000000	6.704800
263.000000	6.711400
262.000000	6.723900
261.000000	6.750900
260.000000	6.754400
259.000000	6.796000
258.000000	6.866600
257.000000	6.843300
256.000000	6.896800
255.000000	6.904200
254.000000	6.981100
253.000000	6.997800
252.000000	7.021600
251.000000	7.031500
250.000000	7.044300
