PE UV       SUBTECH     SPECTRUM    ASCII       PEDS        4.00        
   -1
INBUCR0145-3.Sample.ASC
24/04/29
15:39:56.00
24/04/29
15:39:56.00
Vinicio Soto Monge
C. kalinini
250,000000
1
Lambda 1050
1050L1511233
PerkinElmer UV WinLab 6.3.2.0749 / 2.02.05 Lambda 900 UV/VIS/NIR, Aug  7 2015 09:38:08

0
0
3350/servo 860,8/2
0
0
UV/VIS
1
1
1
DoubleDePol,CommonBeamDepol,RBeamAtt,SBeamAtt,60mm sphere, WB InGaAs Detector
0
0
0
0
Program
Program
3350/servo 860,8/2
3350/0,2 860,8/0,2
3350/0,2 860,8/0,2
0
15.00
 
 
 
0
 
860,8
319,2
860,8
Front
100
on
S:100 R:100
0
0
0
0
 
0
 
 
 
0
 
 
0
0
0
0
0
 
 
 
 
0
0


0
0
#HDR
-1
-1
#GR
nm
%R
1.0
0.0
2500,000000
-1,000000
2251
8
88,998600
5,964700
#DATA
2500.000000	14.933325
2499.000000	14.817139
2498.000000	14.891620
2497.000000	14.793996
2496.000000	14.764979
2495.000000	14.679690
2494.000000	14.777549
2493.000000	14.792821
2492.000000	14.734200
2491.000000	14.765096
2490.000000	14.716460
2489.000000	14.704830
2488.000000	14.607323
2487.000000	14.636458
2486.000000	14.683919
2485.000000	14.677105
2484.000000	14.687678
2483.000000	14.699661
2482.000000	14.720925
2481.000000	14.742658
2480.000000	14.755111
2479.000000	14.716108
2478.000000	14.772850
2477.000000	14.855084
2476.000000	14.838168
2475.000000	14.922752
2474.000000	14.913823
2473.000000	14.961167
2472.000000	14.993121
2471.000000	15.044224
2470.000000	15.054092
2469.000000	15.119880
2468.000000	15.190954
2467.000000	15.217151
2466.000000	15.254274
2465.000000	15.325701
2464.000000	15.345202
2463.000000	15.430609
2462.000000	15.523886
2461.000000	15.591436
2460.000000	15.631261
2459.000000	15.719957
2458.000000	15.795260
2457.000000	15.893002
2456.000000	15.977939
2455.000000	16.055474
2454.000000	16.147459
2453.000000	16.208665
2452.000000	16.330020
2451.000000	16.417893
2450.000000	16.508586
2449.000000	16.634758
2448.000000	16.736611
2447.000000	16.872650
2446.000000	16.942785
2445.000000	17.071306
2444.000000	17.191603
2443.000000	17.280181
2442.000000	17.373106
2441.000000	17.517957
2440.000000	17.627681
2439.000000	17.724013
2438.000000	17.854296
2437.000000	17.978588
2436.000000	18.069516
2435.000000	18.195922
2434.000000	18.304237
2433.000000	18.393637
2432.000000	18.493728
2431.000000	18.619077
2430.000000	18.733148
2429.000000	18.823019
2428.000000	18.913007
2427.000000	19.003818
2426.000000	19.104261
2425.000000	19.180387
2424.000000	19.284002
2423.000000	19.361538
2422.000000	19.433199
2421.000000	19.503099
2420.000000	19.597199
2419.000000	19.655820
2418.000000	19.697760
2417.000000	19.786456
2416.000000	19.849306
2415.000000	19.916269
2414.000000	19.982761
2413.000000	20.023174
2412.000000	20.079798
2411.000000	20.126672
2410.000000	20.173898
2409.000000	20.207849
2408.000000	20.231697
2407.000000	20.276339
2406.000000	20.325444
2405.000000	20.340012
2404.000000	20.359513
2403.000000	20.411791
2402.000000	20.444097
2401.000000	20.471469
2400.000000	20.515759
2399.000000	20.598111
2398.000000	20.668832
2397.000000	20.729099
2396.000000	20.770686
2395.000000	20.787250
2394.000000	20.785135
2393.000000	20.790187
2392.000000	20.813800
2391.000000	20.863493
2390.000000	20.882525
2389.000000	20.900146
2388.000000	20.925522
2387.000000	20.949135
2386.000000	20.954539
2385.000000	20.955948
2384.000000	20.956771
2383.000000	20.967579
2382.000000	20.988725
2381.000000	20.987315
2380.000000	20.979092
2379.000000	20.966404
2378.000000	20.941146
2377.000000	20.931630
2376.000000	20.942791
2375.000000	20.942203
2374.000000	20.938092
2373.000000	20.909897
2372.000000	20.895917
2371.000000	20.911542
2370.000000	20.911542
2369.000000	20.908135
2368.000000	20.912012
2367.000000	20.921527
2366.000000	20.918121
2365.000000	20.917886
2364.000000	20.920353
2363.000000	20.917886
2362.000000	20.897327
2361.000000	20.910837
2360.000000	20.927636
2359.000000	20.900264
2358.000000	20.907195
2357.000000	20.899559
2356.000000	20.876768
2355.000000	20.881467
2354.000000	20.882055
2353.000000	20.863023
2352.000000	20.831774
2351.000000	20.840233
2350.000000	20.837178
2349.000000	20.811685
2348.000000	20.808749
2347.000000	20.809336
2346.000000	20.789952
2345.000000	20.786075
2344.000000	20.775385
2343.000000	20.778909
2342.000000	20.786428
2341.000000	20.774328
2340.000000	20.784078
2339.000000	20.784196
2338.000000	20.812743
2337.000000	20.815680
2336.000000	20.811451
2335.000000	20.808396
2334.000000	20.820261
2333.000000	20.861144
2332.000000	20.878061
2331.000000	20.910954
2330.000000	20.951132
2329.000000	20.976155
2328.000000	21.009283
2327.000000	21.067435
2326.000000	21.104793
2325.000000	21.110902
2324.000000	21.117128
2323.000000	21.169993
2322.000000	21.234841
2321.000000	21.225325
2320.000000	21.224385
2319.000000	21.233196
2318.000000	21.251170
2317.000000	21.258572
2316.000000	21.236486
2315.000000	21.238953
2314.000000	21.232726
2313.000000	21.231904
2312.000000	21.203709
2311.000000	21.164472
2310.000000	21.130051
2309.000000	21.109962
2308.000000	21.100446
2307.000000	21.051458
2306.000000	21.054747
2305.000000	21.015392
2304.000000	20.991779
2303.000000	20.983673
2302.000000	20.972395
2301.000000	20.960648
2300.000000	20.926344
2299.000000	20.949487
2298.000000	20.956771
2297.000000	20.973805
2296.000000	20.971925
2295.000000	20.990604
2294.000000	21.017154
2293.000000	21.027258
2292.000000	21.048286
2291.000000	21.079888
2290.000000	21.123237
2289.000000	21.150727
2288.000000	21.185970
2287.000000	21.213578
2286.000000	21.294167
2285.000000	21.311084
2284.000000	21.327531
2283.000000	21.364302
2282.000000	21.427152
2281.000000	21.469209
2280.000000	21.510914
2279.000000	21.574470
2278.000000	21.587040
2277.000000	21.638613
2276.000000	21.688071
2275.000000	21.722022
2274.000000	21.758675
2273.000000	21.783111
2272.000000	21.832099
2271.000000	21.854185
2270.000000	21.911044
2269.000000	21.948402
2268.000000	21.981766
2267.000000	22.066467
2266.000000	22.151756
2265.000000	22.215782
2264.000000	22.298721
2263.000000	22.402807
2262.000000	22.528273
2261.000000	22.633768
2260.000000	22.739381
2259.000000	22.889753
2258.000000	23.029199
2257.000000	23.188264
2256.000000	23.335581
2255.000000	23.514735
2254.000000	23.677442
2253.000000	23.884791
2252.000000	24.035515
2251.000000	24.198104
2250.000000	24.340488
2249.000000	24.507659
2248.000000	24.676005
2247.000000	24.837772
2246.000000	24.964765
2245.000000	25.074137
2244.000000	25.219575
2243.000000	25.367245
2242.000000	25.464047
2241.000000	25.550275
2240.000000	25.611716
2239.000000	25.670220
2238.000000	25.799094
2237.000000	25.824469
2236.000000	25.874397
2235.000000	25.868641
2234.000000	25.888259
2233.000000	25.944766
2232.000000	25.923268
2231.000000	25.917981
2230.000000	25.889082
2229.000000	25.871460
2228.000000	25.842560
2227.000000	25.800973
2226.000000	25.736360
2225.000000	25.670338
2224.000000	25.629690
2223.000000	25.568837
2222.000000	25.494473
2221.000000	25.396849
2220.000000	25.318139
2219.000000	25.217930
2218.000000	25.164595
2217.000000	25.081421
2216.000000	24.989201
2215.000000	24.898508
2214.000000	24.835070
2213.000000	24.760354
2212.000000	24.681291
2211.000000	24.594710
2210.000000	24.534091
2209.000000	24.480639
2208.000000	24.432708
2207.000000	24.345539
2206.000000	24.296903
2205.000000	24.236285
2204.000000	24.183067
2203.000000	24.126795
2202.000000	24.099540
2201.000000	24.096251
2200.000000	24.050670
2199.000000	23.994633
2198.000000	23.978891
2197.000000	23.915687
2196.000000	23.888785
2195.000000	23.859768
2194.000000	23.813364
2193.000000	23.808665
2192.000000	23.785992
2191.000000	23.765316
2190.000000	23.754155
2189.000000	23.717620
2188.000000	23.672626
2187.000000	23.695064
2186.000000	23.665224
2185.000000	23.640202
2184.000000	23.606368
2183.000000	23.599907
2182.000000	23.564546
2181.000000	23.558320
2180.000000	23.554678
2179.000000	23.510858
2178.000000	23.504750
2177.000000	23.509096
2176.000000	23.514265
2175.000000	23.508744
2174.000000	23.481254
2173.000000	23.496056
2172.000000	23.520374
2171.000000	23.556087
2170.000000	23.572417
2169.000000	23.576411
2168.000000	23.603196
2167.000000	23.641964
2166.000000	23.689660
2165.000000	23.736299
2164.000000	23.794098
2163.000000	23.854716
2162.000000	23.911811
2161.000000	23.975014
2160.000000	24.049730
2159.000000	24.135371
2158.000000	24.223597
2157.000000	24.310531
2156.000000	24.416378
2155.000000	24.521756
2154.000000	24.631598
2153.000000	24.765170
2152.000000	24.884998
2151.000000	25.006353
2150.000000	25.124888
2149.000000	25.264686
2148.000000	25.385924
2147.000000	25.499172
2146.000000	25.634037
2145.000000	25.738123
2144.000000	25.839976
2143.000000	25.975311
2142.000000	26.105476
2141.000000	26.235524
2140.000000	26.372738
2139.000000	26.465781
2138.000000	26.581732
2137.000000	26.700502
2136.000000	26.816335
2135.000000	26.895868
2134.000000	27.014990
2133.000000	27.135640
2132.000000	27.212588
2131.000000	27.301754
2130.000000	27.391037
2129.000000	27.466693
2128.000000	27.530718
2127.000000	27.606022
2126.000000	27.688374
2125.000000	27.746408
2124.000000	27.795749
2123.000000	27.867058
2122.000000	27.917926
2121.000000	27.968206
2120.000000	28.011321
2119.000000	28.047386
2118.000000	28.097432
2117.000000	28.114584
2116.000000	28.138079
2115.000000	28.172500
2114.000000	28.208096
2113.000000	28.228655
2112.000000	28.228420
2111.000000	28.247216
2110.000000	28.271064
2109.000000	28.273179
2108.000000	28.276821
2107.000000	28.267540
2106.000000	28.277291
2105.000000	28.288568
2104.000000	28.286689
2103.000000	28.309597
2102.000000	28.331565
2101.000000	28.326866
2100.000000	28.310302
2099.000000	28.300316
2098.000000	28.300081
2097.000000	28.327219
2096.000000	28.362697
2095.000000	28.380554
2094.000000	28.392184
2093.000000	28.413213
2092.000000	28.436943
2091.000000	28.447399
2090.000000	28.480410
2089.000000	28.509075
2088.000000	28.516241
2087.000000	28.525991
2086.000000	28.534332
2085.000000	28.527754
2084.000000	28.532805
2083.000000	28.519648
2082.000000	28.488868
2081.000000	28.458324
2080.000000	28.425195
2079.000000	28.380789
2078.000000	28.318408
2077.000000	28.267305
2076.000000	28.195291
2075.000000	28.088151
2074.000000	28.007561
2073.000000	27.925327
2072.000000	27.825353
2071.000000	27.703528
2070.000000	27.582879
2069.000000	27.464343
2068.000000	27.339112
2067.000000	27.202015
2066.000000	27.067973
2065.000000	26.949672
2064.000000	26.823149
2063.000000	26.689576
2062.000000	26.581967
2061.000000	26.487514
2060.000000	26.370859
2059.000000	26.267361
2058.000000	26.188768
2057.000000	26.114287
2056.000000	26.074109
2055.000000	26.036282
2054.000000	26.025474
2053.000000	26.045210
2052.000000	26.101482
2051.000000	26.165860
2050.000000	26.246685
2049.000000	26.341842
2048.000000	26.460729
2047.000000	26.602878
2046.000000	26.756774
2045.000000	26.918306
2044.000000	27.094640
2043.000000	27.273677
2042.000000	27.452361
2041.000000	27.626815
2040.000000	27.800448
2039.000000	27.982186
2038.000000	28.135377
2037.000000	28.281167
2036.000000	28.456797
2035.000000	28.624085
2034.000000	28.730990
2033.000000	28.866442
2032.000000	28.997665
2031.000000	29.128183
2030.000000	29.240375
2029.000000	29.342815
2028.000000	29.461233
2027.000000	29.562499
2026.000000	29.658009
2025.000000	29.757278
2024.000000	29.808498
2023.000000	29.903538
2022.000000	29.966036
2021.000000	30.030649
2020.000000	30.082691
2019.000000	30.122281
2018.000000	30.186894
2017.000000	30.233533
2016.000000	30.265135
2015.000000	30.302845
2014.000000	30.298263
2013.000000	30.347487
2012.000000	30.361349
2011.000000	30.355710
2010.000000	30.333272
2009.000000	30.324344
2008.000000	30.288043
2007.000000	30.295914
2006.000000	30.254914
2005.000000	30.211330
2004.000000	30.177731
2003.000000	30.131210
2002.000000	30.077992
2001.000000	30.004686
2000.000000	29.949236
1999.000000	29.871114
1998.000000	29.820716
1997.000000	29.718392
1996.000000	29.649550
1995.000000	29.563087
1994.000000	29.456769
1993.000000	29.371598
1992.000000	29.273503
1991.000000	29.167656
1990.000000	29.087771
1989.000000	28.958545
1988.000000	28.863740
1987.000000	28.726761
1986.000000	28.625260
1985.000000	28.534332
1984.000000	28.424373
1983.000000	28.297262
1982.000000	28.209388
1981.000000	28.073349
1980.000000	27.980894
1979.000000	27.866353
1978.000000	27.750520
1977.000000	27.643497
1976.000000	27.541644
1975.000000	27.422756
1974.000000	27.346395
1973.000000	27.216935
1972.000000	27.149150
1971.000000	27.046004
1970.000000	26.956486
1969.000000	26.848172
1968.000000	26.776627
1967.000000	26.673717
1966.000000	26.556004
1965.000000	26.448159
1964.000000	26.375440
1963.000000	26.262662
1962.000000	26.180779
1961.000000	26.059072
1960.000000	25.962975
1959.000000	25.872400
1958.000000	25.754922
1957.000000	25.652364
1956.000000	25.557442
1955.000000	25.462989
1954.000000	25.358551
1953.000000	25.257990
1952.000000	25.162716
1951.000000	25.082596
1950.000000	24.967937
1949.000000	24.887582
1948.000000	24.828491
1947.000000	24.747079
1946.000000	24.673655
1945.000000	24.603756
1944.000000	24.530449
1943.000000	24.488157
1942.000000	24.442223
1941.000000	24.416261
1940.000000	24.375379
1939.000000	24.362456
1938.000000	24.345539
1937.000000	24.344834
1936.000000	24.361986
1935.000000	24.377846
1934.000000	24.407333
1933.000000	24.472768
1932.000000	24.513298
1931.000000	24.568747
1930.000000	24.639469
1929.000000	24.736623
1928.000000	24.852456
1927.000000	24.966997
1926.000000	25.108441
1925.000000	25.263394
1924.000000	25.386864
1923.000000	25.545459
1922.000000	25.755509
1921.000000	25.999511
1920.000000	26.231765
1919.000000	26.422666
1918.000000	26.677124
1917.000000	26.950965
1916.000000	27.222691
1915.000000	27.500526
1914.000000	27.850611
1913.000000	28.275411
1912.000000	28.642529
1911.000000	28.975344
1910.000000	29.365841
1909.000000	29.746000
1908.000000	30.161754
1907.000000	30.634720
1906.000000	31.192975
1905.000000	31.744299
1904.000000	32.309016
1903.000000	32.846595
1902.000000	33.431400
1901.000000	34.010214
1900.000000	34.672554
1899.000000	35.333133
1898.000000	36.004636
1897.000000	36.633731
1896.000000	37.197625
1895.000000	37.778671
1894.000000	38.380863
1893.000000	39.019003
1892.000000	39.720816
1891.000000	40.375285
1890.000000	40.978300
1889.000000	41.568861
1888.000000	42.163300
1887.000000	42.696179
1886.000000	43.204272
1885.000000	43.725051
1884.000000	44.227857
1883.000000	44.657004
1882.000000	45.065357
1881.000000	45.480641
1880.000000	45.851637
1879.000000	46.215466
1878.000000	46.563670
1877.000000	46.884620
1876.000000	47.187008
1875.000000	47.475299
1874.000000	47.757951
1873.000000	48.008649
1872.000000	48.243840
1871.000000	48.432979
1870.000000	48.603910
1869.000000	48.791052
1868.000000	48.913464
1867.000000	49.018254
1866.000000	49.121517
1865.000000	49.221961
1864.000000	49.313476
1863.000000	49.425668
1862.000000	49.541736
1861.000000	49.661094
1860.000000	49.762829
1859.000000	49.833551
1858.000000	49.888531
1857.000000	49.946330
1856.000000	49.970765
1855.000000	50.010473
1854.000000	50.047244
1853.000000	50.038315
1852.000000	50.071796
1851.000000	50.144045
1850.000000	50.184223
1849.000000	50.196558
1848.000000	50.194326
1847.000000	50.154031
1846.000000	50.102576
1845.000000	50.078023
1844.000000	50.080137
1843.000000	50.113854
1842.000000	50.121842
1841.000000	50.078610
1840.000000	50.044424
1839.000000	50.004834
1838.000000	49.947152
1837.000000	49.895227
1836.000000	49.856694
1835.000000	49.790437
1834.000000	49.737572
1833.000000	49.707850
1832.000000	49.689406
1831.000000	49.663796
1830.000000	49.639478
1829.000000	49.605527
1828.000000	49.535040
1827.000000	49.499444
1826.000000	49.491573
1825.000000	49.472189
1824.000000	49.482410
1823.000000	49.525759
1822.000000	49.563822
1821.000000	49.566876
1820.000000	49.530811
1819.000000	49.475009
1818.000000	49.469252
1817.000000	49.493805
1816.000000	49.493923
1815.000000	49.483232
1814.000000	49.465845
1813.000000	49.467020
1812.000000	49.455037
1811.000000	49.411336
1810.000000	49.374565
1809.000000	49.361290
1808.000000	49.335562
1807.000000	49.319820
1806.000000	49.288806
1805.000000	49.252623
1804.000000	49.242167
1803.000000	49.244752
1802.000000	49.235354
1801.000000	49.199640
1800.000000	49.164162
1799.000000	49.145248
1798.000000	49.134558
1797.000000	49.119285
1796.000000	49.104601
1795.000000	49.083337
1794.000000	49.066655
1793.000000	49.059607
1792.000000	49.053498
1791.000000	49.031529
1790.000000	49.037403
1789.000000	49.049034
1788.000000	49.060899
1787.000000	49.066303
1786.000000	49.059489
1785.000000	49.070062
1784.000000	49.087449
1783.000000	49.075114
1782.000000	49.067125
1781.000000	49.059372
1780.000000	49.050796
1779.000000	49.026713
1778.000000	48.981954
1777.000000	48.948707
1776.000000	48.913229
1775.000000	48.860599
1774.000000	48.813843
1773.000000	48.770023
1772.000000	48.721388
1771.000000	48.689199
1770.000000	48.639388
1769.000000	48.607786
1768.000000	48.563262
1767.000000	48.515801
1766.000000	48.473627
1765.000000	48.453655
1764.000000	48.443200
1763.000000	48.436269
1762.000000	48.413243
1761.000000	48.394329
1760.000000	48.375768
1759.000000	48.392332
1758.000000	48.380819
1757.000000	48.386223
1756.000000	48.364255
1755.000000	48.368954
1754.000000	48.352624
1753.000000	48.339114
1752.000000	48.335355
1751.000000	48.297762
1750.000000	48.281198
1749.000000	48.230212
1748.000000	48.177817
1747.000000	48.139050
1746.000000	48.068915
1745.000000	47.983391
1744.000000	47.900099
1743.000000	47.821037
1742.000000	47.739860
1741.000000	47.639181
1740.000000	47.545316
1739.000000	47.464844
1738.000000	47.414446
1737.000000	47.341844
1736.000000	47.260667
1735.000000	47.209094
1734.000000	47.171619
1733.000000	47.104656
1732.000000	47.063891
1731.000000	46.997869
1730.000000	46.958631
1729.000000	46.896250
1728.000000	46.836454
1727.000000	46.812606
1726.000000	46.777363
1725.000000	46.749168
1724.000000	46.755159
1723.000000	46.803090
1722.000000	46.897895
1721.000000	47.045565
1720.000000	47.233177
1719.000000	47.433242
1718.000000	47.673250
1717.000000	47.930761
1716.000000	48.161723
1715.000000	48.416532
1714.000000	48.627993
1713.000000	48.836046
1712.000000	49.007799
1711.000000	49.154999
1710.000000	49.301494
1709.000000	49.421674
1708.000000	49.556186
1707.000000	49.638773
1706.000000	49.708437
1705.000000	49.778337
1704.000000	49.822038
1703.000000	49.857752
1702.000000	49.897577
1701.000000	49.906975
1700.000000	49.928473
1699.000000	49.933290
1698.000000	49.926359
1697.000000	49.909442
1696.000000	49.893465
1695.000000	49.847414
1694.000000	49.783153
1693.000000	49.712314
1692.000000	49.608463
1691.000000	49.571458
1690.000000	49.560415
1689.000000	49.517183
1688.000000	49.559593
1687.000000	49.678833
1686.000000	49.805239
1685.000000	49.991911
1684.000000	50.220524
1683.000000	50.453482
1682.000000	50.705590
1681.000000	50.953938
1680.000000	51.194885
1679.000000	51.464145
1678.000000	51.661508
1677.000000	51.876140
1676.000000	52.067512
1675.000000	52.266872
1674.000000	52.448962
1673.000000	52.638337
1672.000000	52.829943
1671.000000	53.036352
1670.000000	53.224434
1669.000000	53.439889
1668.000000	53.617398
1667.000000	53.836612
1666.000000	53.973826
1665.000000	54.136533
1664.000000	54.291839
1663.000000	54.451139
1662.000000	54.586473
1661.000000	54.705831
1660.000000	54.819550
1659.000000	54.926220
1658.000000	55.046165
1657.000000	55.125815
1656.000000	55.183144
1655.000000	55.248462
1654.000000	55.300622
1653.000000	55.339272
1652.000000	55.383444
1651.000000	55.409054
1650.000000	55.435486
1649.000000	55.431022
1648.000000	55.435721
1647.000000	55.437601
1646.000000	55.422446
1645.000000	55.419744
1644.000000	55.428203
1643.000000	55.414693
1642.000000	55.409406
1641.000000	55.415750
1640.000000	55.417865
1639.000000	55.398363
1638.000000	55.386028
1637.000000	55.384501
1636.000000	55.364530
1635.000000	55.347378
1634.000000	55.317304
1633.000000	55.291458
1632.000000	55.265026
1631.000000	55.225906
1630.000000	55.177035
1629.000000	55.138032
1628.000000	55.122408
1627.000000	55.082700
1626.000000	55.036414
1625.000000	54.991772
1624.000000	54.955237
1623.000000	54.925045
1622.000000	54.874294
1621.000000	54.832825
1620.000000	54.803808
1619.000000	54.780312
1618.000000	54.735435
1617.000000	54.713819
1616.000000	54.669883
1615.000000	54.636989
1614.000000	54.593640
1613.000000	54.551700
1612.000000	54.495310
1611.000000	54.462299
1610.000000	54.416013
1609.000000	54.358801
1608.000000	54.269753
1607.000000	54.198679
1606.000000	54.124550
1605.000000	54.058528
1604.000000	53.991918
1603.000000	53.905101
1602.000000	53.816875
1601.000000	53.722306
1600.000000	53.658633
1599.000000	53.583094
1598.000000	53.505089
1597.000000	53.430725
1596.000000	53.361413
1595.000000	53.304319
1594.000000	53.246520
1593.000000	53.174154
1592.000000	53.107074
1591.000000	53.066309
1590.000000	53.016146
1589.000000	52.956467
1588.000000	52.903719
1587.000000	52.847682
1586.000000	52.805038
1585.000000	52.750176
1584.000000	52.695431
1583.000000	52.648792
1582.000000	52.590876
1581.000000	52.539773
1580.000000	52.517922
1579.000000	52.492429
1578.000000	52.460945
1577.000000	52.447670
1576.000000	52.436157
1575.000000	52.418066
1574.000000	52.402676
1573.000000	52.399504
1572.000000	52.401149
1571.000000	52.419828
1570.000000	52.442501
1569.000000	52.450490
1568.000000	52.468581
1567.000000	52.504060
1566.000000	52.524501
1565.000000	52.537893
1564.000000	52.545294
1563.000000	52.546469
1562.000000	52.550816
1561.000000	52.544472
1560.000000	52.539303
1559.000000	52.514280
1558.000000	52.482326
1557.000000	52.450137
1556.000000	52.404908
1555.000000	52.353805
1554.000000	52.281439
1553.000000	52.199792
1552.000000	52.118027
1551.000000	52.029801
1550.000000	51.945687
1549.000000	51.858636
1548.000000	51.773699
1547.000000	51.693814
1546.000000	51.615222
1545.000000	51.542150
1544.000000	51.485878
1543.000000	51.452632
1542.000000	51.408108
1541.000000	51.351719
1540.000000	51.322114
1539.000000	51.286048
1538.000000	51.231304
1537.000000	51.193123
1536.000000	51.157058
1535.000000	51.116645
1534.000000	51.071769
1533.000000	51.022545
1532.000000	50.960047
1531.000000	50.897079
1530.000000	50.838340
1529.000000	50.785710
1528.000000	50.725209
1527.000000	50.667645
1526.000000	50.597628
1525.000000	50.539124
1524.000000	50.466992
1523.000000	50.402262
1522.000000	50.331070
1521.000000	50.265753
1520.000000	50.203019
1519.000000	50.135469
1518.000000	50.069682
1517.000000	49.998608
1516.000000	49.919193
1515.000000	49.851878
1514.000000	49.776692
1513.000000	49.694457
1512.000000	49.622326
1511.000000	49.535745
1510.000000	49.461851
1509.000000	49.387018
1508.000000	49.310539
1507.000000	49.229362
1506.000000	49.165924
1505.000000	49.111767
1504.000000	49.044687
1503.000000	48.984773
1502.000000	48.936842
1501.000000	48.888911
1500.000000	48.843800
1499.000000	48.804679
1498.000000	48.788468
1497.000000	48.775075
1496.000000	48.772256
1495.000000	48.756631
1494.000000	48.772843
1493.000000	48.780714
1492.000000	48.799158
1491.000000	48.812668
1490.000000	48.856135
1489.000000	48.902304
1488.000000	48.931556
1487.000000	48.953759
1486.000000	48.988297
1485.000000	49.015435
1484.000000	49.045627
1483.000000	49.092383
1482.000000	49.150300
1481.000000	49.167569
1480.000000	49.208804
1479.000000	49.248041
1478.000000	49.297499
1477.000000	49.328396
1476.000000	49.407694
1475.000000	49.476653
1474.000000	49.548902
1473.000000	49.643354
1472.000000	49.733812
1471.000000	49.822273
1470.000000	49.888413
1469.000000	49.970061
1468.000000	50.072501
1467.000000	50.170243
1466.000000	50.260231
1465.000000	50.351746
1464.000000	50.451485
1463.000000	50.546290
1462.000000	50.663298
1461.000000	50.769263
1460.000000	50.878635
1459.000000	50.989652
1458.000000	51.089860
1457.000000	51.221670
1456.000000	51.336916
1455.000000	51.429606
1454.000000	51.519594
1453.000000	51.651992
1452.000000	51.764066
1451.000000	51.892234
1450.000000	51.958492
1449.000000	52.040844
1448.000000	52.171245
1447.000000	52.315742
1446.000000	52.423940
1445.000000	52.510168
1444.000000	52.588409
1443.000000	52.725740
1442.000000	52.833115
1441.000000	52.950241
1440.000000	53.090392
1439.000000	53.202583
1438.000000	53.358829
1437.000000	53.469023
1436.000000	53.641833
1435.000000	53.793967
1434.000000	53.965368
1433.000000	54.162261
1432.000000	54.302294
1431.000000	54.457248
1430.000000	54.641453
1429.000000	54.872415
1428.000000	55.110307
1427.000000	55.312722
1426.000000	55.546033
1425.000000	55.805659
1424.000000	56.060821
1423.000000	56.313751
1422.000000	56.563979
1421.000000	56.876001
1420.000000	57.204704
1419.000000	57.511204
1418.000000	57.799965
1417.000000	58.106230
1416.000000	58.469471
1415.000000	58.868661
1414.000000	59.211814
1413.000000	59.521604
1412.000000	59.855006
1411.000000	60.306826
1410.000000	60.776973
1409.000000	61.171346
1408.000000	61.565837
1407.000000	61.960798
1406.000000	62.357991
1405.000000	62.768341
1404.000000	63.093755
1403.000000	63.515384
1402.000000	63.960507
1401.000000	64.399992
1400.000000	64.743968
1399.000000	64.976222
1398.000000	65.291297
1397.000000	65.660883
1396.000000	66.068649
1395.000000	66.348481
1394.000000	66.558414
1393.000000	66.811932
1392.000000	67.100810
1391.000000	67.367015
1390.000000	67.661415
1389.000000	67.962158
1388.000000	68.288629
1387.000000	68.512895
1386.000000	68.784856
1385.000000	69.024981
1384.000000	69.305401
1383.000000	69.554102
1382.000000	69.696720
1381.000000	69.813610
1380.000000	69.882218
1379.000000	69.999930
1378.000000	70.103546
1377.000000	70.232537
1376.000000	70.331336
1375.000000	70.433776
1374.000000	70.549962
1373.000000	70.714784
1372.000000	70.848121
1371.000000	70.965364
1370.000000	71.078613
1369.000000	71.188455
1368.000000	71.304875
1367.000000	71.398623
1366.000000	71.512811
1365.000000	71.643799
1364.000000	71.739074
1363.000000	71.864893
1362.000000	71.920225
1361.000000	71.962752
1360.000000	71.970505
1359.000000	72.020198
1358.000000	72.103138
1357.000000	72.187135
1356.000000	72.302263
1355.000000	72.417861
1354.000000	72.497864
1353.000000	72.587734
1352.000000	72.769473
1351.000000	72.946512
1350.000000	73.114153
1349.000000	73.290840
1348.000000	73.459773
1347.000000	73.630233
1346.000000	73.788711
1345.000000	73.949186
1344.000000	74.113890
1343.000000	74.269548
1342.000000	74.415573
1341.000000	74.555960
1340.000000	74.693996
1339.000000	74.799021
1338.000000	74.910273
1337.000000	75.021760
1336.000000	75.131719
1335.000000	75.236274
1334.000000	75.335191
1333.000000	75.425061
1332.000000	75.518691
1331.000000	75.592702
1330.000000	75.660722
1329.000000	75.727684
1328.000000	75.792767
1327.000000	75.852094
1326.000000	75.917999
1325.000000	75.965577
1324.000000	76.007987
1323.000000	76.056740
1322.000000	76.112660
1321.000000	76.145436
1320.000000	76.190195
1319.000000	76.233779
1318.000000	76.288877
1317.000000	76.328349
1316.000000	76.358776
1315.000000	76.407294
1314.000000	76.434432
1313.000000	76.457457
1312.000000	76.497987
1311.000000	76.530176
1310.000000	76.538870
1309.000000	76.555316
1308.000000	76.573761
1307.000000	76.594319
1306.000000	76.608534
1305.000000	76.610414
1304.000000	76.619107
1303.000000	76.627683
1302.000000	76.640253
1301.000000	76.622396
1300.000000	76.616757
1299.000000	76.628740
1298.000000	76.620869
1297.000000	76.607124
1296.000000	76.592322
1295.000000	76.596669
1294.000000	76.584568
1293.000000	76.568826
1292.000000	76.548855
1291.000000	76.518663
1290.000000	76.502686
1289.000000	76.488941
1288.000000	76.465211
1287.000000	76.422097
1286.000000	76.392257
1285.000000	76.370994
1284.000000	76.338217
1283.000000	76.308965
1282.000000	76.287114
1281.000000	76.267378
1280.000000	76.257862
1279.000000	76.234602
1278.000000	76.202765
1277.000000	76.188785
1276.000000	76.189020
1275.000000	76.180562
1274.000000	76.175158
1273.000000	76.173866
1272.000000	76.178565
1271.000000	76.190195
1270.000000	76.195951
1269.000000	76.193954
1268.000000	76.201708
1267.000000	76.210519
1266.000000	76.218625
1265.000000	76.224146
1264.000000	76.213573
1263.000000	76.223324
1262.000000	76.231900
1261.000000	76.237421
1260.000000	76.229198
1259.000000	76.220387
1258.000000	76.217920
1257.000000	76.204175
1256.000000	76.193132
1255.000000	76.183616
1254.000000	76.171634
1253.000000	76.142617
1252.000000	76.106316
1251.000000	76.086227
1250.000000	76.044405
1249.000000	75.998471
1248.000000	75.955357
1247.000000	75.918234
1246.000000	75.863254
1245.000000	75.817555
1244.000000	75.765630
1243.000000	75.707713
1242.000000	75.663894
1241.000000	75.607505
1240.000000	75.557694
1239.000000	75.495078
1238.000000	75.454783
1237.000000	75.416838
1236.000000	75.385471
1235.000000	75.334133
1234.000000	75.306174
1233.000000	75.253661
1232.000000	75.225819
1231.000000	75.182117
1230.000000	75.125610
1229.000000	75.074507
1228.000000	75.041496
1227.000000	74.999086
1226.000000	74.959614
1225.000000	74.921903
1224.000000	74.883371
1223.000000	74.845895
1222.000000	74.792325
1221.000000	74.750855
1220.000000	74.715260
1219.000000	74.678489
1218.000000	74.634905
1217.000000	74.596607
1216.000000	74.542802
1215.000000	74.512963
1214.000000	74.480891
1213.000000	74.421330
1212.000000	74.385382
1211.000000	74.320416
1210.000000	74.263792
1209.000000	74.207872
1208.000000	74.137503
1207.000000	74.094859
1206.000000	74.030363
1205.000000	73.981727
1204.000000	73.910771
1203.000000	73.861548
1202.000000	73.801046
1201.000000	73.744657
1200.000000	73.687328
1199.000000	73.618486
1198.000000	73.531552
1197.000000	73.466234
1196.000000	73.405498
1195.000000	73.331135
1194.000000	73.268049
1193.000000	73.184640
1192.000000	73.129073
1191.000000	73.069981
1190.000000	73.019466
1189.000000	72.958377
1188.000000	72.952033
1187.000000	72.964838
1186.000000	72.960139
1185.000000	72.968128
1184.000000	72.969303
1183.000000	73.011947
1182.000000	73.050597
1181.000000	73.087485
1180.000000	73.147634
1179.000000	73.190631
1178.000000	73.221410
1177.000000	73.276390
1176.000000	73.329255
1175.000000	73.397862
1174.000000	73.444266
1173.000000	73.490552
1172.000000	73.564328
1171.000000	73.631056
1170.000000	73.715875
1169.000000	73.784717
1168.000000	73.895851
1167.000000	74.018146
1166.000000	74.115300
1165.000000	74.223145
1164.000000	74.322766
1163.000000	74.442006
1162.000000	74.554197
1161.000000	74.651469
1160.000000	74.788096
1159.000000	74.859992
1158.000000	74.996619
1157.000000	75.076739
1156.000000	75.163790
1155.000000	75.212661
1154.000000	75.324735
1153.000000	75.361271
1152.000000	75.415076
1151.000000	75.461479
1150.000000	75.477104
1149.000000	75.544301
1148.000000	75.593055
1147.000000	75.632410
1146.000000	75.701369
1145.000000	75.734733
1144.000000	75.758229
1143.000000	75.792415
1142.000000	75.839641
1141.000000	75.897558
1140.000000	75.966987
1139.000000	76.031600
1138.000000	76.122645
1137.000000	76.209109
1136.000000	76.274074
1135.000000	76.352667
1134.000000	76.385091
1133.000000	76.407412
1132.000000	76.471907
1131.000000	76.538987
1130.000000	76.577402
1129.000000	76.634144
1128.000000	76.638138
1127.000000	76.672442
1126.000000	76.688771
1125.000000	76.697230
1124.000000	76.713207
1123.000000	76.700519
1122.000000	76.679726
1121.000000	76.666803
1120.000000	76.638256
1119.000000	76.615230
1118.000000	76.607594
1117.000000	76.567064
1116.000000	76.543099
1115.000000	76.507738
1114.000000	76.480131
1113.000000	76.442185
1112.000000	76.410231
1111.000000	76.396721
1110.000000	76.360068
1109.000000	76.347263
1108.000000	76.327057
1107.000000	76.308495
1106.000000	76.277834
1105.000000	76.256923
1104.000000	76.236951
1103.000000	76.207347
1102.000000	76.186318
1101.000000	76.160473
1100.000000	76.128167
1099.000000	76.104671
1098.000000	76.080001
1097.000000	76.039823
1096.000000	76.007634
1095.000000	75.998706
1094.000000	75.975445
1093.000000	75.943844
1092.000000	75.912830
1091.000000	75.886867
1090.000000	75.860787
1089.000000	75.813678
1088.000000	75.774793
1087.000000	75.753765
1086.000000	75.732736
1085.000000	75.695143
1084.000000	75.668828
1083.000000	75.615141
1082.000000	75.584009
1081.000000	75.554757
1080.000000	75.529852
1079.000000	75.491554
1078.000000	75.441156
1077.000000	75.409084
1076.000000	75.373488
1075.000000	75.330257
1074.000000	75.282796
1073.000000	75.249784
1072.000000	75.218183
1071.000000	75.177653
1070.000000	75.137123
1069.000000	75.094478
1068.000000	75.040086
1067.000000	74.994975
1066.000000	74.972889
1065.000000	74.957734
1064.000000	74.933181
1063.000000	74.878554
1062.000000	74.848480
1061.000000	74.834382
1060.000000	74.797729
1059.000000	74.768007
1058.000000	74.746626
1057.000000	74.709503
1056.000000	74.666859
1055.000000	74.655581
1054.000000	74.632908
1053.000000	74.610352
1052.000000	74.591673
1051.000000	74.590968
1050.000000	74.568295
1049.000000	74.543037
1048.000000	74.524475
1047.000000	74.519424
1046.000000	74.512963
1045.000000	74.488527
1044.000000	74.478307
1043.000000	74.471375
1042.000000	74.455398
1041.000000	74.455516
1040.000000	74.457161
1039.000000	74.460215
1038.000000	74.439656
1037.000000	74.419215
1036.000000	74.423327
1035.000000	74.422622
1034.000000	74.411579
1033.000000	74.402651
1032.000000	74.409465
1031.000000	74.421917
1030.000000	74.428379
1029.000000	74.434252
1028.000000	74.441771
1027.000000	74.451874
1026.000000	74.458453
1025.000000	74.476075
1024.000000	74.502742
1023.000000	74.546326
1022.000000	74.589676
1021.000000	74.614816
1020.000000	74.654876
1019.000000	74.714555
1018.000000	74.746274
1017.000000	74.785746
1016.000000	74.849302
1015.000000	74.906044
1014.000000	74.975003
1013.000000	75.040791
1012.000000	75.115507
1011.000000	75.191515
1010.000000	75.242971
1009.000000	75.329082
1008.000000	75.410964
1007.000000	75.468881
1006.000000	75.535960
1005.000000	75.624304
1004.000000	75.702779
1003.000000	75.765865
1002.000000	75.820022
1001.000000	75.874649
1000.000000	75.936090
999.000000	76.005402
998.000000	76.063436
997.000000	76.096330
996.000000	76.139915
995.000000	76.194777
994.000000	76.263384
993.000000	76.312137
992.000000	76.368174
991.000000	76.427266
990.000000	76.499162
989.000000	76.556256
988.000000	76.625098
987.000000	76.701107
986.000000	76.763957
985.000000	76.833269
984.000000	76.920908
983.000000	77.026168
982.000000	77.102881
981.000000	77.185938
980.000000	77.304238
979.000000	77.393991
978.000000	77.516168
977.000000	77.628125
976.000000	77.747717
975.000000	77.863081
974.000000	77.988195
973.000000	78.120592
972.000000	78.245589
971.000000	78.408413
970.000000	78.570533
969.000000	78.699171
968.000000	78.834506
967.000000	79.012955
966.000000	79.139361
965.000000	79.261068
964.000000	79.428239
963.000000	79.580138
962.000000	79.696559
961.000000	79.816034
960.000000	79.942558
959.000000	80.083531
958.000000	80.190436
957.000000	80.304272
956.000000	80.396845
955.000000	80.519962
954.000000	80.614531
953.000000	80.761849
952.000000	80.900708
951.000000	80.997157
950.000000	81.100068
949.000000	81.214256
948.000000	81.333496
947.000000	81.465072
946.000000	81.575736
945.000000	81.671715
944.000000	81.828548
943.000000	81.920886
942.000000	82.015926
941.000000	82.118601
940.000000	82.266741
939.000000	82.361311
938.000000	82.465396
937.000000	82.582522
936.000000	82.711043
935.000000	82.863881
934.000000	82.954692
933.000000	83.071935
932.000000	83.179075
931.000000	83.283748
930.000000	83.444575
929.000000	83.558646
928.000000	83.650514
927.000000	83.803940
926.000000	83.918833
925.000000	84.011876
924.000000	84.125477
923.000000	84.206302
922.000000	84.306158
921.000000	84.424341
920.000000	84.570013
919.000000	84.645199
918.000000	84.752104
917.000000	84.834456
916.000000	84.956281
915.000000	85.040865
914.000000	85.144011
913.000000	85.251620
912.000000	85.377909
911.000000	85.459086
910.000000	85.564582
909.000000	85.656214
908.000000	85.768171
907.000000	85.844179
906.000000	85.958838
905.000000	86.037900
904.000000	86.046124
903.000000	86.119312
902.000000	86.186275
901.000000	86.257584
900.000000	86.324429
899.000000	86.359085
898.000000	86.398910
897.000000	86.411715
896.000000	86.308687
895.000000	86.314091
894.000000	86.267452
893.000000	86.097696
892.000000	86.076433
891.000000	86.017459
890.000000	85.936164
889.000000	85.772635
888.000000	85.511012
887.000000	85.313179
886.000000	85.002567
885.000000	84.761502
884.000000	84.396029
883.000000	84.167299
882.000000	83.763175
881.000000	83.483225
880.000000	83.054548
879.000000	82.735478
878.000000	82.284010
877.000000	81.715182
876.000000	81.315405
875.000000	80.686193
874.000000	80.084589
873.000000	79.474761
872.000000	79.058419
871.000000	79.010018
870.000000	79.107760
869.000000	79.229232
868.000000	79.316400
867.000000	79.379956
866.000000	79.481222
865.000000	79.537494
864.000000	79.619376
863.000000	79.689510
862.000000	79.771745
861.000000	79.829309
860.000000	79.915420
859.000000	79.995070
858.000000	82.543167
857.000000	82.380000
856.000000	82.383800
855.000000	82.865700
854.000000	83.139900
853.000000	83.211000
852.000000	83.326900
851.000000	83.623300
850.000000	84.042600
849.000000	84.208000
848.000000	84.278700
847.000000	84.508400
846.000000	84.894000
845.000000	85.231300
844.000000	85.104800
843.000000	85.815600
842.000000	85.906600
841.000000	86.125300
840.000000	86.438300
839.000000	86.597500
838.000000	86.936100
837.000000	87.251300
836.000000	87.477300
835.000000	87.721000
834.000000	88.099000
833.000000	88.166000
832.000000	88.326000
831.000000	88.415200
830.000000	88.508800
829.000000	88.742400
828.000000	88.675200
827.000000	88.570700
826.000000	88.998600
825.000000	88.849100
824.000000	88.821700
823.000000	88.600200
822.000000	88.629600
821.000000	88.793000
820.000000	88.893100
819.000000	88.849900
818.000000	88.497100
817.000000	88.450700
816.000000	88.476200
815.000000	88.388400
814.000000	88.032200
813.000000	87.977700
812.000000	87.947500
811.000000	87.973600
810.000000	87.792700
809.000000	87.623300
808.000000	87.638000
807.000000	87.464900
806.000000	87.433800
805.000000	87.381400
804.000000	87.254700
803.000000	87.262200
802.000000	87.233600
801.000000	87.105900
800.000000	87.013400
799.000000	87.114100
798.000000	87.191500
797.000000	87.128400
796.000000	87.063300
795.000000	87.050200
794.000000	86.797600
793.000000	86.778700
792.000000	86.767800
791.000000	86.834300
790.000000	86.661200
789.000000	86.544000
788.000000	86.453000
787.000000	86.374800
786.000000	86.393700
785.000000	86.286600
784.000000	86.284400
783.000000	86.205600
782.000000	85.976800
781.000000	85.826200
780.000000	85.710500
779.000000	85.578300
778.000000	85.490900
777.000000	85.312100
776.000000	85.127000
775.000000	85.014000
774.000000	84.898400
773.000000	84.794600
772.000000	84.729000
771.000000	84.697700
770.000000	84.648700
769.000000	84.512700
768.000000	84.359200
767.000000	84.260000
766.000000	84.144600
765.000000	84.137500
764.000000	84.040100
763.000000	83.797900
762.000000	83.599400
761.000000	83.570100
760.000000	83.529800
759.000000	83.356700
758.000000	83.184300
757.000000	83.100000
756.000000	82.965900
755.000000	82.787700
754.000000	82.650400
753.000000	82.622800
752.000000	82.416900
751.000000	82.208100
750.000000	82.189000
749.000000	82.150300
748.000000	81.988200
747.000000	81.837700
746.000000	81.734700
745.000000	81.633500
744.000000	81.568300
743.000000	81.472000
742.000000	81.359500
741.000000	81.253400
740.000000	81.243000
739.000000	81.206100
738.000000	81.090200
737.000000	81.064000
736.000000	81.012000
735.000000	80.946700
734.000000	80.863000
733.000000	80.767400
732.000000	80.752600
731.000000	80.716800
730.000000	80.665300
729.000000	80.660800
728.000000	80.552100
727.000000	80.460600
726.000000	80.397400
725.000000	80.329800
724.000000	80.281000
723.000000	80.157300
722.000000	79.945600
721.000000	79.852200
720.000000	79.636300
719.000000	79.488900
718.000000	79.327000
717.000000	79.144900
716.000000	78.907100
715.000000	78.605100
714.000000	78.347800
713.000000	78.009800
712.000000	77.695000
711.000000	77.396300
710.000000	77.062900
709.000000	76.713300
708.000000	76.341400
707.000000	75.958300
706.000000	75.481500
705.000000	75.070300
704.000000	74.626000
703.000000	74.125200
702.000000	73.582400
701.000000	73.103200
700.000000	72.598700
699.000000	72.122100
698.000000	71.558800
697.000000	71.025000
696.000000	70.456600
695.000000	69.867200
694.000000	69.335800
693.000000	68.790200
692.000000	68.180000
691.000000	67.646900
690.000000	67.098500
689.000000	66.538000
688.000000	65.991600
687.000000	65.491800
686.000000	64.935900
685.000000	64.441400
684.000000	63.890300
683.000000	63.364400
682.000000	62.883100
681.000000	62.409200
680.000000	61.917500
679.000000	61.470500
678.000000	60.958500
677.000000	60.496900
676.000000	60.167600
675.000000	59.776800
674.000000	59.360500
673.000000	59.038300
672.000000	58.724100
671.000000	58.453100
670.000000	58.135300
669.000000	57.895900
668.000000	57.689500
667.000000	57.498000
666.000000	57.341300
665.000000	57.221700
664.000000	57.149000
663.000000	57.056200
662.000000	56.993000
661.000000	56.980200
660.000000	57.018800
659.000000	57.086900
658.000000	57.204300
657.000000	57.278600
656.000000	57.324400
655.000000	57.503000
654.000000	57.650900
653.000000	57.758900
652.000000	57.923300
651.000000	58.114000
650.000000	58.281700
649.000000	58.489900
648.000000	58.739500
647.000000	59.009800
646.000000	59.227900
645.000000	59.466900
644.000000	59.731100
643.000000	59.960900
642.000000	60.215200
641.000000	60.518600
640.000000	60.754100
639.000000	60.998900
638.000000	61.238700
637.000000	61.425800
636.000000	61.635900
635.000000	61.891500
634.000000	62.150400
633.000000	62.412600
632.000000	62.700100
631.000000	62.984300
630.000000	63.230100
629.000000	63.459400
628.000000	63.783400
627.000000	64.063400
626.000000	64.342900
625.000000	64.635000
624.000000	64.894800
623.000000	65.136400
622.000000	65.404900
621.000000	65.636200
620.000000	65.863400
619.000000	66.109400
618.000000	66.337400
617.000000	66.511000
616.000000	66.780100
615.000000	66.993200
614.000000	67.226400
613.000000	67.509200
612.000000	67.762600
611.000000	68.104600
610.000000	68.337000
609.000000	68.620100
608.000000	68.915900
607.000000	69.207900
606.000000	69.495500
605.000000	69.746000
604.000000	70.034800
603.000000	70.214600
602.000000	70.487600
601.000000	70.625000
600.000000	70.871000
599.000000	70.985800
598.000000	71.135700
597.000000	71.320400
596.000000	71.432700
595.000000	71.530500
594.000000	71.634400
593.000000	71.714800
592.000000	71.844200
591.000000	71.922100
590.000000	72.057800
589.000000	72.120200
588.000000	72.223800
587.000000	72.298700
586.000000	72.296700
585.000000	72.392300
584.000000	72.423400
583.000000	72.431700
582.000000	72.392000
581.000000	72.431300
580.000000	72.440400
579.000000	72.385700
578.000000	72.369000
577.000000	72.320100
576.000000	72.205800
575.000000	72.097700
574.000000	71.988600
573.000000	71.868500
572.000000	71.688300
571.000000	71.559100
570.000000	71.396600
569.000000	71.264800
568.000000	71.128400
567.000000	70.906800
566.000000	70.775600
565.000000	70.586700
564.000000	70.366200
563.000000	70.205600
562.000000	69.960400
561.000000	69.737500
560.000000	69.517300
559.000000	69.219400
558.000000	68.930200
557.000000	68.659900
556.000000	68.396000
555.000000	68.126900
554.000000	67.747800
553.000000	67.392500
552.000000	67.042700
551.000000	66.665100
550.000000	66.296800
549.000000	65.862500
548.000000	65.516400
547.000000	65.050000
546.000000	64.653800
545.000000	64.252100
544.000000	63.903400
543.000000	63.472800
542.000000	63.044000
541.000000	62.624800
540.000000	62.153800
539.000000	61.672700
538.000000	61.129800
537.000000	60.615300
536.000000	60.063900
535.000000	59.480500
534.000000	58.901200
533.000000	58.309800
532.000000	57.688300
531.000000	57.045600
530.000000	56.399900
529.000000	55.789500
528.000000	55.168900
527.000000	54.566500
526.000000	53.955300
525.000000	53.334500
524.000000	52.702400
523.000000	52.053900
522.000000	51.424900
521.000000	50.763900
520.000000	50.114100
519.000000	49.466300
518.000000	48.809300
517.000000	48.114500
516.000000	47.464700
515.000000	46.827300
514.000000	46.150200
513.000000	45.459300
512.000000	44.817500
511.000000	44.187600
510.000000	43.524200
509.000000	42.890200
508.000000	42.229700
507.000000	41.599400
506.000000	40.987400
505.000000	40.323500
504.000000	39.647700
503.000000	38.986400
502.000000	38.317600
501.000000	37.649400
500.000000	36.996000
499.000000	36.358300
498.000000	35.741500
497.000000	35.147600
496.000000	34.573600
495.000000	33.992600
494.000000	33.412400
493.000000	32.865500
492.000000	32.358900
491.000000	31.830700
490.000000	31.349100
489.000000	30.880400
488.000000	30.432600
487.000000	29.988500
486.000000	29.556500
485.000000	29.174400
484.000000	28.829800
483.000000	28.475000
482.000000	28.140600
481.000000	27.815800
480.000000	27.480100
479.000000	27.165200
478.000000	26.878200
477.000000	26.590000
476.000000	26.306000
475.000000	26.037500
474.000000	25.780100
473.000000	25.522000
472.000000	25.259400
471.000000	25.013300
470.000000	24.774500
469.000000	24.504000
468.000000	24.254200
467.000000	24.000900
466.000000	23.767900
465.000000	23.558800
464.000000	23.316300
463.000000	23.068700
462.000000	22.835900
461.000000	22.616100
460.000000	22.402800
459.000000	22.195400
458.000000	21.977200
457.000000	21.781600
456.000000	21.601600
455.000000	21.448700
454.000000	21.277700
453.000000	21.084400
452.000000	20.961600
451.000000	20.819800
450.000000	20.680000
449.000000	20.553200
448.000000	20.424700
447.000000	20.309000
446.000000	20.190100
445.000000	20.085800
444.000000	19.971900
443.000000	19.854100
442.000000	19.757600
441.000000	19.649500
440.000000	19.524000
439.000000	19.391700
438.000000	19.281200
437.000000	19.171400
436.000000	19.048600
435.000000	18.901000
434.000000	18.745000
433.000000	18.592100
432.000000	18.432400
431.000000	18.241400
430.000000	18.048700
429.000000	17.865100
428.000000	17.654500
427.000000	17.446300
426.000000	17.240900
425.000000	16.973300
424.000000	16.720100
423.000000	16.492200
422.000000	16.269100
421.000000	16.017000
420.000000	15.726400
419.000000	15.443600
418.000000	15.170600
417.000000	14.927800
416.000000	14.647900
415.000000	14.351500
414.000000	14.084700
413.000000	13.808800
412.000000	13.510000
411.000000	13.198000
410.000000	12.900400
409.000000	12.615100
408.000000	12.352100
407.000000	12.058400
406.000000	11.771400
405.000000	11.535600
404.000000	11.275300
403.000000	10.996400
402.000000	10.744000
401.000000	10.501200
400.000000	10.255900
399.000000	10.031800
398.000000	9.812900
397.000000	9.574000
396.000000	9.368500
395.000000	9.188400
394.000000	8.997500
393.000000	8.812200
392.000000	8.633200
391.000000	8.461400
390.000000	8.298100
389.000000	8.126500
388.000000	7.957800
387.000000	7.833300
386.000000	7.726800
385.000000	7.600200
384.000000	7.496100
383.000000	7.386200
382.000000	7.270400
381.000000	7.175800
380.000000	7.122400
379.000000	7.054700
378.000000	6.954100
377.000000	6.882700
376.000000	6.921400
375.000000	6.334000
374.000000	6.015000
373.000000	5.964700
372.000000	6.116900
371.000000	6.233100
370.000000	6.144700
369.000000	6.390000
368.000000	6.262400
367.000000	6.237800
366.000000	6.263100
365.000000	6.201300
364.000000	6.435300
363.000000	6.281300
362.000000	6.303700
361.000000	6.437000
360.000000	6.465300
359.000000	6.373200
358.000000	6.478300
357.000000	6.374100
356.000000	6.592800
355.000000	6.523500
354.000000	6.379200
353.000000	6.352300
352.000000	6.516200
351.000000	6.340600
350.000000	6.386500
349.000000	6.520800
348.000000	6.314000
347.000000	6.369400
346.000000	6.405400
345.000000	6.354000
344.000000	6.619900
343.000000	6.483400
342.000000	6.656400
341.000000	6.443300
340.000000	6.266600
339.000000	6.816300
338.000000	6.573900
337.000000	6.263600
336.000000	6.508400
335.000000	6.567500
334.000000	6.312900
333.000000	6.850600
332.000000	6.378400
331.000000	7.283600
330.000000	6.038100
329.000000	6.624800
328.000000	6.288900
327.000000	7.004200
326.000000	6.834500
325.000000	7.068400
324.000000	6.918500
323.000000	7.531200
322.000000	7.237600
321.000000	7.621100
320.000000	8.627000
319.000000	7.042100
318.000000	8.087800
317.000000	8.089200
316.000000	6.358300
315.000000	6.186600
314.000000	6.113300
313.000000	6.156600
312.000000	6.162000
311.000000	6.145600
310.000000	6.161100
309.000000	6.193400
308.000000	6.125000
307.000000	6.174100
306.000000	6.219100
305.000000	6.205600
304.000000	6.281900
303.000000	6.230100
302.000000	6.244300
301.000000	6.270800
300.000000	6.248200
299.000000	6.226400
298.000000	6.311000
297.000000	6.257500
296.000000	6.213200
295.000000	6.292000
294.000000	6.248400
293.000000	6.243600
292.000000	6.242000
291.000000	6.267700
290.000000	6.300100
289.000000	6.290300
288.000000	6.266100
287.000000	6.289300
286.000000	6.270200
285.000000	6.271600
284.000000	6.303900
283.000000	6.304000
282.000000	6.301500
281.000000	6.317100
280.000000	6.316700
279.000000	6.291800
278.000000	6.321700
277.000000	6.334800
276.000000	6.364400
275.000000	6.303400
274.000000	6.375000
273.000000	6.383200
272.000000	6.409400
271.000000	6.361700
270.000000	6.417800
269.000000	6.439700
268.000000	6.490800
267.000000	6.511800
266.000000	6.548500
265.000000	6.548900
264.000000	6.628300
263.000000	6.606900
262.000000	6.670900
261.000000	6.729000
260.000000	6.718200
259.000000	6.819600
258.000000	6.762000
257.000000	6.861000
256.000000	6.900800
255.000000	6.882200
254.000000	6.851200
253.000000	6.958300
252.000000	7.007200
251.000000	7.025400
250.000000	6.987900
