PE UV       SUBTECH     SPECTRUM    ASCII       PEDS        4.00        
   -1
INBUCR0137-2.Sample.ASC
24/04/26
11:39:22.00
24/04/26
11:39:22.00
Vinicio Soto Monge
C. cupreomarginata
250,000000
1
Lambda 1050
1050L1511233
PerkinElmer UV WinLab 6.3.2.0749 / 2.02.05 Lambda 900 UV/VIS/NIR, Aug  7 2015 09:38:08

0
0
3350/servo 860,8/2
0
0
UV/VIS
1
1
1
DoubleDePol,CommonBeamDepol,RBeamAtt,SBeamAtt,60mm sphere, WB InGaAs Detector
0
0
0
0
Program
Program
3350/servo 860,8/2
3350/0,2 860,8/0,2
3350/0,2 860,8/0,2
0
15.00
 
 
 
0
 
860,8
319,2
860,8
Front
100
on
S:100 R:100
0
0
0
0
 
0
 
 
 
0
 
 
0
0
0
0
0
 
 
 
 
0
0


0
0
#HDR
-1
-1
#GR
nm
%R
1.0
0.0
2500,000000
-1,000000
2251
8
78,622400
6,002300
#DATA
2500.000000	22.296420
2499.000000	22.502770
2498.000000	22.390315
2497.000000	22.460051
2496.000000	22.370548
2495.000000	22.283022
2494.000000	22.269294
2493.000000	22.199120
2492.000000	22.295541
2491.000000	22.286097
2490.000000	22.253151
2489.000000	22.222401
2488.000000	22.316956
2487.000000	22.259081
2486.000000	22.271820
2485.000000	22.225147
2484.000000	22.302679
2483.000000	22.295321
2482.000000	22.302679
2481.000000	22.366704
2480.000000	22.373732
2479.000000	22.342654
2478.000000	22.333099
2477.000000	22.400528
2476.000000	22.459392
2475.000000	22.449069
2474.000000	22.515729
2473.000000	22.547467
2472.000000	22.610723
2471.000000	22.608966
2470.000000	22.694076
2469.000000	22.761395
2468.000000	22.810375
2467.000000	22.866822
2466.000000	22.863857
2465.000000	22.958960
2464.000000	22.981693
2463.000000	23.103483
2462.000000	23.157953
2461.000000	23.238121
2460.000000	23.315214
2459.000000	23.408781
2458.000000	23.533645
2457.000000	23.607664
2456.000000	23.714408
2455.000000	23.799079
2454.000000	23.905274
2453.000000	24.032006
2452.000000	24.131502
2451.000000	24.264713
2450.000000	24.390896
2449.000000	24.515431
2448.000000	24.619869
2447.000000	24.746052
2446.000000	24.884424
2445.000000	25.000833
2444.000000	25.146563
2443.000000	25.283508
2442.000000	25.415182
2441.000000	25.535983
2440.000000	25.654917
2439.000000	25.775389
2438.000000	25.901572
2437.000000	26.044337
2436.000000	26.152180
2435.000000	26.276825
2434.000000	26.407949
2433.000000	26.532375
2432.000000	26.659546
2431.000000	26.745864
2430.000000	26.857880
2429.000000	26.954521
2428.000000	27.049954
2427.000000	27.171743
2426.000000	27.272668
2425.000000	27.376886
2424.000000	27.465950
2423.000000	27.543043
2422.000000	27.645834
2421.000000	27.732262
2420.000000	27.805731
2419.000000	27.886229
2418.000000	27.956513
2417.000000	28.015157
2416.000000	28.087857
2415.000000	28.151443
2414.000000	28.200093
2413.000000	28.246766
2412.000000	28.294867
2411.000000	28.349777
2410.000000	28.359660
2409.000000	28.391947
2408.000000	28.437962
2407.000000	28.466624
2406.000000	28.513298
2405.000000	28.534493
2404.000000	28.545035
2403.000000	28.577432
2402.000000	28.584131
2401.000000	28.599286
2400.000000	28.626412
2399.000000	28.642226
2398.000000	28.649364
2397.000000	28.645850
2396.000000	28.649254
2395.000000	28.661334
2394.000000	28.677478
2393.000000	28.671877
2392.000000	28.680443
2391.000000	28.684067
2390.000000	28.684945
2389.000000	28.683628
2388.000000	28.673195
2387.000000	28.652219
2386.000000	28.650792
2385.000000	28.634099
2384.000000	28.613233
2383.000000	28.605326
2382.000000	28.585010
2381.000000	28.541741
2380.000000	28.523401
2379.000000	28.510442
2378.000000	28.479913
2377.000000	28.436314
2376.000000	28.410397
2375.000000	28.388433
2374.000000	28.347470
2373.000000	28.322102
2372.000000	28.314854
2371.000000	28.276088
2370.000000	28.236662
2369.000000	28.220519
2368.000000	28.202618
2367.000000	28.181533
2366.000000	28.156165
2365.000000	28.134201
2364.000000	28.128930
2363.000000	28.105868
2362.000000	28.080389
2361.000000	28.048322
2360.000000	28.034924
2359.000000	28.029214
2358.000000	28.006810
2357.000000	27.971449
2356.000000	27.933451
2355.000000	27.909730
2354.000000	27.871952
2353.000000	27.837030
2352.000000	27.816493
2351.000000	27.784097
2350.000000	27.741377
2349.000000	27.705905
2348.000000	27.678560
2347.000000	27.648140
2346.000000	27.616732
2345.000000	27.587410
2344.000000	27.546338
2343.000000	27.522177
2342.000000	27.492197
2341.000000	27.464632
2340.000000	27.440472
2339.000000	27.416970
2338.000000	27.389186
2337.000000	27.384024
2336.000000	27.361621
2335.000000	27.346247
2334.000000	27.327687
2333.000000	27.312861
2332.000000	27.326040
2331.000000	27.339438
2330.000000	27.338120
2329.000000	27.341305
2328.000000	27.345588
2327.000000	27.365575
2326.000000	27.369089
2325.000000	27.382377
2324.000000	27.386550
2323.000000	27.398960
2322.000000	27.406757
2321.000000	27.404561
2320.000000	27.396105
2319.000000	27.367002
2318.000000	27.338449
2317.000000	27.321976
2316.000000	27.301440
2315.000000	27.262784
2314.000000	27.219625
2313.000000	27.183824
2312.000000	27.138468
2311.000000	27.086304
2310.000000	27.047098
2309.000000	26.984062
2308.000000	26.923332
2307.000000	26.890606
2306.000000	26.822957
2305.000000	26.780567
2304.000000	26.751904
2303.000000	26.697214
2302.000000	26.673163
2301.000000	26.661962
2300.000000	26.636374
2299.000000	26.618034
2298.000000	26.612433
2297.000000	26.604197
2296.000000	26.585967
2295.000000	26.606064
2294.000000	26.610237
2293.000000	26.624843
2292.000000	26.641975
2291.000000	26.656800
2290.000000	26.682498
2289.000000	26.714236
2288.000000	26.771891
2287.000000	26.790780
2286.000000	26.813183
2285.000000	26.852389
2284.000000	26.891484
2283.000000	26.942440
2282.000000	26.983074
2281.000000	27.026013
2280.000000	27.078507
2279.000000	27.135723
2278.000000	27.155051
2277.000000	27.204689
2276.000000	27.230058
2275.000000	27.270691
2274.000000	27.303637
2273.000000	27.330762
2272.000000	27.381279
2271.000000	27.414005
2270.000000	27.455627
2269.000000	27.490439
2268.000000	27.541396
2267.000000	27.580601
2266.000000	27.668896
2265.000000	27.751151
2264.000000	27.834614
2263.000000	27.959039
2262.000000	28.062709
2261.000000	28.192515
2260.000000	28.339673
2259.000000	28.486612
2258.000000	28.664409
2257.000000	28.822659
2256.000000	29.007485
2255.000000	29.175838
2254.000000	29.371317
2253.000000	29.554715
2252.000000	29.762823
2251.000000	29.921073
2250.000000	30.095686
2249.000000	30.276119
2248.000000	30.468193
2247.000000	30.612386
2246.000000	30.770197
2245.000000	30.922516
2244.000000	31.062316
2243.000000	31.152039
2242.000000	31.259003
2241.000000	31.362563
2240.000000	31.433287
2239.000000	31.496982
2238.000000	31.553758
2237.000000	31.616136
2236.000000	31.630742
2235.000000	31.662589
2234.000000	31.673242
2233.000000	31.663907
2232.000000	31.674450
2231.000000	31.649301
2230.000000	31.611304
2229.000000	31.581872
2228.000000	31.532563
2227.000000	31.463377
2226.000000	31.406381
2225.000000	31.346419
2224.000000	31.259113
2223.000000	31.189707
2222.000000	31.099326
2221.000000	30.995436
2220.000000	30.917574
2219.000000	30.820055
2218.000000	30.712871
2217.000000	30.633911
2216.000000	30.520358
2215.000000	30.437224
2214.000000	30.315105
2213.000000	30.244711
2212.000000	30.162346
2211.000000	30.064168
2210.000000	29.977959
2209.000000	29.902733
2208.000000	29.824871
2207.000000	29.741848
2206.000000	29.688366
2205.000000	29.624341
2204.000000	29.566686
2203.000000	29.515070
2202.000000	29.440613
2201.000000	29.394379
2200.000000	29.352648
2199.000000	29.293016
2198.000000	29.223390
2197.000000	29.211420
2196.000000	29.163648
2195.000000	29.094792
2194.000000	29.074585
2193.000000	29.039882
2192.000000	28.986839
2191.000000	28.955760
2190.000000	28.951258
2189.000000	28.921936
2188.000000	28.884487
2187.000000	28.847478
2186.000000	28.821561
2185.000000	28.797181
2184.000000	28.766541
2183.000000	28.734364
2182.000000	28.700100
2181.000000	28.679564
2180.000000	28.660895
2179.000000	28.642116
2178.000000	28.608291
2177.000000	28.615100
2176.000000	28.596870
2175.000000	28.583692
2174.000000	28.580178
2173.000000	28.578640
2172.000000	28.592587
2171.000000	28.627839
2170.000000	28.643324
2169.000000	28.667923
2168.000000	28.713498
2167.000000	28.754351
2166.000000	28.788176
2165.000000	28.858460
2164.000000	28.905682
2163.000000	28.972892
2162.000000	29.056245
2161.000000	29.131691
2160.000000	29.204062
2159.000000	29.298067
2158.000000	29.410193
2157.000000	29.520452
2156.000000	29.622803
2155.000000	29.733721
2154.000000	29.864406
2153.000000	29.987074
2152.000000	30.114026
2151.000000	30.240647
2150.000000	30.385719
2149.000000	30.531010
2148.000000	30.656753
2147.000000	30.788976
2146.000000	30.937562
2145.000000	31.081425
2144.000000	31.216283
2143.000000	31.345870
2142.000000	31.486988
2141.000000	31.625690
2140.000000	31.749896
2139.000000	31.885633
2138.000000	32.012364
2137.000000	32.109994
2136.000000	32.223767
2135.000000	32.335673
2134.000000	32.468225
2133.000000	32.566733
2132.000000	32.641410
2131.000000	32.736514
2130.000000	32.830190
2129.000000	32.907393
2128.000000	32.967244
2127.000000	33.028963
2126.000000	33.110778
2125.000000	33.180733
2124.000000	33.216644
2123.000000	33.275068
2122.000000	33.336457
2121.000000	33.374455
2120.000000	33.420140
2119.000000	33.460883
2118.000000	33.487569
2117.000000	33.509752
2116.000000	33.530838
2115.000000	33.560818
2114.000000	33.566090
2113.000000	33.568945
2112.000000	33.582672
2111.000000	33.592776
2110.000000	33.603977
2109.000000	33.600134
2108.000000	33.611335
2107.000000	33.613751
2106.000000	33.591458
2105.000000	33.588713
2104.000000	33.578170
2103.000000	33.578060
2102.000000	33.580256
2101.000000	33.566749
2100.000000	33.566200
2099.000000	33.567408
2098.000000	33.580696
2097.000000	33.595521
2096.000000	33.586187
2095.000000	33.588383
2094.000000	33.599036
2093.000000	33.615289
2092.000000	33.624294
2091.000000	33.649882
2090.000000	33.668551
2089.000000	33.665257
2088.000000	33.678215
2087.000000	33.673932
2086.000000	33.667343
2085.000000	33.659656
2084.000000	33.630334
2083.000000	33.595851
2082.000000	33.564333
2081.000000	33.513706
2080.000000	33.463738
2079.000000	33.418602
2078.000000	33.336457
2077.000000	33.245527
2076.000000	33.159099
2075.000000	33.080358
2074.000000	32.974273
2073.000000	32.857754
2072.000000	32.733439
2071.000000	32.596055
2070.000000	32.465809
2069.000000	32.335124
2068.000000	32.182255
2067.000000	32.033889
2066.000000	31.880032
2065.000000	31.741879
2064.000000	31.589560
2063.000000	31.441084
2062.000000	31.315011
2061.000000	31.178725
2060.000000	31.045514
2059.000000	30.932949
2058.000000	30.849486
2057.000000	30.774480
2056.000000	30.720449
2055.000000	30.679706
2054.000000	30.673995
2053.000000	30.696728
2052.000000	30.712981
2051.000000	30.756030
2050.000000	30.836638
2049.000000	30.945798
2048.000000	31.076373
2047.000000	31.208596
2046.000000	31.373764
2045.000000	31.539262
2044.000000	31.714205
2043.000000	31.906828
2042.000000	32.089787
2041.000000	32.273295
2040.000000	32.468335
2039.000000	32.663374
2038.000000	32.835351
2037.000000	32.997225
2036.000000	33.156793
2035.000000	33.330747
2034.000000	33.491412
2033.000000	33.616167
2032.000000	33.759482
2031.000000	33.902467
2030.000000	34.036337
2029.000000	34.148243
2028.000000	34.266738
2027.000000	34.376996
2026.000000	34.474845
2025.000000	34.588179
2024.000000	34.678121
2023.000000	34.762902
2022.000000	34.851526
2021.000000	34.929827
2020.000000	34.990558
2019.000000	35.053374
2018.000000	35.122890
2017.000000	35.176592
2016.000000	35.214809
2015.000000	35.254563
2014.000000	35.302774
2013.000000	35.294098
2012.000000	35.326385
2011.000000	35.320455
2010.000000	35.326934
2009.000000	35.324738
2008.000000	35.313207
2007.000000	35.306069
2006.000000	35.263459
2005.000000	35.226230
2004.000000	35.171869
2003.000000	35.135629
2002.000000	35.088846
2001.000000	35.034376
2000.000000	34.949924
1999.000000	34.877334
1998.000000	34.803645
1997.000000	34.737643
1996.000000	34.650996
1995.000000	34.564788
1994.000000	34.472100
1993.000000	34.389845
1992.000000	34.295291
1991.000000	34.203592
1990.000000	34.087293
1989.000000	34.006136
1988.000000	33.899062
1987.000000	33.766510
1986.000000	33.683487
1985.000000	33.559391
1984.000000	33.418712
1983.000000	33.326793
1982.000000	33.210604
1981.000000	33.107044
1980.000000	32.989538
1979.000000	32.885319
1978.000000	32.771107
1977.000000	32.666998
1976.000000	32.557618
1975.000000	32.452301
1974.000000	32.364995
1973.000000	32.251771
1972.000000	32.142610
1971.000000	32.055414
1970.000000	31.943508
1969.000000	31.845329
1968.000000	31.750225
1967.000000	31.627887
1966.000000	31.557273
1965.000000	31.439656
1964.000000	31.357401
1963.000000	31.235062
1962.000000	31.138312
1961.000000	31.026406
1960.000000	30.919441
1959.000000	30.801935
1958.000000	30.712542
1957.000000	30.603381
1956.000000	30.488290
1955.000000	30.394175
1954.000000	30.278645
1953.000000	30.180576
1952.000000	30.085143
1951.000000	29.971041
1950.000000	29.871654
1949.000000	29.788850
1948.000000	29.726363
1947.000000	29.587881
1946.000000	29.530555
1945.000000	29.480697
1944.000000	29.386033
1943.000000	29.347596
1942.000000	29.294663
1941.000000	29.242279
1940.000000	29.211420
1939.000000	29.172214
1938.000000	29.192092
1937.000000	29.172873
1936.000000	29.162001
1935.000000	29.176278
1934.000000	29.189676
1933.000000	29.232835
1932.000000	29.287744
1931.000000	29.360774
1930.000000	29.424689
1929.000000	29.550323
1928.000000	29.640924
1927.000000	29.760737
1926.000000	29.894936
1925.000000	30.046377
1924.000000	30.179478
1923.000000	30.336849
1922.000000	30.524641
1921.000000	30.810610
1920.000000	31.078240
1919.000000	31.278771
1918.000000	31.554966
1917.000000	31.808540
1916.000000	32.030485
1915.000000	32.327327
1914.000000	32.715977
1913.000000	33.129338
1912.000000	33.529849
1911.000000	33.886433
1910.000000	34.284309
1909.000000	34.628593
1908.000000	35.051398
1907.000000	35.541302
1906.000000	36.101271
1905.000000	36.735808
1904.000000	37.318071
1903.000000	37.884080
1902.000000	38.468539
1901.000000	39.083418
1900.000000	39.759466
1899.000000	40.449242
1898.000000	41.158786
1897.000000	41.785415
1896.000000	42.366250
1895.000000	42.939288
1894.000000	43.541648
1893.000000	44.223956
1892.000000	44.922407
1891.000000	45.620310
1890.000000	46.239362
1889.000000	46.784945
1888.000000	47.380276
1887.000000	47.914877
1886.000000	48.425757
1885.000000	48.942567
1884.000000	49.448615
1883.000000	49.882182
1882.000000	50.277422
1881.000000	50.686170
1880.000000	51.014421
1879.000000	51.364745
1878.000000	51.712323
1877.000000	52.007079
1876.000000	52.306336
1875.000000	52.614051
1874.000000	52.913748
1873.000000	53.184013
1872.000000	53.424847
1871.000000	53.631637
1870.000000	53.778686
1869.000000	53.920023
1868.000000	54.067291
1867.000000	54.151852
1866.000000	54.207640
1865.000000	54.271445
1864.000000	54.328771
1863.000000	54.400813
1862.000000	54.517441
1861.000000	54.632092
1860.000000	54.729173
1859.000000	54.807584
1858.000000	54.871938
1857.000000	54.927726
1856.000000	54.950349
1855.000000	54.988127
1854.000000	55.010201
1853.000000	54.997791
1852.000000	55.015801
1851.000000	55.055995
1850.000000	55.116396
1849.000000	55.190854
1848.000000	55.215563
1847.000000	55.182288
1846.000000	55.110795
1845.000000	55.051603
1844.000000	55.014484
1843.000000	55.039413
1842.000000	55.080924
1841.000000	55.069613
1840.000000	55.033153
1839.000000	54.998340
1838.000000	54.967481
1837.000000	54.923334
1836.000000	54.857881
1835.000000	54.775407
1834.000000	54.691065
1833.000000	54.629567
1832.000000	54.596621
1831.000000	54.582015
1830.000000	54.563236
1829.000000	54.523371
1828.000000	54.460554
1827.000000	54.433868
1826.000000	54.409708
1825.000000	54.366439
1824.000000	54.347440
1823.000000	54.396969
1822.000000	54.458578
1821.000000	54.487021
1820.000000	54.473623
1819.000000	54.418933
1818.000000	54.377421
1817.000000	54.357983
1816.000000	54.366878
1815.000000	54.361058
1814.000000	54.343926
1813.000000	54.326794
1812.000000	54.309772
1811.000000	54.285063
1810.000000	54.249262
1809.000000	54.216096
1808.000000	54.185896
1807.000000	54.193913
1806.000000	54.175463
1805.000000	54.124727
1804.000000	54.103751
1803.000000	54.113196
1802.000000	54.115392
1801.000000	54.091781
1800.000000	54.055211
1799.000000	53.998105
1798.000000	53.976141
1797.000000	53.972956
1796.000000	53.959229
1795.000000	53.939681
1794.000000	53.910689
1793.000000	53.901024
1792.000000	53.906186
1791.000000	53.897181
1790.000000	53.889603
1789.000000	53.892239
1788.000000	53.902232
1787.000000	53.924416
1786.000000	53.934739
1785.000000	53.944952
1784.000000	53.927930
1783.000000	53.931994
1782.000000	53.922769
1781.000000	53.915411
1780.000000	53.898169
1779.000000	53.894216
1778.000000	53.866651
1777.000000	53.834474
1776.000000	53.784945
1775.000000	53.748375
1774.000000	53.715759
1773.000000	53.683033
1772.000000	53.641082
1771.000000	53.604622
1770.000000	53.563330
1769.000000	53.527858
1768.000000	53.490080
1767.000000	53.453510
1766.000000	53.413865
1765.000000	53.396514
1764.000000	53.377845
1763.000000	53.349401
1762.000000	53.344020
1761.000000	53.332819
1760.000000	53.324253
1759.000000	53.322715
1758.000000	53.327438
1757.000000	53.317444
1756.000000	53.287353
1755.000000	53.293064
1754.000000	53.310086
1753.000000	53.301520
1752.000000	53.297127
1751.000000	53.270002
1750.000000	53.216630
1749.000000	53.198510
1748.000000	53.157437
1747.000000	53.096927
1746.000000	53.014891
1745.000000	52.945046
1744.000000	52.868282
1743.000000	52.786138
1742.000000	52.699051
1741.000000	52.619541
1740.000000	52.544645
1739.000000	52.445258
1738.000000	52.383210
1737.000000	52.305128
1736.000000	52.248022
1735.000000	52.203655
1734.000000	52.144023
1733.000000	52.108881
1732.000000	52.052873
1731.000000	52.000160
1730.000000	51.939649
1729.000000	51.901871
1728.000000	51.856516
1727.000000	51.816761
1726.000000	51.785902
1725.000000	51.796774
1724.000000	51.799410
1723.000000	51.849268
1722.000000	51.953157
1721.000000	52.097460
1720.000000	52.290413
1719.000000	52.515872
1718.000000	52.764613
1717.000000	53.018845
1716.000000	53.256714
1715.000000	53.503808
1714.000000	53.713892
1713.000000	53.921890
1712.000000	54.097272
1711.000000	54.260793
1710.000000	54.407512
1709.000000	54.530839
1708.000000	54.633850
1707.000000	54.752454
1706.000000	54.810988
1705.000000	54.865459
1704.000000	54.910924
1703.000000	54.940026
1702.000000	54.942881
1701.000000	54.955950
1700.000000	54.970556
1699.000000	54.977035
1698.000000	54.963308
1697.000000	54.937281
1696.000000	54.885885
1695.000000	54.831085
1694.000000	54.764315
1693.000000	54.687222
1692.000000	54.591459
1691.000000	54.507557
1690.000000	54.436504
1689.000000	54.399275
1688.000000	54.413991
1687.000000	54.500199
1686.000000	54.609140
1685.000000	54.808682
1684.000000	54.993728
1683.000000	55.228192
1682.000000	55.454201
1681.000000	55.695254
1680.000000	55.922031
1679.000000	56.139913
1678.000000	56.357026
1677.000000	56.565354
1676.000000	56.779721
1675.000000	56.925781
1674.000000	57.107422
1673.000000	57.287856
1672.000000	57.475647
1671.000000	57.651029
1670.000000	57.849362
1669.000000	58.028039
1668.000000	58.214951
1667.000000	58.389345
1666.000000	58.538479
1665.000000	58.701012
1664.000000	58.846743
1663.000000	58.990167
1662.000000	59.129857
1661.000000	59.271414
1660.000000	59.391008
1659.000000	59.499509
1658.000000	59.593734
1657.000000	59.674342
1656.000000	59.757475
1655.000000	59.804368
1654.000000	59.860046
1653.000000	59.907928
1652.000000	59.946365
1651.000000	59.976785
1650.000000	60.001384
1649.000000	60.009291
1648.000000	60.013025
1647.000000	60.002702
1646.000000	59.964704
1645.000000	59.973051
1644.000000	59.972282
1643.000000	59.965034
1642.000000	59.957676
1641.000000	59.963826
1640.000000	59.929672
1639.000000	59.940544
1638.000000	59.931429
1637.000000	59.928025
1636.000000	59.907049
1635.000000	59.875751
1634.000000	59.859827
1633.000000	59.821390
1632.000000	59.785040
1631.000000	59.753851
1630.000000	59.707178
1629.000000	59.675879
1628.000000	59.633159
1627.000000	59.601751
1626.000000	59.563205
1625.000000	59.529929
1624.000000	59.486331
1623.000000	59.462500
1622.000000	59.447125
1621.000000	59.420879
1620.000000	59.378378
1619.000000	59.360039
1618.000000	59.338075
1617.000000	59.309631
1616.000000	59.271744
1615.000000	59.247254
1614.000000	59.206840
1613.000000	59.173126
1612.000000	59.147648
1611.000000	59.108662
1610.000000	59.064075
1609.000000	59.007738
1608.000000	58.939869
1607.000000	58.890011
1606.000000	58.831807
1605.000000	58.765366
1604.000000	58.699694
1603.000000	58.628422
1602.000000	58.566044
1601.000000	58.509817
1600.000000	58.441070
1599.000000	58.376825
1598.000000	58.310824
1597.000000	58.262174
1596.000000	58.204519
1595.000000	58.144447
1594.000000	58.092283
1593.000000	58.053407
1592.000000	58.006294
1591.000000	57.969175
1590.000000	57.923930
1589.000000	57.879453
1588.000000	57.851778
1587.000000	57.816746
1586.000000	57.773038
1585.000000	57.738225
1584.000000	57.705828
1583.000000	57.670576
1582.000000	57.630053
1581.000000	57.610286
1580.000000	57.588212
1579.000000	57.572178
1578.000000	57.562404
1577.000000	57.552191
1576.000000	57.545822
1575.000000	57.550544
1574.000000	57.561636
1573.000000	57.564491
1572.000000	57.574484
1571.000000	57.597876
1570.000000	57.629394
1569.000000	57.644220
1568.000000	57.668710
1567.000000	57.713077
1566.000000	57.742618
1565.000000	57.770402
1564.000000	57.800603
1563.000000	57.808619
1562.000000	57.824214
1561.000000	57.833768
1560.000000	57.825092
1559.000000	57.811914
1558.000000	57.777101
1557.000000	57.733723
1556.000000	57.705609
1555.000000	57.660144
1554.000000	57.599853
1553.000000	57.532533
1552.000000	57.460492
1551.000000	57.376809
1550.000000	57.295543
1549.000000	57.222403
1548.000000	57.143333
1547.000000	57.064373
1546.000000	56.989696
1545.000000	56.923804
1544.000000	56.865271
1543.000000	56.813765
1542.000000	56.761272
1541.000000	56.711853
1540.000000	56.673306
1539.000000	56.632673
1538.000000	56.589953
1537.000000	56.550199
1536.000000	56.507479
1535.000000	56.454875
1534.000000	56.403919
1533.000000	56.351096
1532.000000	56.300579
1531.000000	56.237543
1530.000000	56.167148
1529.000000	56.092581
1528.000000	56.033608
1527.000000	55.967387
1526.000000	55.898091
1525.000000	55.831760
1524.000000	55.757522
1523.000000	55.681527
1522.000000	55.598174
1521.000000	55.530415
1520.000000	55.467928
1519.000000	55.390176
1518.000000	55.310886
1517.000000	55.234123
1516.000000	55.136713
1515.000000	55.058631
1514.000000	54.985382
1513.000000	54.921576
1512.000000	54.842287
1511.000000	54.755200
1510.000000	54.661085
1509.000000	54.594315
1508.000000	54.515354
1507.000000	54.427279
1506.000000	54.350845
1505.000000	54.284075
1504.000000	54.226639
1503.000000	54.179746
1502.000000	54.125715
1501.000000	54.062349
1500.000000	54.024352
1499.000000	53.988551
1498.000000	53.962523
1497.000000	53.953518
1496.000000	53.952640
1495.000000	53.953848
1494.000000	53.969771
1493.000000	53.976800
1492.000000	54.005573
1491.000000	54.033027
1490.000000	54.071574
1489.000000	54.105398
1488.000000	54.168215
1487.000000	54.222576
1486.000000	54.269578
1485.000000	54.314604
1484.000000	54.338545
1483.000000	54.404547
1482.000000	54.464837
1481.000000	54.513378
1480.000000	54.557196
1479.000000	54.622099
1478.000000	54.669102
1477.000000	54.747183
1476.000000	54.788695
1475.000000	54.845362
1474.000000	54.935963
1473.000000	55.040291
1472.000000	55.134846
1471.000000	55.240053
1470.000000	55.324284
1469.000000	55.380182
1468.000000	55.478251
1467.000000	55.585545
1466.000000	55.707554
1465.000000	55.792554
1464.000000	55.897761
1463.000000	56.002090
1462.000000	56.111799
1461.000000	56.219203
1460.000000	56.328034
1459.000000	56.430386
1458.000000	56.555140
1457.000000	56.685496
1456.000000	56.806737
1455.000000	56.897118
1454.000000	57.004302
1453.000000	57.133889
1452.000000	57.298398
1451.000000	57.408437
1450.000000	57.496073
1449.000000	57.565040
1448.000000	57.663877
1447.000000	57.830474
1446.000000	57.987076
1445.000000	58.069001
1444.000000	58.148620
1443.000000	58.281722
1442.000000	58.412187
1441.000000	58.499384
1440.000000	58.652033
1439.000000	58.746038
1438.000000	58.923946
1437.000000	59.049799
1436.000000	59.173236
1435.000000	59.319296
1434.000000	59.498631
1433.000000	59.665556
1432.000000	59.838961
1431.000000	60.002043
1430.000000	60.152825
1429.000000	60.349182
1428.000000	60.553117
1427.000000	60.734868
1426.000000	60.949675
1425.000000	61.192156
1424.000000	61.458358
1423.000000	61.668553
1422.000000	61.892804
1421.000000	62.198102
1420.000000	62.522838
1419.000000	62.815287
1418.000000	63.070288
1417.000000	63.266645
1416.000000	63.633662
1415.000000	64.021764
1414.000000	64.396797
1413.000000	64.687489
1412.000000	64.942050
1411.000000	65.382536
1410.000000	65.846633
1409.000000	66.237371
1408.000000	66.609878
1407.000000	66.958884
1406.000000	67.339518
1405.000000	67.707194
1404.000000	67.982072
1403.000000	68.366001
1402.000000	68.762778
1401.000000	69.293206
1400.000000	69.543704
1399.000000	69.722930
1398.000000	69.950146
1397.000000	70.315845
1396.000000	70.746557
1395.000000	70.990356
1394.000000	71.147617
1393.000000	71.358031
1392.000000	71.639938
1391.000000	71.828388
1390.000000	72.053627
1389.000000	72.346406
1388.000000	72.650496
1387.000000	72.853442
1386.000000	73.070775
1385.000000	73.316990
1384.000000	73.624155
1383.000000	73.791081
1382.000000	73.940765
1381.000000	73.996114
1380.000000	73.921876
1379.000000	74.108459
1378.000000	74.169299
1377.000000	74.248479
1376.000000	74.316457
1375.000000	74.397174
1374.000000	74.490630
1373.000000	74.623951
1372.000000	74.762104
1371.000000	74.857976
1370.000000	74.942537
1369.000000	75.065755
1368.000000	75.130988
1367.000000	75.177222
1366.000000	75.270568
1365.000000	75.379948
1364.000000	75.447817
1363.000000	75.562798
1362.000000	75.641318
1361.000000	75.663502
1360.000000	75.640879
1359.000000	75.636157
1358.000000	75.679426
1357.000000	75.733786
1356.000000	75.828341
1355.000000	75.933109
1354.000000	75.972424
1353.000000	76.002075
1352.000000	76.164498
1351.000000	76.282334
1350.000000	76.412910
1349.000000	76.547988
1348.000000	76.679771
1347.000000	76.782452
1346.000000	76.893699
1345.000000	77.026691
1344.000000	77.161219
1343.000000	77.246110
1342.000000	77.354831
1341.000000	77.474644
1340.000000	77.568210
1339.000000	77.652991
1338.000000	77.735246
1337.000000	77.833314
1336.000000	77.908211
1335.000000	77.973224
1334.000000	78.040763
1333.000000	78.112805
1332.000000	78.178587
1331.000000	78.245686
1330.000000	78.298509
1329.000000	78.342547
1328.000000	78.378348
1327.000000	78.425900
1326.000000	78.463897
1325.000000	78.497392
1324.000000	78.540771
1323.000000	78.576462
1322.000000	78.612154
1321.000000	78.647625
1320.000000	78.680352
1319.000000	78.700339
1318.000000	78.728782
1317.000000	78.753272
1316.000000	78.786327
1315.000000	78.813563
1314.000000	78.827070
1313.000000	78.859577
1312.000000	78.884726
1311.000000	78.896037
1310.000000	78.916793
1309.000000	78.931179
1308.000000	78.953143
1307.000000	78.980049
1306.000000	78.992129
1305.000000	79.005856
1304.000000	79.017278
1303.000000	79.019145
1302.000000	79.032872
1301.000000	79.043305
1300.000000	79.048247
1299.000000	79.048576
1298.000000	79.053189
1297.000000	79.049015
1296.000000	79.036276
1295.000000	79.028918
1294.000000	79.024635
1293.000000	79.024965
1292.000000	79.009810
1291.000000	78.983453
1290.000000	78.961929
1289.000000	78.937878
1288.000000	78.908117
1287.000000	78.886592
1286.000000	78.874293
1285.000000	78.847607
1284.000000	78.808840
1283.000000	78.788084
1282.000000	78.773588
1281.000000	78.741850
1280.000000	78.716372
1279.000000	78.686501
1278.000000	78.665416
1277.000000	78.658498
1276.000000	78.642684
1275.000000	78.624453
1274.000000	78.623795
1273.000000	78.620720
1272.000000	78.611165
1271.000000	78.598646
1270.000000	78.597987
1269.000000	78.591068
1268.000000	78.584260
1267.000000	78.578110
1266.000000	78.566249
1265.000000	78.557793
1264.000000	78.553290
1263.000000	78.539014
1262.000000	78.542199
1261.000000	78.542309
1260.000000	78.519686
1259.000000	78.502005
1258.000000	78.494427
1257.000000	78.480480
1256.000000	78.472024
1255.000000	78.457418
1254.000000	78.430073
1253.000000	78.416565
1252.000000	78.399214
1251.000000	78.346281
1250.000000	78.317289
1249.000000	78.253264
1248.000000	78.215266
1247.000000	78.184846
1246.000000	78.126422
1245.000000	78.083922
1244.000000	78.046474
1243.000000	77.985853
1242.000000	77.924135
1241.000000	77.879878
1240.000000	77.825956
1239.000000	77.785543
1238.000000	77.730084
1237.000000	77.694722
1236.000000	77.663094
1235.000000	77.623010
1234.000000	77.571505
1233.000000	77.534825
1232.000000	77.502538
1231.000000	77.460917
1230.000000	77.419295
1229.000000	77.386679
1228.000000	77.336711
1227.000000	77.311233
1226.000000	77.265548
1225.000000	77.251601
1224.000000	77.226452
1223.000000	77.209760
1222.000000	77.164294
1221.000000	77.133215
1220.000000	77.120037
1219.000000	77.087970
1218.000000	77.053926
1217.000000	77.037123
1216.000000	77.015818
1215.000000	76.976064
1214.000000	76.949597
1213.000000	76.926645
1212.000000	76.905999
1211.000000	76.864487
1210.000000	76.806722
1209.000000	76.767956
1208.000000	76.718867
1207.000000	76.666812
1206.000000	76.630901
1205.000000	76.594331
1204.000000	76.546450
1203.000000	76.500765
1202.000000	76.444648
1201.000000	76.387541
1200.000000	76.336366
1199.000000	76.270803
1198.000000	76.222483
1197.000000	76.164169
1196.000000	76.094324
1195.000000	76.023051
1194.000000	75.972644
1193.000000	75.901590
1192.000000	75.825815
1191.000000	75.791771
1190.000000	75.735873
1189.000000	75.696887
1188.000000	75.656583
1187.000000	75.647578
1186.000000	75.637035
1185.000000	75.616719
1184.000000	75.625175
1183.000000	75.639452
1182.000000	75.665369
1181.000000	75.687333
1180.000000	75.715337
1179.000000	75.740046
1178.000000	75.774969
1177.000000	75.795505
1176.000000	75.835150
1175.000000	75.847999
1174.000000	75.874904
1173.000000	75.899174
1172.000000	75.951888
1171.000000	76.001197
1170.000000	76.048529
1169.000000	76.108051
1168.000000	76.171856
1167.000000	76.230390
1166.000000	76.294195
1165.000000	76.372057
1164.000000	76.464525
1163.000000	76.527781
1162.000000	76.584887
1161.000000	76.651987
1160.000000	76.724467
1159.000000	76.796729
1158.000000	76.858557
1157.000000	76.903912
1156.000000	76.946522
1155.000000	76.994623
1154.000000	77.050851
1153.000000	77.089288
1152.000000	77.091594
1151.000000	77.132337
1150.000000	77.137279
1149.000000	77.160670
1148.000000	77.166710
1147.000000	77.206136
1146.000000	77.207563
1145.000000	77.200095
1144.000000	77.207783
1143.000000	77.233151
1142.000000	77.244902
1141.000000	77.275322
1140.000000	77.295858
1139.000000	77.351646
1138.000000	77.399528
1137.000000	77.478268
1136.000000	77.523404
1135.000000	77.585452
1134.000000	77.611150
1133.000000	77.590174
1132.000000	77.638495
1131.000000	77.679347
1130.000000	77.740407
1129.000000	77.769070
1128.000000	77.793230
1127.000000	77.803663
1126.000000	77.817720
1125.000000	77.824309
1124.000000	77.850995
1123.000000	77.862966
1122.000000	77.851215
1121.000000	77.830679
1120.000000	77.816622
1119.000000	77.797952
1118.000000	77.777526
1117.000000	77.765556
1116.000000	77.738320
1115.000000	77.720310
1114.000000	77.717235
1113.000000	77.680775
1112.000000	77.664961
1111.000000	77.656505
1110.000000	77.641130
1109.000000	77.612797
1108.000000	77.595885
1107.000000	77.567332
1106.000000	77.551627
1105.000000	77.538559
1104.000000	77.500122
1103.000000	77.484638
1102.000000	77.453119
1101.000000	77.422919
1100.000000	77.406227
1099.000000	77.392609
1098.000000	77.368668
1097.000000	77.323203
1096.000000	77.301898
1095.000000	77.270819
1094.000000	77.254895
1093.000000	77.220961
1092.000000	77.182195
1091.000000	77.143538
1090.000000	77.097744
1089.000000	77.075450
1088.000000	77.040747
1087.000000	77.006813
1086.000000	76.961348
1085.000000	76.918189
1084.000000	76.884365
1083.000000	76.855812
1082.000000	76.809687
1081.000000	76.760049
1080.000000	76.705579
1079.000000	76.647374
1078.000000	76.608828
1077.000000	76.569732
1076.000000	76.533272
1075.000000	76.493957
1074.000000	76.457496
1073.000000	76.419499
1072.000000	76.381721
1071.000000	76.336695
1070.000000	76.277612
1069.000000	76.237418
1068.000000	76.197883
1067.000000	76.171197
1066.000000	76.124085
1065.000000	76.079169
1064.000000	76.038426
1063.000000	75.998232
1062.000000	75.958697
1061.000000	75.918942
1060.000000	75.895770
1059.000000	75.867546
1058.000000	75.812856
1057.000000	75.769697
1056.000000	75.747294
1055.000000	75.723024
1054.000000	75.680195
1053.000000	75.646590
1052.000000	75.624406
1051.000000	75.615621
1050.000000	75.582345
1049.000000	75.544348
1048.000000	75.517772
1047.000000	75.497126
1046.000000	75.476589
1045.000000	75.454516
1044.000000	75.431234
1043.000000	75.406744
1042.000000	75.389173
1041.000000	75.365781
1040.000000	75.352713
1039.000000	75.331408
1038.000000	75.309224
1037.000000	75.295497
1036.000000	75.277926
1035.000000	75.254974
1034.000000	75.230374
1033.000000	75.239599
1032.000000	75.227409
1031.000000	75.199735
1030.000000	75.200064
1029.000000	75.186556
1028.000000	75.150975
1027.000000	75.128462
1026.000000	75.128242
1025.000000	75.135490
1024.000000	75.127473
1023.000000	75.113307
1022.000000	75.087060
1021.000000	75.064547
1020.000000	75.069049
1019.000000	75.075309
1018.000000	75.067073
1017.000000	75.057628
1016.000000	75.069489
1015.000000	75.070477
1014.000000	75.062131
1013.000000	75.069598
1012.000000	75.063339
1011.000000	75.070697
1010.000000	75.077835
1009.000000	75.066633
1008.000000	75.075089
1007.000000	75.104960
1006.000000	75.127693
1005.000000	75.137467
1004.000000	75.144276
1003.000000	75.148010
1002.000000	75.163714
1001.000000	75.182383
1000.000000	75.196220
999.000000	75.194353
998.000000	75.211156
997.000000	75.239819
996.000000	75.258927
995.000000	75.272106
994.000000	75.286053
993.000000	75.313947
992.000000	75.359302
991.000000	75.395543
990.000000	75.423327
989.000000	75.444961
988.000000	75.485924
987.000000	75.532048
986.000000	75.564115
985.000000	75.615950
984.000000	75.678987
983.000000	75.739497
982.000000	75.779801
981.000000	75.836577
980.000000	75.916526
979.000000	75.992631
978.000000	76.057205
977.000000	76.125622
976.000000	76.215894
975.000000	76.280687
974.000000	76.364260
973.000000	76.446185
972.000000	76.535908
971.000000	76.617723
970.000000	76.719855
969.000000	76.791787
968.000000	76.891832
967.000000	77.011535
966.000000	77.105870
965.000000	77.191639
964.000000	77.291685
963.000000	77.398429
962.000000	77.507810
961.000000	77.606647
960.000000	77.727229
959.000000	77.832765
958.000000	77.935995
957.000000	78.039336
956.000000	78.134000
955.000000	78.252495
954.000000	78.373846
953.000000	78.468071
952.000000	78.577341
951.000000	78.701766
950.000000	78.776883
949.000000	78.903175
948.000000	78.999597
947.000000	79.076580
946.000000	79.197052
945.000000	79.313570
944.000000	79.404281
943.000000	79.490599
942.000000	79.606569
941.000000	79.685748
940.000000	79.775581
939.000000	79.875736
938.000000	80.006641
937.000000	80.088127
936.000000	80.177630
935.000000	80.287230
934.000000	80.372449
933.000000	80.453826
932.000000	80.575615
931.000000	80.643813
930.000000	80.723872
929.000000	80.846979
928.000000	80.878058
927.000000	80.987109
926.000000	81.062884
925.000000	81.170178
924.000000	81.211250
923.000000	81.293505
922.000000	81.361813
921.000000	81.428802
920.000000	81.482504
919.000000	81.557621
918.000000	81.600780
917.000000	81.735199
916.000000	81.773855
915.000000	81.765399
914.000000	81.800871
913.000000	81.849191
912.000000	81.973177
911.000000	81.983720
910.000000	81.993055
909.000000	81.968236
908.000000	81.988333
907.000000	82.014140
906.000000	82.123850
905.000000	82.107816
904.000000	82.096614
903.000000	82.039399
902.000000	82.033029
901.000000	82.021718
900.000000	81.999095
899.000000	81.993274
898.000000	81.986466
897.000000	81.955496
896.000000	81.900038
895.000000	81.855012
894.000000	81.740360
893.000000	81.733551
892.000000	81.656788
891.000000	81.600670
890.000000	81.528189
889.000000	81.369500
888.000000	81.312614
887.000000	81.232226
886.000000	81.150410
885.000000	80.955920
884.000000	80.867186
883.000000	80.696307
882.000000	80.625803
881.000000	80.536849
880.000000	80.401661
879.000000	80.205634
878.000000	80.075498
877.000000	79.887377
876.000000	79.751750
875.000000	79.545619
874.000000	79.387369
873.000000	79.172892
872.000000	78.976205
871.000000	78.681230
870.000000	78.399324
869.000000	78.150253
868.000000	77.923806
867.000000	77.586221
866.000000	77.283119
865.000000	77.026800
864.000000	76.945314
863.000000	76.960579
862.000000	76.939604
861.000000	76.959152
860.000000	76.940372
859.000000	76.942239
858.000000	78.259633
857.000000	78.466300
856.000000	78.470300
855.000000	77.842300
854.000000	78.231600
853.000000	78.597600
852.000000	78.200600
851.000000	78.622400
850.000000	78.600900
849.000000	78.450900
848.000000	78.061500
847.000000	78.000900
846.000000	77.831400
845.000000	77.870200
844.000000	77.709900
843.000000	77.682700
842.000000	77.827800
841.000000	77.408800
840.000000	77.521100
839.000000	77.681400
838.000000	77.453400
837.000000	77.237700
836.000000	77.102400
835.000000	77.083400
834.000000	76.811800
833.000000	76.633800
832.000000	76.601900
831.000000	76.577900
830.000000	76.398200
829.000000	76.362700
828.000000	76.063300
827.000000	75.896600
826.000000	76.005300
825.000000	75.742100
824.000000	75.469100
823.000000	75.456800
822.000000	75.319000
821.000000	75.066600
820.000000	74.934000
819.000000	74.865400
818.000000	74.688600
817.000000	74.502800
816.000000	74.419900
815.000000	74.283900
814.000000	74.226300
813.000000	74.081000
812.000000	73.945400
811.000000	73.914900
810.000000	73.792800
809.000000	73.546600
808.000000	73.442900
807.000000	73.352900
806.000000	73.267700
805.000000	73.157900
804.000000	72.947500
803.000000	72.736700
802.000000	72.627700
801.000000	72.453300
800.000000	72.173900
799.000000	72.068000
798.000000	72.023300
797.000000	72.013600
796.000000	71.820100
795.000000	71.608000
794.000000	71.486400
793.000000	71.320000
792.000000	71.188200
791.000000	70.993200
790.000000	70.814100
789.000000	70.759400
788.000000	70.651000
787.000000	70.636200
786.000000	70.549700
785.000000	70.335200
784.000000	70.194200
783.000000	70.087900
782.000000	69.924300
781.000000	69.737000
780.000000	69.672600
779.000000	69.557200
778.000000	69.376700
777.000000	69.174100
776.000000	69.049600
775.000000	68.903800
774.000000	68.689700
773.000000	68.541000
772.000000	68.411300
771.000000	68.230200
770.000000	68.091700
769.000000	67.959400
768.000000	67.847000
767.000000	67.640400
766.000000	67.478200
765.000000	67.365800
764.000000	67.272400
763.000000	67.122600
762.000000	66.969200
761.000000	66.786200
760.000000	66.632900
759.000000	66.534100
758.000000	66.374200
757.000000	66.225700
756.000000	66.095800
755.000000	65.995300
754.000000	65.868200
753.000000	65.682200
752.000000	65.582700
751.000000	65.436100
750.000000	65.234700
749.000000	65.139000
748.000000	65.011800
747.000000	64.856600
746.000000	64.710600
745.000000	64.526100
744.000000	64.393000
743.000000	64.209500
742.000000	63.965200
741.000000	63.881200
740.000000	63.723600
739.000000	63.502700
738.000000	63.340200
737.000000	63.139600
736.000000	62.965300
735.000000	62.807800
734.000000	62.618500
733.000000	62.407000
732.000000	62.233800
731.000000	62.036100
730.000000	61.799900
729.000000	61.665500
728.000000	61.509100
727.000000	61.265600
726.000000	61.107900
725.000000	60.942300
724.000000	60.656700
723.000000	60.427100
722.000000	60.214600
721.000000	59.992500
720.000000	59.784400
719.000000	59.624000
718.000000	59.433700
717.000000	59.221200
716.000000	59.049700
715.000000	58.837600
714.000000	58.613500
713.000000	58.411500
712.000000	58.145900
711.000000	57.958800
710.000000	57.739900
709.000000	57.500800
708.000000	57.334400
707.000000	57.133700
706.000000	56.936000
705.000000	56.733200
704.000000	56.529800
703.000000	56.341000
702.000000	56.123900
701.000000	55.962100
700.000000	55.741800
699.000000	55.515100
698.000000	55.314500
697.000000	55.067600
696.000000	54.832800
695.000000	54.625000
694.000000	54.358600
693.000000	54.133300
692.000000	53.854700
691.000000	53.626400
690.000000	53.374300
689.000000	53.045900
688.000000	52.760900
687.000000	52.496500
686.000000	52.197500
685.000000	51.959300
684.000000	51.662300
683.000000	51.417100
682.000000	51.148500
681.000000	50.848000
680.000000	50.577600
679.000000	50.375000
678.000000	50.110700
677.000000	49.842500
676.000000	49.670700
675.000000	49.425400
674.000000	49.246700
673.000000	49.046000
672.000000	48.807700
671.000000	48.620100
670.000000	48.401900
669.000000	48.198600
668.000000	48.007100
667.000000	47.822900
666.000000	47.606700
665.000000	47.381400
664.000000	47.225000
663.000000	47.038900
662.000000	46.834300
661.000000	46.641100
660.000000	46.482000
659.000000	46.328700
658.000000	46.206800
657.000000	46.062000
656.000000	45.892300
655.000000	45.797700
654.000000	45.723200
653.000000	45.603500
652.000000	45.501500
651.000000	45.464700
650.000000	45.386600
649.000000	45.323600
648.000000	45.233300
647.000000	45.215200
646.000000	45.150400
645.000000	45.101500
644.000000	45.053900
643.000000	44.999800
642.000000	44.944600
641.000000	44.880000
640.000000	44.824200
639.000000	44.748900
638.000000	44.722000
637.000000	44.652100
636.000000	44.568000
635.000000	44.471900
634.000000	44.350000
633.000000	44.273700
632.000000	44.119000
631.000000	43.996700
630.000000	43.871500
629.000000	43.724400
628.000000	43.616700
627.000000	43.493000
626.000000	43.416100
625.000000	43.323500
624.000000	43.257500
623.000000	43.181700
622.000000	43.133500
621.000000	43.109900
620.000000	43.060800
619.000000	43.065400
618.000000	43.112600
617.000000	43.154500
616.000000	43.236300
615.000000	43.343400
614.000000	43.509600
613.000000	43.688900
612.000000	43.917900
611.000000	44.175200
610.000000	44.487600
609.000000	44.879700
608.000000	45.300500
607.000000	45.762000
606.000000	46.276500
605.000000	46.909200
604.000000	47.519900
603.000000	48.192900
602.000000	48.892600
601.000000	49.609700
600.000000	50.351700
599.000000	51.089000
598.000000	51.800100
597.000000	52.521400
596.000000	53.253000
595.000000	53.993900
594.000000	54.667800
593.000000	55.404100
592.000000	56.058800
591.000000	56.708000
590.000000	57.287000
589.000000	57.851800
588.000000	58.340800
587.000000	58.792100
586.000000	59.155200
585.000000	59.617700
584.000000	59.878000
583.000000	60.188200
582.000000	60.395600
581.000000	60.625200
580.000000	60.782300
579.000000	60.972600
578.000000	61.066800
577.000000	61.186400
576.000000	61.332300
575.000000	61.418700
574.000000	61.536800
573.000000	61.659300
572.000000	61.785100
571.000000	61.857200
570.000000	62.022200
569.000000	62.146600
568.000000	62.189600
567.000000	62.265300
566.000000	62.364600
565.000000	62.428800
564.000000	62.440900
563.000000	62.474200
562.000000	62.471000
561.000000	62.496300
560.000000	62.429600
559.000000	62.321100
558.000000	62.262100
557.000000	62.176000
556.000000	62.107600
555.000000	62.011000
554.000000	61.887100
553.000000	61.729400
552.000000	61.618500
551.000000	61.449500
550.000000	61.292900
549.000000	61.095900
548.000000	60.850200
547.000000	60.612800
546.000000	60.303300
545.000000	59.962600
544.000000	59.561100
543.000000	59.151800
542.000000	58.674900
541.000000	58.175500
540.000000	57.623200
539.000000	57.044500
538.000000	56.452800
537.000000	55.857800
536.000000	55.214600
535.000000	54.551600
534.000000	53.875100
533.000000	53.120600
532.000000	52.367500
531.000000	51.577400
530.000000	50.766100
529.000000	49.920800
528.000000	49.056500
527.000000	48.179000
526.000000	47.255600
525.000000	46.315200
524.000000	45.326700
523.000000	44.348100
522.000000	43.336000
521.000000	42.270600
520.000000	41.217000
519.000000	40.162200
518.000000	39.104200
517.000000	38.078600
516.000000	37.041500
515.000000	36.002100
514.000000	34.995800
513.000000	34.010800
512.000000	33.069600
511.000000	32.150700
510.000000	31.279500
509.000000	30.444900
508.000000	29.661500
507.000000	28.893800
506.000000	28.146100
505.000000	27.464200
504.000000	26.768500
503.000000	26.097900
502.000000	25.479300
501.000000	24.873600
500.000000	24.259400
499.000000	23.670400
498.000000	23.124200
497.000000	22.608400
496.000000	22.079300
495.000000	21.572900
494.000000	21.110600
493.000000	20.650100
492.000000	20.246800
491.000000	19.872800
490.000000	19.506400
489.000000	19.173800
488.000000	18.903800
487.000000	18.654700
486.000000	18.434700
485.000000	18.245700
484.000000	18.079600
483.000000	17.939000
482.000000	17.837200
481.000000	17.741900
480.000000	17.644400
479.000000	17.576500
478.000000	17.515500
477.000000	17.434300
476.000000	17.381200
475.000000	17.320100
474.000000	17.248300
473.000000	17.173600
472.000000	17.103800
471.000000	17.024800
470.000000	16.924400
469.000000	16.829900
468.000000	16.738800
467.000000	16.647500
466.000000	16.555900
465.000000	16.457600
464.000000	16.358200
463.000000	16.255300
462.000000	16.146100
461.000000	16.041700
460.000000	15.946500
459.000000	15.830000
458.000000	15.706600
457.000000	15.584400
456.000000	15.456100
455.000000	15.334000
454.000000	15.190400
453.000000	15.039300
452.000000	14.897900
451.000000	14.733800
450.000000	14.557800
449.000000	14.397000
448.000000	14.219800
447.000000	14.052400
446.000000	13.866700
445.000000	13.659300
444.000000	13.464100
443.000000	13.284800
442.000000	13.100500
441.000000	12.892900
440.000000	12.679600
439.000000	12.471900
438.000000	12.268400
437.000000	12.060100
436.000000	11.872700
435.000000	11.679800
434.000000	11.467900
433.000000	11.270900
432.000000	11.068000
431.000000	10.864200
430.000000	10.675900
429.000000	10.496900
428.000000	10.322300
427.000000	10.126700
426.000000	9.951300
425.000000	9.767400
424.000000	9.584100
423.000000	9.417900
422.000000	9.235000
421.000000	9.051200
420.000000	8.876000
419.000000	8.711400
418.000000	8.549000
417.000000	8.406500
416.000000	8.255000
415.000000	8.116900
414.000000	7.999700
413.000000	7.859300
412.000000	7.728400
411.000000	7.626100
410.000000	7.507000
409.000000	7.399500
408.000000	7.286900
407.000000	7.195400
406.000000	7.122900
405.000000	7.028000
404.000000	6.961600
403.000000	6.900100
402.000000	6.841500
401.000000	6.784200
400.000000	6.721300
399.000000	6.671500
398.000000	6.632200
397.000000	6.616200
396.000000	6.572200
395.000000	6.544400
394.000000	6.521400
393.000000	6.494500
392.000000	6.462000
391.000000	6.424700
390.000000	6.421500
389.000000	6.418700
388.000000	6.400500
387.000000	6.376700
386.000000	6.356200
385.000000	6.352000
384.000000	6.340700
383.000000	6.330100
382.000000	6.320600
381.000000	6.317000
380.000000	6.301900
379.000000	6.290300
378.000000	6.283300
377.000000	6.298100
376.000000	6.386400
375.000000	6.213000
374.000000	6.002300
373.000000	6.144700
372.000000	6.242600
371.000000	6.152600
370.000000	6.079100
369.000000	6.171900
368.000000	6.140000
367.000000	6.140900
366.000000	6.204600
365.000000	6.287700
364.000000	6.282700
363.000000	6.234000
362.000000	6.312500
361.000000	6.084000
360.000000	6.240800
359.000000	6.253400
358.000000	6.179600
357.000000	6.277400
356.000000	6.312100
355.000000	6.305100
354.000000	6.305800
353.000000	6.297600
352.000000	6.305400
351.000000	6.345900
350.000000	6.254900
349.000000	6.404700
348.000000	6.177800
347.000000	6.273600
346.000000	6.352000
345.000000	6.459700
344.000000	6.401400
343.000000	6.417800
342.000000	6.287300
341.000000	6.209000
340.000000	6.335300
339.000000	6.315400
338.000000	6.261900
337.000000	6.313400
336.000000	6.303500
335.000000	6.171900
334.000000	6.220700
333.000000	6.440900
332.000000	6.653600
331.000000	6.523900
330.000000	6.603500
329.000000	6.708300
328.000000	6.492000
327.000000	6.549500
326.000000	6.753000
325.000000	6.424300
324.000000	7.251500
323.000000	6.798200
322.000000	6.677200
321.000000	7.179600
320.000000	7.021600
319.000000	7.057200
318.000000	7.162500
317.000000	6.978600
316.000000	6.352700
315.000000	6.324000
314.000000	6.297900
313.000000	6.444300
312.000000	6.394000
311.000000	6.372900
310.000000	6.375700
309.000000	6.346500
308.000000	6.432700
307.000000	6.419100
306.000000	6.471100
305.000000	6.474500
304.000000	6.368200
303.000000	6.399000
302.000000	6.426700
301.000000	6.456400
300.000000	6.484300
299.000000	6.421100
298.000000	6.473100
297.000000	6.489500
296.000000	6.512100
295.000000	6.469100
294.000000	6.428300
293.000000	6.483600
292.000000	6.411600
291.000000	6.451900
290.000000	6.517900
289.000000	6.447000
288.000000	6.477300
287.000000	6.453500
286.000000	6.483300
285.000000	6.565500
284.000000	6.499100
283.000000	6.482500
282.000000	6.504400
281.000000	6.466800
280.000000	6.552400
279.000000	6.532000
278.000000	6.546300
277.000000	6.556200
276.000000	6.551100
275.000000	6.616300
274.000000	6.618100
273.000000	6.581200
272.000000	6.638800
271.000000	6.703100
270.000000	6.723100
269.000000	6.736700
268.000000	6.748700
267.000000	6.791400
266.000000	6.826600
265.000000	6.916100
264.000000	6.846600
263.000000	6.918200
262.000000	6.977700
261.000000	7.010000
260.000000	7.042400
259.000000	7.072000
258.000000	7.108800
257.000000	7.133000
256.000000	7.153600
255.000000	7.171500
254.000000	7.198200
253.000000	7.205400
252.000000	7.284000
251.000000	7.261400
250.000000	7.325200
