PE UV       SUBTECH     SPECTRUM    ASCII       PEDS        4.00        
   -1
INBUCR0146-2.Sample.ASC
24/04/29
15:25:23.00
24/04/29
15:25:23.00
Vinicio Soto Monge
Chrysina sp.
250,000000
1
Lambda 1050
1050L1511233
PerkinElmer UV WinLab 6.3.2.0749 / 2.02.05 Lambda 900 UV/VIS/NIR, Aug  7 2015 09:38:08

0
0
3350/servo 860,8/2
0
0
UV/VIS
1
1
1
DoubleDePol,CommonBeamDepol,RBeamAtt,SBeamAtt,60mm sphere, WB InGaAs Detector
0
0
0
0
Program
Program
3350/servo 860,8/2
3350/0,2 860,8/0,2
3350/0,2 860,8/0,2
0
15.00
 
 
 
0
 
860,8
319,2
860,8
Front
100
on
S:100 R:100
0
0
0
0
 
0
 
 
 
0
 
 
0
0
0
0
0
 
 
 
 
0
0


0
0
#HDR
-1
-1
#GR
nm
%R
1.0
0.0
2500,000000
-1,000000
2251
8
100,409100
6,000500
#DATA
2500.000000	11.723357
2499.000000	11.628491
2498.000000	11.505156
2497.000000	11.556785
2496.000000	11.486247
2495.000000	11.526084
2494.000000	11.398393
2493.000000	11.453421
2492.000000	11.459370
2491.000000	11.424632
2490.000000	11.424207
2489.000000	11.477429
2488.000000	11.410609
2487.000000	11.385857
2486.000000	11.443648
2485.000000	11.462557
2484.000000	11.458520
2483.000000	11.509618
2482.000000	11.512698
2481.000000	11.512486
2480.000000	11.498676
2479.000000	11.516841
2478.000000	11.550623
2477.000000	11.574738
2476.000000	11.611282
2475.000000	11.657493
2474.000000	11.637521
2473.000000	11.703491
2472.000000	11.731537
2471.000000	11.745666
2470.000000	11.830651
2469.000000	11.822365
2468.000000	11.888548
2467.000000	11.994992
2466.000000	12.049702
2465.000000	12.080828
2464.000000	12.154872
2463.000000	12.220948
2462.000000	12.287768
2461.000000	12.329730
2460.000000	12.400162
2459.000000	12.494177
2458.000000	12.545700
2457.000000	12.639184
2456.000000	12.718540
2455.000000	12.787378
2454.000000	12.885430
2453.000000	12.959899
2452.000000	13.085466
2451.000000	13.184474
2450.000000	13.284757
2449.000000	13.366450
2448.000000	13.483199
2447.000000	13.570309
2446.000000	13.696619
2445.000000	13.817299
2444.000000	13.938829
2443.000000	14.041661
2442.000000	14.159367
2441.000000	14.284508
2440.000000	14.357065
2439.000000	14.491023
2438.000000	14.600124
2437.000000	14.716448
2436.000000	14.825230
2435.000000	14.940173
2434.000000	15.037163
2433.000000	15.147007
2432.000000	15.259188
2431.000000	15.367439
2430.000000	15.489287
2429.000000	15.580647
2428.000000	15.671050
2427.000000	15.771546
2426.000000	15.859081
2425.000000	15.949803
2424.000000	16.045731
2423.000000	16.129655
2422.000000	16.199237
2421.000000	16.286241
2420.000000	16.368358
2419.000000	16.448882
2418.000000	16.523351
2417.000000	16.577848
2416.000000	16.642331
2415.000000	16.705858
2414.000000	16.763754
2413.000000	16.812515
2412.000000	16.871686
2411.000000	16.917154
2410.000000	16.940525
2409.000000	16.989285
2408.000000	17.041551
2407.000000	17.077883
2406.000000	17.104972
2405.000000	17.139285
2404.000000	17.167437
2403.000000	17.196757
2402.000000	17.229157
2401.000000	17.271757
2400.000000	17.307557
2399.000000	17.334646
2398.000000	17.356636
2397.000000	17.380857
2396.000000	17.405928
2395.000000	17.413045
2394.000000	17.428661
2393.000000	17.451820
2392.000000	17.464780
2391.000000	17.476997
2390.000000	17.489639
2389.000000	17.489851
2388.000000	17.500156
2387.000000	17.518853
2386.000000	17.520765
2385.000000	17.514710
2384.000000	17.524589
2383.000000	17.513753
2382.000000	17.501006
2381.000000	17.491551
2380.000000	17.485071
2379.000000	17.484115
2378.000000	17.455644
2377.000000	17.439710
2376.000000	17.433442
2375.000000	17.423456
2374.000000	17.419101
2373.000000	17.404653
2372.000000	17.384894
2371.000000	17.370446
2370.000000	17.349837
2369.000000	17.339533
2368.000000	17.323810
2367.000000	17.319986
2366.000000	17.336452
2365.000000	17.331034
2364.000000	17.317224
2363.000000	17.313293
2362.000000	17.317543
2361.000000	17.304370
2360.000000	17.292047
2359.000000	17.289179
2358.000000	17.280574
2357.000000	17.257628
2356.000000	17.235638
2355.000000	17.222996
2354.000000	17.183053
2353.000000	17.175510
2352.000000	17.153308
2351.000000	17.122819
2350.000000	17.102847
2349.000000	17.056424
2348.000000	17.023067
2347.000000	17.014250
2346.000000	16.995447
2345.000000	16.960709
2344.000000	16.942968
2343.000000	16.925015
2342.000000	16.908655
2341.000000	16.897288
2340.000000	16.884753
2339.000000	16.893039
2338.000000	16.892614
2337.000000	16.892720
2336.000000	16.883372
2335.000000	16.888365
2334.000000	16.891552
2333.000000	16.906318
2332.000000	16.920128
2331.000000	16.944030
2330.000000	16.975794
2329.000000	16.984930
2328.000000	16.998102
2327.000000	17.034221
2326.000000	17.070553
2325.000000	17.093074
2324.000000	17.117826
2323.000000	17.146934
2322.000000	17.173704
2321.000000	17.184221
2320.000000	17.185708
2319.000000	17.174448
2318.000000	17.182203
2317.000000	17.181884
2316.000000	17.168924
2315.000000	17.146084
2314.000000	17.112515
2313.000000	17.088294
2312.000000	17.050581
2311.000000	17.012125
2310.000000	16.990666
2309.000000	16.952529
2308.000000	16.915241
2307.000000	16.896120
2306.000000	16.865843
2305.000000	16.835992
2304.000000	16.815489
2303.000000	16.786807
2302.000000	16.782451
2301.000000	16.782451
2300.000000	16.768110
2299.000000	16.782982
2298.000000	16.801785
2297.000000	16.801785
2296.000000	16.815383
2295.000000	16.843110
2294.000000	16.860426
2293.000000	16.879441
2292.000000	16.896438
2291.000000	16.937869
2290.000000	16.979937
2289.000000	17.024023
2288.000000	17.063754
2287.000000	17.095305
2286.000000	17.122182
2285.000000	17.186240
2284.000000	17.231176
2283.000000	17.267082
2282.000000	17.301608
2281.000000	17.337939
2280.000000	17.387231
2279.000000	17.416126
2278.000000	17.467861
2277.000000	17.516091
2276.000000	17.546473
2275.000000	17.565807
2274.000000	17.585779
2273.000000	17.646012
2272.000000	17.665134
2271.000000	17.713470
2270.000000	17.750226
2269.000000	17.808017
2268.000000	17.855821
2267.000000	17.910849
2266.000000	17.982662
2265.000000	18.058724
2264.000000	18.175155
2263.000000	18.242187
2262.000000	18.364142
2261.000000	18.485884
2260.000000	18.621967
2259.000000	18.776429
2258.000000	18.909007
2257.000000	19.076429
2256.000000	19.238964
2255.000000	19.430288
2254.000000	19.613963
2253.000000	19.767787
2252.000000	19.965061
2251.000000	20.150436
2250.000000	20.319557
2249.000000	20.501214
2248.000000	20.656207
2247.000000	20.810987
2246.000000	20.995300
2245.000000	21.114280
2244.000000	21.235066
2243.000000	21.350434
2242.000000	21.475045
2241.000000	21.574159
2240.000000	21.664457
2239.000000	21.735207
2238.000000	21.815944
2237.000000	21.854612
2236.000000	21.886376
2235.000000	21.927594
2234.000000	21.956595
2233.000000	21.971680
2232.000000	21.970618
2231.000000	21.948628
2230.000000	21.938004
2229.000000	21.908259
2228.000000	21.871822
2227.000000	21.839315
2226.000000	21.789704
2225.000000	21.736057
2224.000000	21.682091
2223.000000	21.609428
2222.000000	21.534322
2221.000000	21.452311
2220.000000	21.409712
2219.000000	21.302842
2218.000000	21.234004
2217.000000	21.162403
2216.000000	21.065201
2215.000000	20.976285
2214.000000	20.899797
2213.000000	20.850293
2212.000000	20.770619
2211.000000	20.677666
2210.000000	20.600223
2209.000000	20.557517
2208.000000	20.500471
2207.000000	20.437050
2206.000000	20.402950
2205.000000	20.332199
2204.000000	20.303941
2203.000000	20.263361
2202.000000	20.177312
2201.000000	20.144168
2200.000000	20.115910
2199.000000	20.072674
2198.000000	20.045372
2197.000000	20.002242
2196.000000	19.969841
2195.000000	19.949444
2194.000000	19.928092
2193.000000	19.878588
2192.000000	19.862865
2191.000000	19.835139
2190.000000	19.817292
2189.000000	19.805925
2188.000000	19.780004
2187.000000	19.749728
2186.000000	19.741867
2185.000000	19.703836
2184.000000	19.676853
2183.000000	19.662086
2182.000000	19.633723
2181.000000	19.604402
2180.000000	19.596966
2179.000000	19.587830
2178.000000	19.565628
2177.000000	19.554686
2176.000000	19.554367
2175.000000	19.534289
2174.000000	19.525472
2173.000000	19.560847
2172.000000	19.572958
2171.000000	19.564565
2170.000000	19.579332
2169.000000	19.628411
2168.000000	19.633298
2167.000000	19.650082
2166.000000	19.710528
2165.000000	19.760139
2164.000000	19.788503
2163.000000	19.827065
2162.000000	19.890273
2161.000000	19.946151
2160.000000	20.017221
2159.000000	20.087971
2158.000000	20.165946
2157.000000	20.262298
2156.000000	20.341016
2155.000000	20.455003
2154.000000	20.552100
2153.000000	20.660138
2152.000000	20.781349
2151.000000	20.909677
2150.000000	21.011766
2149.000000	21.112687
2148.000000	21.252276
2147.000000	21.392184
2146.000000	21.507021
2145.000000	21.624726
2144.000000	21.735632
2143.000000	21.860136
2142.000000	21.972955
2141.000000	22.085348
2140.000000	22.203904
2139.000000	22.331063
2138.000000	22.453018
2137.000000	22.557338
2136.000000	22.654328
2135.000000	22.750256
2134.000000	22.847033
2133.000000	22.935312
2132.000000	23.031558
2131.000000	23.119943
2130.000000	23.197387
2129.000000	23.275999
2128.000000	23.354504
2127.000000	23.431735
2126.000000	23.481876
2125.000000	23.532549
2124.000000	23.606274
2123.000000	23.663533
2122.000000	23.706664
2121.000000	23.756487
2120.000000	23.801848
2119.000000	23.834249
2118.000000	23.874829
2117.000000	23.920722
2116.000000	23.939950
2115.000000	23.961621
2114.000000	23.981699
2113.000000	23.999440
2112.000000	24.018243
2111.000000	24.036196
2110.000000	24.037258
2109.000000	24.031628
2108.000000	24.046819
2107.000000	24.059461
2106.000000	24.051068
2105.000000	24.047563
2104.000000	24.048094
2103.000000	24.048306
2102.000000	24.056168
2101.000000	24.070190
2100.000000	24.074546
2099.000000	24.080070
2098.000000	24.077839
2097.000000	24.101847
2096.000000	24.113427
2095.000000	24.129786
2094.000000	24.168774
2093.000000	24.177910
2092.000000	24.209036
2091.000000	24.247067
2090.000000	24.269163
2089.000000	24.280211
2088.000000	24.285735
2087.000000	24.301564
2086.000000	24.322810
2085.000000	24.335027
2084.000000	24.335239
2083.000000	24.325466
2082.000000	24.310594
2081.000000	24.279043
2080.000000	24.246536
2079.000000	24.191932
2078.000000	24.129255
2077.000000	24.070084
2076.000000	24.005176
2075.000000	23.923059
2074.000000	23.833505
2073.000000	23.743208
2072.000000	23.646111
2071.000000	23.527238
2070.000000	23.417075
2069.000000	23.311374
2068.000000	23.183683
2067.000000	23.035595
2066.000000	22.922883
2065.000000	22.804859
2064.000000	22.660171
2063.000000	22.521750
2062.000000	22.410631
2061.000000	22.316085
2060.000000	22.206878
2059.000000	22.106701
2058.000000	22.017997
2057.000000	21.961375
2056.000000	21.920582
2055.000000	21.903798
2054.000000	21.887438
2053.000000	21.906772
2052.000000	21.965837
2051.000000	22.027983
2050.000000	22.108826
2049.000000	22.208153
2048.000000	22.339668
2047.000000	22.494448
2046.000000	22.662295
2045.000000	22.819838
2044.000000	22.989809
2043.000000	23.185064
2042.000000	23.381381
2041.000000	23.543066
2040.000000	23.725254
2039.000000	23.889383
2038.000000	24.083575
2037.000000	24.245792
2036.000000	24.393667
2035.000000	24.563851
2034.000000	24.724474
2033.000000	24.863532
2032.000000	24.969658
2031.000000	25.117639
2030.000000	25.254891
2029.000000	25.359530
2028.000000	25.466718
2027.000000	25.572419
2026.000000	25.681520
2025.000000	25.761194
2024.000000	25.859246
2023.000000	25.932759
2022.000000	26.005422
2021.000000	26.084564
2020.000000	26.148941
2019.000000	26.217461
2018.000000	26.283325
2017.000000	26.309352
2016.000000	26.360131
2015.000000	26.365549
2014.000000	26.413247
2013.000000	26.417815
2012.000000	26.442673
2011.000000	26.449260
2010.000000	26.441505
2009.000000	26.435024
2008.000000	26.411016
2007.000000	26.382333
2006.000000	26.354819
2005.000000	26.321568
2004.000000	26.289061
2003.000000	26.226916
2002.000000	26.168913
2001.000000	26.092001
2000.000000	26.020188
1999.000000	25.948269
1998.000000	25.871888
1997.000000	25.802837
1996.000000	25.704572
1995.000000	25.605670
1994.000000	25.503687
1993.000000	25.394480
1992.000000	25.305883
1991.000000	25.193595
1990.000000	25.103298
1989.000000	24.984743
1988.000000	24.867356
1987.000000	24.760912
1986.000000	24.645437
1985.000000	24.524758
1984.000000	24.401635
1983.000000	24.286904
1982.000000	24.180140
1981.000000	24.060204
1980.000000	23.939525
1979.000000	23.810028
1978.000000	23.701140
1977.000000	23.590977
1976.000000	23.480071
1975.000000	23.379256
1974.000000	23.262295
1973.000000	23.153938
1972.000000	23.066934
1971.000000	22.950503
1970.000000	22.843846
1969.000000	22.747069
1968.000000	22.628620
1967.000000	22.550220
1966.000000	22.444201
1965.000000	22.336269
1964.000000	22.234392
1963.000000	22.115412
1962.000000	22.004931
1961.000000	21.915589
1960.000000	21.794272
1959.000000	21.710136
1958.000000	21.596149
1957.000000	21.473664
1956.000000	21.386235
1955.000000	21.259287
1954.000000	21.167821
1953.000000	21.054365
1952.000000	20.945902
1951.000000	20.831171
1950.000000	20.754578
1949.000000	20.644309
1948.000000	20.556986
1947.000000	20.481774
1946.000000	20.387015
1945.000000	20.325081
1944.000000	20.243601
1943.000000	20.198346
1942.000000	20.126640
1941.000000	20.087228
1940.000000	20.037192
1939.000000	20.007660
1938.000000	19.990025
1937.000000	19.962405
1936.000000	19.967929
1935.000000	19.960280
1934.000000	19.978977
1933.000000	20.026888
1932.000000	20.061413
1931.000000	20.087865
1930.000000	20.171045
1929.000000	20.250931
1928.000000	20.350683
1927.000000	20.446399
1926.000000	20.556136
1925.000000	20.686271
1924.000000	20.804613
1923.000000	20.934535
1922.000000	21.137120
1921.000000	21.357339
1920.000000	21.576496
1919.000000	21.773345
1918.000000	21.985065
1917.000000	22.211977
1916.000000	22.452805
1915.000000	22.721467
1914.000000	23.084143
1913.000000	23.463498
1912.000000	23.858682
1911.000000	24.189064
1910.000000	24.567250
1909.000000	24.913355
1908.000000	25.362080
1907.000000	25.842461
1906.000000	26.414415
1905.000000	27.012927
1904.000000	27.578932
1903.000000	28.121035
1902.000000	28.715723
1901.000000	29.388385
1900.000000	30.079213
1899.000000	30.805841
1898.000000	31.463418
1897.000000	32.164125
1896.000000	32.766886
1895.000000	33.367204
1894.000000	34.016389
1893.000000	34.715503
1892.000000	35.480162
1891.000000	36.181294
1890.000000	36.837278
1889.000000	37.451512
1888.000000	38.076370
1887.000000	38.626228
1886.000000	39.181822
1885.000000	39.734335
1884.000000	40.288974
1883.000000	40.776154
1882.000000	41.207457
1881.000000	41.624737
1880.000000	41.979977
1879.000000	42.342123
1878.000000	42.720097
1877.000000	43.035181
1876.000000	43.351859
1875.000000	43.668112
1874.000000	43.994989
1873.000000	44.292120
1872.000000	44.539641
1871.000000	44.765491
1870.000000	44.990384
1869.000000	45.199024
1868.000000	45.307381
1867.000000	45.390561
1866.000000	45.464817
1865.000000	45.555433
1864.000000	45.611311
1863.000000	45.677388
1862.000000	45.810709
1861.000000	45.936382
1860.000000	46.024236
1859.000000	46.122500
1858.000000	46.207486
1857.000000	46.250935
1856.000000	46.273031
1855.000000	46.321579
1854.000000	46.354405
1853.000000	46.347181
1852.000000	46.353768
1851.000000	46.370234
1850.000000	46.400616
1849.000000	46.450014
1848.000000	46.474023
1847.000000	46.434823
1846.000000	46.382026
1845.000000	46.332628
1844.000000	46.274944
1843.000000	46.276856
1842.000000	46.302351
1841.000000	46.290772
1840.000000	46.239674
1839.000000	46.200581
1838.000000	46.144490
1837.000000	46.098173
1836.000000	46.068322
1835.000000	45.989073
1834.000000	45.905999
1833.000000	45.835886
1832.000000	45.793712
1831.000000	45.775759
1830.000000	45.748032
1829.000000	45.714888
1828.000000	45.663152
1827.000000	45.627034
1826.000000	45.607274
1825.000000	45.579973
1824.000000	45.538223
1823.000000	45.565313
1822.000000	45.625865
1821.000000	45.644668
1820.000000	45.651361
1819.000000	45.614392
1818.000000	45.579335
1817.000000	45.573386
1816.000000	45.571580
1815.000000	45.545022
1814.000000	45.522076
1813.000000	45.520376
1812.000000	45.492119
1811.000000	45.457593
1810.000000	45.421687
1809.000000	45.380362
1808.000000	45.353061
1807.000000	45.352105
1806.000000	45.309506
1805.000000	45.268500
1804.000000	45.238224
1803.000000	45.235887
1802.000000	45.233656
1801.000000	45.200511
1800.000000	45.147502
1799.000000	45.122749
1798.000000	45.103415
1797.000000	45.072714
1796.000000	45.054230
1795.000000	45.023422
1794.000000	44.994421
1793.000000	44.986029
1792.000000	44.974131
1791.000000	44.967757
1790.000000	44.948635
1789.000000	44.938968
1788.000000	44.958090
1787.000000	44.977636
1786.000000	44.979124
1785.000000	44.979867
1784.000000	44.978274
1783.000000	44.963083
1782.000000	44.941517
1781.000000	44.929832
1780.000000	44.911135
1779.000000	44.873104
1778.000000	44.825193
1777.000000	44.782275
1776.000000	44.741588
1775.000000	44.695271
1774.000000	44.640987
1773.000000	44.587552
1772.000000	44.535392
1771.000000	44.480470
1770.000000	44.433621
1769.000000	44.374981
1768.000000	44.320803
1767.000000	44.299238
1766.000000	44.244847
1765.000000	44.224132
1764.000000	44.190456
1763.000000	44.156887
1762.000000	44.144989
1761.000000	44.156674
1760.000000	44.153487
1759.000000	44.138190
1758.000000	44.151787
1757.000000	44.144882
1756.000000	44.157205
1755.000000	44.159330
1754.000000	44.168466
1753.000000	44.159224
1752.000000	44.153062
1751.000000	44.131603
1750.000000	44.100159
1749.000000	44.053735
1748.000000	44.012198
1747.000000	43.955046
1746.000000	43.873459
1745.000000	43.792192
1744.000000	43.706993
1743.000000	43.608197
1742.000000	43.518644
1741.000000	43.405400
1740.000000	43.294175
1739.000000	43.210358
1738.000000	43.099770
1737.000000	43.030401
1736.000000	42.943822
1735.000000	42.869459
1734.000000	42.794140
1733.000000	42.724240
1732.000000	42.660075
1731.000000	42.590918
1730.000000	42.517512
1729.000000	42.470026
1728.000000	42.382809
1727.000000	42.327463
1726.000000	42.278702
1725.000000	42.256393
1724.000000	42.282633
1723.000000	42.317689
1722.000000	42.438156
1721.000000	42.606641
1720.000000	42.829516
1719.000000	43.074806
1718.000000	43.359508
1717.000000	43.631569
1716.000000	43.918502
1715.000000	44.171865
1714.000000	44.411206
1713.000000	44.663402
1712.000000	44.865774
1711.000000	45.045837
1710.000000	45.209222
1709.000000	45.370908
1708.000000	45.498493
1707.000000	45.612480
1706.000000	45.726786
1705.000000	45.790950
1704.000000	45.844385
1703.000000	45.891977
1702.000000	45.934469
1701.000000	45.957734
1700.000000	45.984399
1699.000000	45.962515
1698.000000	45.989923
1697.000000	45.953910
1696.000000	45.919703
1695.000000	45.857982
1694.000000	45.746545
1693.000000	45.665277
1692.000000	45.559789
1691.000000	45.448139
1690.000000	45.355292
1689.000000	45.335533
1688.000000	45.364534
1687.000000	45.435709
1686.000000	45.587515
1685.000000	45.770978
1684.000000	46.000758
1683.000000	46.258690
1682.000000	46.530326
1681.000000	46.787514
1680.000000	47.039815
1679.000000	47.302209
1678.000000	47.541443
1677.000000	47.734042
1676.000000	47.912087
1675.000000	48.124127
1674.000000	48.317151
1673.000000	48.517823
1672.000000	48.722851
1671.000000	48.943283
1670.000000	49.167327
1669.000000	49.390945
1668.000000	49.602560
1667.000000	49.851037
1666.000000	50.022496
1665.000000	50.232835
1664.000000	50.426603
1663.000000	50.598380
1662.000000	50.754966
1661.000000	50.919520
1660.000000	51.082055
1659.000000	51.224725
1658.000000	51.333719
1657.000000	51.455780
1656.000000	51.549158
1655.000000	51.635312
1654.000000	51.691509
1653.000000	51.753124
1652.000000	51.812083
1651.000000	51.852026
1650.000000	51.870510
1649.000000	51.909816
1648.000000	51.909179
1647.000000	51.931594
1646.000000	51.933400
1645.000000	51.943704
1644.000000	51.943811
1643.000000	51.952203
1642.000000	51.943704
1641.000000	51.946041
1640.000000	51.939668
1639.000000	51.944129
1638.000000	51.927663
1637.000000	51.934568
1636.000000	51.921820
1635.000000	51.899512
1634.000000	51.885808
1633.000000	51.863818
1632.000000	51.837791
1631.000000	51.817925
1630.000000	51.772777
1629.000000	51.729540
1628.000000	51.689385
1627.000000	51.657515
1626.000000	51.614810
1625.000000	51.580497
1624.000000	51.530143
1623.000000	51.500185
1622.000000	51.470759
1621.000000	51.430284
1620.000000	51.393528
1619.000000	51.365589
1618.000000	51.331170
1617.000000	51.305355
1616.000000	51.276141
1615.000000	51.224406
1614.000000	51.188500
1613.000000	51.143776
1612.000000	51.076956
1611.000000	51.042962
1610.000000	50.994732
1609.000000	50.924300
1608.000000	50.859180
1607.000000	50.790448
1606.000000	50.712155
1605.000000	50.634605
1604.000000	50.552488
1603.000000	50.456666
1602.000000	50.358083
1601.000000	50.280002
1600.000000	50.207658
1599.000000	50.129153
1598.000000	50.039493
1597.000000	49.957800
1596.000000	49.908615
1595.000000	49.826710
1594.000000	49.757234
1593.000000	49.717716
1592.000000	49.657163
1591.000000	49.583863
1590.000000	49.532022
1589.000000	49.478587
1588.000000	49.424833
1587.000000	49.378941
1586.000000	49.337298
1585.000000	49.286413
1584.000000	49.231703
1583.000000	49.187086
1582.000000	49.137051
1581.000000	49.092433
1580.000000	49.062157
1579.000000	49.028375
1578.000000	49.007447
1577.000000	49.001392
1576.000000	48.987476
1575.000000	48.969735
1574.000000	48.975471
1573.000000	48.988113
1572.000000	48.989813
1571.000000	48.999799
1570.000000	49.025613
1569.000000	49.056739
1568.000000	49.078198
1567.000000	49.103056
1566.000000	49.127490
1565.000000	49.150861
1564.000000	49.175931
1563.000000	49.192716
1562.000000	49.188998
1561.000000	49.176994
1560.000000	49.160209
1559.000000	49.151286
1558.000000	49.121541
1557.000000	49.077985
1556.000000	49.035174
1555.000000	48.978340
1554.000000	48.903658
1553.000000	48.825047
1552.000000	48.743035
1551.000000	48.643921
1550.000000	48.555961
1549.000000	48.486485
1548.000000	48.389070
1547.000000	48.299197
1546.000000	48.230890
1545.000000	48.156634
1544.000000	48.094594
1543.000000	48.048490
1542.000000	48.002916
1541.000000	47.960848
1540.000000	47.917293
1539.000000	47.878624
1538.000000	47.833476
1537.000000	47.788114
1536.000000	47.748915
1535.000000	47.693887
1534.000000	47.642576
1533.000000	47.598703
1532.000000	47.539213
1531.000000	47.472605
1530.000000	47.408335
1529.000000	47.337265
1528.000000	47.274694
1527.000000	47.209468
1526.000000	47.144135
1525.000000	47.071154
1524.000000	46.992754
1523.000000	46.921048
1522.000000	46.857096
1521.000000	46.786876
1520.000000	46.700510
1519.000000	46.620304
1518.000000	46.538506
1517.000000	46.464674
1516.000000	46.391268
1515.000000	46.303732
1514.000000	46.208230
1513.000000	46.106884
1512.000000	46.032203
1511.000000	45.936488
1510.000000	45.851290
1509.000000	45.744526
1508.000000	45.662196
1507.000000	45.568818
1506.000000	45.497855
1505.000000	45.409045
1504.000000	45.322678
1503.000000	45.272006
1502.000000	45.202424
1501.000000	45.133479
1500.000000	45.073776
1499.000000	45.033727
1498.000000	45.001857
1497.000000	44.969032
1496.000000	44.951397
1495.000000	44.952459
1494.000000	44.951609
1493.000000	44.953947
1492.000000	44.959471
1491.000000	44.981461
1490.000000	45.000901
1489.000000	45.041163
1488.000000	45.064853
1487.000000	45.077920
1486.000000	45.109470
1485.000000	45.129655
1484.000000	45.148139
1483.000000	45.203486
1482.000000	45.233656
1481.000000	45.264357
1480.000000	45.306212
1479.000000	45.363472
1478.000000	45.405964
1477.000000	45.446970
1476.000000	45.518464
1475.000000	45.563188
1474.000000	45.648068
1473.000000	45.763754
1472.000000	45.820907
1471.000000	45.930645
1470.000000	46.012231
1469.000000	46.108265
1468.000000	46.205893
1467.000000	46.322854
1466.000000	46.430786
1465.000000	46.509610
1464.000000	46.634646
1463.000000	46.739284
1462.000000	46.859752
1461.000000	46.972783
1460.000000	47.094206
1459.000000	47.205537
1458.000000	47.316019
1457.000000	47.468993
1456.000000	47.581599
1455.000000	47.701004
1454.000000	47.812123
1453.000000	47.940133
1452.000000	48.072392
1451.000000	48.196046
1450.000000	48.304403
1449.000000	48.382696
1448.000000	48.512087
1447.000000	48.661768
1446.000000	48.799338
1445.000000	48.911626
1444.000000	49.008085
1443.000000	49.147780
1442.000000	49.292149
1441.000000	49.393814
1440.000000	49.557199
1439.000000	49.691051
1438.000000	49.821823
1437.000000	50.003905
1436.000000	50.140838
1435.000000	50.311766
1434.000000	50.530498
1433.000000	50.689209
1432.000000	50.872990
1431.000000	51.058897
1430.000000	51.222069
1429.000000	51.468315
1428.000000	51.683117
1427.000000	51.924901
1426.000000	52.172528
1425.000000	52.439384
1424.000000	52.739596
1423.000000	52.976812
1422.000000	53.260558
1421.000000	53.599226
1420.000000	53.939913
1419.000000	54.294197
1418.000000	54.579431
1417.000000	54.871569
1416.000000	55.255811
1415.000000	55.715690
1414.000000	56.135838
1413.000000	56.513175
1412.000000	56.859704
1411.000000	57.319052
1410.000000	57.831622
1409.000000	58.282684
1408.000000	58.765084
1407.000000	59.187463
1406.000000	59.629601
1405.000000	60.093730
1404.000000	60.546385
1403.000000	60.922766
1402.000000	61.359167
1401.000000	61.901164
1400.000000	62.319719
1399.000000	62.590504
1398.000000	62.854810
1397.000000	63.267841
1396.000000	63.746417
1395.000000	64.088272
1394.000000	64.313803
1393.000000	64.592874
1392.000000	64.963306
1391.000000	65.241103
1390.000000	65.515395
1389.000000	65.873291
1388.000000	66.221626
1387.000000	66.494855
1386.000000	66.789756
1385.000000	67.075095
1384.000000	67.420562
1383.000000	67.642906
1382.000000	67.877361
1381.000000	68.057424
1380.000000	68.144853
1379.000000	68.254591
1378.000000	68.356786
1377.000000	68.487664
1376.000000	68.581042
1375.000000	68.699704
1374.000000	68.827289
1373.000000	68.989930
1372.000000	69.180723
1371.000000	69.330829
1370.000000	69.452359
1369.000000	69.612132
1368.000000	69.766806
1367.000000	69.879412
1366.000000	69.978527
1365.000000	70.115354
1364.000000	70.214149
1363.000000	70.358944
1362.000000	70.463795
1361.000000	70.537308
1360.000000	70.516167
1359.000000	70.627074
1358.000000	70.714290
1357.000000	70.800126
1356.000000	70.927286
1355.000000	71.081429
1354.000000	71.223143
1353.000000	71.337023
1352.000000	71.556287
1351.000000	71.764395
1350.000000	71.974310
1349.000000	72.193573
1348.000000	72.411349
1347.000000	72.621158
1346.000000	72.775301
1345.000000	72.981391
1344.000000	73.200548
1343.000000	73.369457
1342.000000	73.531461
1341.000000	73.684011
1340.000000	73.840066
1339.000000	73.976149
1338.000000	74.113826
1337.000000	74.247041
1336.000000	74.382275
1335.000000	74.498386
1334.000000	74.597607
1333.000000	74.692154
1332.000000	74.799023
1331.000000	74.885603
1330.000000	74.968995
1329.000000	75.032309
1328.000000	75.102210
1327.000000	75.165312
1326.000000	75.240949
1325.000000	75.302458
1324.000000	75.349094
1323.000000	75.398067
1322.000000	75.442047
1321.000000	75.490807
1320.000000	75.529370
1319.000000	75.575262
1318.000000	75.625828
1317.000000	75.654830
1316.000000	75.683725
1315.000000	75.722181
1314.000000	75.764993
1313.000000	75.795056
1312.000000	75.831813
1311.000000	75.849341
1310.000000	75.873881
1309.000000	75.902776
1308.000000	75.916905
1307.000000	75.938151
1306.000000	75.954936
1305.000000	75.968108
1304.000000	75.965134
1303.000000	75.963859
1302.000000	75.966940
1301.000000	75.972783
1300.000000	75.982556
1299.000000	75.990417
1298.000000	75.986274
1297.000000	75.975545
1296.000000	75.971295
1295.000000	75.964072
1294.000000	75.961947
1293.000000	75.948031
1292.000000	75.926041
1291.000000	75.896614
1290.000000	75.874305
1289.000000	75.867613
1288.000000	75.838718
1287.000000	75.810566
1286.000000	75.783371
1285.000000	75.753307
1284.000000	75.719206
1283.000000	75.689568
1282.000000	75.662160
1281.000000	75.632202
1280.000000	75.591622
1279.000000	75.564320
1278.000000	75.565170
1277.000000	75.550297
1276.000000	75.529582
1275.000000	75.527564
1274.000000	75.524058
1273.000000	75.527670
1272.000000	75.527245
1271.000000	75.519915
1270.000000	75.521296
1269.000000	75.515241
1268.000000	75.515984
1267.000000	75.536275
1266.000000	75.526289
1265.000000	75.516409
1264.000000	75.515772
1263.000000	75.500899
1262.000000	75.489001
1261.000000	75.490701
1260.000000	75.479653
1259.000000	75.472748
1258.000000	75.453095
1257.000000	75.437054
1256.000000	75.432698
1255.000000	75.401572
1254.000000	75.388931
1253.000000	75.362160
1252.000000	75.317649
1251.000000	75.260496
1250.000000	75.231070
1249.000000	75.185390
1248.000000	75.112515
1247.000000	75.058336
1246.000000	74.994172
1245.000000	74.908549
1244.000000	74.856708
1243.000000	74.796899
1242.000000	74.736984
1241.000000	74.671014
1240.000000	74.615454
1239.000000	74.551078
1238.000000	74.499874
1237.000000	74.463542
1236.000000	74.410639
1235.000000	74.347218
1234.000000	74.295802
1233.000000	74.255009
1232.000000	74.217296
1231.000000	74.162480
1230.000000	74.097572
1229.000000	74.049556
1228.000000	73.996864
1227.000000	73.960321
1226.000000	73.909329
1225.000000	73.862587
1224.000000	73.806921
1223.000000	73.754549
1222.000000	73.684648
1221.000000	73.645342
1220.000000	73.591589
1219.000000	73.547502
1218.000000	73.499698
1217.000000	73.434046
1216.000000	73.394953
1215.000000	73.365527
1214.000000	73.306249
1213.000000	73.257913
1212.000000	73.193855
1211.000000	73.135640
1210.000000	73.067014
1209.000000	73.030577
1208.000000	72.967900
1207.000000	72.878240
1206.000000	72.840527
1205.000000	72.793254
1204.000000	72.715917
1203.000000	72.644741
1202.000000	72.575053
1201.000000	72.512376
1200.000000	72.447362
1199.000000	72.365776
1198.000000	72.314891
1197.000000	72.212908
1196.000000	72.134721
1195.000000	72.033482
1194.000000	71.947646
1193.000000	71.858836
1192.000000	71.782030
1191.000000	71.696513
1190.000000	71.634261
1189.000000	71.577002
1188.000000	71.538227
1187.000000	71.520061
1186.000000	71.514750
1185.000000	71.519955
1184.000000	71.543008
1183.000000	71.583907
1182.000000	71.633411
1181.000000	71.679091
1180.000000	71.726152
1179.000000	71.770663
1178.000000	71.835040
1177.000000	71.898354
1176.000000	71.964749
1175.000000	72.027320
1174.000000	72.091697
1173.000000	72.151612
1172.000000	72.214926
1171.000000	72.314466
1170.000000	72.391165
1169.000000	72.479550
1168.000000	72.616271
1167.000000	72.741519
1166.000000	72.864961
1165.000000	72.989996
1164.000000	73.149025
1163.000000	73.277354
1162.000000	73.431603
1161.000000	73.567686
1160.000000	73.673069
1159.000000	73.809577
1158.000000	73.924839
1157.000000	74.054761
1156.000000	74.147395
1155.000000	74.242473
1154.000000	74.336170
1153.000000	74.425086
1152.000000	74.469385
1151.000000	74.525051
1150.000000	74.583053
1149.000000	74.615242
1148.000000	74.663577
1147.000000	74.736559
1146.000000	74.771934
1145.000000	74.798492
1144.000000	74.846191
1143.000000	74.888365
1142.000000	74.943181
1141.000000	75.032416
1140.000000	75.081495
1139.000000	75.161700
1138.000000	75.263789
1137.000000	75.355786
1136.000000	75.440560
1135.000000	75.567188
1134.000000	75.635071
1133.000000	75.658654
1132.000000	75.728449
1131.000000	75.772747
1130.000000	75.865063
1129.000000	75.896402
1128.000000	75.943463
1127.000000	75.983831
1126.000000	76.021649
1125.000000	76.038540
1124.000000	76.072960
1123.000000	76.092081
1122.000000	76.071154
1121.000000	76.057025
1120.000000	76.047251
1119.000000	76.026217
1118.000000	76.009220
1117.000000	75.997429
1116.000000	75.980750
1115.000000	75.953873
1114.000000	75.934114
1113.000000	75.902244
1112.000000	75.894702
1111.000000	75.870906
1110.000000	75.850403
1109.000000	75.834681
1108.000000	75.803449
1107.000000	75.771685
1106.000000	75.749589
1105.000000	75.709964
1104.000000	75.691374
1103.000000	75.678307
1102.000000	75.656742
1101.000000	75.626678
1100.000000	75.573243
1099.000000	75.553591
1098.000000	75.537443
1097.000000	75.498456
1096.000000	75.455007
1095.000000	75.429618
1094.000000	75.400510
1093.000000	75.357592
1092.000000	75.307982
1091.000000	75.272394
1090.000000	75.235956
1089.000000	75.211204
1088.000000	75.168924
1087.000000	75.123988
1086.000000	75.077139
1085.000000	75.023067
1084.000000	74.980680
1083.000000	74.932876
1082.000000	74.889215
1081.000000	74.852883
1080.000000	74.820695
1079.000000	74.768004
1078.000000	74.704902
1077.000000	74.665596
1076.000000	74.615136
1075.000000	74.587303
1074.000000	74.542048
1073.000000	74.478096
1072.000000	74.431566
1071.000000	74.383125
1070.000000	74.340313
1069.000000	74.308125
1068.000000	74.273918
1067.000000	74.224414
1066.000000	74.166623
1065.000000	74.128805
1064.000000	74.096935
1063.000000	74.047218
1062.000000	74.028309
1061.000000	73.982204
1060.000000	73.935568
1059.000000	73.887870
1058.000000	73.847502
1057.000000	73.815314
1056.000000	73.776964
1055.000000	73.733834
1054.000000	73.708338
1053.000000	73.678380
1052.000000	73.632169
1051.000000	73.590951
1050.000000	73.560144
1049.000000	73.522644
1048.000000	73.479726
1047.000000	73.454337
1046.000000	73.420767
1045.000000	73.376044
1044.000000	73.332913
1043.000000	73.292758
1042.000000	73.265881
1041.000000	73.231780
1040.000000	73.181108
1039.000000	73.130222
1038.000000	73.099203
1037.000000	73.071264
1036.000000	73.037907
1035.000000	72.999557
1034.000000	72.965031
1033.000000	72.913509
1032.000000	72.862092
1031.000000	72.823530
1030.000000	72.792829
1029.000000	72.758304
1028.000000	72.717404
1027.000000	72.681816
1026.000000	72.647610
1025.000000	72.604054
1024.000000	72.575478
1023.000000	72.548601
1022.000000	72.520981
1021.000000	72.503878
1020.000000	72.477107
1019.000000	72.440988
1018.000000	72.411031
1017.000000	72.413262
1016.000000	72.402745
1015.000000	72.382135
1014.000000	72.356321
1013.000000	72.347822
1012.000000	72.342511
1011.000000	72.327957
1010.000000	72.327957
1009.000000	72.325620
1008.000000	72.320627
1007.000000	72.324876
1006.000000	72.313191
1005.000000	72.319459
1004.000000	72.317228
1003.000000	72.321264
1002.000000	72.329232
1001.000000	72.313934
1000.000000	72.313403
999.000000	72.321689
998.000000	72.316484
997.000000	72.295450
996.000000	72.285783
995.000000	72.274947
994.000000	72.292582
993.000000	72.289713
992.000000	72.275585
991.000000	72.255294
990.000000	72.245946
989.000000	72.266661
988.000000	72.259862
987.000000	72.275372
986.000000	72.293432
985.000000	72.292582
984.000000	72.286633
983.000000	72.313616
982.000000	72.337943
981.000000	72.342405
980.000000	72.360464
979.000000	72.393821
978.000000	72.409968
977.000000	72.407631
976.000000	72.423885
975.000000	72.468290
974.000000	72.485818
973.000000	72.522256
972.000000	72.531710
971.000000	72.545627
970.000000	72.598849
969.000000	72.632206
968.000000	72.653984
967.000000	72.687022
966.000000	72.745556
965.000000	72.785499
964.000000	72.836703
963.000000	72.873459
962.000000	72.915102
961.000000	72.970024
960.000000	73.006356
959.000000	73.057453
958.000000	73.111738
957.000000	73.144776
956.000000	73.216164
955.000000	73.255045
954.000000	73.299981
953.000000	73.360215
952.000000	73.439995
951.000000	73.474521
950.000000	73.506497
949.000000	73.558763
948.000000	73.610498
947.000000	73.675725
946.000000	73.763897
945.000000	73.801185
944.000000	73.881178
943.000000	73.919634
942.000000	73.981567
941.000000	74.039251
940.000000	74.116269
939.000000	74.199662
938.000000	74.249591
937.000000	74.304300
936.000000	74.379300
935.000000	74.442402
934.000000	74.526750
933.000000	74.579548
932.000000	74.640100
931.000000	74.720305
930.000000	74.771191
929.000000	74.841410
928.000000	74.898244
927.000000	74.991304
926.000000	75.053662
925.000000	75.091481
924.000000	75.174023
923.000000	75.237762
922.000000	75.300227
921.000000	75.415064
920.000000	75.446402
919.000000	75.512904
918.000000	75.575793
917.000000	75.619561
916.000000	75.686699
915.000000	75.769348
914.000000	75.829794
913.000000	75.891409
912.000000	75.986593
911.000000	76.016444
910.000000	76.081564
909.000000	76.137761
908.000000	76.205750
907.000000	76.249199
906.000000	76.336097
905.000000	76.383476
904.000000	76.533901
903.000000	76.567683
902.000000	76.642258
901.000000	76.712796
900.000000	76.774304
899.000000	76.849092
898.000000	76.905607
897.000000	76.996967
896.000000	77.064637
895.000000	77.125083
894.000000	77.164920
893.000000	77.266797
892.000000	77.252349
891.000000	77.295798
890.000000	77.357944
889.000000	77.461202
888.000000	77.442080
887.000000	77.468744
886.000000	77.450578
885.000000	77.483829
884.000000	77.517505
883.000000	77.562441
882.000000	77.543213
881.000000	77.588893
880.000000	77.433794
879.000000	77.176924
878.000000	76.920374
877.000000	76.750190
876.000000	76.498951
875.000000	76.283724
874.000000	76.111097
873.000000	75.851997
872.000000	75.677988
871.000000	75.437585
870.000000	75.435992
869.000000	75.539887
868.000000	75.671190
867.000000	75.788257
866.000000	75.883654
865.000000	75.984043
864.000000	76.113859
863.000000	76.209787
862.000000	76.353837
861.000000	76.457839
860.000000	76.575013
859.000000	76.692293
858.000000	77.544700
857.000000	77.244400
856.000000	77.764700
855.000000	77.625000
854.000000	77.611800
853.000000	77.682600
852.000000	78.310400
851.000000	78.345900
850.000000	78.961400
849.000000	78.857500
848.000000	79.208700
847.000000	79.115100
846.000000	79.212300
845.000000	79.816300
844.000000	80.213100
843.000000	80.482400
842.000000	80.356900
841.000000	81.369500
840.000000	81.183400
839.000000	81.708400
838.000000	82.015700
837.000000	82.513900
836.000000	82.660100
835.000000	83.217500
834.000000	83.365600
833.000000	83.766800
832.000000	84.172100
831.000000	84.516400
830.000000	84.822000
829.000000	85.515800
828.000000	86.015600
827.000000	86.224800
826.000000	86.753400
825.000000	87.187300
824.000000	87.821400
823.000000	88.218800
822.000000	88.643900
821.000000	89.148600
820.000000	89.500700
819.000000	89.871200
818.000000	90.388200
817.000000	90.972600
816.000000	91.508200
815.000000	91.909500
814.000000	92.204000
813.000000	92.346500
812.000000	92.834800
811.000000	93.305700
810.000000	93.736700
809.000000	93.797400
808.000000	94.063200
807.000000	94.430200
806.000000	94.864500
805.000000	95.230300
804.000000	95.565100
803.000000	95.797800
802.000000	96.281500
801.000000	96.542000
800.000000	96.802100
799.000000	96.901400
798.000000	97.162600
797.000000	97.376900
796.000000	97.601700
795.000000	97.821500
794.000000	97.903000
793.000000	98.178900
792.000000	98.350400
791.000000	98.523000
790.000000	98.677300
789.000000	98.896600
788.000000	98.945600
787.000000	99.065000
786.000000	99.201000
785.000000	99.317300
784.000000	99.459400
783.000000	99.637200
782.000000	99.844000
781.000000	99.774700
780.000000	99.786500
779.000000	99.875900
778.000000	99.906400
777.000000	99.979400
776.000000	100.056700
775.000000	100.113000
774.000000	100.135000
773.000000	100.139700
772.000000	100.266900
771.000000	100.285600
770.000000	100.331500
769.000000	100.344200
768.000000	100.274100
767.000000	100.278700
766.000000	100.339600
765.000000	100.409100
764.000000	100.332900
763.000000	100.367900
762.000000	100.356700
761.000000	100.313800
760.000000	100.323800
759.000000	100.322000
758.000000	100.240900
757.000000	100.102000
756.000000	100.141800
755.000000	100.215800
754.000000	100.240000
753.000000	100.187800
752.000000	100.069400
751.000000	100.055300
750.000000	99.959000
749.000000	99.859300
748.000000	99.830400
747.000000	99.761700
746.000000	99.638200
745.000000	99.587200
744.000000	99.513200
743.000000	99.394700
742.000000	99.280000
741.000000	99.164700
740.000000	99.041200
739.000000	98.884600
738.000000	98.791400
737.000000	98.603000
736.000000	98.378000
735.000000	98.161600
734.000000	97.936400
733.000000	97.846500
732.000000	97.644000
731.000000	97.299700
730.000000	97.015600
729.000000	96.830900
728.000000	96.544900
727.000000	96.084000
726.000000	95.788300
725.000000	95.494200
724.000000	95.092500
723.000000	94.550800
722.000000	94.031600
721.000000	93.609500
720.000000	93.186800
719.000000	92.635800
718.000000	92.055000
717.000000	91.487800
716.000000	90.968800
715.000000	90.317100
714.000000	89.680800
713.000000	89.087700
712.000000	88.445800
711.000000	87.902600
710.000000	87.303000
709.000000	86.692500
708.000000	86.094800
707.000000	85.410300
706.000000	84.881700
705.000000	84.426400
704.000000	83.917100
703.000000	83.437900
702.000000	82.906700
701.000000	82.461600
700.000000	82.018800
699.000000	81.616900
698.000000	81.261000
697.000000	80.874000
696.000000	80.453900
695.000000	80.091000
694.000000	79.730500
693.000000	79.388900
692.000000	78.996000
691.000000	78.584500
690.000000	78.253200
689.000000	77.878400
688.000000	77.494300
687.000000	77.006300
686.000000	76.577000
685.000000	76.112800
684.000000	75.617800
683.000000	75.100400
682.000000	74.617900
681.000000	74.153600
680.000000	73.662400
679.000000	73.149500
678.000000	72.689700
677.000000	72.143400
676.000000	71.739700
675.000000	71.389600
674.000000	70.962500
673.000000	70.615700
672.000000	70.278500
671.000000	69.967100
670.000000	69.702300
669.000000	69.413600
668.000000	69.198800
667.000000	69.034400
666.000000	68.874900
665.000000	68.708000
664.000000	68.545300
663.000000	68.464700
662.000000	68.275300
661.000000	68.128600
660.000000	67.928900
659.000000	67.779600
658.000000	67.617500
657.000000	67.421200
656.000000	67.214600
655.000000	67.048700
654.000000	66.717400
653.000000	66.445500
652.000000	66.172300
651.000000	65.784500
650.000000	65.444400
649.000000	65.088100
648.000000	64.748500
647.000000	64.349600
646.000000	63.962000
645.000000	63.537800
644.000000	63.186100
643.000000	62.794000
642.000000	62.449000
641.000000	62.097500
640.000000	61.761200
639.000000	61.410400
638.000000	61.066700
637.000000	60.765200
636.000000	60.484500
635.000000	60.203700
634.000000	59.888300
633.000000	59.637400
632.000000	59.362300
631.000000	59.075000
630.000000	58.812800
629.000000	58.585400
628.000000	58.328600
627.000000	58.121400
626.000000	57.864100
625.000000	57.639400
624.000000	57.360000
623.000000	57.126500
622.000000	56.901600
621.000000	56.566500
620.000000	56.336600
619.000000	56.098700
618.000000	55.872600
617.000000	55.658700
616.000000	55.423300
615.000000	55.267600
614.000000	55.086600
613.000000	54.948000
612.000000	54.911600
611.000000	54.846400
610.000000	54.835800
609.000000	54.847900
608.000000	54.940300
607.000000	55.089100
606.000000	55.249700
605.000000	55.460300
604.000000	55.688900
603.000000	55.912100
602.000000	56.152100
601.000000	56.444500
600.000000	56.681700
599.000000	56.886900
598.000000	57.161700
597.000000	57.396800
596.000000	57.638100
595.000000	57.819100
594.000000	58.056100
593.000000	58.278000
592.000000	58.519800
591.000000	58.815300
590.000000	59.042300
589.000000	59.330300
588.000000	59.598600
587.000000	59.909000
586.000000	60.234600
585.000000	60.499300
584.000000	60.854300
583.000000	61.126300
582.000000	61.505700
581.000000	61.808900
580.000000	62.131300
579.000000	62.398700
578.000000	62.681800
577.000000	62.925100
576.000000	63.142700
575.000000	63.337000
574.000000	63.527300
573.000000	63.675500
572.000000	63.890200
571.000000	64.024400
570.000000	64.217500
569.000000	64.311700
568.000000	64.398200
567.000000	64.536400
566.000000	64.631600
565.000000	64.658000
564.000000	64.714500
563.000000	64.776100
562.000000	64.809800
561.000000	64.845600
560.000000	64.868500
559.000000	64.895200
558.000000	64.892700
557.000000	64.859400
556.000000	64.777700
555.000000	64.633200
554.000000	64.531200
553.000000	64.370600
552.000000	64.279300
551.000000	64.094200
550.000000	63.937200
549.000000	63.770600
548.000000	63.569700
547.000000	63.324700
546.000000	63.075800
545.000000	62.834800
544.000000	62.573300
543.000000	62.325200
542.000000	62.054100
541.000000	61.758900
540.000000	61.474100
539.000000	61.156000
538.000000	60.819500
537.000000	60.475000
536.000000	60.105400
535.000000	59.710800
534.000000	59.313000
533.000000	58.899700
532.000000	58.472200
531.000000	58.055200
530.000000	57.592600
529.000000	57.119600
528.000000	56.640200
527.000000	56.153500
526.000000	55.657100
525.000000	55.116100
524.000000	54.612100
523.000000	54.070800
522.000000	53.551200
521.000000	53.018800
520.000000	52.479500
519.000000	51.938900
518.000000	51.369400
517.000000	50.771900
516.000000	50.187800
515.000000	49.581900
514.000000	49.014000
513.000000	48.445100
512.000000	47.875500
511.000000	47.276000
510.000000	46.679000
509.000000	46.085000
508.000000	45.520200
507.000000	44.955100
506.000000	44.341000
505.000000	43.762300
504.000000	43.148300
503.000000	42.553700
502.000000	41.972200
501.000000	41.393400
500.000000	40.766100
499.000000	40.167100
498.000000	39.535100
497.000000	38.886800
496.000000	38.270300
495.000000	37.654200
494.000000	37.008200
493.000000	36.348600
492.000000	35.690600
491.000000	35.035300
490.000000	34.433600
489.000000	33.844300
488.000000	33.251000
487.000000	32.665400
486.000000	32.111500
485.000000	31.582100
484.000000	31.067500
483.000000	30.567400
482.000000	30.112000
481.000000	29.664200
480.000000	29.226000
479.000000	28.817300
478.000000	28.451800
477.000000	28.114100
476.000000	27.806400
475.000000	27.504000
474.000000	27.222900
473.000000	26.925200
472.000000	26.615000
471.000000	26.305800
470.000000	26.017800
469.000000	25.721900
468.000000	25.401000
467.000000	25.073500
466.000000	24.740600
465.000000	24.395800
464.000000	24.024800
463.000000	23.653800
462.000000	23.283400
461.000000	22.874600
460.000000	22.455200
459.000000	22.056400
458.000000	21.648600
457.000000	21.262600
456.000000	20.875100
455.000000	20.518000
454.000000	20.208300
453.000000	19.887300
452.000000	19.563100
451.000000	19.301900
450.000000	19.046800
449.000000	18.790000
448.000000	18.592500
447.000000	18.439500
446.000000	18.304700
445.000000	18.193200
444.000000	18.113800
443.000000	18.056100
442.000000	18.004300
441.000000	17.965300
440.000000	17.933400
439.000000	17.917400
438.000000	17.918900
437.000000	17.923200
436.000000	17.920600
435.000000	17.907200
434.000000	17.902000
433.000000	17.915300
432.000000	17.898700
431.000000	17.858200
430.000000	17.839300
429.000000	17.778600
428.000000	17.696400
427.000000	17.631400
426.000000	17.562300
425.000000	17.442600
424.000000	17.310400
423.000000	17.184900
422.000000	17.065600
421.000000	16.921000
420.000000	16.749900
419.000000	16.602400
418.000000	16.433100
417.000000	16.229300
416.000000	16.012500
415.000000	15.816000
414.000000	15.590500
413.000000	15.369500
412.000000	15.164600
411.000000	14.926100
410.000000	14.676900
409.000000	14.440600
408.000000	14.195800
407.000000	13.959100
406.000000	13.686600
405.000000	13.420200
404.000000	13.194400
403.000000	12.939600
402.000000	12.675000
401.000000	12.400100
400.000000	12.176300
399.000000	11.924100
398.000000	11.650400
397.000000	11.395800
396.000000	11.130200
395.000000	10.872300
394.000000	10.634600
393.000000	10.384700
392.000000	10.158500
391.000000	9.928300
390.000000	9.701900
389.000000	9.475400
388.000000	9.239000
387.000000	9.035900
386.000000	8.833300
385.000000	8.657400
384.000000	8.488200
383.000000	8.347700
382.000000	8.188600
381.000000	8.004400
380.000000	7.852700
379.000000	7.714800
378.000000	7.594900
377.000000	7.477800
376.000000	7.286400
375.000000	6.879800
374.000000	6.669900
373.000000	6.831400
372.000000	6.732500
371.000000	6.672800
370.000000	6.757100
369.000000	6.723700
368.000000	6.621300
367.000000	6.777700
366.000000	6.559000
365.000000	6.540900
364.000000	6.594100
363.000000	6.437800
362.000000	6.378000
361.000000	6.452900
360.000000	6.347000
359.000000	6.365700
358.000000	6.443100
357.000000	6.552400
356.000000	6.327600
355.000000	6.221500
354.000000	6.313400
353.000000	6.204600
352.000000	6.271000
351.000000	6.338200
350.000000	6.382400
349.000000	6.054600
348.000000	6.142400
347.000000	6.587100
346.000000	6.310800
345.000000	6.226100
344.000000	6.175800
343.000000	6.259900
342.000000	6.174500
341.000000	6.231500
340.000000	6.011400
339.000000	6.232600
338.000000	6.551000
337.000000	6.440300
336.000000	6.263300
335.000000	6.779200
334.000000	6.234800
333.000000	6.479900
332.000000	6.446200
331.000000	6.259700
330.000000	6.477800
329.000000	6.170300
328.000000	6.717700
327.000000	6.503400
326.000000	6.405500
325.000000	6.536500
324.000000	6.651400
323.000000	6.258000
322.000000	6.264100
321.000000	6.311400
320.000000	7.173000
319.000000	6.539500
318.000000	6.161800
317.000000	6.476200
316.000000	6.077900
315.000000	6.115800
314.000000	6.000500
313.000000	6.026800
312.000000	6.077100
311.000000	6.068400
310.000000	6.077700
309.000000	6.079000
308.000000	6.098200
307.000000	6.106600
306.000000	6.076600
305.000000	6.117500
304.000000	6.151300
303.000000	6.089900
302.000000	6.131900
301.000000	6.083000
300.000000	6.122900
299.000000	6.036700
298.000000	6.108200
297.000000	6.121200
296.000000	6.126300
295.000000	6.111900
294.000000	6.220800
293.000000	6.159800
292.000000	6.111900
291.000000	6.176200
290.000000	6.117400
289.000000	6.176800
288.000000	6.124700
287.000000	6.147700
286.000000	6.165000
285.000000	6.189200
284.000000	6.164500
283.000000	6.146900
282.000000	6.226100
281.000000	6.201700
280.000000	6.183600
279.000000	6.209600
278.000000	6.216100
277.000000	6.267100
276.000000	6.242700
275.000000	6.252700
274.000000	6.230300
273.000000	6.248300
272.000000	6.248600
271.000000	6.278600
270.000000	6.324400
269.000000	6.356900
268.000000	6.376200
267.000000	6.420500
266.000000	6.445000
265.000000	6.449500
264.000000	6.458600
263.000000	6.519800
262.000000	6.547000
261.000000	6.560900
260.000000	6.586700
259.000000	6.649600
258.000000	6.648700
257.000000	6.648700
256.000000	6.670200
255.000000	6.768700
254.000000	6.739100
253.000000	6.785900
252.000000	6.730700
251.000000	6.782100
250.000000	6.787900
