PE UV       SUBTECH     SPECTRUM    ASCII       PEDS        4.00        
   -1
INBUCR0143-2.Sample.ASC
24/04/29
13:29:10.00
24/04/29
13:29:10.00
Vinicio Soto Monge
C. kalinini
250,000000
1
Lambda 1050
1050L1511233
PerkinElmer UV WinLab 6.3.2.0749 / 2.02.05 Lambda 900 UV/VIS/NIR, Aug  7 2015 09:38:08

0
0
3350/servo 860,8/2
0
0
UV/VIS
1
1
1
DoubleDePol,CommonBeamDepol,RBeamAtt,SBeamAtt,60mm sphere, WB InGaAs Detector
0
0
0
0
Program
Program
3350/servo 860,8/2
3350/0,2 860,8/0,2
3350/0,2 860,8/0,2
0
15.00
 
 
 
0
 
860,8
319,2
860,8
Front
100
on
S:100 R:100
0
0
0
0
 
0
 
 
 
0
 
 
0
0
0
0
0
 
 
 
 
0
0


0
0
#HDR
-1
-1
#GR
nm
%R
1.0
0.0
2500,000000
-1,000000
2251
8
96,978900
5,628800
#DATA
2500.000000	14.726940
2499.000000	14.721738
2498.000000	14.799340
2497.000000	14.838725
2496.000000	14.624921
2495.000000	14.665261
2494.000000	14.534685
2493.000000	14.641057
2492.000000	14.622585
2491.000000	14.603477
2490.000000	14.571735
2489.000000	14.687024
2488.000000	14.630016
2487.000000	14.568762
2486.000000	14.667809
2485.000000	14.586173
2484.000000	14.560057
2483.000000	14.579803
2482.000000	14.595090
2481.000000	14.626725
2480.000000	14.695941
2479.000000	14.654008
2478.000000	14.655282
2477.000000	14.726834
2476.000000	14.766431
2475.000000	14.778108
2474.000000	14.805073
2473.000000	14.815583
2472.000000	14.902102
2471.000000	14.925776
2470.000000	14.922273
2469.000000	15.008474
2468.000000	15.054972
2467.000000	15.062191
2466.000000	15.120260
2465.000000	15.171322
2464.000000	15.197225
2463.000000	15.304871
2462.000000	15.358269
2461.000000	15.389479
2460.000000	15.521435
2459.000000	15.548718
2458.000000	15.635663
2457.000000	15.676109
2456.000000	15.791292
2455.000000	15.884818
2454.000000	15.974735
2453.000000	16.052975
2452.000000	16.133762
2451.000000	16.251174
2450.000000	16.344913
2449.000000	16.442261
2448.000000	16.558505
2447.000000	16.647148
2446.000000	16.769231
2445.000000	16.858086
2444.000000	16.951931
2443.000000	17.092698
2442.000000	17.192276
2441.000000	17.292808
2440.000000	17.420093
2439.000000	17.515849
2438.000000	17.663623
2437.000000	17.753433
2436.000000	17.838255
2435.000000	17.943565
2434.000000	18.045584
2433.000000	18.146116
2432.000000	18.260981
2431.000000	18.334549
2430.000000	18.442831
2429.000000	18.524362
2428.000000	18.624894
2427.000000	18.706956
2426.000000	18.806108
2425.000000	18.890823
2424.000000	18.956111
2423.000000	19.053565
2422.000000	19.123949
2421.000000	19.201870
2420.000000	19.270661
2419.000000	19.336480
2418.000000	19.397628
2417.000000	19.459625
2416.000000	19.506653
2415.000000	19.556442
2414.000000	19.621730
2413.000000	19.670244
2412.000000	19.715999
2411.000000	19.763983
2410.000000	19.792115
2409.000000	19.820884
2408.000000	19.858783
2407.000000	19.899867
2406.000000	19.933944
2405.000000	19.963244
2404.000000	19.989359
2403.000000	20.015687
2402.000000	20.028850
2401.000000	20.055921
2400.000000	20.079488
2399.000000	20.092334
2398.000000	20.087663
2397.000000	20.104223
2396.000000	20.135222
2395.000000	20.143184
2394.000000	20.154861
2393.000000	20.170361
2392.000000	20.169936
2391.000000	20.169617
2390.000000	20.165477
2389.000000	20.173545
2388.000000	20.183524
2387.000000	20.174819
2386.000000	20.153694
2385.000000	20.145307
2384.000000	20.120890
2383.000000	20.104542
2382.000000	20.099128
2381.000000	20.088087
2380.000000	20.064944
2379.000000	20.041377
2378.000000	20.024392
2377.000000	19.997427
2376.000000	19.978743
2375.000000	19.957405
2374.000000	19.933626
2373.000000	19.914623
2372.000000	19.902415
2371.000000	19.884368
2370.000000	19.869505
2369.000000	19.850184
2368.000000	19.835110
2367.000000	19.830226
2366.000000	19.810905
2365.000000	19.791691
2364.000000	19.784896
2363.000000	19.770565
2362.000000	19.753155
2361.000000	19.735108
2360.000000	19.722581
2359.000000	19.723961
2358.000000	19.698164
2357.000000	19.669607
2356.000000	19.646996
2355.000000	19.636380
2354.000000	19.618226
2353.000000	19.569499
2352.000000	19.541367
2351.000000	19.519817
2350.000000	19.487226
2349.000000	19.436057
2348.000000	19.403891
2347.000000	19.385738
2346.000000	19.364506
2345.000000	19.344229
2344.000000	19.308878
2343.000000	19.289239
2342.000000	19.275120
2341.000000	19.261319
2340.000000	19.241361
2339.000000	19.216945
2338.000000	19.190405
2337.000000	19.185415
2336.000000	19.200384
2335.000000	19.198260
2334.000000	19.179789
2333.000000	19.180426
2332.000000	19.200596
2331.000000	19.210150
2330.000000	19.236053
2329.000000	19.262381
2328.000000	19.272147
2327.000000	19.294016
2326.000000	19.309515
2325.000000	19.319176
2324.000000	19.313443
2323.000000	19.327669
2322.000000	19.340832
2321.000000	19.350281
2320.000000	19.356013
2319.000000	19.344017
2318.000000	19.346883
2317.000000	19.332552
2316.000000	19.288602
2315.000000	19.263867
2314.000000	19.236796
2313.000000	19.207603
2312.000000	19.157920
2311.000000	19.126285
2310.000000	19.099851
2309.000000	19.075328
2308.000000	19.012906
2307.000000	18.971080
2306.000000	18.945283
2305.000000	18.921716
2304.000000	18.904306
2303.000000	18.885622
2302.000000	18.860568
2301.000000	18.836045
2300.000000	18.829676
2299.000000	18.841247
2298.000000	18.834665
2297.000000	18.835196
2296.000000	18.860674
2295.000000	18.874899
2294.000000	18.882118
2293.000000	18.901970
2292.000000	18.924900
2291.000000	18.942311
2290.000000	18.943691
2289.000000	18.983925
2288.000000	19.027875
2287.000000	19.056219
2286.000000	19.096985
2285.000000	19.128620
2284.000000	19.158026
2283.000000	19.195076
2282.000000	19.241043
2281.000000	19.249748
2280.000000	19.307074
2279.000000	19.341682
2278.000000	19.372043
2277.000000	19.401025
2276.000000	19.409730
2275.000000	19.445081
2274.000000	19.455378
2273.000000	19.489986
2272.000000	19.506228
2271.000000	19.557503
2270.000000	19.577992
2269.000000	19.607717
2268.000000	19.666423
2267.000000	19.734365
2266.000000	19.805597
2265.000000	19.900928
2264.000000	19.984688
2263.000000	20.066325
2262.000000	20.200297
2261.000000	20.286499
2260.000000	20.406777
2259.000000	20.556143
2258.000000	20.699140
2257.000000	20.842136
2256.000000	20.990228
2255.000000	21.170381
2254.000000	21.353081
2253.000000	21.538010
2252.000000	21.708289
2251.000000	21.890034
2250.000000	22.057553
2249.000000	22.201081
2248.000000	22.350659
2247.000000	22.505227
2246.000000	22.649816
2245.000000	22.798439
2244.000000	22.919672
2243.000000	23.040482
2242.000000	23.142076
2241.000000	23.224986
2240.000000	23.306729
2239.000000	23.370637
2238.000000	23.422973
2237.000000	23.499726
2236.000000	23.536564
2235.000000	23.560131
2234.000000	23.568942
2233.000000	23.577329
2232.000000	23.579771
2231.000000	23.546224
2230.000000	23.530831
2229.000000	23.524674
2228.000000	23.461297
2227.000000	23.421806
2226.000000	23.369575
2225.000000	23.332313
2224.000000	23.261930
2223.000000	23.200464
2222.000000	23.103009
2221.000000	23.024876
2220.000000	22.955448
2219.000000	22.860754
2218.000000	22.786973
2217.000000	22.698543
2216.000000	22.627841
2215.000000	22.520195
2214.000000	22.444928
2213.000000	22.377517
2212.000000	22.306815
2211.000000	22.247154
2210.000000	22.163925
2209.000000	22.110527
2208.000000	22.054687
2207.000000	21.978571
2206.000000	21.928570
2205.000000	21.891414
2204.000000	21.815616
2203.000000	21.772834
2202.000000	21.728884
2201.000000	21.696293
2200.000000	21.636950
2199.000000	21.612215
2198.000000	21.589073
2197.000000	21.549688
2196.000000	21.511789
2195.000000	21.463805
2194.000000	21.445651
2193.000000	21.399154
2192.000000	21.392360
2191.000000	21.372402
2190.000000	21.339811
2189.000000	21.306583
2188.000000	21.301063
2187.000000	21.267092
2186.000000	21.249682
2185.000000	21.249469
2184.000000	21.220275
2183.000000	21.204776
2182.000000	21.162419
2181.000000	21.158597
2180.000000	21.120486
2179.000000	21.092672
2178.000000	21.093840
2177.000000	21.078128
2176.000000	21.072396
2175.000000	21.070591
2174.000000	21.078765
2173.000000	21.087683
2172.000000	21.093627
2171.000000	21.109127
2170.000000	21.137471
2169.000000	21.154563
2168.000000	21.193205
2167.000000	21.236518
2166.000000	21.259448
2165.000000	21.299576
2164.000000	21.371977
2163.000000	21.404674
2162.000000	21.485037
2161.000000	21.537479
2160.000000	21.605740
2159.000000	21.699584
2158.000000	21.784193
2157.000000	21.881329
2156.000000	22.004049
2155.000000	22.077936
2154.000000	22.178999
2153.000000	22.291422
2152.000000	22.414567
2151.000000	22.534633
2150.000000	22.656716
2149.000000	22.775614
2148.000000	22.880924
2147.000000	23.014791
2146.000000	23.135706
2145.000000	23.271590
2144.000000	23.378174
2143.000000	23.501956
2142.000000	23.632638
2141.000000	23.745379
2140.000000	23.853024
2139.000000	23.964492
2138.000000	24.081161
2137.000000	24.189231
2136.000000	24.287640
2135.000000	24.399108
2134.000000	24.485946
2133.000000	24.579472
2132.000000	24.653253
2131.000000	24.738711
2130.000000	24.846356
2129.000000	24.907716
2128.000000	24.967590
2127.000000	25.037018
2126.000000	25.111542
2125.000000	25.173327
2124.000000	25.230334
2123.000000	25.282883
2122.000000	25.323224
2121.000000	25.363564
2120.000000	25.414308
2119.000000	25.453269
2118.000000	25.491168
2117.000000	25.522060
2116.000000	25.528748
2115.000000	25.551997
2114.000000	25.571530
2113.000000	25.572910
2112.000000	25.587029
2111.000000	25.595310
2110.000000	25.598813
2109.000000	25.608898
2108.000000	25.634695
2107.000000	25.630342
2106.000000	25.623336
2105.000000	25.630130
2104.000000	25.632678
2103.000000	25.630448
2102.000000	25.628538
2101.000000	25.639578
2100.000000	25.642763
2099.000000	25.635226
2098.000000	25.651786
2097.000000	25.667498
2096.000000	25.681086
2095.000000	25.708263
2094.000000	25.741066
2093.000000	25.759007
2092.000000	25.770897
2091.000000	25.803913
2090.000000	25.840431
2089.000000	25.863786
2088.000000	25.868882
2087.000000	25.884169
2086.000000	25.900836
2085.000000	25.891919
2084.000000	25.898076
2083.000000	25.882152
2082.000000	25.857205
2081.000000	25.836397
2080.000000	25.791917
2079.000000	25.748498
2078.000000	25.709006
2077.000000	25.638835
2076.000000	25.557305
2075.000000	25.486497
2074.000000	25.405816
2073.000000	25.302416
2072.000000	25.189888
2071.000000	25.084472
2070.000000	24.962388
2069.000000	24.839668
2068.000000	24.718965
2067.000000	24.592954
2066.000000	24.454310
2065.000000	24.325221
2064.000000	24.193371
2063.000000	24.067041
2062.000000	23.953239
2061.000000	23.831156
2060.000000	23.733914
2059.000000	23.655144
2058.000000	23.578603
2057.000000	23.511510
2056.000000	23.473399
2055.000000	23.444418
2054.000000	23.446222
2053.000000	23.484758
2052.000000	23.511192
2051.000000	23.580938
2050.000000	23.681471
2049.000000	23.800051
2048.000000	23.929353
2047.000000	24.075534
2046.000000	24.233287
2045.000000	24.422463
2044.000000	24.592636
2043.000000	24.775230
2042.000000	24.961858
2041.000000	25.136277
2040.000000	25.334583
2039.000000	25.499342
2038.000000	25.678220
2037.000000	25.854657
2036.000000	26.004129
2035.000000	26.138739
2034.000000	26.305409
2033.000000	26.432375
2032.000000	26.556369
2031.000000	26.692147
2030.000000	26.812319
2029.000000	26.937269
2028.000000	27.041729
2027.000000	27.129417
2026.000000	27.232285
2025.000000	27.329527
2024.000000	27.400866
2023.000000	27.490358
2022.000000	27.556920
2021.000000	27.629002
2020.000000	27.692804
2019.000000	27.745777
2018.000000	27.797158
2017.000000	27.839941
2016.000000	27.867754
2015.000000	27.906927
2014.000000	27.940580
2013.000000	27.956397
2012.000000	27.963085
2011.000000	27.972533
2010.000000	27.971790
2009.000000	27.948329
2008.000000	27.933255
2007.000000	27.924231
2006.000000	27.886651
2005.000000	27.853741
2004.000000	27.793867
2003.000000	27.730597
2002.000000	27.673908
2001.000000	27.612866
2000.000000	27.557769
1999.000000	27.499169
1998.000000	27.401291
1997.000000	27.311905
1996.000000	27.240672
1995.000000	27.135468
1994.000000	27.064554
1993.000000	26.972620
1992.000000	26.876121
1991.000000	26.750641
1990.000000	26.653293
1989.000000	26.533651
1988.000000	26.421335
1987.000000	26.323350
1986.000000	26.202859
1985.000000	26.082050
1984.000000	25.974192
1983.000000	25.870050
1982.000000	25.734166
1981.000000	25.634270
1980.000000	25.523865
1979.000000	25.383416
1978.000000	25.283202
1977.000000	25.186915
1976.000000	25.042432
1975.000000	24.943174
1974.000000	24.822683
1973.000000	24.734040
1972.000000	24.621086
1971.000000	24.526817
1970.000000	24.433822
1969.000000	24.327662
1968.000000	24.214390
1967.000000	24.115875
1966.000000	24.027444
1965.000000	23.934979
1964.000000	23.811304
1963.000000	23.714380
1962.000000	23.613423
1961.000000	23.497816
1960.000000	23.403228
1959.000000	23.294096
1958.000000	23.173181
1957.000000	23.070631
1956.000000	22.998336
1955.000000	22.871052
1954.000000	22.767759
1953.000000	22.680390
1952.000000	22.576566
1951.000000	22.483783
1950.000000	22.366052
1949.000000	22.302356
1948.000000	22.215943
1947.000000	22.170507
1946.000000	22.055642
1945.000000	22.008720
1944.000000	21.944918
1943.000000	21.888123
1942.000000	21.845235
1941.000000	21.805531
1940.000000	21.742791
1939.000000	21.738014
1938.000000	21.734192
1937.000000	21.734086
1936.000000	21.714659
1935.000000	21.735785
1934.000000	21.772622
1933.000000	21.817103
1932.000000	21.861690
1931.000000	21.907975
1930.000000	21.987170
1929.000000	22.090250
1928.000000	22.204053
1927.000000	22.347474
1926.000000	22.447052
1925.000000	22.570409
1924.000000	22.712450
1923.000000	22.860966
1922.000000	23.080185
1921.000000	23.331676
1920.000000	23.557902
1919.000000	23.763957
1918.000000	24.005044
1917.000000	24.256854
1916.000000	24.478196
1915.000000	24.766843
1914.000000	25.145619
1913.000000	25.568558
1912.000000	25.946378
1911.000000	26.290016
1910.000000	26.638855
1909.000000	27.006378
1908.000000	27.434200
1907.000000	27.899921
1906.000000	28.513946
1905.000000	29.091027
1904.000000	29.675646
1903.000000	30.227249
1902.000000	30.813885
1901.000000	31.450416
1900.000000	32.151173
1899.000000	32.887281
1898.000000	33.539099
1897.000000	34.169897
1896.000000	34.768105
1895.000000	35.342320
1894.000000	35.957406
1893.000000	36.644469
1892.000000	37.384080
1891.000000	38.109785
1890.000000	38.745466
1889.000000	39.331678
1888.000000	39.930097
1887.000000	40.485098
1886.000000	41.019503
1885.000000	41.544036
1884.000000	42.066021
1883.000000	42.528132
1882.000000	42.980264
1881.000000	43.369019
1880.000000	43.745248
1879.000000	44.109162
1878.000000	44.481462
1877.000000	44.784441
1876.000000	45.098247
1875.000000	45.406958
1874.000000	45.734035
1873.000000	46.034466
1872.000000	46.300713
1871.000000	46.516853
1870.000000	46.720785
1869.000000	46.905502
1868.000000	47.031513
1867.000000	47.113256
1866.000000	47.169414
1865.000000	47.241602
1864.000000	47.314640
1863.000000	47.381839
1862.000000	47.490970
1861.000000	47.615813
1860.000000	47.735880
1859.000000	47.806157
1858.000000	47.870596
1857.000000	47.925374
1856.000000	47.952657
1855.000000	47.998836
1854.000000	48.038115
1853.000000	48.025907
1852.000000	48.034718
1851.000000	48.078455
1850.000000	48.106481
1849.000000	48.138754
1848.000000	48.170071
1847.000000	48.110834
1846.000000	48.041937
1845.000000	47.995757
1844.000000	47.942678
1843.000000	47.946606
1842.000000	47.964971
1841.000000	47.951383
1840.000000	47.909238
1839.000000	47.870383
1838.000000	47.807962
1837.000000	47.750105
1836.000000	47.709127
1835.000000	47.621121
1834.000000	47.532585
1833.000000	47.465386
1832.000000	47.416340
1831.000000	47.396489
1830.000000	47.375151
1829.000000	47.333005
1828.000000	47.270690
1827.000000	47.234171
1826.000000	47.216973
1825.000000	47.182153
1824.000000	47.155613
1823.000000	47.186718
1822.000000	47.235445
1821.000000	47.263046
1820.000000	47.267080
1819.000000	47.232791
1818.000000	47.185338
1817.000000	47.171537
1816.000000	47.178968
1815.000000	47.152110
1814.000000	47.134275
1813.000000	47.125570
1812.000000	47.091705
1811.000000	47.062193
1810.000000	47.030239
1809.000000	46.993614
1808.000000	46.969198
1807.000000	46.950620
1806.000000	46.920046
1805.000000	46.873654
1804.000000	46.860809
1803.000000	46.856775
1802.000000	46.853272
1801.000000	46.837348
1800.000000	46.788515
1799.000000	46.760170
1798.000000	46.736390
1797.000000	46.720254
1796.000000	46.698492
1795.000000	46.687451
1794.000000	46.676092
1793.000000	46.650401
1792.000000	46.635008
1791.000000	46.636388
1790.000000	46.639679
1789.000000	46.643713
1788.000000	46.657833
1787.000000	46.682037
1786.000000	46.697748
1785.000000	46.699659
1784.000000	46.689574
1783.000000	46.694670
1782.000000	46.684797
1781.000000	46.679595
1780.000000	46.664202
1779.000000	46.653586
1778.000000	46.595942
1777.000000	46.561865
1776.000000	46.523541
1775.000000	46.479273
1774.000000	46.417700
1773.000000	46.388400
1772.000000	46.333091
1771.000000	46.287868
1770.000000	46.244979
1769.000000	46.196146
1768.000000	46.143491
1767.000000	46.125126
1766.000000	46.081813
1765.000000	46.053468
1764.000000	46.047311
1763.000000	46.016418
1762.000000	46.008138
1761.000000	46.013977
1760.000000	46.008457
1759.000000	46.006758
1758.000000	45.995717
1757.000000	45.989136
1756.000000	45.997841
1755.000000	45.994231
1754.000000	45.996567
1753.000000	45.973106
1752.000000	45.961216
1751.000000	45.943912
1750.000000	45.922892
1749.000000	45.870662
1748.000000	45.804737
1747.000000	45.735627
1746.000000	45.654734
1745.000000	45.560783
1744.000000	45.465983
1743.000000	45.373837
1742.000000	45.270331
1741.000000	45.153981
1740.000000	45.035719
1739.000000	44.945484
1738.000000	44.852807
1737.000000	44.755247
1736.000000	44.670744
1735.000000	44.622760
1734.000000	44.544308
1733.000000	44.465114
1732.000000	44.412034
1731.000000	44.337935
1730.000000	44.238994
1729.000000	44.178271
1728.000000	44.095467
1727.000000	44.042918
1726.000000	43.977418
1725.000000	43.948967
1724.000000	43.948967
1723.000000	44.003533
1722.000000	44.118079
1721.000000	44.267445
1720.000000	44.472120
1719.000000	44.727752
1718.000000	44.985718
1717.000000	45.260883
1716.000000	45.545390
1715.000000	45.801021
1714.000000	46.040835
1713.000000	46.257294
1712.000000	46.457404
1711.000000	46.639679
1710.000000	46.799767
1709.000000	46.944887
1708.000000	47.066652
1707.000000	47.160390
1706.000000	47.234490
1705.000000	47.325150
1704.000000	47.363155
1703.000000	47.393304
1702.000000	47.417508
1701.000000	47.440438
1700.000000	47.443836
1699.000000	47.446065
1698.000000	47.432158
1697.000000	47.406680
1696.000000	47.356466
1695.000000	47.299671
1694.000000	47.200837
1693.000000	47.082788
1692.000000	46.971533
1691.000000	46.873230
1690.000000	46.798387
1689.000000	46.796158
1688.000000	46.825246
1687.000000	46.913464
1686.000000	47.055080
1685.000000	47.252430
1684.000000	47.511884
1683.000000	47.756050
1682.000000	48.040981
1681.000000	48.328885
1680.000000	48.568805
1679.000000	48.832929
1678.000000	49.095142
1677.000000	49.320518
1676.000000	49.511180
1675.000000	49.721694
1674.000000	49.934650
1673.000000	50.131469
1672.000000	50.354509
1671.000000	50.565766
1670.000000	50.803669
1669.000000	51.010680
1668.000000	51.225227
1667.000000	51.469924
1666.000000	51.653898
1665.000000	51.846790
1664.000000	52.048917
1663.000000	52.227583
1662.000000	52.395951
1661.000000	52.556040
1660.000000	52.681414
1659.000000	52.835026
1658.000000	52.939381
1657.000000	53.052440
1656.000000	53.157538
1655.000000	53.221233
1654.000000	53.291298
1653.000000	53.357117
1652.000000	53.409560
1651.000000	53.446185
1650.000000	53.482810
1649.000000	53.495867
1648.000000	53.514870
1647.000000	53.519222
1646.000000	53.523893
1645.000000	53.529201
1644.000000	53.537694
1643.000000	53.530581
1642.000000	53.543639
1641.000000	53.547355
1640.000000	53.528352
1639.000000	53.541091
1638.000000	53.538331
1637.000000	53.527821
1636.000000	53.504785
1635.000000	53.489922
1634.000000	53.476971
1633.000000	53.440028
1632.000000	53.426227
1631.000000	53.393211
1630.000000	53.358179
1629.000000	53.317520
1628.000000	53.267731
1627.000000	53.216987
1626.000000	53.173143
1625.000000	53.138323
1624.000000	53.101804
1623.000000	53.057430
1622.000000	53.012843
1621.000000	52.971759
1620.000000	52.930039
1619.000000	52.888955
1618.000000	52.850738
1617.000000	52.810822
1616.000000	52.773241
1615.000000	52.720799
1614.000000	52.676000
1613.000000	52.617824
1612.000000	52.567292
1611.000000	52.511877
1610.000000	52.441494
1609.000000	52.382788
1608.000000	52.305398
1607.000000	52.225884
1606.000000	52.137772
1605.000000	52.048598
1604.000000	51.971951
1603.000000	51.879487
1602.000000	51.775557
1601.000000	51.685852
1600.000000	51.596997
1599.000000	51.513981
1598.000000	51.436060
1597.000000	51.352831
1596.000000	51.272044
1595.000000	51.202509
1594.000000	51.136160
1593.000000	51.075968
1592.000000	51.012590
1591.000000	50.946241
1590.000000	50.894329
1589.000000	50.837746
1588.000000	50.775643
1587.000000	50.713434
1586.000000	50.661522
1585.000000	50.605788
1584.000000	50.561201
1583.000000	50.512474
1582.000000	50.459713
1581.000000	50.427759
1580.000000	50.401007
1579.000000	50.366081
1578.000000	50.344530
1577.000000	50.339753
1576.000000	50.329350
1575.000000	50.321282
1574.000000	50.325953
1573.000000	50.336781
1572.000000	50.353554
1571.000000	50.378077
1570.000000	50.400901
1569.000000	50.434023
1568.000000	50.467251
1567.000000	50.497081
1566.000000	50.536891
1565.000000	50.573622
1564.000000	50.592200
1563.000000	50.618740
1562.000000	50.629462
1561.000000	50.626065
1560.000000	50.621394
1559.000000	50.604090
1558.000000	50.584026
1557.000000	50.561201
1556.000000	50.519056
1555.000000	50.455573
1554.000000	50.385720
1553.000000	50.314912
1552.000000	50.247182
1551.000000	50.172552
1550.000000	50.081043
1549.000000	49.998133
1548.000000	49.916390
1547.000000	49.834117
1546.000000	49.762353
1545.000000	49.702055
1544.000000	49.656937
1543.000000	49.616278
1542.000000	49.572010
1541.000000	49.535703
1540.000000	49.498017
1539.000000	49.464046
1538.000000	49.443875
1537.000000	49.408206
1536.000000	49.351623
1535.000000	49.308204
1534.000000	49.262662
1533.000000	49.206291
1532.000000	49.151513
1531.000000	49.113508
1530.000000	49.050874
1529.000000	48.986223
1528.000000	48.919661
1527.000000	48.845350
1526.000000	48.787918
1525.000000	48.713394
1524.000000	48.655856
1523.000000	48.582181
1522.000000	48.506065
1521.000000	48.433770
1520.000000	48.341624
1519.000000	48.277398
1518.000000	48.212216
1517.000000	48.120494
1516.000000	48.036098
1515.000000	47.950534
1514.000000	47.862421
1513.000000	47.762207
1512.000000	47.686622
1511.000000	47.596068
1510.000000	47.510716
1509.000000	47.411988
1508.000000	47.327485
1507.000000	47.249352
1506.000000	47.160815
1505.000000	47.071429
1504.000000	46.992765
1503.000000	46.919409
1502.000000	46.858049
1501.000000	46.795415
1500.000000	46.736815
1499.000000	46.682568
1498.000000	46.659956
1497.000000	46.620571
1496.000000	46.599976
1495.000000	46.602205
1494.000000	46.608999
1493.000000	46.607195
1492.000000	46.623649
1491.000000	46.634584
1490.000000	46.662079
1489.000000	46.678640
1488.000000	46.709214
1487.000000	46.728216
1486.000000	46.759215
1485.000000	46.778642
1484.000000	46.806880
1483.000000	46.850830
1482.000000	46.877688
1481.000000	46.923549
1480.000000	46.966225
1479.000000	47.027373
1478.000000	47.084380
1477.000000	47.136717
1476.000000	47.190540
1475.000000	47.252537
1474.000000	47.364641
1473.000000	47.476745
1472.000000	47.581736
1471.000000	47.666239
1470.000000	47.759128
1469.000000	47.874099
1468.000000	47.981426
1467.000000	48.118053
1466.000000	48.216675
1465.000000	48.327293
1464.000000	48.438229
1463.000000	48.560843
1462.000000	48.692056
1461.000000	48.801400
1460.000000	48.961700
1459.000000	49.066798
1458.000000	49.199285
1457.000000	49.323916
1456.000000	49.454279
1455.000000	49.589632
1454.000000	49.697065
1453.000000	49.854075
1452.000000	49.987305
1451.000000	50.137201
1450.000000	50.215335
1449.000000	50.310347
1448.000000	50.453874
1447.000000	50.598994
1446.000000	50.759507
1445.000000	50.848468
1444.000000	50.959511
1443.000000	51.104312
1442.000000	51.247946
1441.000000	51.358670
1440.000000	51.517059
1439.000000	51.657508
1438.000000	51.806025
1437.000000	51.926303
1436.000000	52.083100
1435.000000	52.257414
1434.000000	52.436398
1433.000000	52.624937
1432.000000	52.787891
1431.000000	52.969954
1430.000000	53.150213
1429.000000	53.369007
1428.000000	53.608502
1427.000000	53.833135
1426.000000	54.084096
1425.000000	54.339515
1424.000000	54.630497
1423.000000	54.886447
1422.000000	55.131144
1421.000000	55.448348
1420.000000	55.824576
1419.000000	56.147194
1418.000000	56.431064
1417.000000	56.707290
1416.000000	57.089888
1415.000000	57.507943
1414.000000	57.930882
1413.000000	58.272608
1412.000000	58.622509
1411.000000	59.081011
1410.000000	59.571042
1409.000000	60.043344
1408.000000	60.482843
1407.000000	60.910028
1406.000000	61.342415
1405.000000	61.776924
1404.000000	62.231498
1403.000000	62.621740
1402.000000	63.075358
1401.000000	63.606260
1400.000000	64.000536
1399.000000	64.250859
1398.000000	64.552670
1397.000000	64.981341
1396.000000	65.454599
1395.000000	65.787620
1394.000000	66.043570
1393.000000	66.343045
1392.000000	66.687851
1391.000000	66.979152
1390.000000	67.267586
1389.000000	67.672902
1388.000000	68.021317
1387.000000	68.287989
1386.000000	68.612518
1385.000000	68.956261
1384.000000	69.205629
1383.000000	69.515190
1382.000000	69.758506
1381.000000	69.910208
1380.000000	70.003628
1379.000000	70.138875
1378.000000	70.212337
1377.000000	70.350769
1376.000000	70.477098
1375.000000	70.617335
1374.000000	70.752157
1373.000000	70.934432
1372.000000	71.119043
1371.000000	71.273611
1370.000000	71.410981
1369.000000	71.601006
1368.000000	71.763217
1367.000000	71.872455
1366.000000	71.985303
1365.000000	72.116303
1364.000000	72.228938
1363.000000	72.351870
1362.000000	72.519814
1361.000000	72.591047
1360.000000	72.569391
1359.000000	72.670773
1358.000000	72.754745
1357.000000	72.866212
1356.000000	73.016321
1355.000000	73.180656
1354.000000	73.303163
1353.000000	73.426096
1352.000000	73.649030
1351.000000	73.862304
1350.000000	74.082054
1349.000000	74.302759
1348.000000	74.533549
1347.000000	74.751494
1346.000000	74.922622
1345.000000	75.144389
1344.000000	75.360742
1343.000000	75.530915
1342.000000	75.694825
1341.000000	75.864892
1340.000000	76.017655
1339.000000	76.186130
1338.000000	76.343776
1337.000000	76.476581
1336.000000	76.594524
1335.000000	76.716395
1334.000000	76.835399
1333.000000	76.947185
1332.000000	77.041030
1331.000000	77.155576
1330.000000	77.240609
1329.000000	77.320123
1328.000000	77.398680
1327.000000	77.483608
1326.000000	77.551868
1325.000000	77.614077
1324.000000	77.667582
1323.000000	77.735948
1322.000000	77.791257
1321.000000	77.846035
1320.000000	77.901557
1319.000000	77.952088
1318.000000	78.001453
1317.000000	78.054001
1316.000000	78.108673
1315.000000	78.154216
1314.000000	78.193388
1313.000000	78.235427
1312.000000	78.282668
1311.000000	78.329803
1310.000000	78.355069
1309.000000	78.385961
1308.000000	78.415686
1307.000000	78.447640
1306.000000	78.481929
1305.000000	78.500401
1304.000000	78.519616
1303.000000	78.543395
1302.000000	78.558470
1301.000000	78.576305
1300.000000	78.594140
1299.000000	78.606985
1298.000000	78.609108
1297.000000	78.613673
1296.000000	78.624607
1295.000000	78.611443
1294.000000	78.608471
1293.000000	78.609957
1292.000000	78.593184
1291.000000	78.587345
1290.000000	78.580763
1289.000000	78.564521
1288.000000	78.535964
1287.000000	78.494244
1286.000000	78.464413
1285.000000	78.451037
1284.000000	78.437448
1283.000000	78.411121
1282.000000	78.391800
1281.000000	78.367702
1280.000000	78.333094
1279.000000	78.307297
1278.000000	78.283836
1277.000000	78.283942
1276.000000	78.275025
1275.000000	78.265683
1274.000000	78.279484
1273.000000	78.285641
1272.000000	78.301989
1271.000000	78.317701
1270.000000	78.315047
1269.000000	78.333412
1268.000000	78.343922
1267.000000	78.349336
1266.000000	78.352627
1265.000000	78.354857
1264.000000	78.360695
1263.000000	78.358466
1262.000000	78.345727
1261.000000	78.343073
1260.000000	78.358678
1259.000000	78.353583
1258.000000	78.360802
1257.000000	78.344665
1256.000000	78.321098
1255.000000	78.329485
1254.000000	78.325981
1253.000000	78.294134
1252.000000	78.253368
1251.000000	78.225555
1250.000000	78.161222
1249.000000	78.120988
1248.000000	78.082134
1247.000000	78.045402
1246.000000	77.967588
1245.000000	77.920241
1244.000000	77.880856
1243.000000	77.831810
1242.000000	77.753252
1241.000000	77.702827
1240.000000	77.671722
1239.000000	77.636689
1238.000000	77.583610
1237.000000	77.541040
1236.000000	77.516093
1235.000000	77.477981
1234.000000	77.438065
1233.000000	77.416834
1232.000000	77.363754
1231.000000	77.335728
1230.000000	77.303456
1229.000000	77.263964
1228.000000	77.222775
1227.000000	77.184770
1226.000000	77.156319
1225.000000	77.128399
1224.000000	77.086041
1223.000000	77.051434
1222.000000	77.006953
1221.000000	76.963640
1220.000000	76.918416
1219.000000	76.895592
1218.000000	76.845272
1217.000000	76.808966
1216.000000	76.758222
1215.000000	76.713316
1214.000000	76.678390
1213.000000	76.621064
1212.000000	76.558324
1211.000000	76.504289
1210.000000	76.448874
1209.000000	76.396962
1208.000000	76.315644
1207.000000	76.255664
1206.000000	76.190801
1205.000000	76.110544
1204.000000	76.049927
1203.000000	75.990797
1202.000000	75.906719
1201.000000	75.843554
1200.000000	75.758945
1199.000000	75.689198
1198.000000	75.608730
1197.000000	75.520936
1196.000000	75.438981
1195.000000	75.356601
1194.000000	75.284095
1193.000000	75.176768
1192.000000	75.103942
1191.000000	75.034090
1190.000000	74.977188
1189.000000	74.938546
1188.000000	74.900647
1187.000000	74.894278
1186.000000	74.905955
1185.000000	74.921030
1184.000000	74.968377
1183.000000	75.024323
1182.000000	75.090885
1181.000000	75.165196
1180.000000	75.249274
1179.000000	75.333352
1178.000000	75.432611
1177.000000	75.517963
1176.000000	75.610322
1175.000000	75.685589
1174.000000	75.793128
1173.000000	75.878480
1172.000000	76.014152
1171.000000	76.116489
1170.000000	76.245791
1169.000000	76.384966
1168.000000	76.537729
1167.000000	76.698985
1166.000000	76.878712
1165.000000	77.055998
1164.000000	77.217785
1163.000000	77.403351
1162.000000	77.564183
1161.000000	77.740619
1160.000000	77.916844
1159.000000	78.090414
1158.000000	78.230438
1157.000000	78.371311
1156.000000	78.513246
1155.000000	78.609851
1154.000000	78.741064
1153.000000	78.844569
1152.000000	78.924401
1151.000000	79.001154
1150.000000	79.066017
1149.000000	79.145424
1148.000000	79.227167
1147.000000	79.304876
1146.000000	79.379187
1145.000000	79.441609
1144.000000	79.494794
1143.000000	79.556261
1142.000000	79.651592
1141.000000	79.766881
1140.000000	79.856904
1139.000000	79.965717
1138.000000	80.091622
1137.000000	80.229416
1136.000000	80.377296
1135.000000	80.517957
1134.000000	80.630911
1133.000000	80.694500
1132.000000	80.779003
1131.000000	80.881871
1130.000000	80.972000
1129.000000	81.060962
1128.000000	81.135273
1127.000000	81.195253
1126.000000	81.268928
1125.000000	81.313090
1124.000000	81.376361
1123.000000	81.425831
1122.000000	81.423708
1121.000000	81.438464
1120.000000	81.460970
1119.000000	81.459802
1118.000000	81.458740
1117.000000	81.494197
1116.000000	81.487828
1115.000000	81.493773
1114.000000	81.496002
1113.000000	81.502053
1112.000000	81.511608
1111.000000	81.515854
1110.000000	81.512775
1109.000000	81.500992
1108.000000	81.509378
1107.000000	81.513625
1106.000000	81.509909
1105.000000	81.505557
1104.000000	81.495684
1103.000000	81.478911
1102.000000	81.470736
1101.000000	81.461500
1100.000000	81.460863
1099.000000	81.460439
1098.000000	81.432519
1097.000000	81.423283
1096.000000	81.415746
1095.000000	81.400671
1094.000000	81.376042
1093.000000	81.371584
1092.000000	81.342602
1091.000000	81.334428
1090.000000	81.319672
1089.000000	81.299501
1088.000000	81.286868
1087.000000	81.276040
1086.000000	81.251942
1085.000000	81.230498
1084.000000	81.206506
1083.000000	81.176357
1082.000000	81.169138
1081.000000	81.169244
1080.000000	81.154594
1079.000000	81.137290
1078.000000	81.113510
1077.000000	81.113723
1076.000000	81.094189
1075.000000	81.076249
1074.000000	81.054911
1073.000000	81.049709
1072.000000	81.052787
1071.000000	81.039836
1070.000000	81.024018
1069.000000	81.010005
1068.000000	80.985907
1067.000000	80.970832
1066.000000	80.974230
1065.000000	80.954802
1064.000000	80.944717
1063.000000	80.935163
1062.000000	80.925609
1061.000000	80.908305
1060.000000	80.885162
1059.000000	80.883994
1058.000000	80.870300
1057.000000	80.869132
1056.000000	80.871998
1055.000000	80.857879
1054.000000	80.848006
1053.000000	80.839620
1052.000000	80.843441
1051.000000	80.840044
1050.000000	80.824864
1049.000000	80.821042
1048.000000	80.825394
1047.000000	80.828898
1046.000000	80.828579
1045.000000	80.818069
1044.000000	80.818388
1043.000000	80.814672
1042.000000	80.809895
1041.000000	80.804799
1040.000000	80.812443
1039.000000	80.824864
1038.000000	80.817008
1037.000000	80.813398
1036.000000	80.823696
1035.000000	80.828898
1034.000000	80.820936
1033.000000	80.830915
1032.000000	80.841849
1031.000000	80.839301
1030.000000	80.839938
1029.000000	80.839407
1028.000000	80.843229
1027.000000	80.849068
1026.000000	80.862975
1025.000000	80.873060
1024.000000	80.864355
1023.000000	80.873909
1022.000000	80.891319
1021.000000	80.894185
1020.000000	80.906606
1019.000000	80.919239
1018.000000	80.930917
1017.000000	80.952467
1016.000000	80.985376
1015.000000	81.000663
1014.000000	81.013933
1013.000000	81.048329
1012.000000	81.080920
1011.000000	81.109370
1010.000000	81.128373
1009.000000	81.158097
1008.000000	81.173703
1007.000000	81.204595
1006.000000	81.262240
1005.000000	81.284321
1004.000000	81.305022
1003.000000	81.356297
1002.000000	81.385809
1001.000000	81.394195
1000.000000	81.412986
999.000000	81.443984
998.000000	81.477106
997.000000	81.518508
996.000000	81.534538
995.000000	81.549294
994.000000	81.578700
993.000000	81.603011
992.000000	81.646111
991.000000	81.659487
990.000000	81.686876
989.000000	81.723714
988.000000	81.757791
987.000000	81.789426
986.000000	81.798238
985.000000	81.805032
984.000000	81.843780
983.000000	81.866710
982.000000	81.897603
981.000000	81.925947
980.000000	81.949514
979.000000	81.980831
978.000000	82.006628
977.000000	82.049198
976.000000	82.102490
975.000000	82.099199
974.000000	82.123828
973.000000	82.167353
972.000000	82.201218
971.000000	82.229456
970.000000	82.257695
969.000000	82.287313
968.000000	82.315021
967.000000	82.334872
966.000000	82.373833
965.000000	82.389014
964.000000	82.432327
963.000000	82.436361
962.000000	82.474153
961.000000	82.534346
960.000000	82.523517
959.000000	82.578508
958.000000	82.587213
957.000000	82.610037
956.000000	82.659720
955.000000	82.661312
954.000000	82.695814
953.000000	82.736897
952.000000	82.747195
951.000000	82.755475
950.000000	82.814288
949.000000	82.794860
948.000000	82.781484
947.000000	82.796984
946.000000	82.834670
945.000000	82.835413
944.000000	82.812058
943.000000	82.850382
942.000000	82.816411
941.000000	82.805795
940.000000	82.796877
939.000000	82.774584
938.000000	82.817685
937.000000	82.789446
936.000000	82.777875
935.000000	82.763543
934.000000	82.738490
933.000000	82.777663
932.000000	82.753352
931.000000	82.708447
930.000000	82.691037
929.000000	82.724477
928.000000	82.677767
927.000000	82.654306
926.000000	82.617574
925.000000	82.650378
924.000000	82.597298
923.000000	82.547828
922.000000	82.507487
921.000000	82.439758
920.000000	82.413430
919.000000	82.379141
918.000000	82.318842
917.000000	82.274468
916.000000	82.336465
915.000000	82.238692
914.000000	82.169370
913.000000	82.095165
912.000000	82.024994
911.000000	81.957689
910.000000	81.903654
909.000000	81.953336
908.000000	81.877645
907.000000	81.787834
906.000000	81.666282
905.000000	81.598764
904.000000	81.530822
903.000000	81.463199
902.000000	81.403431
901.000000	81.338993
900.000000	81.257569
899.000000	81.136972
898.000000	81.089412
897.000000	81.025611
896.000000	80.980599
895.000000	80.919133
894.000000	80.827517
893.000000	80.684946
892.000000	80.585156
891.000000	80.522734
890.000000	80.375173
889.000000	80.289715
888.000000	80.210838
887.000000	80.082704
886.000000	80.002979
885.000000	79.925376
884.000000	79.848199
883.000000	79.768685
882.000000	79.711041
881.000000	79.642780
880.000000	79.594584
879.000000	79.553394
878.000000	79.524094
877.000000	79.472076
876.000000	79.410186
875.000000	79.370694
874.000000	79.328655
873.000000	79.236828
872.000000	79.134278
871.000000	79.090646
870.000000	79.132473
869.000000	79.166338
868.000000	79.265809
867.000000	79.322180
866.000000	79.346808
865.000000	79.399676
864.000000	79.442352
863.000000	79.514646
862.000000	79.571017
861.000000	79.643311
860.000000	79.712633
859.000000	79.783654
858.000000	80.674967
857.000000	80.500000
856.000000	80.720300
855.000000	80.804600
854.000000	81.081900
853.000000	80.810500
852.000000	80.951300
851.000000	81.125500
850.000000	81.264700
849.000000	81.536000
848.000000	81.782100
847.000000	81.974400
846.000000	82.078200
845.000000	82.042400
844.000000	82.393700
843.000000	82.892800
842.000000	82.917900
841.000000	83.232700
840.000000	83.704000
839.000000	84.100600
838.000000	84.357900
837.000000	84.750900
836.000000	84.895700
835.000000	85.108600
834.000000	85.859000
833.000000	86.145800
832.000000	85.992400
831.000000	86.463000
830.000000	87.130600
829.000000	87.336800
828.000000	87.832800
827.000000	88.201200
826.000000	88.714900
825.000000	89.000900
824.000000	89.548300
823.000000	89.924000
822.000000	90.350300
821.000000	90.859000
820.000000	91.175800
819.000000	91.482700
818.000000	91.803200
817.000000	92.008400
816.000000	92.411800
815.000000	92.877600
814.000000	93.019500
813.000000	93.506000
812.000000	93.836600
811.000000	94.217500
810.000000	94.392100
809.000000	94.654100
808.000000	94.902400
807.000000	95.196500
806.000000	95.577000
805.000000	95.569600
804.000000	95.833600
803.000000	96.014300
802.000000	96.031300
801.000000	96.235500
800.000000	96.484800
799.000000	96.629900
798.000000	96.508600
797.000000	96.530600
796.000000	96.720300
795.000000	96.756200
794.000000	96.827300
793.000000	96.791800
792.000000	96.787300
791.000000	96.978900
790.000000	96.740100
789.000000	96.739800
788.000000	96.920100
787.000000	96.937500
786.000000	96.757400
785.000000	96.678700
784.000000	96.647800
783.000000	96.554000
782.000000	96.477100
781.000000	96.469100
780.000000	96.260900
779.000000	96.114800
778.000000	96.011800
777.000000	95.969300
776.000000	95.976200
775.000000	95.931800
774.000000	95.734500
773.000000	95.588300
772.000000	95.482800
771.000000	95.416000
770.000000	95.325400
769.000000	95.276000
768.000000	95.175700
767.000000	95.026800
766.000000	94.986200
765.000000	94.991500
764.000000	94.815600
763.000000	94.716800
762.000000	94.711300
761.000000	94.549700
760.000000	94.504400
759.000000	94.393800
758.000000	94.258600
757.000000	94.110600
756.000000	93.970500
755.000000	93.919100
754.000000	93.774000
753.000000	93.670600
752.000000	93.591500
751.000000	93.479200
750.000000	93.320800
749.000000	93.208100
748.000000	93.195000
747.000000	93.094200
746.000000	92.985700
745.000000	92.823500
744.000000	92.707400
743.000000	92.664000
742.000000	92.651700
741.000000	92.552100
740.000000	92.421900
739.000000	92.383300
738.000000	92.259000
737.000000	92.186400
736.000000	92.182400
735.000000	92.124300
734.000000	92.088700
733.000000	91.995000
732.000000	91.864600
731.000000	91.709500
730.000000	91.654600
729.000000	91.566400
728.000000	91.395100
727.000000	91.280400
726.000000	91.104700
725.000000	90.858600
724.000000	90.573600
723.000000	90.391500
722.000000	90.084300
721.000000	89.693100
720.000000	89.420500
719.000000	89.082300
718.000000	88.587400
717.000000	88.144500
716.000000	87.652400
715.000000	87.131800
714.000000	86.505200
713.000000	85.930400
712.000000	85.340000
711.000000	84.699400
710.000000	84.019700
709.000000	83.364200
708.000000	82.634600
707.000000	81.955000
706.000000	81.287000
705.000000	80.597600
704.000000	79.927600
703.000000	79.267500
702.000000	78.653100
701.000000	78.026400
700.000000	77.419200
699.000000	76.853400
698.000000	76.315600
697.000000	75.792700
696.000000	75.340700
695.000000	74.954200
694.000000	74.474600
693.000000	74.091200
692.000000	73.677800
691.000000	73.265100
690.000000	72.872400
689.000000	72.601800
688.000000	72.386400
687.000000	72.090900
686.000000	71.835000
685.000000	71.606000
684.000000	71.296800
683.000000	71.062600
682.000000	70.867500
681.000000	70.586900
680.000000	70.346300
679.000000	70.061000
678.000000	69.733000
677.000000	69.387800
676.000000	69.175800
675.000000	68.813100
674.000000	68.460800
673.000000	68.086300
672.000000	67.754800
671.000000	67.358100
670.000000	67.003300
669.000000	66.699300
668.000000	66.343900
667.000000	66.029900
666.000000	65.667100
665.000000	65.384700
664.000000	65.066000
663.000000	64.769600
662.000000	64.597600
661.000000	64.352600
660.000000	64.201100
659.000000	64.022200
658.000000	63.925400
657.000000	63.921400
656.000000	63.802400
655.000000	63.791700
654.000000	63.689400
653.000000	63.615800
652.000000	63.645100
651.000000	63.555200
650.000000	63.514900
649.000000	63.512700
648.000000	63.380000
647.000000	63.328800
646.000000	63.195900
645.000000	63.029800
644.000000	62.908600
643.000000	62.755300
642.000000	62.526500
641.000000	62.232700
640.000000	61.971300
639.000000	61.672400
638.000000	61.285600
637.000000	60.838100
636.000000	60.445200
635.000000	59.974700
634.000000	59.444200
633.000000	58.970900
632.000000	58.412700
631.000000	57.895000
630.000000	57.306500
629.000000	56.777800
628.000000	56.250400
627.000000	55.769100
626.000000	55.326000
625.000000	54.937900
624.000000	54.636300
623.000000	54.400700
622.000000	54.237500
621.000000	54.133500
620.000000	54.120700
619.000000	54.192600
618.000000	54.388000
617.000000	54.609000
616.000000	54.896100
615.000000	55.273400
614.000000	55.777500
613.000000	56.300000
612.000000	56.859900
611.000000	57.429400
610.000000	58.133200
609.000000	58.734100
608.000000	59.454700
607.000000	60.137500
606.000000	60.920300
605.000000	61.610000
604.000000	62.379300
603.000000	63.108600
602.000000	63.877700
601.000000	64.539200
600.000000	65.301000
599.000000	66.001000
598.000000	66.631200
597.000000	67.286800
596.000000	67.953600
595.000000	68.516300
594.000000	69.054100
593.000000	69.584300
592.000000	70.101500
591.000000	70.583200
590.000000	71.000800
589.000000	71.389100
588.000000	71.751200
587.000000	72.125700
586.000000	72.435400
585.000000	72.722500
584.000000	73.090500
583.000000	73.355600
582.000000	73.673300
581.000000	73.889500
580.000000	74.044300
579.000000	74.237400
578.000000	74.357700
577.000000	74.420300
576.000000	74.518600
575.000000	74.549500
574.000000	74.677500
573.000000	74.692200
572.000000	74.695100
571.000000	74.681400
570.000000	74.634000
569.000000	74.580200
568.000000	74.424800
567.000000	74.317700
566.000000	74.150100
565.000000	74.002600
564.000000	73.868500
563.000000	73.625500
562.000000	73.452000
561.000000	73.255700
560.000000	73.070200
559.000000	72.850500
558.000000	72.625100
557.000000	72.324600
556.000000	72.011300
555.000000	71.704100
554.000000	71.393500
553.000000	71.002900
552.000000	70.645300
551.000000	70.233100
550.000000	69.858900
549.000000	69.458000
548.000000	69.035600
547.000000	68.533900
546.000000	68.030900
545.000000	67.526600
544.000000	66.950400
543.000000	66.411700
542.000000	65.849000
541.000000	65.271800
540.000000	64.673800
539.000000	64.105200
538.000000	63.425600
537.000000	62.755700
536.000000	62.048200
535.000000	61.359500
534.000000	60.685000
533.000000	59.935400
532.000000	59.169700
531.000000	58.400300
530.000000	57.572000
529.000000	56.702600
528.000000	55.847300
527.000000	54.942500
526.000000	54.034400
525.000000	53.103300
524.000000	52.167800
523.000000	51.242800
522.000000	50.334200
521.000000	49.397900
520.000000	48.505300
519.000000	47.601900
518.000000	46.669200
517.000000	45.741800
516.000000	44.857200
515.000000	43.990600
514.000000	43.123600
513.000000	42.269700
512.000000	41.440400
511.000000	40.617000
510.000000	39.811300
509.000000	39.029400
508.000000	38.285000
507.000000	37.588300
506.000000	36.901400
505.000000	36.220800
504.000000	35.568200
503.000000	34.938400
502.000000	34.301100
501.000000	33.665200
500.000000	33.040300
499.000000	32.495600
498.000000	31.914500
497.000000	31.343200
496.000000	30.785500
495.000000	30.206000
494.000000	29.624500
493.000000	29.060700
492.000000	28.547700
491.000000	27.978600
490.000000	27.433500
489.000000	26.927100
488.000000	26.400600
487.000000	25.925800
486.000000	25.448600
485.000000	24.989800
484.000000	24.558000
483.000000	24.184300
482.000000	23.818200
481.000000	23.479100
480.000000	23.157100
479.000000	22.884300
478.000000	22.662600
477.000000	22.475900
476.000000	22.326700
475.000000	22.195400
474.000000	22.064900
473.000000	21.975700
472.000000	21.917600
471.000000	21.885000
470.000000	21.880700
469.000000	21.844000
468.000000	21.835100
467.000000	21.855800
466.000000	21.871000
465.000000	21.896400
464.000000	21.930100
463.000000	21.961100
462.000000	22.000100
461.000000	21.995900
460.000000	21.961400
459.000000	21.944000
458.000000	21.942800
457.000000	21.905800
456.000000	21.864900
455.000000	21.848200
454.000000	21.802400
453.000000	21.704300
452.000000	21.637000
451.000000	21.579900
450.000000	21.470300
449.000000	21.334200
448.000000	21.194000
447.000000	21.047600
446.000000	20.898400
445.000000	20.761400
444.000000	20.601100
443.000000	20.408100
442.000000	20.205300
441.000000	20.015200
440.000000	19.835100
439.000000	19.619400
438.000000	19.369400
437.000000	19.127800
436.000000	18.902900
435.000000	18.668200
434.000000	18.400400
433.000000	18.118500
432.000000	17.838800
431.000000	17.563100
430.000000	17.273600
429.000000	16.989200
428.000000	16.724400
427.000000	16.426900
426.000000	16.127400
425.000000	15.816000
424.000000	15.520800
423.000000	15.216900
422.000000	14.894900
421.000000	14.567500
420.000000	14.252500
419.000000	13.921700
418.000000	13.589700
417.000000	13.272000
416.000000	12.968500
415.000000	12.638000
414.000000	12.311300
413.000000	11.997600
412.000000	11.681500
411.000000	11.393100
410.000000	11.101100
409.000000	10.803500
408.000000	10.514300
407.000000	10.230400
406.000000	9.983800
405.000000	9.744100
404.000000	9.511400
403.000000	9.303200
402.000000	9.083200
401.000000	8.859100
400.000000	8.689000
399.000000	8.502500
398.000000	8.326900
397.000000	8.161700
396.000000	7.986400
395.000000	7.862700
394.000000	7.739400
393.000000	7.613100
392.000000	7.482700
391.000000	7.363900
390.000000	7.260200
389.000000	7.175800
388.000000	7.088100
387.000000	6.996700
386.000000	6.930100
385.000000	6.861900
384.000000	6.804100
383.000000	6.759200
382.000000	6.679500
381.000000	6.627800
380.000000	6.562400
379.000000	6.540500
378.000000	6.534700
377.000000	6.471700
376.000000	6.301500
375.000000	6.089500
374.000000	5.818700
373.000000	5.953400
372.000000	6.252500
371.000000	6.210400
370.000000	6.088200
369.000000	6.072000
368.000000	6.162500
367.000000	6.172500
366.000000	6.199700
365.000000	6.058700
364.000000	6.032300
363.000000	6.231300
362.000000	6.349300
361.000000	6.317300
360.000000	6.207500
359.000000	6.234700
358.000000	6.181700
357.000000	6.137500
356.000000	6.124300
355.000000	6.094000
354.000000	6.099400
353.000000	6.149100
352.000000	6.049000
351.000000	6.138600
350.000000	6.286700
349.000000	6.078900
348.000000	6.072200
347.000000	5.628800
346.000000	6.153700
345.000000	6.039000
344.000000	6.110400
343.000000	5.953200
342.000000	6.361300
341.000000	6.309800
340.000000	6.212800
339.000000	6.288900
338.000000	6.394500
337.000000	6.172800
336.000000	6.400800
335.000000	6.368100
334.000000	6.327300
333.000000	6.348600
332.000000	6.117600
331.000000	6.667300
330.000000	6.537100
329.000000	6.617700
328.000000	6.313000
327.000000	6.461200
326.000000	6.598500
325.000000	6.957000
324.000000	6.459000
323.000000	7.342300
322.000000	6.411000
321.000000	6.333900
320.000000	7.217300
319.000000	7.241100
318.000000	7.402100
317.000000	7.098600
316.000000	6.156600
315.000000	6.118300
314.000000	6.133700
313.000000	6.092800
312.000000	6.046900
311.000000	6.042600
310.000000	6.140700
309.000000	6.053500
308.000000	6.090000
307.000000	6.032000
306.000000	6.046500
305.000000	6.117000
304.000000	6.121800
303.000000	6.110500
302.000000	6.051400
301.000000	6.127600
300.000000	6.125700
299.000000	6.177800
298.000000	6.103700
297.000000	6.092600
296.000000	6.145900
295.000000	6.103500
294.000000	6.111200
293.000000	6.197600
292.000000	6.172300
291.000000	6.180500
290.000000	6.129100
289.000000	6.091300
288.000000	6.117300
287.000000	6.146900
286.000000	6.166900
285.000000	6.111100
284.000000	6.103000
283.000000	6.166900
282.000000	6.167300
281.000000	6.173600
280.000000	6.145300
279.000000	6.179200
278.000000	6.149500
277.000000	6.189700
276.000000	6.161600
275.000000	6.196000
274.000000	6.233200
273.000000	6.258800
272.000000	6.231600
271.000000	6.298900
270.000000	6.290200
269.000000	6.314300
268.000000	6.314900
267.000000	6.330000
266.000000	6.403100
265.000000	6.400300
264.000000	6.401000
263.000000	6.402900
262.000000	6.467400
261.000000	6.473000
260.000000	6.475500
259.000000	6.567600
258.000000	6.592800
257.000000	6.590700
256.000000	6.616900
255.000000	6.647900
254.000000	6.680300
253.000000	6.704800
252.000000	6.687900
251.000000	6.696600
250.000000	6.755100
