PE UV       SUBTECH     SPECTRUM    ASCII       PEDS        4.00        
   -1
INBUCR0127-1.Sample.ASC
24/04/26
10:47:40.00
24/04/26
10:47:40.00
Vinicio Soto Monge
C. resplendens
250,000000
1
Lambda 1050
1050L1511233
PerkinElmer UV WinLab 6.3.2.0749 / 2.02.05 Lambda 900 UV/VIS/NIR, Aug  7 2015 09:38:08

0
0
3350/servo 860,8/2
0
0
UV/VIS
1
1
1
DoubleDePol,CommonBeamDepol,RBeamAtt,SBeamAtt,60mm sphere, WB InGaAs Detector
0
0
0
0
Program
Program
3350/servo 860,8/2
3350/0,2 860,8/0,2
3350/0,2 860,8/0,2
0
15.00
 
 
 
0
 
860,8
319,2
860,8
Front
100
on
S:100 R:100
0
0
0
0
 
0
 
 
 
0
 
 
0
0
0
0
0
 
 
 
 
0
0


0
0
#HDR
-1
-1
#GR
nm
%R
1.0
0.0
2500,000000
-1,000000
2251
8
89,265100
6,219300
#DATA
2500.000000	13.222949
2499.000000	13.218724
2498.000000	13.146888
2497.000000	13.061344
2496.000000	13.066085
2495.000000	13.032589
2494.000000	12.968380
2493.000000	13.041865
2492.000000	12.987550
2491.000000	12.961887
2490.000000	13.024138
2489.000000	12.977141
2488.000000	12.978893
2487.000000	12.979099
2486.000000	12.983325
2485.000000	12.997651
2484.000000	13.040319
2483.000000	13.008266
2482.000000	12.981573
2481.000000	13.004453
2480.000000	13.029807
2479.000000	13.110918
2478.000000	13.070620
2477.000000	13.146166
2476.000000	13.142971
2475.000000	13.174406
2474.000000	13.222846
2473.000000	13.297259
2472.000000	13.289735
2471.000000	13.346627
2470.000000	13.393727
2469.000000	13.428254
2468.000000	13.472365
2467.000000	13.527401
2466.000000	13.562959
2465.000000	13.613563
2464.000000	13.735694
2463.000000	13.790009
2462.000000	13.825670
2461.000000	13.895341
2460.000000	13.971609
2459.000000	14.046330
2458.000000	14.148879
2457.000000	14.187219
2456.000000	14.281317
2455.000000	14.358718
2454.000000	14.447148
2453.000000	14.560312
2452.000000	14.646577
2451.000000	14.778809
2450.000000	14.877235
2449.000000	14.943093
2448.000000	15.052754
2447.000000	15.179214
2446.000000	15.330821
2445.000000	15.454395
2444.000000	15.574465
2443.000000	15.658875
2442.000000	15.788530
2441.000000	15.926430
2440.000000	16.019600
2439.000000	16.149461
2438.000000	16.285816
2437.000000	16.393518
2436.000000	16.520390
2435.000000	16.646644
2434.000000	16.756407
2433.000000	16.883795
2432.000000	17.003659
2431.000000	17.120637
2430.000000	17.220506
2429.000000	17.316871
2428.000000	17.419833
2427.000000	17.529081
2426.000000	17.628847
2425.000000	17.733045
2424.000000	17.838686
2423.000000	17.908461
2422.000000	18.009670
2421.000000	18.080681
2420.000000	18.154990
2419.000000	18.250943
2418.000000	18.340506
2417.000000	18.405952
2416.000000	18.475108
2415.000000	18.521796
2414.000000	18.580234
2413.000000	18.633003
2412.000000	18.686287
2411.000000	18.722875
2410.000000	18.740293
2409.000000	18.772655
2408.000000	18.814602
2407.000000	18.859538
2406.000000	18.889427
2405.000000	18.911895
2404.000000	18.926942
2403.000000	18.937352
2402.000000	18.958480
2401.000000	18.989090
2400.000000	18.992801
2399.000000	19.007745
2398.000000	19.027018
2397.000000	19.048661
2396.000000	19.051856
2395.000000	19.055258
2394.000000	19.071129
2393.000000	19.086383
2392.000000	19.088960
2391.000000	19.083909
2390.000000	19.090402
2389.000000	19.095762
2388.000000	19.090196
2387.000000	19.078653
2386.000000	19.071336
2385.000000	19.062369
2384.000000	19.050517
2383.000000	19.041035
2382.000000	19.031759
2381.000000	19.024957
2380.000000	18.992285
2379.000000	18.952709
2378.000000	18.931477
2377.000000	18.907051
2376.000000	18.878605
2375.000000	18.841811
2374.000000	18.820168
2373.000000	18.804296
2372.000000	18.785538
2371.000000	18.770388
2370.000000	18.751939
2369.000000	18.730090
2368.000000	18.705148
2367.000000	18.695048
2366.000000	18.683711
2365.000000	18.669900
2364.000000	18.648050
2363.000000	18.627334
2362.000000	18.621047
2361.000000	18.616306
2360.000000	18.601774
2359.000000	18.577451
2358.000000	18.558384
2357.000000	18.533031
2356.000000	18.517056
2355.000000	18.490156
2354.000000	18.459752
2353.000000	18.419660
2352.000000	18.388534
2351.000000	18.365551
2350.000000	18.328860
2349.000000	18.295879
2348.000000	18.264651
2347.000000	18.228991
2346.000000	18.198690
2345.000000	18.161380
2344.000000	18.113146
2343.000000	18.094183
2342.000000	18.082021
2341.000000	18.059450
2340.000000	18.031313
2339.000000	18.011422
2338.000000	17.994932
2337.000000	17.983594
2336.000000	17.980399
2335.000000	17.964321
2334.000000	17.944533
2333.000000	17.947213
2332.000000	17.957004
2331.000000	17.981430
2330.000000	17.997920
2329.000000	18.010391
2328.000000	18.032035
2327.000000	18.052029
2326.000000	18.071302
2325.000000	18.103458
2324.000000	18.126751
2323.000000	18.151589
2322.000000	18.163648
2321.000000	18.164885
2320.000000	18.167049
2319.000000	18.169213
2318.000000	18.165915
2317.000000	18.152723
2316.000000	18.124174
2315.000000	18.101397
2314.000000	18.076043
2313.000000	18.044918
2312.000000	18.001734
2311.000000	17.977514
2310.000000	17.944121
2309.000000	17.899597
2308.000000	17.849199
2307.000000	17.813744
2306.000000	17.785196
2305.000000	17.743248
2304.000000	17.716246
2303.000000	17.686666
2302.000000	17.672134
2301.000000	17.678009
2300.000000	17.677493
2299.000000	17.669248
2298.000000	17.658220
2297.000000	17.681822
2296.000000	17.692644
2295.000000	17.709546
2294.000000	17.738404
2293.000000	17.750978
2292.000000	17.772828
2291.000000	17.811683
2290.000000	17.827761
2289.000000	17.864143
2288.000000	17.904029
2287.000000	17.929073
2286.000000	17.967929
2285.000000	18.005032
2284.000000	18.045227
2283.000000	18.097068
2282.000000	18.120052
2281.000000	18.177355
2280.000000	18.206832
2279.000000	18.226620
2278.000000	18.253211
2277.000000	18.269289
2276.000000	18.318554
2275.000000	18.360501
2274.000000	18.371323
2273.000000	18.388637
2272.000000	18.423782
2271.000000	18.451300
2270.000000	18.473769
2269.000000	18.522724
2268.000000	18.565290
2267.000000	18.629602
2266.000000	18.687112
2265.000000	18.754825
2264.000000	18.842327
2263.000000	18.940650
2262.000000	19.056700
2261.000000	19.198517
2260.000000	19.332810
2259.000000	19.494724
2258.000000	19.650866
2257.000000	19.828962
2256.000000	19.995926
2255.000000	20.175258
2254.000000	20.359743
2253.000000	20.560821
2252.000000	20.773546
2251.000000	20.953497
2250.000000	21.148288
2249.000000	21.302988
2248.000000	21.506334
2247.000000	21.655365
2246.000000	21.820783
2245.000000	21.967238
2244.000000	22.110600
2243.000000	22.225311
2242.000000	22.330024
2241.000000	22.420102
2240.000000	22.502966
2239.000000	22.590468
2238.000000	22.658387
2237.000000	22.693120
2236.000000	22.727337
2235.000000	22.764956
2234.000000	22.798039
2233.000000	22.774128
2232.000000	22.781858
2231.000000	22.750939
2230.000000	22.718886
2229.000000	22.677866
2228.000000	22.630766
2227.000000	22.589437
2226.000000	22.544089
2225.000000	22.458545
2224.000000	22.366818
2223.000000	22.284985
2222.000000	22.215210
2221.000000	22.127193
2220.000000	22.060923
2219.000000	21.945491
2218.000000	21.863555
2217.000000	21.775332
2216.000000	21.673401
2215.000000	21.595278
2214.000000	21.479331
2213.000000	21.388222
2212.000000	21.315974
2211.000000	21.258052
2210.000000	21.177868
2209.000000	21.092530
2208.000000	21.016984
2207.000000	20.973182
2206.000000	20.891864
2205.000000	20.854452
2204.000000	20.794365
2203.000000	20.740875
2202.000000	20.681098
2201.000000	20.629875
2200.000000	20.583083
2199.000000	20.544743
2198.000000	20.473526
2197.000000	20.449615
2196.000000	20.417562
2195.000000	20.373141
2194.000000	20.361083
2193.000000	20.323877
2192.000000	20.297904
2191.000000	20.262244
2190.000000	20.238127
2189.000000	20.213701
2188.000000	20.191542
2187.000000	20.160726
2186.000000	20.142793
2185.000000	20.131765
2184.000000	20.093115
2183.000000	20.075388
2182.000000	20.056734
2181.000000	20.021898
2180.000000	20.000667
2179.000000	19.969541
2178.000000	19.956658
2177.000000	19.955215
2176.000000	19.944703
2175.000000	19.940168
2174.000000	19.923781
2173.000000	19.933057
2172.000000	19.950784
2171.000000	19.958410
2170.000000	19.993452
2169.000000	20.018188
2168.000000	20.045809
2167.000000	20.077450
2166.000000	20.093528
2165.000000	20.145163
2164.000000	20.204425
2163.000000	20.258637
2162.000000	20.313673
2161.000000	20.359331
2160.000000	20.427044
2159.000000	20.515576
2158.000000	20.622866
2157.000000	20.696557
2156.000000	20.796014
2155.000000	20.901655
2154.000000	21.013892
2153.000000	21.144681
2152.000000	21.268049
2151.000000	21.391623
2150.000000	21.523442
2149.000000	21.646914
2148.000000	21.783062
2147.000000	21.905605
2146.000000	22.044433
2145.000000	22.175324
2144.000000	22.301991
2143.000000	22.428347
2142.000000	22.562331
2141.000000	22.697964
2140.000000	22.812468
2139.000000	22.944494
2138.000000	23.063121
2137.000000	23.164433
2136.000000	23.278731
2135.000000	23.373757
2134.000000	23.473523
2133.000000	23.588440
2132.000000	23.684908
2131.000000	23.761382
2130.000000	23.841669
2129.000000	23.921853
2128.000000	24.015641
2127.000000	24.077892
2126.000000	24.141380
2125.000000	24.219915
2124.000000	24.269386
2123.000000	24.325041
2122.000000	24.376676
2121.000000	24.417695
2120.000000	24.475927
2119.000000	24.508598
2118.000000	24.540136
2117.000000	24.569406
2116.000000	24.590740
2115.000000	24.613208
2114.000000	24.639490
2113.000000	24.652064
2112.000000	24.657423
2111.000000	24.667936
2110.000000	24.679994
2109.000000	24.685869
2108.000000	24.689270
2107.000000	24.679582
2106.000000	24.674532
2105.000000	24.679685
2104.000000	24.678551
2103.000000	24.677418
2102.000000	24.677624
2101.000000	24.682674
2100.000000	24.680922
2099.000000	24.680200
2098.000000	24.687209
2097.000000	24.704523
2096.000000	24.733175
2095.000000	24.753582
2094.000000	24.776669
2093.000000	24.798415
2092.000000	24.820677
2091.000000	24.863449
2090.000000	24.896532
2089.000000	24.910343
2088.000000	24.933429
2087.000000	24.949920
2086.000000	24.964246
2085.000000	24.976201
2084.000000	24.979396
2083.000000	24.970842
2082.000000	24.947858
2081.000000	24.925184
2080.000000	24.871591
2079.000000	24.817791
2078.000000	24.782543
2077.000000	24.712047
2076.000000	24.638459
2075.000000	24.548381
2074.000000	24.446863
2073.000000	24.345653
2072.000000	24.242898
2071.000000	24.124787
2070.000000	24.002655
2069.000000	23.867641
2068.000000	23.724485
2067.000000	23.582050
2066.000000	23.441985
2065.000000	23.304394
2064.000000	23.157940
2063.000000	23.024575
2062.000000	22.885541
2061.000000	22.765265
2060.000000	22.638496
2059.000000	22.531618
2058.000000	22.442055
2057.000000	22.364448
2056.000000	22.318584
2055.000000	22.288386
2054.000000	22.276431
2053.000000	22.287871
2052.000000	22.338888
2051.000000	22.390214
2050.000000	22.480704
2049.000000	22.607267
2048.000000	22.755680
2047.000000	22.910895
2046.000000	23.093112
2045.000000	23.260798
2044.000000	23.469916
2043.000000	23.652237
2042.000000	23.832702
2041.000000	24.057279
2040.000000	24.262171
2039.000000	24.464693
2038.000000	24.639078
2037.000000	24.816039
2036.000000	25.021859
2035.000000	25.196140
2034.000000	25.358879
2033.000000	25.533264
2032.000000	25.673947
2031.000000	25.832666
2030.000000	25.974482
2029.000000	26.097232
2028.000000	26.238121
2027.000000	26.367467
2026.000000	26.475890
2025.000000	26.586375
2024.000000	26.695314
2023.000000	26.814972
2022.000000	26.910925
2021.000000	26.986368
2020.000000	27.065006
2019.000000	27.147664
2018.000000	27.255469
2017.000000	27.323079
2016.000000	27.357606
2015.000000	27.418826
2014.000000	27.464690
2013.000000	27.501793
2012.000000	27.547657
2011.000000	27.543534
2010.000000	27.561055
2009.000000	27.585584
2008.000000	27.579297
2007.000000	27.579503
2006.000000	27.577133
2005.000000	27.544358
2004.000000	27.507771
2003.000000	27.452322
2002.000000	27.411818
2001.000000	27.370798
2000.000000	27.316689
1999.000000	27.244853
1998.000000	27.175903
1997.000000	27.103861
1996.000000	27.023471
1995.000000	26.944215
1994.000000	26.858259
1993.000000	26.749320
1992.000000	26.681916
1991.000000	26.575141
1990.000000	26.465687
1989.000000	26.365405
1988.000000	26.262135
1987.000000	26.150310
1986.000000	26.038691
1985.000000	25.945934
1984.000000	25.829677
1983.000000	25.701774
1982.000000	25.602523
1981.000000	25.479464
1980.000000	25.357848
1979.000000	25.249219
1978.000000	25.146154
1977.000000	25.007636
1976.000000	24.928791
1975.000000	24.804805
1974.000000	24.715964
1973.000000	24.604448
1972.000000	24.519935
1971.000000	24.419757
1970.000000	24.298347
1969.000000	24.245887
1968.000000	24.129734
1967.000000	23.996162
1966.000000	23.898766
1965.000000	23.812605
1964.000000	23.693565
1963.000000	23.612557
1962.000000	23.518150
1961.000000	23.377261
1960.000000	23.269146
1959.000000	23.150004
1958.000000	23.053536
1957.000000	22.947895
1956.000000	22.860805
1955.000000	22.738159
1954.000000	22.627983
1953.000000	22.505336
1952.000000	22.401448
1951.000000	22.284470
1950.000000	22.209439
1949.000000	22.105653
1948.000000	22.027221
1947.000000	21.930134
1946.000000	21.843457
1945.000000	21.768323
1944.000000	21.700919
1943.000000	21.646501
1942.000000	21.577757
1941.000000	21.535604
1940.000000	21.486855
1939.000000	21.457378
1938.000000	21.423779
1937.000000	21.401723
1936.000000	21.395333
1935.000000	21.400487
1934.000000	21.416359
1933.000000	21.454905
1932.000000	21.480362
1931.000000	21.531688
1930.000000	21.623930
1929.000000	21.694735
1928.000000	21.800583
1927.000000	21.897257
1926.000000	22.010009
1925.000000	22.127193
1924.000000	22.267876
1923.000000	22.417113
1922.000000	22.616337
1921.000000	22.840502
1920.000000	23.077034
1919.000000	23.282339
1918.000000	23.502381
1917.000000	23.742109
1916.000000	23.978023
1915.000000	24.269283
1914.000000	24.612487
1913.000000	25.021549
1912.000000	25.423397
1911.000000	25.752585
1910.000000	26.134850
1909.000000	26.484651
1908.000000	26.921541
1907.000000	27.393781
1906.000000	28.005984
1905.000000	28.635191
1904.000000	29.200706
1903.000000	29.781988
1902.000000	30.377185
1901.000000	31.015772
1900.000000	31.724751
1899.000000	32.442595
1898.000000	33.162602
1897.000000	33.888381
1896.000000	34.496667
1895.000000	35.136696
1894.000000	35.782292
1893.000000	36.483438
1892.000000	37.268479
1891.000000	38.016211
1890.000000	38.666444
1889.000000	39.304309
1888.000000	39.951657
1887.000000	40.518098
1886.000000	41.085364
1885.000000	41.656135
1884.000000	42.209899
1883.000000	42.701516
1882.000000	43.147785
1881.000000	43.577460
1880.000000	43.929528
1879.000000	44.300457
1878.000000	44.673859
1877.000000	44.999851
1876.000000	45.327699
1875.000000	45.642767
1874.000000	45.965667
1873.000000	46.254866
1872.000000	46.530563
1871.000000	46.752770
1870.000000	46.925402
1869.000000	47.127099
1868.000000	47.271596
1867.000000	47.373526
1866.000000	47.439590
1865.000000	47.513075
1864.000000	47.599752
1863.000000	47.699416
1862.000000	47.822165
1861.000000	47.946358
1860.000000	48.054988
1859.000000	48.149291
1858.000000	48.214016
1857.000000	48.261632
1856.000000	48.304816
1855.000000	48.346866
1854.000000	48.382423
1853.000000	48.371807
1852.000000	48.392008
1851.000000	48.429626
1850.000000	48.479716
1849.000000	48.529496
1848.000000	48.539390
1847.000000	48.525270
1846.000000	48.454053
1845.000000	48.373456
1844.000000	48.325841
1843.000000	48.336353
1842.000000	48.359852
1841.000000	48.348618
1840.000000	48.316153
1839.000000	48.273690
1838.000000	48.234010
1837.000000	48.191239
1836.000000	48.121258
1835.000000	48.040559
1834.000000	47.971299
1833.000000	47.913480
1832.000000	47.888126
1831.000000	47.880087
1830.000000	47.849993
1829.000000	47.804954
1828.000000	47.750432
1827.000000	47.731675
1826.000000	47.718379
1825.000000	47.693335
1824.000000	47.687460
1823.000000	47.727758
1822.000000	47.782176
1821.000000	47.808458
1820.000000	47.806809
1819.000000	47.786402
1818.000000	47.759914
1817.000000	47.748886
1816.000000	47.753731
1815.000000	47.735488
1814.000000	47.725800
1813.000000	47.705909
1812.000000	47.688800
1811.000000	47.656953
1810.000000	47.615109
1809.000000	47.592126
1808.000000	47.579449
1807.000000	47.565638
1806.000000	47.518022
1805.000000	47.475766
1804.000000	47.457524
1803.000000	47.443507
1802.000000	47.432685
1801.000000	47.410835
1800.000000	47.363838
1799.000000	47.336114
1798.000000	47.306122
1797.000000	47.294579
1796.000000	47.266133
1795.000000	47.228515
1794.000000	47.192442
1793.000000	47.178425
1792.000000	47.174097
1791.000000	47.156473
1790.000000	47.136066
1789.000000	47.138436
1788.000000	47.138127
1787.000000	47.162966
1786.000000	47.161420
1785.000000	47.173994
1784.000000	47.168222
1783.000000	47.148434
1782.000000	47.121740
1781.000000	47.101952
1780.000000	47.068662
1779.000000	47.029807
1778.000000	46.989199
1777.000000	46.942717
1776.000000	46.880982
1775.000000	46.813268
1774.000000	46.745349
1773.000000	46.689385
1772.000000	46.622393
1771.000000	46.574365
1770.000000	46.520772
1769.000000	46.469033
1768.000000	46.412760
1767.000000	46.359167
1766.000000	46.310417
1765.000000	46.278055
1764.000000	46.243323
1763.000000	46.224462
1762.000000	46.196325
1761.000000	46.187049
1760.000000	46.184370
1759.000000	46.181484
1758.000000	46.185400
1757.000000	46.199108
1756.000000	46.192924
1755.000000	46.199005
1754.000000	46.204055
1753.000000	46.192306
1752.000000	46.169941
1751.000000	46.146133
1750.000000	46.116553
1749.000000	46.069865
1748.000000	46.009882
1747.000000	45.945054
1746.000000	45.853224
1745.000000	45.760878
1744.000000	45.658845
1743.000000	45.531972
1742.000000	45.414479
1741.000000	45.293378
1740.000000	45.167846
1739.000000	45.052929
1738.000000	44.940177
1737.000000	44.837834
1736.000000	44.743530
1735.000000	44.660460
1734.000000	44.574299
1733.000000	44.494939
1732.000000	44.423515
1731.000000	44.340858
1730.000000	44.267785
1729.000000	44.172141
1728.000000	44.090721
1727.000000	44.021977
1726.000000	43.949729
1725.000000	43.899639
1724.000000	43.914481
1723.000000	43.971887
1722.000000	44.080723
1721.000000	44.264590
1720.000000	44.482880
1719.000000	44.771151
1718.000000	45.083127
1717.000000	45.390053
1716.000000	45.696360
1715.000000	45.992876
1714.000000	46.287022
1713.000000	46.526337
1712.000000	46.774310
1711.000000	46.968380
1710.000000	47.144723
1709.000000	47.332713
1708.000000	47.488958
1707.000000	47.613254
1706.000000	47.711886
1705.000000	47.798048
1704.000000	47.872358
1703.000000	47.929352
1702.000000	47.974804
1701.000000	47.974288
1700.000000	48.013350
1699.000000	48.010258
1698.000000	47.991912
1697.000000	47.985316
1696.000000	47.940174
1695.000000	47.845355
1694.000000	47.739714
1693.000000	47.583365
1692.000000	47.450927
1691.000000	47.319108
1690.000000	47.196462
1689.000000	47.146682
1688.000000	47.143280
1687.000000	47.234080
1686.000000	47.380122
1685.000000	47.570688
1684.000000	47.827215
1683.000000	48.097141
1682.000000	48.391080
1681.000000	48.666984
1680.000000	48.928767
1679.000000	49.160868
1678.000000	49.407604
1677.000000	49.636407
1676.000000	49.849544
1675.000000	50.051756
1674.000000	50.234489
1673.000000	50.439278
1672.000000	50.651282
1671.000000	50.880290
1670.000000	51.096726
1669.000000	51.326559
1668.000000	51.568348
1667.000000	51.785711
1666.000000	51.972566
1665.000000	52.172202
1664.000000	52.395130
1663.000000	52.546326
1662.000000	52.729574
1661.000000	52.892003
1660.000000	53.037221
1659.000000	53.171926
1658.000000	53.298901
1657.000000	53.387331
1656.000000	53.496373
1655.000000	53.567796
1654.000000	53.636953
1653.000000	53.676426
1652.000000	53.732287
1651.000000	53.785881
1650.000000	53.815975
1649.000000	53.831641
1648.000000	53.845143
1647.000000	53.844421
1646.000000	53.824530
1645.000000	53.817315
1644.000000	53.821541
1643.000000	53.807936
1642.000000	53.792683
1641.000000	53.782995
1640.000000	53.771245
1639.000000	53.756507
1638.000000	53.737337
1637.000000	53.726412
1636.000000	53.715694
1635.000000	53.680755
1634.000000	53.650145
1633.000000	53.610362
1632.000000	53.565529
1631.000000	53.514409
1630.000000	53.477821
1629.000000	53.427526
1628.000000	53.370531
1627.000000	53.320648
1626.000000	53.258913
1625.000000	53.215625
1624.000000	53.165845
1623.000000	53.120703
1622.000000	53.068656
1621.000000	53.015681
1620.000000	52.973527
1619.000000	52.925190
1618.000000	52.881182
1617.000000	52.847274
1616.000000	52.794402
1615.000000	52.742560
1614.000000	52.688657
1613.000000	52.623624
1612.000000	52.563434
1611.000000	52.502626
1610.000000	52.442231
1609.000000	52.368437
1608.000000	52.284748
1607.000000	52.199823
1606.000000	52.128709
1605.000000	52.040280
1604.000000	51.944224
1603.000000	51.847137
1602.000000	51.761800
1601.000000	51.669557
1600.000000	51.572986
1599.000000	51.493626
1598.000000	51.413855
1597.000000	51.336350
1596.000000	51.263690
1595.000000	51.195152
1594.000000	51.122801
1593.000000	51.054985
1592.000000	51.006338
1591.000000	50.957280
1590.000000	50.901625
1589.000000	50.843909
1588.000000	50.792170
1587.000000	50.740020
1586.000000	50.672204
1585.000000	50.630463
1584.000000	50.599131
1583.000000	50.552340
1582.000000	50.501632
1581.000000	50.468342
1580.000000	50.438969
1579.000000	50.418459
1578.000000	50.410008
1577.000000	50.398465
1576.000000	50.397125
1575.000000	50.401763
1574.000000	50.392590
1573.000000	50.394960
1572.000000	50.410420
1571.000000	50.430518
1570.000000	50.460303
1569.000000	50.493181
1568.000000	50.518741
1567.000000	50.539354
1566.000000	50.582435
1565.000000	50.615209
1564.000000	50.646231
1563.000000	50.665298
1562.000000	50.666123
1561.000000	50.668287
1560.000000	50.658496
1559.000000	50.630875
1558.000000	50.600677
1557.000000	50.561719
1556.000000	50.508950
1555.000000	50.451027
1554.000000	50.368885
1553.000000	50.282105
1552.000000	50.192954
1551.000000	50.099475
1550.000000	50.005068
1549.000000	49.896954
1548.000000	49.799867
1547.000000	49.706285
1546.000000	49.609610
1545.000000	49.527468
1544.000000	49.468412
1543.000000	49.406780
1542.000000	49.350609
1541.000000	49.305570
1540.000000	49.257749
1539.000000	49.195807
1538.000000	49.145511
1537.000000	49.105213
1536.000000	49.048219
1535.000000	48.976280
1534.000000	48.911658
1533.000000	48.838998
1532.000000	48.770254
1531.000000	48.689349
1530.000000	48.604527
1529.000000	48.514139
1528.000000	48.438284
1527.000000	48.371601
1526.000000	48.269877
1525.000000	48.173615
1524.000000	48.087556
1523.000000	48.010876
1522.000000	47.924714
1521.000000	47.828555
1520.000000	47.741054
1519.000000	47.646337
1518.000000	47.564504
1517.000000	47.450927
1516.000000	47.352707
1515.000000	47.256548
1514.000000	47.172138
1513.000000	47.067219
1512.000000	46.950447
1511.000000	46.841714
1510.000000	46.742978
1509.000000	46.648468
1508.000000	46.546023
1507.000000	46.455944
1506.000000	46.356075
1505.000000	46.254969
1504.000000	46.180556
1503.000000	46.098105
1502.000000	46.021013
1501.000000	45.970717
1500.000000	45.913517
1499.000000	45.869096
1498.000000	45.822202
1497.000000	45.810865
1496.000000	45.793859
1495.000000	45.781491
1494.000000	45.792519
1493.000000	45.805505
1492.000000	45.827973
1491.000000	45.858789
1490.000000	45.885071
1489.000000	45.923514
1488.000000	45.962575
1487.000000	45.993288
1486.000000	46.024208
1485.000000	46.075637
1484.000000	46.125829
1483.000000	46.173239
1482.000000	46.229615
1481.000000	46.291763
1480.000000	46.341234
1479.000000	46.401114
1478.000000	46.482535
1477.000000	46.556844
1476.000000	46.620023
1475.000000	46.727313
1474.000000	46.842745
1473.000000	46.969720
1472.000000	47.091748
1471.000000	47.207799
1470.000000	47.304885
1469.000000	47.411145
1468.000000	47.552961
1467.000000	47.689212
1466.000000	47.785784
1465.000000	47.904204
1464.000000	48.039116
1463.000000	48.160938
1462.000000	48.302754
1461.000000	48.425195
1460.000000	48.552891
1459.000000	48.679558
1458.000000	48.823126
1457.000000	48.972054
1456.000000	49.102224
1455.000000	49.209205
1454.000000	49.355247
1453.000000	49.497167
1452.000000	49.614248
1451.000000	49.758744
1450.000000	49.853357
1449.000000	49.947043
1448.000000	50.090405
1447.000000	50.223977
1446.000000	50.385169
1445.000000	50.474629
1444.000000	50.600059
1443.000000	50.710028
1442.000000	50.870602
1441.000000	50.972842
1440.000000	51.123007
1439.000000	51.263999
1438.000000	51.433231
1437.000000	51.535574
1436.000000	51.702229
1435.000000	51.891764
1434.000000	52.033581
1433.000000	52.241152
1432.000000	52.414816
1431.000000	52.597961
1430.000000	52.773376
1429.000000	53.014547
1428.000000	53.245926
1427.000000	53.454219
1426.000000	53.715178
1425.000000	53.983558
1424.000000	54.268531
1423.000000	54.542579
1422.000000	54.800137
1421.000000	55.141898
1420.000000	55.488607
1419.000000	55.825730
1418.000000	56.159658
1417.000000	56.417835
1416.000000	56.838131
1415.000000	57.276567
1414.000000	57.727473
1413.000000	58.082015
1412.000000	58.431918
1411.000000	58.919619
1410.000000	59.430302
1409.000000	59.937688
1408.000000	60.385297
1407.000000	60.840944
1406.000000	61.299993
1405.000000	61.749972
1404.000000	62.169547
1403.000000	62.621896
1402.000000	63.079708
1401.000000	63.633576
1400.000000	64.062839
1399.000000	64.356160
1398.000000	64.636082
1397.000000	65.048649
1396.000000	65.563662
1395.000000	65.881100
1394.000000	66.111758
1393.000000	66.412706
1392.000000	66.779306
1391.000000	67.062732
1390.000000	67.372441
1389.000000	67.737907
1388.000000	68.122337
1387.000000	68.384739
1386.000000	68.689603
1385.000000	69.065994
1384.000000	69.353338
1383.000000	69.569567
1382.000000	69.797339
1381.000000	69.963994
1380.000000	70.061699
1379.000000	70.187025
1378.000000	70.310599
1377.000000	70.432421
1376.000000	70.547647
1375.000000	70.690288
1374.000000	70.805823
1373.000000	71.000306
1372.000000	71.133259
1371.000000	71.295070
1370.000000	71.400195
1369.000000	71.575405
1368.000000	71.714954
1367.000000	71.807815
1366.000000	71.930977
1365.000000	72.055994
1364.000000	72.144526
1363.000000	72.259340
1362.000000	72.412700
1361.000000	72.443928
1360.000000	72.412081
1359.000000	72.520505
1358.000000	72.586054
1357.000000	72.695096
1356.000000	72.824545
1355.000000	72.979038
1354.000000	73.079114
1353.000000	73.198565
1352.000000	73.437365
1351.000000	73.655140
1350.000000	73.864258
1349.000000	74.094194
1348.000000	74.314340
1347.000000	74.509234
1346.000000	74.711653
1345.000000	74.947258
1344.000000	75.157509
1343.000000	75.312724
1342.000000	75.485357
1341.000000	75.677675
1340.000000	75.842681
1339.000000	75.981715
1338.000000	76.121058
1337.000000	76.272768
1336.000000	76.402217
1335.000000	76.519608
1334.000000	76.634937
1333.000000	76.746864
1332.000000	76.847661
1331.000000	76.946500
1330.000000	77.036784
1329.000000	77.124080
1328.000000	77.209623
1327.000000	77.272080
1326.000000	77.345565
1325.000000	77.416680
1324.000000	77.485424
1323.000000	77.541491
1322.000000	77.592920
1321.000000	77.652594
1320.000000	77.708661
1319.000000	77.764006
1318.000000	77.815848
1317.000000	77.879232
1316.000000	77.932826
1315.000000	77.975495
1314.000000	78.026924
1313.000000	78.090617
1312.000000	78.137512
1311.000000	78.173790
1310.000000	78.214088
1309.000000	78.249130
1308.000000	78.283966
1307.000000	78.316431
1306.000000	78.347351
1305.000000	78.374354
1304.000000	78.391153
1303.000000	78.408365
1302.000000	78.424546
1301.000000	78.457320
1300.000000	78.478655
1299.000000	78.481540
1298.000000	78.483499
1297.000000	78.490713
1296.000000	78.493187
1295.000000	78.486281
1294.000000	78.480922
1293.000000	78.473295
1292.000000	78.472265
1291.000000	78.452682
1290.000000	78.428875
1289.000000	78.416919
1288.000000	78.398471
1287.000000	78.362707
1286.000000	78.327665
1285.000000	78.306846
1284.000000	78.277782
1283.000000	78.246245
1282.000000	78.217283
1281.000000	78.189971
1280.000000	78.157197
1279.000000	78.131328
1278.000000	78.121743
1277.000000	78.103191
1276.000000	78.091957
1275.000000	78.083918
1274.000000	78.074539
1273.000000	78.078456
1272.000000	78.075776
1271.000000	78.071860
1270.000000	78.080414
1269.000000	78.090308
1268.000000	78.086804
1267.000000	78.079486
1266.000000	78.094637
1265.000000	78.093194
1264.000000	78.093709
1263.000000	78.093091
1262.000000	78.091442
1261.000000	78.092576
1260.000000	78.090102
1259.000000	78.094431
1258.000000	78.094019
1257.000000	78.099275
1256.000000	78.101336
1255.000000	78.075055
1254.000000	78.066294
1253.000000	78.045269
1252.000000	78.018782
1251.000000	78.005486
1250.000000	77.956428
1249.000000	77.918088
1248.000000	77.890157
1247.000000	77.818631
1246.000000	77.768954
1245.000000	77.727419
1244.000000	77.680627
1243.000000	77.623324
1242.000000	77.551900
1241.000000	77.514179
1240.000000	77.472850
1239.000000	77.424409
1238.000000	77.388543
1237.000000	77.342473
1236.000000	77.299392
1235.000000	77.265175
1234.000000	77.224465
1233.000000	77.194164
1232.000000	77.172829
1231.000000	77.137169
1230.000000	77.094088
1229.000000	77.070280
1228.000000	77.038021
1227.000000	77.002567
1226.000000	76.966804
1225.000000	76.948974
1224.000000	76.912489
1223.000000	76.883528
1222.000000	76.853330
1221.000000	76.828491
1220.000000	76.806848
1219.000000	76.764695
1218.000000	76.740887
1217.000000	76.714605
1216.000000	76.695538
1215.000000	76.666371
1214.000000	76.626898
1213.000000	76.590104
1212.000000	76.564956
1211.000000	76.514351
1210.000000	76.481577
1209.000000	76.406031
1208.000000	76.367072
1207.000000	76.321312
1206.000000	76.234738
1205.000000	76.203303
1204.000000	76.151874
1203.000000	76.099723
1202.000000	76.039225
1201.000000	75.970481
1200.000000	75.902871
1199.000000	75.840207
1198.000000	75.772185
1197.000000	75.694371
1196.000000	75.620165
1195.000000	75.545134
1194.000000	75.442276
1193.000000	75.381365
1192.000000	75.302315
1191.000000	75.220791
1190.000000	75.141431
1189.000000	75.079386
1188.000000	75.039810
1187.000000	75.039088
1186.000000	75.044448
1185.000000	75.047952
1184.000000	75.063102
1183.000000	75.105049
1182.000000	75.154726
1181.000000	75.205228
1180.000000	75.278094
1179.000000	75.336223
1178.000000	75.411872
1177.000000	75.465981
1176.000000	75.538229
1175.000000	75.609240
1174.000000	75.682828
1173.000000	75.754458
1172.000000	75.849689
1171.000000	75.966770
1170.000000	76.074473
1169.000000	76.201757
1168.000000	76.341203
1167.000000	76.471889
1166.000000	76.636379
1165.000000	76.783968
1164.000000	76.938152
1163.000000	77.104601
1162.000000	77.269401
1161.000000	77.440694
1160.000000	77.586324
1159.000000	77.755864
1158.000000	77.879129
1157.000000	78.021358
1156.000000	78.163690
1155.000000	78.281080
1154.000000	78.394451
1153.000000	78.495248
1152.000000	78.593056
1151.000000	78.640466
1150.000000	78.724154
1149.000000	78.797433
1148.000000	78.885347
1147.000000	78.931829
1146.000000	78.996450
1145.000000	79.076840
1144.000000	79.113222
1143.000000	79.186398
1142.000000	79.287401
1141.000000	79.364699
1140.000000	79.469515
1139.000000	79.573816
1138.000000	79.677705
1137.000000	79.799836
1136.000000	79.952784
1135.000000	80.097383
1134.000000	80.195810
1133.000000	80.257545
1132.000000	80.354632
1131.000000	80.455944
1130.000000	80.572510
1129.000000	80.660012
1128.000000	80.737516
1127.000000	80.799251
1126.000000	80.873149
1125.000000	80.926639
1124.000000	80.973430
1123.000000	81.005174
1122.000000	81.024138
1121.000000	81.028570
1120.000000	81.048667
1119.000000	81.066806
1118.000000	81.079896
1117.000000	81.068971
1116.000000	81.071238
1115.000000	81.095871
1114.000000	81.085049
1113.000000	81.088450
1112.000000	81.085152
1111.000000	81.076701
1110.000000	81.097107
1109.000000	81.102261
1108.000000	81.091542
1107.000000	81.087935
1106.000000	81.081648
1105.000000	81.077628
1104.000000	81.080720
1103.000000	81.076082
1102.000000	81.072372
1101.000000	81.053511
1100.000000	81.036506
1099.000000	81.029188
1098.000000	81.027436
1097.000000	81.031765
1096.000000	81.017336
1095.000000	81.001670
1094.000000	80.983015
1093.000000	80.969720
1092.000000	80.944675
1091.000000	80.943232
1090.000000	80.924681
1089.000000	80.921280
1088.000000	80.897987
1087.000000	80.881188
1086.000000	80.856349
1085.000000	80.835839
1084.000000	80.822647
1083.000000	80.804405
1082.000000	80.779257
1081.000000	80.744627
1080.000000	80.719583
1079.000000	80.713399
1078.000000	80.682067
1077.000000	80.654240
1076.000000	80.652076
1075.000000	80.621569
1074.000000	80.590855
1073.000000	80.580034
1072.000000	80.545919
1071.000000	80.518504
1070.000000	80.496139
1069.000000	80.476866
1068.000000	80.436671
1067.000000	80.412657
1066.000000	80.387612
1065.000000	80.360610
1064.000000	80.344738
1063.000000	80.327217
1062.000000	80.313818
1061.000000	80.286197
1060.000000	80.258988
1059.000000	80.244353
1058.000000	80.234562
1057.000000	80.217041
1056.000000	80.195604
1055.000000	80.176743
1054.000000	80.172002
1053.000000	80.162211
1052.000000	80.141701
1051.000000	80.135929
1050.000000	80.120882
1049.000000	80.122119
1048.000000	80.120676
1047.000000	80.110679
1046.000000	80.099857
1045.000000	80.112534
1044.000000	80.108102
1043.000000	80.094497
1042.000000	80.111915
1041.000000	80.129539
1040.000000	80.130982
1039.000000	80.135723
1038.000000	80.137681
1037.000000	80.139537
1036.000000	80.139434
1035.000000	80.150358
1034.000000	80.170250
1033.000000	80.178701
1032.000000	80.179113
1031.000000	80.188904
1030.000000	80.195913
1029.000000	80.200654
1028.000000	80.212197
1027.000000	80.214155
1026.000000	80.193748
1025.000000	80.200757
1024.000000	80.219411
1023.000000	80.207765
1022.000000	80.210445
1021.000000	80.215907
1020.000000	80.207765
1019.000000	80.219102
1018.000000	80.216526
1017.000000	80.208177
1016.000000	80.226420
1015.000000	80.248785
1014.000000	80.261152
1013.000000	80.263729
1012.000000	80.277952
1011.000000	80.293618
1010.000000	80.312479
1009.000000	80.323506
1008.000000	80.326289
1007.000000	80.339997
1006.000000	80.355456
1005.000000	80.364732
1004.000000	80.379058
1003.000000	80.386170
1002.000000	80.417707
1001.000000	80.446978
1000.000000	80.465632
999.000000	80.482329
998.000000	80.506240
997.000000	80.546332
996.000000	80.577766
995.000000	80.593844
994.000000	80.631566
993.000000	80.696084
992.000000	80.748956
991.000000	80.779360
990.000000	80.836664
989.000000	80.883352
988.000000	80.953539
987.000000	81.013522
986.000000	81.055676
985.000000	81.125244
984.000000	81.205325
983.000000	81.271286
982.000000	81.349615
981.000000	81.424440
980.000000	81.490607
979.000000	81.586869
978.000000	81.679833
977.000000	81.755689
976.000000	81.818661
975.000000	81.894825
974.000000	81.988202
973.000000	82.063851
972.000000	82.167740
971.000000	82.228857
970.000000	82.285336
969.000000	82.361604
968.000000	82.434573
967.000000	82.501977
966.000000	82.558457
965.000000	82.632148
964.000000	82.699552
963.000000	82.760978
962.000000	82.833742
961.000000	82.888778
960.000000	82.965046
959.000000	83.008642
958.000000	83.060380
957.000000	83.122219
956.000000	83.149634
955.000000	83.187871
954.000000	83.253832
953.000000	83.282690
952.000000	83.332882
951.000000	83.388846
950.000000	83.418941
949.000000	83.457693
948.000000	83.509019
947.000000	83.531178
946.000000	83.564880
945.000000	83.639499
944.000000	83.655680
943.000000	83.665059
942.000000	83.731123
941.000000	83.775853
940.000000	83.819964
939.000000	83.850574
938.000000	83.924369
937.000000	83.955906
936.000000	84.004037
935.000000	84.064948
934.000000	84.121531
933.000000	84.163787
932.000000	84.247475
931.000000	84.288083
930.000000	84.325392
929.000000	84.422375
928.000000	84.446286
927.000000	84.480298
926.000000	84.542033
925.000000	84.640872
924.000000	84.670142
923.000000	84.732393
922.000000	84.788048
921.000000	84.834736
920.000000	84.891009
919.000000	84.953878
918.000000	85.012831
917.000000	85.035608
916.000000	85.132798
915.000000	85.152999
914.000000	85.181444
913.000000	85.229988
912.000000	85.258743
911.000000	85.295124
910.000000	85.346760
909.000000	85.336041
908.000000	85.387573
907.000000	85.401384
906.000000	85.411381
905.000000	85.425707
904.000000	85.430448
903.000000	85.436941
902.000000	85.406640
901.000000	85.389737
900.000000	85.392314
899.000000	85.383244
898.000000	85.351397
897.000000	85.306874
896.000000	85.275542
895.000000	85.256578
894.000000	85.228029
893.000000	85.165572
892.000000	85.149391
891.000000	85.129912
890.000000	85.113834
889.000000	85.091881
888.000000	85.048079
887.000000	85.062611
886.000000	85.051583
885.000000	85.061271
884.000000	85.066218
883.000000	85.095798
882.000000	85.092191
881.000000	85.099714
880.000000	85.121770
879.000000	85.160007
878.000000	85.194533
877.000000	85.238027
876.000000	85.282963
875.000000	85.350470
874.000000	85.388398
873.000000	85.441063
872.000000	85.504757
871.000000	85.563916
870.000000	85.592362
869.000000	85.640699
868.000000	85.648635
867.000000	85.644306
866.000000	85.634721
865.000000	85.602977
864.000000	85.564534
863.000000	85.562061
862.000000	85.584941
861.000000	85.628537
860.000000	85.693880
859.000000	85.706248
858.000000	86.166533
857.000000	86.189200
856.000000	86.282100
855.000000	86.028300
854.000000	85.914400
853.000000	85.598900
852.000000	86.123300
851.000000	85.593000
850.000000	85.502300
849.000000	85.779000
848.000000	86.087000
847.000000	85.812300
846.000000	85.902800
845.000000	85.966700
844.000000	85.545800
843.000000	85.537000
842.000000	85.380900
841.000000	85.112400
840.000000	85.512100
839.000000	85.125800
838.000000	85.200800
837.000000	85.305200
836.000000	85.024800
835.000000	85.031000
834.000000	85.170300
833.000000	84.952600
832.000000	84.969300
831.000000	84.853400
830.000000	84.744700
829.000000	84.780900
828.000000	84.741500
827.000000	84.584100
826.000000	84.756600
825.000000	84.718300
824.000000	84.462200
823.000000	84.653100
822.000000	84.694700
821.000000	84.905200
820.000000	84.915500
819.000000	85.016900
818.000000	85.165600
817.000000	84.930400
816.000000	85.082500
815.000000	85.396900
814.000000	85.463500
813.000000	85.461200
812.000000	85.527400
811.000000	85.546600
810.000000	85.806300
809.000000	85.925400
808.000000	86.130600
807.000000	86.299200
806.000000	86.361700
805.000000	86.442400
804.000000	86.605000
803.000000	86.744000
802.000000	87.019600
801.000000	87.208500
800.000000	87.467300
799.000000	87.517600
798.000000	87.529300
797.000000	87.648900
796.000000	87.878400
795.000000	88.074600
794.000000	88.061700
793.000000	87.957400
792.000000	87.987900
791.000000	88.001700
790.000000	87.923800
789.000000	87.893500
788.000000	87.723900
787.000000	87.576100
786.000000	87.482400
785.000000	87.414600
784.000000	87.299800
783.000000	87.278000
782.000000	87.141000
781.000000	86.968200
780.000000	86.822100
779.000000	86.747800
778.000000	86.648600
777.000000	86.485300
776.000000	86.304000
775.000000	86.233200
774.000000	86.251800
773.000000	86.324600
772.000000	86.319300
771.000000	86.313800
770.000000	86.371000
769.000000	86.448300
768.000000	86.594900
767.000000	86.807500
766.000000	86.836900
765.000000	86.905200
764.000000	87.116000
763.000000	87.193400
762.000000	87.372000
761.000000	87.559700
760.000000	87.560800
759.000000	87.599100
758.000000	87.715600
757.000000	87.790500
756.000000	87.851200
755.000000	87.905100
754.000000	87.931200
753.000000	87.954900
752.000000	87.956300
751.000000	87.927000
750.000000	87.863500
749.000000	87.889000
748.000000	87.947000
747.000000	87.905600
746.000000	87.844800
745.000000	87.747900
744.000000	87.680000
743.000000	87.612200
742.000000	87.544400
741.000000	87.521000
740.000000	87.371600
739.000000	87.227300
738.000000	87.119600
737.000000	87.033100
736.000000	86.991200
735.000000	86.914800
734.000000	86.830900
733.000000	86.789900
732.000000	86.768800
731.000000	86.659100
730.000000	86.485200
729.000000	86.372600
728.000000	86.294000
727.000000	86.242700
726.000000	86.127700
725.000000	86.023300
724.000000	85.849200
723.000000	85.614100
722.000000	85.374200
721.000000	85.194500
720.000000	84.907100
719.000000	84.570300
718.000000	84.264800
717.000000	83.944300
716.000000	83.672500
715.000000	83.313000
714.000000	82.898200
713.000000	82.500400
712.000000	82.125700
711.000000	81.749200
710.000000	81.339700
709.000000	80.851300
708.000000	80.383300
707.000000	79.994300
706.000000	79.658000
705.000000	79.274400
704.000000	78.840700
703.000000	78.442900
702.000000	78.058900
701.000000	77.728200
700.000000	77.475900
699.000000	77.244900
698.000000	77.014300
697.000000	76.842500
696.000000	76.714500
695.000000	76.574800
694.000000	76.422300
693.000000	76.340000
692.000000	76.350900
691.000000	76.202100
690.000000	76.155400
689.000000	76.129500
688.000000	76.209800
687.000000	76.132000
686.000000	76.136000
685.000000	76.127000
684.000000	76.111200
683.000000	76.115200
682.000000	76.119700
681.000000	76.034400
680.000000	76.025400
679.000000	76.041500
678.000000	76.028400
677.000000	75.998100
676.000000	75.944500
675.000000	75.901000
674.000000	75.957800
673.000000	75.973800
672.000000	75.895600
671.000000	75.769100
670.000000	75.671600
669.000000	75.615300
668.000000	75.449900
667.000000	75.335000
666.000000	75.157300
665.000000	74.971900
664.000000	74.728700
663.000000	74.448600
662.000000	74.213400
661.000000	73.916400
660.000000	73.564000
659.000000	73.184400
658.000000	72.795900
657.000000	72.404200
656.000000	71.942600
655.000000	71.429700
654.000000	70.921600
653.000000	70.386800
652.000000	69.708800
651.000000	69.093900
650.000000	68.343700
649.000000	67.571800
648.000000	66.764200
647.000000	65.896000
646.000000	65.010700
645.000000	64.104200
644.000000	63.176500
643.000000	62.187200
642.000000	61.282900
641.000000	60.282900
640.000000	59.281600
639.000000	58.422600
638.000000	57.548700
637.000000	56.699100
636.000000	55.888700
635.000000	55.213600
634.000000	54.639400
633.000000	54.197200
632.000000	53.741700
631.000000	53.524700
630.000000	53.445000
629.000000	53.524400
628.000000	53.778900
627.000000	54.132800
626.000000	54.633700
625.000000	55.256700
624.000000	56.141900
623.000000	57.071900
622.000000	58.106100
621.000000	59.250500
620.000000	60.445000
619.000000	61.650400
618.000000	62.884900
617.000000	64.146200
616.000000	65.391200
615.000000	66.647100
614.000000	67.858000
613.000000	69.035600
612.000000	70.197800
611.000000	71.325100
610.000000	72.379900
609.000000	73.504500
608.000000	74.534600
607.000000	75.488800
606.000000	76.486800
605.000000	77.416000
604.000000	78.354800
603.000000	79.206600
602.000000	80.074400
601.000000	80.877500
600.000000	81.645600
599.000000	82.335400
598.000000	83.018800
597.000000	83.661600
596.000000	84.168000
595.000000	84.739300
594.000000	85.146100
593.000000	85.609100
592.000000	86.027800
591.000000	86.385700
590.000000	86.849400
589.000000	87.110600
588.000000	87.370700
587.000000	87.619400
586.000000	87.855000
585.000000	88.165000
584.000000	88.339000
583.000000	88.436900
582.000000	88.649200
581.000000	88.791200
580.000000	88.949400
579.000000	89.055900
578.000000	89.138500
577.000000	89.189300
576.000000	89.245300
575.000000	89.255300
574.000000	89.257200
573.000000	89.260300
572.000000	89.265100
571.000000	89.250300
570.000000	89.231500
569.000000	89.093100
568.000000	89.022300
567.000000	88.966900
566.000000	88.813300
565.000000	88.658600
564.000000	88.505200
563.000000	88.324100
562.000000	88.184700
561.000000	87.978200
560.000000	87.783400
559.000000	87.602400
558.000000	87.385200
557.000000	87.166100
556.000000	86.903500
555.000000	86.634900
554.000000	86.404900
553.000000	86.109500
552.000000	85.841300
551.000000	85.494500
550.000000	85.203900
549.000000	84.832200
548.000000	84.489400
547.000000	84.086700
546.000000	83.666600
545.000000	83.236100
544.000000	82.712200
543.000000	82.190600
542.000000	81.641600
541.000000	81.000200
540.000000	80.342800
539.000000	79.627300
538.000000	78.901000
537.000000	78.076500
536.000000	77.252300
535.000000	76.389000
534.000000	75.470700
533.000000	74.533000
532.000000	73.536200
531.000000	72.531500
530.000000	71.451400
529.000000	70.368800
528.000000	69.298200
527.000000	68.171500
526.000000	67.000700
525.000000	65.832800
524.000000	64.634100
523.000000	63.465200
522.000000	62.265100
521.000000	61.001500
520.000000	59.767600
519.000000	58.526600
518.000000	57.259600
517.000000	56.026000
516.000000	54.794600
515.000000	53.502100
514.000000	52.208800
513.000000	50.932200
512.000000	49.644000
511.000000	48.350800
510.000000	47.051800
509.000000	45.767000
508.000000	44.525100
507.000000	43.308800
506.000000	42.091600
505.000000	40.883000
504.000000	39.686000
503.000000	38.505300
502.000000	37.372200
501.000000	36.287400
500.000000	35.229300
499.000000	34.258300
498.000000	33.317900
497.000000	32.420600
496.000000	31.619100
495.000000	30.866900
494.000000	30.159100
493.000000	29.539800
492.000000	29.007700
491.000000	28.533300
490.000000	28.140900
489.000000	27.822900
488.000000	27.550700
487.000000	27.337000
486.000000	27.214200
485.000000	27.115500
484.000000	27.058100
483.000000	27.039400
482.000000	27.059800
481.000000	27.094300
480.000000	27.132400
479.000000	27.211600
478.000000	27.287000
477.000000	27.387000
476.000000	27.479500
475.000000	27.555500
474.000000	27.626200
473.000000	27.693100
472.000000	27.721200
471.000000	27.731400
470.000000	27.737300
469.000000	27.699200
468.000000	27.632100
467.000000	27.539200
466.000000	27.422700
465.000000	27.313300
464.000000	27.181800
463.000000	27.022700
462.000000	26.865600
461.000000	26.691900
460.000000	26.483700
459.000000	26.283700
458.000000	26.093200
457.000000	25.886400
456.000000	25.670700
455.000000	25.443500
454.000000	25.208000
453.000000	24.962900
452.000000	24.708000
451.000000	24.440800
450.000000	24.183400
449.000000	23.913900
448.000000	23.642400
447.000000	23.373300
446.000000	23.094900
445.000000	22.809700
444.000000	22.505200
443.000000	22.210800
442.000000	21.883600
441.000000	21.535500
440.000000	21.205900
439.000000	20.895100
438.000000	20.547500
437.000000	20.183300
436.000000	19.809100
435.000000	19.430000
434.000000	19.062800
433.000000	18.681000
432.000000	18.278800
431.000000	17.841200
430.000000	17.424900
429.000000	16.992800
428.000000	16.559100
427.000000	16.137600
426.000000	15.703200
425.000000	15.278400
424.000000	14.847300
423.000000	14.397700
422.000000	13.947300
421.000000	13.499800
420.000000	13.058400
419.000000	12.643200
418.000000	12.245100
417.000000	11.852900
416.000000	11.470700
415.000000	11.112200
414.000000	10.769000
413.000000	10.421100
412.000000	10.093500
411.000000	9.795000
410.000000	9.518500
409.000000	9.251000
408.000000	9.003300
407.000000	8.782200
406.000000	8.575400
405.000000	8.389200
404.000000	8.222900
403.000000	8.061300
402.000000	7.912900
401.000000	7.785400
400.000000	7.662800
399.000000	7.547100
398.000000	7.440800
397.000000	7.344100
396.000000	7.265800
395.000000	7.211100
394.000000	7.142700
393.000000	7.077500
392.000000	7.022200
391.000000	6.966000
390.000000	6.926900
389.000000	6.873600
388.000000	6.853300
387.000000	6.810800
386.000000	6.765900
385.000000	6.737100
384.000000	6.723900
383.000000	6.712100
382.000000	6.673400
381.000000	6.629700
380.000000	6.629600
379.000000	6.606800
378.000000	6.557400
377.000000	6.549900
376.000000	6.609000
375.000000	6.471100
374.000000	6.546800
373.000000	6.459800
372.000000	6.345800
371.000000	6.359900
370.000000	6.440300
369.000000	6.447600
368.000000	6.415300
367.000000	6.317700
366.000000	6.464300
365.000000	6.312900
364.000000	6.380000
363.000000	6.380500
362.000000	6.465000
361.000000	6.359300
360.000000	6.351200
359.000000	6.302000
358.000000	6.343800
357.000000	6.352000
356.000000	6.365000
355.000000	6.370500
354.000000	6.268000
353.000000	6.308000
352.000000	6.322300
351.000000	6.382200
350.000000	6.253200
349.000000	6.278700
348.000000	6.279500
347.000000	6.341900
346.000000	6.436400
345.000000	6.313900
344.000000	6.237200
343.000000	6.307000
342.000000	6.512900
341.000000	6.426700
340.000000	6.466500
339.000000	6.333900
338.000000	6.407900
337.000000	6.462700
336.000000	6.376400
335.000000	6.424000
334.000000	6.318900
333.000000	6.438100
332.000000	6.467700
331.000000	6.295100
330.000000	6.638700
329.000000	6.545300
328.000000	6.495700
327.000000	6.450600
326.000000	6.460800
325.000000	6.526300
324.000000	6.441900
323.000000	6.809100
322.000000	6.877600
321.000000	6.766000
320.000000	6.693700
319.000000	7.007500
318.000000	6.915200
317.000000	6.400000
316.000000	6.270900
315.000000	6.307800
314.000000	6.305200
313.000000	6.264700
312.000000	6.225100
311.000000	6.304100
310.000000	6.267600
309.000000	6.309500
308.000000	6.339400
307.000000	6.219300
306.000000	6.299000
305.000000	6.310000
304.000000	6.286900
303.000000	6.289500
302.000000	6.349100
301.000000	6.318600
300.000000	6.255300
299.000000	6.240400
298.000000	6.333600
297.000000	6.291500
296.000000	6.284000
295.000000	6.327700
294.000000	6.310500
293.000000	6.334300
292.000000	6.330900
291.000000	6.322800
290.000000	6.348700
289.000000	6.318200
288.000000	6.327200
287.000000	6.371100
286.000000	6.313000
285.000000	6.347600
284.000000	6.329000
283.000000	6.427500
282.000000	6.411000
281.000000	6.380500
280.000000	6.413600
279.000000	6.400500
278.000000	6.407800
277.000000	6.429600
276.000000	6.444700
275.000000	6.441400
274.000000	6.443900
273.000000	6.476900
272.000000	6.503300
271.000000	6.484800
270.000000	6.515300
269.000000	6.510500
268.000000	6.525000
267.000000	6.559000
266.000000	6.567400
265.000000	6.631600
264.000000	6.626500
263.000000	6.646200
262.000000	6.684000
261.000000	6.727600
260.000000	6.819000
259.000000	6.807600
258.000000	6.833200
257.000000	6.860900
256.000000	6.830600
255.000000	6.912200
254.000000	6.916200
253.000000	6.893200
252.000000	6.933600
251.000000	6.974000
250.000000	7.020600
