PE UV       SUBTECH     SPECTRUM    ASCII       PEDS        4.00        
   -1
INBUCR0132-4.Sample.ASC
24/02/07
12:35:23.00
24/02/07
12:35:23.00
Vinicio Soto Monge
Color café con ambos élitros (Det: A. Solís) COSTA RICA Prov. Limón. Veragua Rainforest. Campamento. 400-440 m. 24-27 FEB 2009. R. Villalobos. Tp. Luz Mercurio. L_N_212220_625230 #95892 INB0004200339 INBIOCRI COSTA RICA 
250,000000
1
Lambda 1050
1050L1511233
PerkinElmer UV WinLab 6.3.2.0749 / 2.02.05 Lambda 900 UV/VIS/NIR, Aug  7 2015 09:38:08

0
0
3350/servo 860,8/2
0
0
UV/VIS
1
1
1
DoubleDePol,CommonBeamDepol,RBeamAtt,SBeamAtt,60mm sphere, WB InGaAs Detector
0
0
0
0
Program
Program
3350/servo 860,8/2
3350/0,2 860,8/0,2
3350/0,2 860,8/0,2
0
15.00
 
 
 
0
 
860,8
319,2
860,8
Front
100
on
S:100 R:100
0
0
0
0
 
0
 
 
 
0
 
 
0
0
0
0
0
 
 
 
 
0
0


0
0
#HDR
-1
-1
#GR
nm
%R
1.0
0.0
2500,000000
-1,000000
2251
8
16,320100
1,256600
#DATA

250.000000	nan
251.000000	nan
252.000000	nan
253.000000	nan
254.000000	nan
255.000000	nan
256.000000	nan
257.000000	nan
258.000000	nan
259.000000	3.994555
260.000000	3.984057
261.000000	3.970759
262.000000	3.956564
263.000000	3.940053
264.000000	3.922160
265.000000	3.904892
266.000000	3.886738
267.000000	3.870761
268.000000	3.854724
269.000000	3.837400
270.000000	3.819208
271.000000	3.804606
272.000000	3.790131
273.000000	3.776611
274.000000	3.762848
275.000000	3.749732
276.000000	3.738650
277.000000	3.728159
278.000000	3.717447
279.000000	3.707897
280.000000	3.699739
281.000000	3.689667
282.000000	3.680850
283.000000	3.672718
284.000000	3.667255
285.000000	3.662095
286.000000	3.657938
287.000000	3.652224
288.000000	3.649471
289.000000	3.647005
290.000000	3.643638
291.000000	3.642232
292.000000	3.641315
293.000000	3.641080
294.000000	3.639813
295.000000	3.641014
296.000000	3.637476
297.000000	3.636682
298.000000	3.634487
299.000000	3.632101
300.000000	3.630782
301.000000	3.630067
302.000000	3.629446
303.000000	3.626061
304.000000	3.623380
305.000000	3.619466
306.000000	3.617238
307.000000	3.612760
308.000000	3.610299
309.000000	3.610594
310.000000	3.607119
311.000000	3.603647
312.000000	3.599745
313.000000	3.598487
314.000000	3.596984
315.000000	3.597262
316.000000	3.599718
317.000000	3.620178
318.000000	3.633231
319.000000	3.643528
320.000000	3.657739
321.000000	3.667129
322.000000	3.683142
323.000000	3.689226
324.000000	3.701850
325.000000	3.712790
326.000000	3.721120
327.000000	3.710497
328.000000	3.702286
329.000000	3.696456
330.000000	3.690083
331.000000	3.686712
332.000000	3.676985
333.000000	3.677702
334.000000	3.673989
335.000000	3.666381
336.000000	3.660293
337.000000	3.659772
338.000000	3.658612
339.000000	3.657507
340.000000	3.656227
341.000000	3.654192
342.000000	3.651864
343.000000	3.649626
344.000000	3.645543
345.000000	3.642527
346.000000	3.643221
347.000000	3.635936
348.000000	3.634208
349.000000	3.631240
350.000000	3.628629
351.000000	3.628839
352.000000	3.626221
353.000000	3.623890
354.000000	3.623421
355.000000	3.622970
356.000000	3.619116
357.000000	3.617677
358.000000	3.615511
359.000000	3.615055
360.000000	3.612432
361.000000	3.610390
362.000000	3.610075
363.000000	3.607430
364.000000	3.603719
365.000000	3.600709
366.000000	3.599172
367.000000	3.599761
368.000000	3.598655
369.000000	3.593667
370.000000	3.590758
371.000000	3.586420
372.000000	3.584022
373.000000	3.583637
374.000000	3.581566
375.000000	3.578166
376.000000	3.572757
377.000000	3.558074
378.000000	3.544173
379.000000	3.531448
380.000000	3.518102
381.000000	3.505452
382.000000	3.492611
383.000000	3.478915
384.000000	3.465548
385.000000	3.455498
386.000000	3.446106
387.000000	3.445187
388.000000	3.444924
389.000000	3.444609
390.000000	3.444208
391.000000	3.444653
392.000000	3.444618
393.000000	3.444661
394.000000	3.445490
395.000000	3.445836
396.000000	3.446714
397.000000	3.447302
398.000000	3.448150
399.000000	3.449189
400.000000	3.450500
401.000000	3.451635
402.000000	3.452768
403.000000	3.454467
404.000000	3.456536
405.000000	3.458636
406.000000	3.460903
407.000000	3.463682
408.000000	3.466467
409.000000	3.470043
410.000000	3.473977
411.000000	3.477970
412.000000	3.482580
413.000000	3.487623
414.000000	3.493048
415.000000	3.499116
416.000000	3.505897
417.000000	3.513737
418.000000	3.522168
419.000000	3.531148
420.000000	3.540868
421.000000	3.551212
422.000000	3.562174
423.000000	3.573856
424.000000	3.586222
425.000000	3.599534
426.000000	3.613400
427.000000	3.627970
428.000000	3.643124
429.000000	3.659064
430.000000	3.675965
431.000000	3.693610
432.000000	3.711625
433.000000	3.730311
434.000000	3.749909
435.000000	3.770031
436.000000	3.790722
437.000000	3.812062
438.000000	3.834220
439.000000	3.856588
440.000000	3.878775
441.000000	3.901349
442.000000	3.924864
443.000000	3.949123
444.000000	3.973510
445.000000	3.997804
446.000000	4.022291
447.000000	4.047262
448.000000	4.072077
449.000000	4.097430
450.000000	4.123437
451.000000	4.149863
452.000000	4.176019
453.000000	4.202032
454.000000	4.228819
455.000000	4.256258
456.000000	4.283727
457.000000	4.311329
458.000000	4.339800
459.000000	4.368570
460.000000	4.397384
461.000000	4.425929
462.000000	4.455180
463.000000	4.485012
464.000000	4.514289
465.000000	4.543624
466.000000	4.573425
467.000000	4.603247
468.000000	4.633318
469.000000	4.663390
470.000000	4.693637
471.000000	4.724351
472.000000	4.755024
473.000000	4.786114
474.000000	4.817705
475.000000	4.849724
476.000000	4.882000
477.000000	4.914558
478.000000	4.947157
479.000000	4.979955
480.000000	5.013294
481.000000	5.047235
482.000000	5.081797
483.000000	5.116214
484.000000	5.150573
485.000000	5.185061
486.000000	5.220366
487.000000	5.256346
488.000000	5.292728
489.000000	5.329726
490.000000	5.367305
491.000000	5.405266
492.000000	5.443371
493.000000	5.482445
494.000000	5.522368
495.000000	5.562714
496.000000	5.603681
497.000000	5.645010
498.000000	5.687060
499.000000	5.729929
500.000000	5.772781
501.000000	5.816488
502.000000	5.861239
503.000000	5.905863
504.000000	5.951052
505.000000	5.997044
506.000000	6.043557
507.000000	6.090338
508.000000	6.137897
509.000000	6.185877
510.000000	6.235071
511.000000	6.284741
512.000000	6.335336
513.000000	6.386728
514.000000	6.438808
515.000000	6.492010
516.000000	6.545653
517.000000	6.600403
518.000000	6.655576
519.000000	6.711733
520.000000	6.768565
521.000000	6.826793
522.000000	6.885488
523.000000	6.945589
524.000000	7.007007
525.000000	7.069347
526.000000	7.132449
527.000000	7.196776
528.000000	7.262293
529.000000	7.328818
530.000000	7.396122
531.000000	7.464255
532.000000	7.533806
533.000000	7.604313
534.000000	7.675757
535.000000	7.747712
536.000000	7.821263
537.000000	7.895645
538.000000	7.970674
539.000000	8.046535
540.000000	8.123455
541.000000	8.200911
542.000000	8.279001
543.000000	8.357491
544.000000	8.436985
545.000000	8.517217
546.000000	8.598050
547.000000	8.679350
548.000000	8.761439
549.000000	8.844193
550.000000	8.927532
551.000000	9.011737
552.000000	9.096316
553.000000	9.181507
554.000000	9.267199
555.000000	9.353304
556.000000	9.440071
557.000000	9.527067
558.000000	9.615498
559.000000	9.703321
560.000000	9.786419
561.000000	9.869229
562.000000	9.952112
563.000000	10.036720
564.000000	10.121214
565.000000	10.207007
566.000000	10.292352
567.000000	10.379022
568.000000	10.465084
569.000000	10.552854
570.000000	10.646601
571.000000	10.741749
572.000000	10.837896
573.000000	10.934195
574.000000	11.030864
575.000000	11.127862
576.000000	11.226204
577.000000	11.324904
578.000000	11.424602
579.000000	11.524467
580.000000	11.625313
581.000000	11.726591
582.000000	11.828140
583.000000	11.930027
584.000000	12.033052
585.000000	12.136767
586.000000	12.240559
587.000000	12.344968
588.000000	12.450399
589.000000	12.556029
590.000000	12.661271
591.000000	12.766957
592.000000	12.874232
593.000000	12.982081
594.000000	13.089937
595.000000	13.198411
596.000000	13.306658
597.000000	13.415987
598.000000	13.525495
599.000000	13.635857
600.000000	13.746945
601.000000	13.859233
602.000000	13.970711
603.000000	14.081996
604.000000	14.194678
605.000000	14.307282
606.000000	14.421527
607.000000	14.534915
608.000000	14.648310
609.000000	14.762382
610.000000	14.877629
611.000000	14.992131
612.000000	15.107720
613.000000	15.223651
614.000000	15.339663
615.000000	15.455461
616.000000	15.571961
617.000000	15.689105
618.000000	15.806110
619.000000	15.922627
620.000000	16.039400
621.000000	16.156736
622.000000	16.273923
623.000000	16.391118
624.000000	16.508764
625.000000	16.626536
626.000000	16.744462
627.000000	16.862538
628.000000	16.981221
629.000000	17.100806
630.000000	17.220152
631.000000	17.340668
632.000000	17.462599
633.000000	17.584430
634.000000	17.705629
635.000000	17.829772
636.000000	17.952928
637.000000	18.077449
638.000000	18.202364
639.000000	18.328051
640.000000	18.454302
641.000000	18.580814
642.000000	18.706808
643.000000	18.834295
644.000000	18.962381
645.000000	19.089885
646.000000	19.219301
647.000000	19.349012
648.000000	19.478550
649.000000	19.609076
650.000000	19.739936
651.000000	19.870707
652.000000	20.001770
653.000000	20.133803
654.000000	20.266548
655.000000	20.398158
656.000000	20.528639
657.000000	20.660289
658.000000	20.794094
659.000000	20.926544
660.000000	21.057799
661.000000	21.188734
662.000000	21.320617
663.000000	21.451384
664.000000	21.581340
665.000000	21.711340
666.000000	21.841925
667.000000	21.970460
668.000000	22.096213
669.000000	22.223744
670.000000	22.351846
671.000000	22.479280
672.000000	22.605843
673.000000	22.732861
674.000000	22.859409
675.000000	22.986302
676.000000	23.112607
677.000000	23.237830
678.000000	23.363518
679.000000	23.487658
680.000000	23.611706
681.000000	23.736256
682.000000	23.858463
683.000000	23.980063
684.000000	24.101965
685.000000	24.222843
686.000000	24.343253
687.000000	24.463071
688.000000	24.582633
689.000000	24.701948
690.000000	24.821208
691.000000	24.938604
692.000000	25.057365
693.000000	25.176097
694.000000	25.293620
695.000000	25.409531
696.000000	25.526783
697.000000	25.644731
698.000000	25.762180
699.000000	25.878010
700.000000	25.993042
701.000000	26.109174
702.000000	26.224010
703.000000	26.338064
704.000000	26.452344
705.000000	26.568355
706.000000	26.682775
707.000000	26.794725
708.000000	26.906736
709.000000	27.019112
710.000000	27.131845
711.000000	27.245712
712.000000	27.359291
713.000000	27.471655
714.000000	27.584445
715.000000	27.695321
716.000000	27.805356
717.000000	27.917808
718.000000	28.030633
719.000000	28.143813
720.000000	28.254619
721.000000	28.362056
722.000000	28.470146
723.000000	28.580350
724.000000	28.688952
725.000000	28.797788
726.000000	28.907267
727.000000	29.014832
728.000000	29.122988
729.000000	29.228973
730.000000	29.334723
731.000000	29.442302
732.000000	29.551986
733.000000	29.660269
734.000000	29.769074
735.000000	29.876465
736.000000	29.980997
737.000000	30.087496
738.000000	30.192400
739.000000	30.297969
740.000000	30.404249
741.000000	30.508601
742.000000	30.611189
743.000000	30.713341
744.000000	30.814782
745.000000	30.918510
746.000000	31.023786
747.000000	31.127359
748.000000	31.231550
749.000000	31.335652
750.000000	31.439296
751.000000	31.544586
752.000000	31.649262
753.000000	31.753676
754.000000	31.857968
755.000000	31.960070
756.000000	32.061809
757.000000	32.165585
758.000000	32.269658
759.000000	32.373382
760.000000	32.477171
761.000000	32.578544
762.000000	32.677210
763.000000	32.778775
764.000000	32.883260
765.000000	32.986586
766.000000	33.089027
767.000000	33.188210
768.000000	33.287053
769.000000	33.388203
770.000000	33.488305
771.000000	33.587579
772.000000	33.690724
773.000000	33.790478
774.000000	33.886857
775.000000	33.984704
776.000000	34.082527
777.000000	34.183350
778.000000	34.280091
779.000000	34.374495
780.000000	34.470094
781.000000	34.569550
782.000000	34.667725
783.000000	34.762897
784.000000	34.859190
785.000000	34.957965
786.000000	35.058795
787.000000	35.154604
788.000000	35.251857
789.000000	35.348801
790.000000	35.445605
791.000000	35.538538
792.000000	35.631458
793.000000	35.727002
794.000000	35.820060
795.000000	35.909702
796.000000	36.000084
797.000000	36.092353
798.000000	36.183963
799.000000	36.275112
800.000000	36.364343
801.000000	36.452987
802.000000	36.540272
803.000000	36.633679
804.000000	36.726535
805.000000	36.824348
806.000000	36.914420
807.000000	37.005306
808.000000	37.098757
809.000000	37.190469
810.000000	37.283419
811.000000	37.377805
812.000000	37.470007
813.000000	37.554592
814.000000	37.640787
815.000000	37.715383
816.000000	37.797052
817.000000	37.881541
818.000000	37.959625
819.000000	38.033393
820.000000	38.110212
821.000000	38.183449
822.000000	38.254340
823.000000	38.329263
824.000000	38.397947
825.000000	38.476247
826.000000	38.548511
827.000000	38.615073
828.000000	38.684361
829.000000	38.753597
830.000000	38.818086
831.000000	38.885641
832.000000	38.952279
833.000000	39.010552
834.000000	39.072357
835.000000	39.132702
836.000000	39.182766
837.000000	39.240360
838.000000	39.296810
839.000000	39.353710
840.000000	39.408214
841.000000	39.454553
842.000000	39.503690
843.000000	39.554009
844.000000	39.603050
845.000000	39.648396
846.000000	39.702898
847.000000	39.741317
848.000000	39.772041
849.000000	39.813875
850.000000	39.850396
851.000000	39.893583
852.000000	39.915582
853.000000	39.954740
854.000000	39.994541
855.000000	40.028701
856.000000	40.061483
857.000000	40.112657
858.000000	40.368265
859.000000	40.483338
860.000000	40.605895
861.000000	40.747835
862.000000	40.923992
863.000000	41.068115
864.000000	41.221393
865.000000	41.365004
866.000000	41.497800
867.000000	41.617891
868.000000	41.532155
869.000000	41.577257
870.000000	41.607547
871.000000	41.600345
872.000000	41.573190
873.000000	41.555042
874.000000	41.532043
875.000000	41.526455
876.000000	41.501130
877.000000	41.477402
878.000000	41.456527
879.000000	41.430245
880.000000	41.423243
881.000000	41.421060
882.000000	41.416980
883.000000	41.409332
884.000000	41.384557
885.000000	41.360280
886.000000	41.363067
887.000000	41.353845
888.000000	41.339967
889.000000	41.321605
890.000000	41.306730
891.000000	41.289972
892.000000	41.276075
893.000000	41.259425
894.000000	41.244592
895.000000	41.211317
896.000000	41.190033
897.000000	41.180455
898.000000	41.167308
899.000000	41.154720
900.000000	41.124275
901.000000	41.103590
902.000000	41.081755
903.000000	41.071368
904.000000	41.069090
905.000000	41.074768
906.000000	41.067427
907.000000	41.052025
908.000000	41.044497
909.000000	41.045530
910.000000	41.047875
911.000000	41.046768
912.000000	41.044928
913.000000	41.039612
914.000000	41.033705
915.000000	41.033590
916.000000	41.034195
917.000000	41.040757
918.000000	41.044945
919.000000	41.041490
920.000000	41.045657
921.000000	41.054270
922.000000	41.062162
923.000000	41.070663
924.000000	41.071835
925.000000	41.069338
926.000000	41.068323
927.000000	41.071348
928.000000	41.075635
929.000000	41.082483
930.000000	41.079410
931.000000	41.079095
932.000000	41.083580
933.000000	41.086728
934.000000	41.097415
935.000000	41.107782
936.000000	41.112705
937.000000	41.113498
938.000000	41.114142
939.000000	41.116290
940.000000	41.119500
941.000000	41.117262
942.000000	41.109170
943.000000	41.103713
944.000000	41.098092
945.000000	41.091595
946.000000	41.089517
947.000000	41.082887
948.000000	41.079800
949.000000	41.079730
950.000000	41.083850
951.000000	41.087915
952.000000	41.091120
953.000000	41.089993
954.000000	41.087270
955.000000	41.084738
956.000000	41.086528
957.000000	41.089145
958.000000	41.088385
959.000000	41.083470
960.000000	41.078077
961.000000	41.073882
962.000000	41.074288
963.000000	41.077830
964.000000	41.078363
965.000000	41.077970
966.000000	41.074137
967.000000	41.072392
968.000000	41.073395
969.000000	41.074775
970.000000	41.072263
971.000000	41.068900
972.000000	41.066770
973.000000	41.064132
974.000000	41.062545
975.000000	41.060518
976.000000	41.056960
977.000000	41.052277
978.000000	41.048813
979.000000	41.045705
980.000000	41.044500
981.000000	41.042082
982.000000	41.037512
983.000000	41.031290
984.000000	41.026153
985.000000	41.024248
986.000000	41.023432
987.000000	41.021368
988.000000	41.017040
989.000000	41.013470
990.000000	41.011443
991.000000	41.010362
992.000000	41.009960
993.000000	41.008473
994.000000	41.006580
995.000000	41.004967
996.000000	41.004230
997.000000	41.004897
998.000000	41.004590
999.000000	41.002313
1000.000000	40.999513
1001.000000	40.997722
1002.000000	40.996783
1003.000000	40.997293
1004.000000	40.995868
1005.000000	40.991985
1006.000000	40.988540
1007.000000	40.985860
1008.000000	40.985345
1009.000000	40.986238
1010.000000	40.986807
1011.000000	40.986088
1012.000000	40.984133
1013.000000	40.983355
1014.000000	40.985980
1015.000000	40.990535
1016.000000	40.995420
1017.000000	40.999083
1018.000000	41.002848
1019.000000	41.008475
1020.000000	41.016843
1021.000000	41.026605
1022.000000	41.035303
1023.000000	41.043220
1024.000000	41.052790
1025.000000	41.062790
1026.000000	41.073097
1027.000000	41.086805
1028.000000	41.100957
1029.000000	41.113707
1030.000000	41.124925
1031.000000	41.137100
1032.000000	41.152130
1033.000000	41.167590
1034.000000	41.181305
1035.000000	41.195450
1036.000000	41.210260
1037.000000	41.223570
1038.000000	41.237405
1039.000000	41.251047
1040.000000	41.264067
1041.000000	41.276013
1042.000000	41.287653
1043.000000	41.301265
1044.000000	41.315155
1045.000000	41.326342
1046.000000	41.337033
1047.000000	41.349018
1048.000000	41.360402
1049.000000	41.373047
1050.000000	41.386215
1051.000000	41.399313
1052.000000	41.411830
1053.000000	41.425185
1054.000000	41.438690
1055.000000	41.454115
1056.000000	41.470017
1057.000000	41.485325
1058.000000	41.500085
1059.000000	41.515175
1060.000000	41.530662
1061.000000	41.547363
1062.000000	41.564815
1063.000000	41.581058
1064.000000	41.598290
1065.000000	41.617182
1066.000000	41.634718
1067.000000	41.650780
1068.000000	41.668112
1069.000000	41.685358
1070.000000	41.703885
1071.000000	41.721275
1072.000000	41.738793
1073.000000	41.755400
1074.000000	41.770425
1075.000000	41.784107
1076.000000	41.800160
1077.000000	41.817635
1078.000000	41.834753
1079.000000	41.850927
1080.000000	41.864742
1081.000000	41.880698
1082.000000	41.896220
1083.000000	41.911635
1084.000000	41.926825
1085.000000	41.941800
1086.000000	41.955362
1087.000000	41.968355
1088.000000	41.980823
1089.000000	41.994062
1090.000000	42.006902
1091.000000	42.018062
1092.000000	42.029230
1093.000000	42.040435
1094.000000	42.051823
1095.000000	42.063345
1096.000000	42.074567
1097.000000	42.083727
1098.000000	42.092223
1099.000000	42.101437
1100.000000	42.110313
1101.000000	42.118745
1102.000000	42.126067
1103.000000	42.131862
1104.000000	42.139233
1105.000000	42.145850
1106.000000	42.150935
1107.000000	42.156430
1108.000000	42.161887
1109.000000	42.165045
1110.000000	42.168745
1111.000000	42.172560
1112.000000	42.176370
1113.000000	42.178315
1114.000000	42.177725
1115.000000	42.177850
1116.000000	42.176690
1117.000000	42.175747
1118.000000	42.173695
1119.000000	42.170210
1120.000000	42.164915
1121.000000	42.158405
1122.000000	42.150087
1123.000000	42.140358
1124.000000	42.126832
1125.000000	42.106997
1126.000000	42.084065
1127.000000	42.055737
1128.000000	42.024430
1129.000000	41.989938
1130.000000	41.950428
1131.000000	41.903180
1132.000000	41.850713
1133.000000	41.797910
1134.000000	41.743980
1135.000000	41.687993
1136.000000	41.628200
1137.000000	41.565135
1138.000000	41.500698
1139.000000	41.436110
1140.000000	41.374207
1141.000000	41.314490
1142.000000	41.255852
1143.000000	41.197828
1144.000000	41.141577
1145.000000	41.090440
1146.000000	41.043892
1147.000000	41.000840
1148.000000	40.958750
1149.000000	40.916508
1150.000000	40.874627
1151.000000	40.834450
1152.000000	40.794393
1153.000000	40.750175
1154.000000	40.704403
1155.000000	40.653115
1156.000000	40.597732
1157.000000	40.537765
1158.000000	40.473120
1159.000000	40.403693
1160.000000	40.328007
1161.000000	40.246245
1162.000000	40.160745
1163.000000	40.072685
1164.000000	39.979098
1165.000000	39.883815
1166.000000	39.788085
1167.000000	39.693750
1168.000000	39.600085
1169.000000	39.509110
1170.000000	39.421688
1171.000000	39.337373
1172.000000	39.255895
1173.000000	39.179540
1174.000000	39.109215
1175.000000	39.043197
1176.000000	38.980818
1177.000000	38.923388
1178.000000	38.870292
1179.000000	38.819418
1180.000000	38.770148
1181.000000	38.725097
1182.000000	38.683988
1183.000000	38.645440
1184.000000	38.610683
1185.000000	38.580360
1186.000000	38.555653
1187.000000	38.535003
1188.000000	38.520767
1189.000000	38.514048
1190.000000	38.516215
1191.000000	38.524095
1192.000000	38.539595
1193.000000	38.560992
1194.000000	38.589343
1195.000000	38.622818
1196.000000	38.659960
1197.000000	38.701325
1198.000000	38.742712
1199.000000	38.785197
1200.000000	38.827355
1201.000000	38.870983
1202.000000	38.912120
1203.000000	38.953083
1204.000000	38.990178
1205.000000	39.025585
1206.000000	39.060038
1207.000000	39.092287
1208.000000	39.124400
1209.000000	39.155370
1210.000000	39.185455
1211.000000	39.214625
1212.000000	39.244152
1213.000000	39.273713
1214.000000	39.302917
1215.000000	39.331673
1216.000000	39.359288
1217.000000	39.386635
1218.000000	39.415175
1219.000000	39.443618
1220.000000	39.472785
1221.000000	39.499550
1222.000000	39.525333
1223.000000	39.550570
1224.000000	39.577412
1225.000000	39.604708
1226.000000	39.631965
1227.000000	39.659208
1228.000000	39.685865
1229.000000	39.713145
1230.000000	39.738878
1231.000000	39.766478
1232.000000	39.794320
1233.000000	39.821185
1234.000000	39.848530
1235.000000	39.875948
1236.000000	39.902573
1237.000000	39.928533
1238.000000	39.953335
1239.000000	39.977460
1240.000000	40.002680
1241.000000	40.029580
1242.000000	40.057030
1243.000000	40.085590
1244.000000	40.113713
1245.000000	40.142565
1246.000000	40.172195
1247.000000	40.204090
1248.000000	40.237408
1249.000000	40.269737
1250.000000	40.302110
1251.000000	40.332205
1252.000000	40.361745
1253.000000	40.390933
1254.000000	40.417263
1255.000000	40.440655
1256.000000	40.463397
1257.000000	40.484143
1258.000000	40.503023
1259.000000	40.521217
1260.000000	40.537120
1261.000000	40.552045
1262.000000	40.566472
1263.000000	40.579880
1264.000000	40.593575
1265.000000	40.606540
1266.000000	40.618180
1267.000000	40.628887
1268.000000	40.639420
1269.000000	40.650282
1270.000000	40.661087
1271.000000	40.670625
1272.000000	40.678303
1273.000000	40.685482
1274.000000	40.693722
1275.000000	40.702917
1276.000000	40.712360
1277.000000	40.721653
1278.000000	40.730492
1279.000000	40.740272
1280.000000	40.752790
1281.000000	40.767850
1282.000000	40.784260
1283.000000	40.801340
1284.000000	40.818078
1285.000000	40.836720
1286.000000	40.857220
1287.000000	40.878442
1288.000000	40.901028
1289.000000	40.923598
1290.000000	40.943795
1291.000000	40.962385
1292.000000	40.981373
1293.000000	40.999533
1294.000000	41.016368
1295.000000	41.031605
1296.000000	41.046390
1297.000000	41.060700
1298.000000	41.073397
1299.000000	41.084907
1300.000000	41.095395
1301.000000	41.105065
1302.000000	41.113177
1303.000000	41.120730
1304.000000	41.127145
1305.000000	41.130808
1306.000000	41.131893
1307.000000	41.130948
1308.000000	41.128875
1309.000000	41.125090
1310.000000	41.119557
1311.000000	41.112465
1312.000000	41.103243
1313.000000	41.091902
1314.000000	41.080370
1315.000000	41.067940
1316.000000	41.052502
1317.000000	41.035387
1318.000000	41.015763
1319.000000	40.993910
1320.000000	40.970627
1321.000000	40.945698
1322.000000	40.918597
1323.000000	40.888823
1324.000000	40.856005
1325.000000	40.821852
1326.000000	40.786738
1327.000000	40.748308
1328.000000	40.707412
1329.000000	40.663687
1330.000000	40.616760
1331.000000	40.567810
1332.000000	40.516205
1333.000000	40.460747
1334.000000	40.401700
1335.000000	40.338547
1336.000000	40.272703
1337.000000	40.203515
1338.000000	40.130453
1339.000000	40.053050
1340.000000	39.972607
1341.000000	39.887023
1342.000000	39.797915
1343.000000	39.706618
1344.000000	39.609490
1345.000000	39.506678
1346.000000	39.398830
1347.000000	39.288090
1348.000000	39.172747
1349.000000	39.052917
1350.000000	38.929293
1351.000000	38.802482
1352.000000	38.672553
1353.000000	38.543812
1354.000000	38.421080
1355.000000	38.302740
1356.000000	38.187202
1357.000000	38.075463
1358.000000	37.969338
1359.000000	37.869147
1360.000000	37.778482
1361.000000	37.699875
1362.000000	37.623563
1363.000000	37.546093
1364.000000	37.469755
1365.000000	37.392575
1366.000000	37.312178
1367.000000	37.231313
1368.000000	37.146423
1369.000000	37.053788
1370.000000	36.949118
1371.000000	36.829400
1372.000000	36.697868
1373.000000	36.552025
1374.000000	36.387890
1375.000000	36.209277
1376.000000	36.017395
1377.000000	35.810637
1378.000000	35.591400
1379.000000	35.367980
1380.000000	35.144908
1381.000000	34.925450
1382.000000	34.714710
1383.000000	34.516200
1384.000000	34.327148
1385.000000	34.148948
1386.000000	33.983678
1387.000000	33.835155
1388.000000	33.700645
1389.000000	33.571557
1390.000000	33.446778
1391.000000	33.327450
1392.000000	33.209870
1393.000000	33.093853
1394.000000	32.984645
1395.000000	32.883590
1396.000000	32.780187
1397.000000	32.663200
1398.000000	32.541913
1399.000000	32.426555
1400.000000	32.313120
1401.000000	32.184917
1402.000000	32.045880
1403.000000	31.897590
1404.000000	31.740272
1405.000000	31.567828
1406.000000	31.388967
1407.000000	31.209668
1408.000000	31.025100
1409.000000	30.826920
1410.000000	30.614815
1411.000000	30.401443
1412.000000	30.191418
1413.000000	29.984628
1414.000000	29.776258
1415.000000	29.566565
1416.000000	29.357112
1417.000000	29.154537
1418.000000	28.957488
1419.000000	28.766003
1420.000000	28.579175
1421.000000	28.397617
1422.000000	28.222267
1423.000000	28.051783
1424.000000	27.885255
1425.000000	27.725130
1426.000000	27.573253
1427.000000	27.424525
1428.000000	27.279130
1429.000000	27.139960
1430.000000	27.007277
1431.000000	26.882957
1432.000000	26.762653
1433.000000	26.643930
1434.000000	26.530715
1435.000000	26.423040
1436.000000	26.319345
1437.000000	26.219770
1438.000000	26.123098
1439.000000	26.029265
1440.000000	25.939332
1441.000000	25.851143
1442.000000	25.766067
1443.000000	25.683398
1444.000000	25.603183
1445.000000	25.527730
1446.000000	25.452575
1447.000000	25.374833
1448.000000	25.297968
1449.000000	25.223122
1450.000000	25.151328
1451.000000	25.079950
1452.000000	25.005965
1453.000000	24.933822
1454.000000	24.862620
1455.000000	24.789035
1456.000000	24.716340
1457.000000	24.643898
1458.000000	24.571247
1459.000000	24.498810
1460.000000	24.424140
1461.000000	24.349138
1462.000000	24.275713
1463.000000	24.201870
1464.000000	24.127935
1465.000000	24.055083
1466.000000	23.983565
1467.000000	23.912830
1468.000000	23.843150
1469.000000	23.773320
1470.000000	23.703848
1471.000000	23.636045
1472.000000	23.570090
1473.000000	23.504043
1474.000000	23.437120
1475.000000	23.372100
1476.000000	23.309877
1477.000000	23.251438
1478.000000	23.194962
1479.000000	23.140937
1480.000000	23.090530
1481.000000	23.043270
1482.000000	22.995985
1483.000000	22.951660
1484.000000	22.912380
1485.000000	22.876442
1486.000000	22.841885
1487.000000	22.809652
1488.000000	22.780313
1489.000000	22.753805
1490.000000	22.728745
1491.000000	22.706403
1492.000000	22.689315
1493.000000	22.675905
1494.000000	22.664963
1495.000000	22.656600
1496.000000	22.652802
1497.000000	22.652660
1498.000000	22.656743
1499.000000	22.664763
1500.000000	22.678468
1501.000000	22.697090
1502.000000	22.721095
1503.000000	22.748335
1504.000000	22.780670
1505.000000	22.817425
1506.000000	22.857233
1507.000000	22.901280
1508.000000	22.948757
1509.000000	22.999748
1510.000000	23.053305
1511.000000	23.109355
1512.000000	23.166840
1513.000000	23.226755
1514.000000	23.286955
1515.000000	23.347565
1516.000000	23.409112
1517.000000	23.470697
1518.000000	23.533065
1519.000000	23.594232
1520.000000	23.654870
1521.000000	23.714200
1522.000000	23.772105
1523.000000	23.830350
1524.000000	23.888313
1525.000000	23.945123
1526.000000	24.001663
1527.000000	24.057570
1528.000000	24.111535
1529.000000	24.164498
1530.000000	24.215993
1531.000000	24.266580
1532.000000	24.316900
1533.000000	24.364933
1534.000000	24.410910
1535.000000	24.455817
1536.000000	24.498930
1537.000000	24.540110
1538.000000	24.579800
1539.000000	24.618147
1540.000000	24.656388
1541.000000	24.694160
1542.000000	24.730773
1543.000000	24.767457
1544.000000	24.804552
1545.000000	24.841925
1546.000000	24.881502
1547.000000	24.923548
1548.000000	24.967797
1549.000000	25.014617
1550.000000	25.061863
1551.000000	25.110435
1552.000000	25.161538
1553.000000	25.212888
1554.000000	25.263027
1555.000000	25.312660
1556.000000	25.360460
1557.000000	25.405283
1558.000000	25.446168
1559.000000	25.482730
1560.000000	25.515985
1561.000000	25.543827
1562.000000	25.565340
1563.000000	25.582470
1564.000000	25.595688
1565.000000	25.604095
1566.000000	25.607410
1567.000000	25.606912
1568.000000	25.603735
1569.000000	25.598590
1570.000000	25.590520
1571.000000	25.581295
1572.000000	25.573107
1573.000000	25.566150
1574.000000	25.560133
1575.000000	25.554890
1576.000000	25.550853
1577.000000	25.549685
1578.000000	25.551850
1579.000000	25.556665
1580.000000	25.565013
1581.000000	25.575890
1582.000000	25.589247
1583.000000	25.605685
1584.000000	25.625895
1585.000000	25.649940
1586.000000	25.677165
1587.000000	25.707117
1588.000000	25.739190
1589.000000	25.774252
1590.000000	25.810512
1591.000000	25.849095
1592.000000	25.889597
1593.000000	25.930990
1594.000000	25.974435
1595.000000	26.019210
1596.000000	26.064940
1597.000000	26.112375
1598.000000	26.162218
1599.000000	26.213947
1600.000000	26.268833
1601.000000	26.325093
1602.000000	26.381867
1603.000000	26.441770
1604.000000	26.502580
1605.000000	26.563555
1606.000000	26.626200
1607.000000	26.689347
1608.000000	26.751767
1609.000000	26.813005
1610.000000	26.872297
1611.000000	26.930478
1612.000000	26.987660
1613.000000	27.040977
1614.000000	27.092705
1615.000000	27.143212
1616.000000	27.190442
1617.000000	27.234123
1618.000000	27.275707
1619.000000	27.316030
1620.000000	27.354782
1621.000000	27.392145
1622.000000	27.428183
1623.000000	27.464202
1624.000000	27.498237
1625.000000	27.530993
1626.000000	27.564322
1627.000000	27.597390
1628.000000	27.630670
1629.000000	27.662240
1630.000000	27.694585
1631.000000	27.726570
1632.000000	27.756687
1633.000000	27.785540
1634.000000	27.813565
1635.000000	27.841625
1636.000000	27.866585
1637.000000	27.889875
1638.000000	27.910865
1639.000000	27.929720
1640.000000	27.945538
1641.000000	27.959835
1642.000000	27.970662
1643.000000	27.978293
1644.000000	27.984355
1645.000000	27.987900
1646.000000	27.990880
1647.000000	27.989290
1648.000000	27.985345
1649.000000	27.979100
1650.000000	27.969095
1651.000000	27.955545
1652.000000	27.939493
1653.000000	27.919477
1654.000000	27.893032
1655.000000	27.859983
1656.000000	27.820890
1657.000000	27.776575
1658.000000	27.722408
1659.000000	27.659390
1660.000000	27.586305
1661.000000	27.504157
1662.000000	27.412133
1663.000000	27.309810
1664.000000	27.199335
1665.000000	27.079773
1666.000000	26.951448
1667.000000	26.816130
1668.000000	26.672930
1669.000000	26.525292
1670.000000	26.375315
1671.000000	26.221697
1672.000000	26.070197
1673.000000	25.919033
1674.000000	25.768863
1675.000000	25.619447
1676.000000	25.473260
1677.000000	25.329570
1678.000000	25.190188
1679.000000	25.050317
1680.000000	24.909390
1681.000000	24.767765
1682.000000	24.622307
1683.000000	24.475362
1684.000000	24.328007
1685.000000	24.184270
1686.000000	24.045010
1687.000000	23.914580
1688.000000	23.798930
1689.000000	23.701232
1690.000000	23.625765
1691.000000	23.573255
1692.000000	23.545342
1693.000000	23.540355
1694.000000	23.553715
1695.000000	23.581580
1696.000000	23.617110
1697.000000	23.658830
1698.000000	23.700822
1699.000000	23.742202
1700.000000	23.776962
1701.000000	23.803887
1702.000000	23.822010
1703.000000	23.830602
1704.000000	23.830763
1705.000000	23.821378
1706.000000	23.804417
1707.000000	23.777432
1708.000000	23.739935
1709.000000	23.689982
1710.000000	23.630063
1711.000000	23.557022
1712.000000	23.471723
1713.000000	23.372647
1714.000000	23.261492
1715.000000	23.139063
1716.000000	23.005553
1717.000000	22.865050
1718.000000	22.718220
1719.000000	22.567495
1720.000000	22.416023
1721.000000	22.269085
1722.000000	22.128303
1723.000000	22.000587
1724.000000	21.886668
1725.000000	21.791992
1726.000000	21.718115
1727.000000	21.661013
1728.000000	21.623915
1729.000000	21.606558
1730.000000	21.607653
1731.000000	21.623360
1732.000000	21.651473
1733.000000	21.688517
1734.000000	21.736055
1735.000000	21.790318
1736.000000	21.851972
1737.000000	21.919998
1738.000000	21.991600
1739.000000	22.069085
1740.000000	22.151257
1741.000000	22.238435
1742.000000	22.329695
1743.000000	22.424198
1744.000000	22.517983
1745.000000	22.612790
1746.000000	22.704892
1747.000000	22.794615
1748.000000	22.882265
1749.000000	22.963745
1750.000000	23.037030
1751.000000	23.103818
1752.000000	23.163345
1753.000000	23.214825
1754.000000	23.258767
1755.000000	23.293658
1756.000000	23.322810
1757.000000	23.347878
1758.000000	23.367745
1759.000000	23.383073
1760.000000	23.395700
1761.000000	23.406755
1762.000000	23.417337
1763.000000	23.428410
1764.000000	23.442523
1765.000000	23.459405
1766.000000	23.478343
1767.000000	23.500493
1768.000000	23.526988
1769.000000	23.556973
1770.000000	23.589980
1771.000000	23.625438
1772.000000	23.664953
1773.000000	23.708283
1774.000000	23.753538
1775.000000	23.800760
1776.000000	23.849027
1777.000000	23.897012
1778.000000	23.945543
1779.000000	23.994347
1780.000000	24.042705
1781.000000	24.089480
1782.000000	24.132115
1783.000000	24.172150
1784.000000	24.208760
1785.000000	24.240610
1786.000000	24.268695
1787.000000	24.292755
1788.000000	24.313092
1789.000000	24.332030
1790.000000	24.348335
1791.000000	24.361933
1792.000000	24.375475
1793.000000	24.389230
1794.000000	24.403552
1795.000000	24.419942
1796.000000	24.437217
1797.000000	24.454957
1798.000000	24.472515
1799.000000	24.490215
1800.000000	24.510152
1801.000000	24.531380
1802.000000	24.552690
1803.000000	24.572480
1804.000000	24.592265
1805.000000	24.613700
1806.000000	24.636102
1807.000000	24.658392
1808.000000	24.679670
1809.000000	24.700443
1810.000000	24.723635
1811.000000	24.747830
1812.000000	24.769107
1813.000000	24.790367
1814.000000	24.811863
1815.000000	24.831443
1816.000000	24.848453
1817.000000	24.861702
1818.000000	24.873970
1819.000000	24.888615
1820.000000	24.903700
1821.000000	24.918270
1822.000000	24.930110
1823.000000	24.936858
1824.000000	24.939820
1825.000000	24.941925
1826.000000	24.947295
1827.000000	24.958135
1828.000000	24.972895
1829.000000	24.986005
1830.000000	24.998570
1831.000000	25.011370
1832.000000	25.026947
1833.000000	25.044440
1834.000000	25.066545
1835.000000	25.094280
1836.000000	25.125118
1837.000000	25.156550
1838.000000	25.186910
1839.000000	25.218195
1840.000000	25.251483
1841.000000	25.290508
1842.000000	25.331322
1843.000000	25.369935
1844.000000	25.401180
1845.000000	25.423230
1846.000000	25.446620
1847.000000	25.478593
1848.000000	25.514132
1849.000000	25.542050
1850.000000	25.556847
1851.000000	25.560985
1852.000000	25.563115
1853.000000	25.570328
1854.000000	25.582060
1855.000000	25.594365
1856.000000	25.596187
1857.000000	25.585015
1858.000000	25.568220
1859.000000	25.552865
1860.000000	25.540997
1861.000000	25.526055
1862.000000	25.504853
1863.000000	25.474042
1864.000000	25.432923
1865.000000	25.383617
1866.000000	25.328018
1867.000000	25.266663
1868.000000	25.194757
1869.000000	25.118722
1870.000000	25.036255
1871.000000	24.947472
1872.000000	24.851093
1873.000000	24.748317
1874.000000	24.638322
1875.000000	24.518900
1876.000000	24.388860
1877.000000	24.243900
1878.000000	24.087198
1879.000000	23.912560
1880.000000	23.719775
1881.000000	23.510145
1882.000000	23.289283
1883.000000	23.057562
1884.000000	22.813545
1885.000000	22.560110
1886.000000	22.292282
1887.000000	22.012130
1888.000000	21.718520
1889.000000	21.417165
1890.000000	21.108350
1891.000000	20.789865
1892.000000	20.463305
1893.000000	20.124268
1894.000000	19.776240
1895.000000	19.419010
1896.000000	19.057943
1897.000000	18.693362
1898.000000	18.328337
1899.000000	17.963355
1900.000000	17.599113
1901.000000	17.237178
1902.000000	16.876625
1903.000000	16.523738
1904.000000	16.180920
1905.000000	15.846640
1906.000000	15.524260
1907.000000	15.211193
1908.000000	14.908675
1909.000000	14.617228
1910.000000	14.340752
1911.000000	14.079683
1912.000000	13.832770
1913.000000	13.598515
1914.000000	13.377935
1915.000000	13.172755
1916.000000	12.977628
1917.000000	12.795858
1918.000000	12.626490
1919.000000	12.470285
1920.000000	12.326587
1921.000000	12.193003
1922.000000	12.070400
1923.000000	11.958572
1924.000000	11.850280
1925.000000	11.748640
1926.000000	11.659125
1927.000000	11.581000
1928.000000	11.510670
1929.000000	11.444458
1930.000000	11.381490
1931.000000	11.324865
1932.000000	11.275108
1933.000000	11.230750
1934.000000	11.198953
1935.000000	11.171702
1936.000000	11.147417
1937.000000	11.129812
1938.000000	11.120345
1939.000000	11.117545
1940.000000	11.120732
1941.000000	11.128077
1942.000000	11.140890
1943.000000	11.159627
1944.000000	11.181052
1945.000000	11.207063
1946.000000	11.240047
1947.000000	11.276687
1948.000000	11.314438
1949.000000	11.351882
1950.000000	11.391215
1951.000000	11.436760
1952.000000	11.487515
1953.000000	11.538453
1954.000000	11.589435
1955.000000	11.646210
1956.000000	11.701722
1957.000000	11.755188
1958.000000	11.812527
1959.000000	11.874565
1960.000000	11.937255
1961.000000	11.998345
1962.000000	12.058927
1963.000000	12.121298
1964.000000	12.184215
1965.000000	12.244510
1966.000000	12.304678
1967.000000	12.368655
1968.000000	12.431960
1969.000000	12.492540
1970.000000	12.552618
1971.000000	12.611365
1972.000000	12.668117
1973.000000	12.727267
1974.000000	12.788052
1975.000000	12.850487
1976.000000	12.912607
1977.000000	12.971080
1978.000000	13.030730
1979.000000	13.093058
1980.000000	13.157070
1981.000000	13.224112
1982.000000	13.287385
1983.000000	13.350258
1984.000000	13.413820
1985.000000	13.474380
1986.000000	13.538945
1987.000000	13.604285
1988.000000	13.667663
1989.000000	13.731572
1990.000000	13.794828
1991.000000	13.856953
1992.000000	13.918205
1993.000000	13.973423
1994.000000	14.029212
1995.000000	14.089110
1996.000000	14.143290
1997.000000	14.195200
1998.000000	14.245128
1999.000000	14.289378
2000.000000	14.331973
2001.000000	14.372275
2002.000000	14.409920
2003.000000	14.445228
2004.000000	14.474900
2005.000000	14.497312
2006.000000	14.520533
2007.000000	14.542400
2008.000000	14.557440
2009.000000	14.566515
2010.000000	14.570560
2011.000000	14.572665
2012.000000	14.571448
2013.000000	14.567400
2014.000000	14.557232
2015.000000	14.541595
2016.000000	14.518612
2017.000000	14.488397
2018.000000	14.453107
2019.000000	14.416982
2020.000000	14.375953
2021.000000	14.327848
2022.000000	14.275712
2023.000000	14.221598
2024.000000	14.163687
2025.000000	14.100322
2026.000000	14.035563
2027.000000	13.969758
2028.000000	13.902680
2029.000000	13.829520
2030.000000	13.747790
2031.000000	13.664308
2032.000000	13.579393
2033.000000	13.490068
2034.000000	13.397807
2035.000000	13.304157
2036.000000	13.206270
2037.000000	13.101350
2038.000000	12.993737
2039.000000	12.886572
2040.000000	12.780027
2041.000000	12.670668
2042.000000	12.563510
2043.000000	12.455000
2044.000000	12.343030
2045.000000	12.233152
2046.000000	12.125262
2047.000000	12.026705
2048.000000	11.930003
2049.000000	11.834243
2050.000000	11.747602
2051.000000	11.668843
2052.000000	11.594123
2053.000000	11.528630
2054.000000	11.479655
2055.000000	11.443800
2056.000000	11.416453
2057.000000	11.392415
2058.000000	11.384517
2059.000000	11.395020
2060.000000	11.418518
2061.000000	11.451922
2062.000000	11.487170
2063.000000	11.530035
2064.000000	11.585185
2065.000000	11.645663
2066.000000	11.709988
2067.000000	11.778443
2068.000000	11.850148
2069.000000	11.922750
2070.000000	11.994565
2071.000000	12.066565
2072.000000	12.145032
2073.000000	12.224610
2074.000000	12.295410
2075.000000	12.361812
2076.000000	12.426380
2077.000000	12.488205
2078.000000	12.544920
2079.000000	12.601475
2080.000000	12.656515
2081.000000	12.700685
2082.000000	12.740330
2083.000000	12.776670
2084.000000	12.809633
2085.000000	12.843357
2086.000000	12.871590
2087.000000	12.894588
2088.000000	12.910528
2089.000000	12.918907
2090.000000	12.927670
2091.000000	12.935825
2092.000000	12.935462
2093.000000	12.929495
2094.000000	12.926615
2095.000000	12.920045
2096.000000	12.913690
2097.000000	12.909322
2098.000000	12.908387
2099.000000	12.906785
2100.000000	12.898667
2101.000000	12.896590
2102.000000	12.898160
2103.000000	12.898917
2104.000000	12.900502
2105.000000	12.901073
2106.000000	12.897117
2107.000000	12.894415
2108.000000	12.890780
2109.000000	12.888473
2110.000000	12.887655
2111.000000	12.890470
2112.000000	12.892923
2113.000000	12.893207
2114.000000	12.882685
2115.000000	12.869927
2116.000000	12.867792
2117.000000	12.864595
2118.000000	12.858640
2119.000000	12.841135
2120.000000	12.820295
2121.000000	12.801143
2122.000000	12.784885
2123.000000	12.767973
2124.000000	12.755565
2125.000000	12.740495
2126.000000	12.712795
2127.000000	12.688112
2128.000000	12.656472
2129.000000	12.624210
2130.000000	12.594020
2131.000000	12.549703
2132.000000	12.505953
2133.000000	12.462507
2134.000000	12.405098
2135.000000	12.354472
2136.000000	12.304490
2137.000000	12.245617
2138.000000	12.191975
2139.000000	12.140045
2140.000000	12.074248
2141.000000	12.010870
2142.000000	11.948403
2143.000000	11.881563
2144.000000	11.813585
2145.000000	11.731208
2146.000000	11.653245
2147.000000	11.568265
2148.000000	11.489655
2149.000000	11.403493
2150.000000	11.314490
2151.000000	11.230298
2152.000000	11.148995
2153.000000	11.075000
2154.000000	11.006430
2155.000000	10.940420
2156.000000	10.875325
2157.000000	10.809138
2158.000000	10.734323
2159.000000	10.673813
2160.000000	10.617335
2161.000000	10.561328
2162.000000	10.505312
2163.000000	10.444907
2164.000000	10.395770
2165.000000	10.346815
2166.000000	10.298420
2167.000000	10.259628
2168.000000	10.221617
2169.000000	10.177397
2170.000000	10.150293
2171.000000	10.127543
2172.000000	10.104633
2173.000000	10.094778
2174.000000	10.064355
2175.000000	10.043500
2176.000000	10.025963
2177.000000	10.006720
2178.000000	10.008550
2179.000000	10.020050
2180.000000	10.019682
2181.000000	10.008118
2182.000000	9.993773
2183.000000	9.978700
2184.000000	9.976443
2185.000000	9.975505
2186.000000	9.971035
2187.000000	9.978090
2188.000000	9.973650
2189.000000	9.953785
2190.000000	9.931075
2191.000000	9.904187
2192.000000	9.888562
2193.000000	9.865972
2194.000000	9.838188
2195.000000	9.799338
2196.000000	9.748282
2197.000000	9.717735
2198.000000	9.671915
2199.000000	9.630270
2200.000000	9.590455
2201.000000	9.560813
2202.000000	9.522350
2203.000000	9.478343
2204.000000	9.447897
2205.000000	9.416232
2206.000000	9.409263
2207.000000	9.383070
2208.000000	9.371507
2209.000000	9.362010
2210.000000	9.367057
2211.000000	9.378182
2212.000000	9.390050
2213.000000	9.419345
2214.000000	9.436992
2215.000000	9.463643
2216.000000	9.500695
2217.000000	9.546063
2218.000000	9.583578
2219.000000	9.622158
2220.000000	9.660293
2221.000000	9.708533
2222.000000	9.766745
2223.000000	9.816315
2224.000000	9.876110
2225.000000	9.930150
2226.000000	9.970308
2227.000000	10.005785
2228.000000	10.060968
2229.000000	10.120378
2230.000000	10.177098
2231.000000	10.218637
2232.000000	10.246550
2233.000000	10.264898
2234.000000	10.290765
2235.000000	10.325247
2236.000000	10.352078
2237.000000	10.371660
2238.000000	10.385270
2239.000000	10.376595
2240.000000	10.358363
2241.000000	10.333868
2242.000000	10.308155
2243.000000	10.286558
2244.000000	10.251867
2245.000000	10.202935
2246.000000	10.152015
2247.000000	10.097373
2248.000000	10.018767
2249.000000	9.959712
2250.000000	9.897588
2251.000000	9.832750
2252.000000	9.764825
2253.000000	9.695940
2254.000000	9.613943
2255.000000	9.532535
2256.000000	9.446350
2257.000000	9.360337
2258.000000	9.294948
2259.000000	9.222463
2260.000000	9.145030
2261.000000	9.075565
2262.000000	9.013497
2263.000000	8.939702
2264.000000	8.877757
2265.000000	8.828307
2266.000000	8.788685
2267.000000	8.758270
2268.000000	8.715910
2269.000000	8.684888
2270.000000	8.663605
2271.000000	8.651813
2272.000000	8.631320
2273.000000	8.634483
2274.000000	8.633110
2275.000000	8.632475
2276.000000	8.635188
2277.000000	8.634800
2278.000000	8.631638
2279.000000	8.623900
2280.000000	8.622345
2281.000000	8.630480
2282.000000	8.642267
2283.000000	8.641160
2284.000000	8.632685
2285.000000	8.625365
2286.000000	8.613965
2287.000000	8.599417
2288.000000	8.593413
2289.000000	8.588743
2290.000000	8.589768
2291.000000	8.575830
2292.000000	8.569890
2293.000000	8.550053
2294.000000	8.551098
2295.000000	8.558540
2296.000000	8.552250
2297.000000	8.552580
2298.000000	8.555813
2299.000000	8.568603
2300.000000	8.581028
2301.000000	8.589550
2302.000000	8.589500
2303.000000	8.601845
2304.000000	8.619798
2305.000000	8.631115
2306.000000	8.654540
2307.000000	8.671370
2308.000000	8.688137
2309.000000	8.699822
2310.000000	8.704648
2311.000000	8.723927
2312.000000	8.752995
2313.000000	8.792737
2314.000000	8.828893
2315.000000	8.864912
2316.000000	8.906990
2317.000000	8.946507
2318.000000	8.975808
2319.000000	9.013872
2320.000000	9.058090
2321.000000	9.082637
2322.000000	9.090537
2323.000000	9.091137
2324.000000	9.094840
2325.000000	9.098018
2326.000000	9.101442
2327.000000	9.104332
2328.000000	9.108585
2329.000000	9.102597
2330.000000	9.089482
2331.000000	9.089015
2332.000000	9.104710
2333.000000	9.123907
2334.000000	9.142537
2335.000000	9.162180
2336.000000	9.172137
2337.000000	9.179735
2338.000000	9.186030
2339.000000	9.207080
2340.000000	9.239627
2341.000000	9.262685
2342.000000	9.276997
2343.000000	9.304303
2344.000000	9.335467
2345.000000	9.360700
2346.000000	9.392545
2347.000000	9.426123
2348.000000	9.480598
2349.000000	9.531213
2350.000000	9.560830
2351.000000	9.576600
2352.000000	9.600458
2353.000000	9.614842
2354.000000	9.624428
2355.000000	9.643270
2356.000000	9.650205
2357.000000	9.667507
2358.000000	9.680668
2359.000000	9.688847
2360.000000	9.702830
2361.000000	9.722233
2362.000000	9.756473
2363.000000	9.801467
2364.000000	9.837527
2365.000000	9.858577
2366.000000	9.889953
2367.000000	9.921300
2368.000000	9.937470
2369.000000	9.947627
2370.000000	9.955878
2371.000000	9.973800
2372.000000	9.981500
2373.000000	9.992577
2374.000000	9.998945
2375.000000	10.010457
2376.000000	10.034235
2377.000000	10.059280
2378.000000	10.096927
2379.000000	10.117403
2380.000000	10.138583
2381.000000	10.166847
2382.000000	10.209800
2383.000000	10.230093
2384.000000	10.240095
2385.000000	10.247040
2386.000000	10.249650
2387.000000	10.248870
2388.000000	10.244420
2389.000000	10.253897
2390.000000	10.269590
2391.000000	10.283717
2392.000000	10.263257
2393.000000	10.235667
2394.000000	10.241500
2395.000000	10.265492
2396.000000	10.283172
2397.000000	10.274625
2398.000000	10.256270
2399.000000	10.245482
2400.000000	10.245360
2401.000000	10.245957
2402.000000	10.253303
2403.000000	10.265890
2404.000000	10.266813
2405.000000	10.265725
2406.000000	10.269970
2407.000000	10.293447
2408.000000	10.325067
2409.000000	10.369195
2410.000000	10.379848
2411.000000	10.378040
2412.000000	10.369695
2413.000000	10.380005
2414.000000	10.394113
2415.000000	10.376235
2416.000000	10.328328
2417.000000	10.311212
2418.000000	10.299985
2419.000000	10.282735
2420.000000	10.269792
2421.000000	10.221633
2422.000000	10.192773
2423.000000	10.155190
2424.000000	10.129210
2425.000000	10.106912
2426.000000	10.065025
2427.000000	10.016300
2428.000000	9.969220
2429.000000	9.901057
2430.000000	9.846797
2431.000000	9.826403
2432.000000	9.796830
2433.000000	9.773945
2434.000000	9.727248
2435.000000	9.666455
2436.000000	9.669440
2437.000000	9.671160
2438.000000	9.659527
2439.000000	9.616032
2440.000000	9.562640
2441.000000	9.564830
2442.000000	9.547820
2443.000000	9.505912
2444.000000	9.478560
2445.000000	9.495307
2446.000000	9.507950
2447.000000	9.490882
2448.000000	9.455345
2449.000000	9.458480
2450.000000	9.506387
2451.000000	9.496375
2452.000000	9.483128
2453.000000	9.502843
2454.000000	9.516993
2455.000000	9.542615
2456.000000	9.511472
2457.000000	9.483132
2458.000000	9.483473
2459.000000	9.486260
2460.000000	9.508613
2461.000000	9.491508
2462.000000	9.539420
2463.000000	9.569080
2464.000000	9.612343
2465.000000	9.593315
2466.000000	9.646382
2467.000000	9.757352
2468.000000	9.840393
2469.000000	9.888222
2470.000000	9.843687
2471.000000	9.922102
2472.000000	10.047910
2473.000000	10.175592
2474.000000	10.234922
2475.000000	10.344317
2476.000000	10.489595
2477.000000	10.565658
2478.000000	10.726925
2479.000000	10.855200
2480.000000	11.008505
2481.000000	11.195193
2482.000000	11.254885
2483.000000	11.260283
2484.000000	11.371992
2485.000000	11.500775
2486.000000	11.640885
2487.000000	11.754357
2488.000000	11.769353
2489.000000	11.937230
2490.000000	12.201645
2491.000000	12.328655
2492.000000	12.467208
2493.000000	12.694017
2494.000000	12.956872
2495.000000	13.191688
2496.000000	13.264395
2497.000000	13.437918
2498.000000	13.693380
2499.000000	13.827087
2500.000000	13.975295
2501.000000	17.721512
2502.000000	21.426192
2503.000000	25.406835
2504.000000	29.376482
2505.000000	32.982755
2506.000000	36.383098
2507.000000	40.680530
2508.000000	44.955825
2509.000000	49.034823
2510.000000	53.073490
2511.000000	53.947760
2512.000000	55.203520
2513.000000	56.354540
2514.000000	56.855260
2515.000000	57.951080
2516.000000	59.946450
2517.000000	60.551260
2518.000000	60.927290
2519.000000	61.270180
2520.000000	62.648440
2521.000000	64.219520
2522.000000	64.969400
2523.000000	65.121850
2524.000000	66.385540
2525.000000	67.754000
2526.000000	68.089600
2527.000000	68.725050
2528.000000	69.989780
2529.000000	72.067240
2530.000000	72.971360
2531.000000	72.248030
2532.000000	72.608720
2533.000000	73.881960
2534.000000	74.733550
2535.000000	75.283410
2536.000000	76.260800
2537.000000	77.808750
2538.000000	79.421230
2539.000000	80.142190
2540.000000	80.745760
2541.000000	82.950160
2542.000000	84.660230
2543.000000	85.187970
2544.000000	85.791770
2545.000000	86.219970
2546.000000	87.844220
2547.000000	88.867930
2548.000000	88.606820
2549.000000	88.830710
2550.000000	89.212290
2551.000000	88.947340
2552.000000	88.654340
2553.000000	88.875820
2554.000000	89.372500
2555.000000	90.352030
2556.000000	90.031750
2557.000000	89.222500
2558.000000	89.480110
2559.000000	90.763340
2560.000000	91.347540
2561.000000	91.116810
2562.000000	91.395920
2563.000000	92.937070
2564.000000	93.849810
2565.000000	93.833150
2566.000000	93.730440
2567.000000	95.024660
2568.000000	96.526790
2569.000000	96.125400
2570.000000	96.457130
2571.000000	97.571720
2572.000000	98.245420
2573.000000	97.474830
2574.000000	97.477390
2575.000000	98.002130
2576.000000	99.022830
2577.000000	99.565300
2578.000000	98.732370
2579.000000	99.223380
2580.000000	99.896110
2581.000000	100.308950
2582.000000	99.688470
2583.000000	99.646650
2584.000000	99.178980
2585.000000	98.751390
2586.000000	97.929470
2587.000000	96.883790
2588.000000	97.412820
2589.000000	97.876240
2590.000000	97.594050
2591.000000	97.456790
2592.000000	98.495970
2593.000000	99.624180
2594.000000	100.920860
2595.000000	101.504400
2596.000000	102.036490
2597.000000	103.067110
2598.000000	103.075130
2599.000000	101.844340
2600.000000	101.312750
2601.000000	101.485400
2602.000000	101.758730
2603.000000	101.784000
2604.000000	100.767780
2605.000000	100.963290
2606.000000	101.827110
2607.000000	101.474210
2608.000000	100.860900
2609.000000	101.302600
2610.000000	101.772540
2611.000000	101.759340
2612.000000	100.945760
2613.000000	100.604550
2614.000000	101.963240
2615.000000	102.197090
2616.000000	100.689800
2617.000000	100.165520
2618.000000	100.899660
2619.000000	101.125110
2620.000000	100.814110
2621.000000	100.401190
2622.000000	100.739470
2623.000000	100.983420
2624.000000	99.767450
2625.000000	99.400240
2626.000000	100.952900
2627.000000	101.737110
2628.000000	101.622230
2629.000000	101.042450
2630.000000	101.298030
2631.000000	102.566120
2632.000000	102.782960
2633.000000	102.018270
2634.000000	102.175720
2635.000000	102.939820
2636.000000	102.716500
2637.000000	102.209350
2638.000000	102.013370
2639.000000	102.991250
2640.000000	102.753090
2641.000000	101.571000
2642.000000	101.763620
2643.000000	102.483140
2644.000000	103.203190
2645.000000	101.866690
2646.000000	101.109440
2647.000000	101.807400
2648.000000	102.477630
2649.000000	102.685270
2650.000000	102.809130
2651.000000	102.817880
2652.000000	102.853570
2653.000000	102.260650
2654.000000	100.827410
2655.000000	101.165820
2656.000000	101.642160
2657.000000	101.391380
2658.000000	100.721340
2659.000000	100.043110
2660.000000	100.712960
2661.000000	101.911090
2662.000000	101.781340
2663.000000	102.215510
2664.000000	103.563160
2665.000000	103.477710
2666.000000	102.551520
2667.000000	102.842250
2668.000000	104.116850
2669.000000	104.387520
2670.000000	103.940400
2671.000000	103.040270
2672.000000	103.378060
2673.000000	104.190240
2674.000000	103.662190
2675.000000	103.553300
2676.000000	104.373430
2677.000000	104.034080
2678.000000	103.058280
2679.000000	103.143930
2680.000000	102.669750
2681.000000	102.407470
2682.000000	101.992770
2683.000000	101.774850
2684.000000	101.365880
2685.000000	101.768960
2686.000000	102.005860
2687.000000	102.666140
2688.000000	103.561270
2689.000000	103.725390
2690.000000	104.832640
2691.000000	105.987470
2692.000000	106.412260
2693.000000	105.561550
2694.000000	106.085640
2695.000000	107.290660
2696.000000	107.488780
2697.000000	106.449060
2698.000000	104.960870
2699.000000	104.878270
2700.000000	104.757340
2701.000000	103.518070
2702.000000	103.282030
2703.000000	103.371350
2704.000000	103.793490
2705.000000	102.801510
2706.000000	102.109620
2707.000000	102.295430
2708.000000	102.867160
2709.000000	102.980220
2710.000000	102.415770
2711.000000	103.864060
2712.000000	105.645040
2713.000000	106.044470
2714.000000	104.521640
2715.000000	104.237750
2716.000000	104.722530
2717.000000	105.208620
2718.000000	104.335520
2719.000000	103.684190
2720.000000	105.170500
2721.000000	104.786650
2722.000000	101.970700
2723.000000	102.190480
2724.000000	103.222910
2725.000000	104.266250
2726.000000	103.626630
2727.000000	103.436180
2728.000000	105.056410
2729.000000	105.121170
2730.000000	103.871560
2731.000000	103.267480
2732.000000	104.384780
2733.000000	103.847970
2734.000000	103.267010
2735.000000	102.550130
2736.000000	103.429570
2737.000000	103.890470
2738.000000	103.012240
2739.000000	103.294500
2740.000000	102.839370
2741.000000	101.863560
2742.000000	101.394940
2743.000000	101.408540
2744.000000	102.186200
2745.000000	102.670260
2746.000000	102.855300
2747.000000	100.888930
2748.000000	99.851390
2749.000000	100.110850
2750.000000	100.390350
2751.000000	100.882860
2752.000000	100.196710
2753.000000	100.390010
2754.000000	101.365060
2755.000000	100.748750
2756.000000	99.996270
2757.000000	101.528640
2758.000000	102.027910
2759.000000	101.490230
2760.000000	101.719350
2761.000000	102.930950
2762.000000	105.234810
2763.000000	104.216180
2764.000000	102.728230
2765.000000	102.352880
2766.000000	102.470820
2767.000000	102.205850
2768.000000	101.813620
2769.000000	102.445900
2770.000000	102.971550
2771.000000	101.853210
2772.000000	99.602950
2773.000000	101.248740
2774.000000	102.446050
2775.000000	103.901570
2776.000000	104.223520
2777.000000	104.715030
2778.000000	106.550320
2779.000000	106.411860
2780.000000	104.871730
2781.000000	105.516160
2782.000000	106.879180
2783.000000	105.993180
2784.000000	103.932220
2785.000000	102.460080
2786.000000	102.608940
2787.000000	103.114950
2788.000000	102.166830
2789.000000	102.302760
2790.000000	104.174160
2791.000000	104.407960
2792.000000	103.673690
2793.000000	103.673820
2794.000000	105.108310
2795.000000	105.980000
2796.000000	105.055670
2797.000000	103.848900
2798.000000	104.093730
2799.000000	103.397170
2800.000000	101.915800
2801.000000	100.918940
2802.000000	101.447960
2803.000000	101.950910
2804.000000	101.211400
2805.000000	100.438010
2806.000000	101.482890
2807.000000	102.398450
2808.000000	101.974670
2809.000000	102.074790
2810.000000	103.210650
2811.000000	104.022680
2812.000000	103.633880
2813.000000	102.935820
2814.000000	103.644550
2815.000000	104.466190
2816.000000	103.878350
2817.000000	103.069800
2818.000000	103.539330
2819.000000	104.171350
2820.000000	103.865570
2821.000000	103.123790
2822.000000	102.863820
2823.000000	103.777660
2824.000000	103.712930
2825.000000	102.900730
2826.000000	102.884650
2827.000000	103.417440
2828.000000	102.824200
2829.000000	101.914190
2830.000000	102.306920
2831.000000	103.414300
2832.000000	103.831530
2833.000000	102.703320
2834.000000	102.350840
2835.000000	102.873170
2836.000000	102.711380
2837.000000	101.926010
2838.000000	102.733250
2839.000000	104.208750
2840.000000	104.136370
2841.000000	103.107230
2842.000000	102.905680
2843.000000	103.685220
2844.000000	103.681530
2845.000000	102.980270
2846.000000	102.993720
2847.000000	103.719660
2848.000000	103.322210
2849.000000	102.082810
2850.000000	101.068960
2851.000000	101.770600
2852.000000	101.638580
2853.000000	100.530220
2854.000000	100.539750
2855.000000	101.235280
2856.000000	100.960060
2857.000000	100.320780
2858.000000	100.743130
2859.000000	101.771350
2860.000000	102.392360
2861.000000	101.587130
2862.000000	101.344260
2863.000000	102.415760
2864.000000	102.746150
2865.000000	102.231390
2866.000000	102.135400
2867.000000	102.372680
2868.000000	102.227890
2869.000000	101.344170
2870.000000	100.780080
2871.000000	101.420360
2872.000000	102.161520
2873.000000	101.586480
2874.000000	101.409840
2875.000000	102.296420
2876.000000	102.853140
2877.000000	102.291850
2878.000000	101.264310
2879.000000	101.977230
2880.000000	103.268460
2881.000000	103.263910
2882.000000	102.873130
2883.000000	103.577180
2884.000000	104.005900
2885.000000	103.397090
2886.000000	102.803130
2887.000000	103.691720
2888.000000	104.962210
2889.000000	104.039560
2890.000000	102.617170
2891.000000	102.542720
2892.000000	102.352670
2893.000000	100.899000
2894.000000	99.657920
2895.000000	99.651070
2896.000000	100.824100
2897.000000	100.276100
2898.000000	99.311100
2899.000000	99.697410
2900.000000	100.085310
2901.000000	99.225870
2902.000000	98.872260
2903.000000	100.110400
2904.000000	101.532160
2905.000000	101.445000
2906.000000	99.977680
2907.000000	100.274830
2908.000000	101.826130
2909.000000	101.848360
2910.000000	101.248710
2911.000000	101.927150
2912.000000	103.927360
2913.000000	104.521520
2914.000000	104.201590
2915.000000	104.342250
2916.000000	105.917090
2917.000000	105.821600
2918.000000	104.690890
2919.000000	105.410640
2920.000000	106.646550
2921.000000	106.660190
2922.000000	104.902490
2923.000000	104.549520
2924.000000	105.328300
2925.000000	105.950750
2926.000000	105.472720
2927.000000	105.363630
2928.000000	105.144380
2929.000000	103.953960
2930.000000	102.758700
2931.000000	102.554210
2932.000000	103.889920
2933.000000	103.467330
2934.000000	101.925890
2935.000000	101.853850
2936.000000	101.867150
2937.000000	102.828840
2938.000000	103.040510
2939.000000	103.613160
2940.000000	104.408350
2941.000000	105.242870
2942.000000	103.796310
2943.000000	102.742680
2944.000000	103.717590
2945.000000	103.216160
2946.000000	102.570260
2947.000000	101.239960
2948.000000	101.109630
2949.000000	101.465170
2950.000000	101.245000
2951.000000	100.646110
2952.000000	101.568700
2953.000000	102.467880
2954.000000	101.671630
2955.000000	100.472970
2956.000000	100.804530
2957.000000	101.225600
2958.000000	101.060080
2959.000000	99.454300
2960.000000	99.628560
2961.000000	100.795570
2962.000000	100.170530
2963.000000	100.649430
2964.000000	101.404360
2965.000000	103.909920
2966.000000	103.917510
2967.000000	103.705220
2968.000000	104.826610
2969.000000	106.591610
2970.000000	106.772090
2971.000000	105.183690
2972.000000	105.308200
2973.000000	105.875470
2974.000000	105.270160
2975.000000	103.962310
2976.000000	104.270280
2977.000000	105.427310
2978.000000	104.526120
2979.000000	103.664150
2980.000000	103.666890
2981.000000	104.972020
2982.000000	105.240200
2983.000000	104.502750
2984.000000	105.604320
2985.000000	106.386820
2986.000000	106.203110
2987.000000	105.032250
2988.000000	105.665630
2989.000000	106.903470
2990.000000	107.186260
2991.000000	105.476920
2992.000000	105.238960
2993.000000	106.957670
2994.000000	105.797980
2995.000000	104.337080
2996.000000	103.175750
2997.000000	103.161690
2998.000000	102.297360
2999.000000	100.006110
3000.000000	99.480460
