PE UV       SUBTECH     SPECTRUM    ASCII       PEDS        4.00        
   -1
INBUCR0423-4.Sample.ASC
24/02/09
13:54:31.00
24/02/09
13:54:31.00
Vinicio Soto Monge
Chrysina aurora. Det: A. Solís. R. San Lorencito, 900 m. R. F. San Ramón, 5 km N de Colonia Palmareña. Prov Alajuela. COSTA RICA. 13-18 Jun 1993. I Curso Scarabaeidae. L-N-244500, 470700. INBIOCRI00139214
250,000000
1
Lambda 1050
1050L1511233
PerkinElmer UV WinLab 6.3.2.0749 / 2.02.05 Lambda 900 UV/VIS/NIR, Aug  7 2015 09:38:08

0
0
3350/servo 860,8/2
0
0
UV/VIS
1
1
1
DoubleDePol,CommonBeamDepol,RBeamAtt,SBeamAtt,60mm sphere, WB InGaAs Detector
0
0
0
0
Program
Program
3350/servo 860,8/2
3350/0,2 860,8/0,2
3350/0,2 860,8/0,2
0
15.00
 
 
 
0
 
860,8
319,2
860,8
Front
100
on
S:100 R:100
0
0
0
0
 
0
 
 
 
0
 
 
0
0
0
0
0
 
 
 
 
0
0


0
0
#HDR
-1
-1
#GR
nm
%R
1.0
0.0
2500,000000
-1,000000
2251
8
17,588500
1,073600
#DATA

250.000000	nan
251.000000	nan
252.000000	nan
253.000000	nan
254.000000	nan
255.000000	nan
256.000000	nan
257.000000	nan
258.000000	nan
259.000000	3.876503
260.000000	3.875726
261.000000	3.874792
262.000000	3.874023
263.000000	3.872620
264.000000	3.872667
265.000000	3.869994
266.000000	3.866928
267.000000	3.864268
268.000000	3.861497
269.000000	3.859858
270.000000	3.857563
271.000000	3.855425
272.000000	3.851281
273.000000	3.849349
274.000000	3.847035
275.000000	3.844154
276.000000	3.842890
277.000000	3.841541
278.000000	3.840102
279.000000	3.839402
280.000000	3.837242
281.000000	3.835433
282.000000	3.835330
283.000000	3.834317
284.000000	3.832601
285.000000	3.832521
286.000000	3.832137
287.000000	3.832223
288.000000	3.833484
289.000000	3.832115
290.000000	3.833787
291.000000	3.835378
292.000000	3.837499
293.000000	3.838271
294.000000	3.840862
295.000000	3.843076
296.000000	3.845237
297.000000	3.848078
298.000000	3.850339
299.000000	3.853766
300.000000	3.855629
301.000000	3.857885
302.000000	3.859895
303.000000	3.863618
304.000000	3.866030
305.000000	3.868823
306.000000	3.872324
307.000000	3.874698
308.000000	3.877734
309.000000	3.879693
310.000000	3.882605
311.000000	3.885596
312.000000	3.889510
313.000000	3.890489
314.000000	3.894223
315.000000	3.896676
316.000000	3.899994
317.000000	3.916007
318.000000	3.927057
319.000000	3.937285
320.000000	3.947754
321.000000	3.958959
322.000000	3.967082
323.000000	3.981525
324.000000	3.991557
325.000000	4.000840
326.000000	4.009902
327.000000	4.006848
328.000000	4.005434
329.000000	4.008465
330.000000	4.010580
331.000000	4.011328
332.000000	4.012576
333.000000	4.006997
334.000000	4.007358
335.000000	4.009132
336.000000	4.008354
337.000000	4.007974
338.000000	4.009673
339.000000	4.009614
340.000000	4.009740
341.000000	4.009563
342.000000	4.010039
343.000000	4.012994
344.000000	4.011800
345.000000	4.011464
346.000000	4.012271
347.000000	4.041674
348.000000	4.072274
349.000000	4.102921
350.000000	4.132561
351.000000	4.162175
352.000000	4.193388
353.000000	4.225854
354.000000	4.259254
355.000000	4.292313
356.000000	4.324013
357.000000	4.327070
358.000000	4.330026
359.000000	4.332376
360.000000	4.335757
361.000000	4.339432
362.000000	4.340817
363.000000	4.340206
364.000000	4.340427
365.000000	4.341778
366.000000	4.372535
367.000000	4.404717
368.000000	4.436564
369.000000	4.466701
370.000000	4.496141
371.000000	4.525229
372.000000	4.555731
373.000000	4.586991
374.000000	4.616406
375.000000	4.675475
376.000000	4.704107
377.000000	4.724776
378.000000	4.745498
379.000000	4.768013
380.000000	4.820582
381.000000	4.873278
382.000000	4.926661
383.000000	4.980652
384.000000	5.034656
385.000000	5.058457
386.000000	5.114292
387.000000	5.176586
388.000000	5.238812
389.000000	5.300778
390.000000	5.333100
391.000000	5.395430
392.000000	5.457200
393.000000	5.519191
394.000000	5.581703
395.000000	5.644118
396.000000	5.676934
397.000000	5.709632
398.000000	5.771465
399.000000	5.833609
400.000000	5.896025
401.000000	5.928833
402.000000	5.961301
403.000000	5.993555
404.000000	6.025882
405.000000	6.058579
406.000000	6.091109
407.000000	6.123316
408.000000	6.126018
409.000000	6.128938
410.000000	6.131865
411.000000	6.134558
412.000000	6.166913
413.000000	6.199740
414.000000	6.232591
415.000000	6.264944
416.000000	6.297181
417.000000	6.329872
418.000000	6.333316
419.000000	6.336164
420.000000	6.338880
421.000000	6.342031
422.000000	6.315954
423.000000	6.289710
424.000000	6.263182
425.000000	6.237066
426.000000	6.211223
427.000000	6.185226
428.000000	6.188554
429.000000	6.192022
430.000000	6.195852
431.000000	6.199771
432.000000	6.203516
433.000000	6.207504
434.000000	6.182298
435.000000	6.156675
436.000000	6.130788
437.000000	6.105298
438.000000	6.080180
439.000000	6.055200
440.000000	6.029900
441.000000	6.004393
442.000000	5.949568
443.000000	5.894568
444.000000	5.868700
445.000000	5.843077
446.000000	5.818196
447.000000	5.793347
448.000000	5.768316
449.000000	5.743315
450.000000	5.688995
451.000000	5.634869
452.000000	5.610261
453.000000	5.585755
454.000000	5.561620
455.000000	5.537449
456.000000	5.512851
457.000000	5.488217
458.000000	5.463619
459.000000	5.438999
460.000000	5.444090
461.000000	5.449179
462.000000	5.454232
463.000000	5.459377
464.000000	5.464762
465.000000	5.470408
466.000000	5.475911
467.000000	5.481333
468.000000	5.486975
469.000000	5.492756
470.000000	5.498226
471.000000	5.503411
472.000000	5.508700
473.000000	5.514033
474.000000	5.518918
475.000000	5.523525
476.000000	5.528181
477.000000	5.532812
478.000000	5.537318
479.000000	5.541443
480.000000	5.574601
481.000000	5.607413
482.000000	5.639617
483.000000	5.671522
484.000000	5.703772
485.000000	5.736587
486.000000	5.770026
487.000000	5.803907
488.000000	5.838141
489.000000	5.873414
490.000000	5.880671
491.000000	5.918929
492.000000	5.958005
493.000000	5.997882
494.000000	6.038493
495.000000	6.079427
496.000000	6.120515
497.000000	6.161698
498.000000	6.203384
499.000000	6.274712
500.000000	6.346159
501.000000	6.387512
502.000000	6.429367
503.000000	6.471613
504.000000	6.513813
505.000000	6.585403
506.000000	6.656900
507.000000	6.728693
508.000000	6.800340
509.000000	6.842019
510.000000	6.912813
511.000000	6.983939
512.000000	7.054688
513.000000	7.154431
514.000000	7.253591
515.000000	7.323003
516.000000	7.392246
517.000000	7.490419
518.000000	7.588228
519.000000	7.686072
520.000000	7.754322
521.000000	7.851906
522.000000	7.949629
523.000000	8.017896
524.000000	8.086379
525.000000	8.184695
526.000000	8.283484
527.000000	8.352949
528.000000	8.422787
529.000000	8.493102
530.000000	8.563610
531.000000	8.604951
532.000000	8.646738
533.000000	8.688728
534.000000	8.760504
535.000000	8.802761
536.000000	8.844902
537.000000	8.887558
538.000000	8.930459
539.000000	8.973276
540.000000	9.016324
541.000000	9.059453
542.000000	9.102373
543.000000	9.145484
544.000000	9.159095
545.000000	9.172533
546.000000	9.186021
547.000000	9.199468
548.000000	9.212567
549.000000	9.225675
550.000000	9.238743
551.000000	9.251881
552.000000	9.264779
553.000000	9.277389
554.000000	9.289867
555.000000	9.302373
556.000000	9.314544
557.000000	9.326619
558.000000	9.338657
559.000000	9.350633
560.000000	9.357958
561.000000	9.363749
562.000000	9.369568
563.000000	9.345644
564.000000	9.321669
565.000000	9.297634
566.000000	9.273311
567.000000	9.248847
568.000000	9.224318
569.000000	9.199776
570.000000	9.179005
571.000000	9.159462
572.000000	9.110519
573.000000	9.091337
574.000000	9.071924
575.000000	9.052696
576.000000	9.033821
577.000000	8.985287
578.000000	8.936743
579.000000	8.887966
580.000000	8.839642
581.000000	8.791368
582.000000	8.743078
583.000000	8.694616
584.000000	8.646019
585.000000	8.597636
586.000000	8.549439
587.000000	8.501174
588.000000	8.452956
589.000000	8.405150
590.000000	8.357292
591.000000	8.309228
592.000000	8.290810
593.000000	8.272328
594.000000	8.254359
595.000000	8.235972
596.000000	8.216995
597.000000	8.228127
598.000000	8.239200
599.000000	8.220539
600.000000	8.202147
601.000000	8.183375
602.000000	8.164717
603.000000	8.146277
604.000000	8.127960
605.000000	8.109737
606.000000	8.091565
607.000000	8.072972
608.000000	8.054539
609.000000	8.065574
610.000000	8.076548
611.000000	8.058683
612.000000	8.040359
613.000000	8.021689
614.000000	8.002871
615.000000	7.984234
616.000000	7.965867
617.000000	7.947605
618.000000	7.929074
619.000000	7.910670
620.000000	7.892271
621.000000	7.903166
622.000000	7.914418
623.000000	7.925868
624.000000	7.937484
625.000000	7.948402
626.000000	7.989056
627.000000	8.030144
628.000000	8.071763
629.000000	8.113246
630.000000	8.154658
631.000000	8.196404
632.000000	8.238216
633.000000	8.280508
634.000000	8.323086
635.000000	8.366400
636.000000	8.380417
637.000000	8.394152
638.000000	8.407679
639.000000	8.421598
640.000000	8.436282
641.000000	8.450950
642.000000	8.465645
643.000000	8.480081
644.000000	8.494613
645.000000	8.509896
646.000000	8.525018
647.000000	8.540153
648.000000	8.555955
649.000000	8.571848
650.000000	8.617424
651.000000	8.662746
652.000000	8.708843
653.000000	8.755402
654.000000	8.802288
655.000000	8.848453
656.000000	8.894905
657.000000	8.942024
658.000000	9.018423
659.000000	9.094892
660.000000	9.141364
661.000000	9.188562
662.000000	9.235623
663.000000	9.282616
664.000000	9.329176
665.000000	9.405831
666.000000	9.482202
667.000000	9.558415
668.000000	9.605119
669.000000	9.651619
670.000000	9.699019
671.000000	9.775616
672.000000	9.851487
673.000000	9.927413
674.000000	10.003491
675.000000	10.050039
676.000000	10.096865
677.000000	10.173027
678.000000	10.249168
679.000000	10.325495
680.000000	10.401277
681.000000	10.447975
682.000000	10.524628
683.000000	10.601140
684.000000	10.677392
685.000000	10.753026
686.000000	10.829018
687.000000	10.905020
688.000000	10.981410
689.000000	11.058023
690.000000	11.133959
691.000000	11.238999
692.000000	11.314085
693.000000	11.389739
694.000000	11.466073
695.000000	11.572033
696.000000	11.677935
697.000000	11.754673
698.000000	11.831225
699.000000	11.936395
700.000000	12.042379
701.000000	12.119122
702.000000	12.195732
703.000000	12.302202
704.000000	12.408534
705.000000	12.485672
706.000000	12.562672
707.000000	12.668052
708.000000	12.772890
709.000000	12.849366
710.000000	12.925814
711.000000	13.031488
712.000000	13.137574
713.000000	13.213677
714.000000	13.290233
715.000000	13.366257
716.000000	13.471782
717.000000	13.548774
718.000000	13.626301
719.000000	13.703045
720.000000	13.779668
721.000000	13.856696
722.000000	13.934005
723.000000	14.010924
724.000000	14.087128
725.000000	14.164008
726.000000	14.211690
727.000000	14.288931
728.000000	14.365862
729.000000	14.443161
730.000000	14.520512
731.000000	14.568798
732.000000	14.617439
733.000000	14.695404
734.000000	14.772869
735.000000	14.850221
736.000000	14.928101
737.000000	14.976653
738.000000	15.024884
739.000000	15.073339
740.000000	15.122240
741.000000	15.199889
742.000000	15.277473
743.000000	15.326425
744.000000	15.375183
745.000000	15.424056
746.000000	15.472698
747.000000	15.521335
748.000000	15.570881
749.000000	15.620543
750.000000	15.670008
751.000000	15.690604
752.000000	15.740609
753.000000	15.789549
754.000000	15.838946
755.000000	15.889033
756.000000	15.938584
757.000000	15.987341
758.000000	16.036126
759.000000	16.085148
760.000000	16.134500
761.000000	16.183493
762.000000	16.202497
763.000000	16.222436
764.000000	16.243049
765.000000	16.292832
766.000000	16.343139
767.000000	16.393935
768.000000	16.444643
769.000000	16.495539
770.000000	16.545510
771.000000	16.595008
772.000000	16.645830
773.000000	16.697163
774.000000	16.749004
775.000000	16.770752
776.000000	16.792352
777.000000	16.814835
778.000000	16.836341
779.000000	16.857259
780.000000	16.879025
781.000000	16.900737
782.000000	16.921551
783.000000	16.942478
784.000000	16.964036
785.000000	16.985520
786.000000	17.006275
787.000000	17.026429
788.000000	17.048652
789.000000	17.071511
790.000000	17.093415
791.000000	17.145529
792.000000	17.197683
793.000000	17.249441
794.000000	17.300264
795.000000	17.352567
796.000000	17.405738
797.000000	17.459066
798.000000	17.511222
799.000000	17.563121
800.000000	17.615128
801.000000	17.637992
802.000000	17.662554
803.000000	17.686902
804.000000	17.709525
805.000000	17.731474
806.000000	17.752341
807.000000	17.773250
808.000000	17.796357
809.000000	17.791614
810.000000	17.815410
811.000000	17.840822
812.000000	17.864680
813.000000	17.887331
814.000000	17.912436
815.000000	17.936297
816.000000	17.960133
817.000000	17.985339
818.000000	18.007784
819.000000	18.058447
820.000000	18.081161
821.000000	18.101615
822.000000	18.119901
823.000000	18.140050
824.000000	18.158942
825.000000	18.179251
826.000000	18.198887
827.000000	18.216792
828.000000	18.235156
829.000000	18.251340
830.000000	18.268111
831.000000	18.284665
832.000000	18.300308
833.000000	18.316621
834.000000	18.332909
835.000000	18.346900
836.000000	18.361501
837.000000	18.374973
838.000000	18.391592
839.000000	18.408403
840.000000	18.420636
841.000000	18.435352
842.000000	18.452759
843.000000	18.465512
844.000000	18.476819
845.000000	18.494848
846.000000	18.512985
847.000000	18.526571
848.000000	18.537357
849.000000	18.547485
850.000000	18.559540
851.000000	18.572084
852.000000	18.584780
853.000000	18.595801
854.000000	18.609044
855.000000	18.614025
856.000000	18.620270
857.000000	18.634556
858.000000	18.983789
859.000000	19.034478
860.000000	19.089785
861.000000	19.118343
862.000000	19.147227
863.000000	19.181157
864.000000	19.215468
865.000000	19.253204
866.000000	19.290063
867.000000	19.298694
868.000000	18.972120
869.000000	18.945762
870.000000	18.915292
871.000000	18.908158
872.000000	18.900168
873.000000	18.867832
874.000000	18.857077
875.000000	18.845510
876.000000	18.809058
877.000000	18.822835
878.000000	18.810737
879.000000	18.823453
880.000000	18.811495
881.000000	18.799857
882.000000	18.788792
883.000000	18.800833
884.000000	18.788818
885.000000	18.752090
886.000000	18.764018
887.000000	18.750625
888.000000	18.763003
889.000000	18.724843
890.000000	18.710928
891.000000	18.696015
892.000000	18.681203
893.000000	18.665230
894.000000	18.650820
895.000000	18.660528
896.000000	18.645185
897.000000	18.631180
898.000000	18.616142
899.000000	18.626155
900.000000	18.637652
901.000000	18.649830
902.000000	18.662005
903.000000	18.676332
904.000000	18.688207
905.000000	18.701470
906.000000	18.715925
907.000000	18.728790
908.000000	18.742170
909.000000	18.757247
910.000000	18.746830
911.000000	18.736945
912.000000	18.751742
913.000000	18.741040
914.000000	18.732325
915.000000	18.723363
916.000000	18.714717
917.000000	18.705637
918.000000	18.698057
919.000000	18.689387
920.000000	18.706193
921.000000	18.722935
922.000000	18.714145
923.000000	18.730065
924.000000	18.745570
925.000000	18.761170
926.000000	18.775645
927.000000	18.790995
928.000000	18.804720
929.000000	18.818200
930.000000	18.830022
931.000000	18.842248
932.000000	18.855770
933.000000	18.870442
934.000000	18.885317
935.000000	18.899695
936.000000	18.915512
937.000000	18.930965
938.000000	18.946632
939.000000	18.961745
940.000000	18.977360
941.000000	18.991882
942.000000	19.005038
943.000000	19.017893
944.000000	19.030100
945.000000	19.041090
946.000000	19.052003
947.000000	19.063932
948.000000	19.076503
949.000000	19.088835
950.000000	19.101155
951.000000	19.114540
952.000000	19.127730
953.000000	19.140745
954.000000	19.153618
955.000000	19.167893
956.000000	19.181075
957.000000	19.193448
958.000000	19.205170
959.000000	19.218550
960.000000	19.231600
961.000000	19.244177
962.000000	19.257413
963.000000	19.269425
964.000000	19.282750
965.000000	19.294797
966.000000	19.307572
967.000000	19.320293
968.000000	19.332150
969.000000	19.343268
970.000000	19.355135
971.000000	19.365682
972.000000	19.375972
973.000000	19.386600
974.000000	19.396397
975.000000	19.407455
976.000000	19.416833
977.000000	19.426825
978.000000	19.436253
979.000000	19.445425
980.000000	19.454987
981.000000	19.465387
982.000000	19.475653
983.000000	19.486250
984.000000	19.496320
985.000000	19.505312
986.000000	19.515328
987.000000	19.525100
988.000000	19.535253
989.000000	19.545485
990.000000	19.555080
991.000000	19.564530
992.000000	19.574045
993.000000	19.583452
994.000000	19.593555
995.000000	19.603558
996.000000	19.612905
997.000000	19.622048
998.000000	19.631760
999.000000	19.640190
1000.000000	19.648600
1001.000000	19.657923
1002.000000	19.666845
1003.000000	19.675540
1004.000000	19.683195
1005.000000	19.690685
1006.000000	19.699103
1007.000000	19.706672
1008.000000	19.714305
1009.000000	19.722888
1010.000000	19.731415
1011.000000	19.739055
1012.000000	19.746767
1013.000000	19.754790
1014.000000	19.762820
1015.000000	19.771003
1016.000000	19.778472
1017.000000	19.785865
1018.000000	19.793537
1019.000000	19.801647
1020.000000	19.810218
1021.000000	19.818378
1022.000000	19.826185
1023.000000	19.834242
1024.000000	19.842662
1025.000000	19.850715
1026.000000	19.859005
1027.000000	19.867997
1028.000000	19.877410
1029.000000	19.886547
1030.000000	19.895485
1031.000000	19.904995
1032.000000	19.914123
1033.000000	19.922930
1034.000000	19.932395
1035.000000	19.941903
1036.000000	19.951475
1037.000000	19.961633
1038.000000	19.971030
1039.000000	19.979965
1040.000000	19.988620
1041.000000	19.997305
1042.000000	20.006507
1043.000000	20.014608
1044.000000	20.022700
1045.000000	20.032085
1046.000000	20.040793
1047.000000	20.048413
1048.000000	20.081768
1049.000000	20.115158
1050.000000	20.148688
1051.000000	20.181497
1052.000000	20.213920
1053.000000	20.247710
1054.000000	20.281697
1055.000000	20.315293
1056.000000	20.348858
1057.000000	20.383400
1058.000000	20.392477
1059.000000	20.401542
1060.000000	20.410523
1061.000000	20.419890
1062.000000	20.429540
1063.000000	20.438570
1064.000000	20.446795
1065.000000	20.454902
1066.000000	20.464175
1067.000000	20.472910
1068.000000	20.481623
1069.000000	20.490770
1070.000000	20.500967
1071.000000	20.511123
1072.000000	20.520665
1073.000000	20.530893
1074.000000	20.541677
1075.000000	20.552443
1076.000000	20.562513
1077.000000	20.572368
1078.000000	20.581765
1079.000000	20.590297
1080.000000	20.598112
1081.000000	20.606800
1082.000000	20.615492
1083.000000	20.623090
1084.000000	20.629965
1085.000000	20.636978
1086.000000	20.644842
1087.000000	20.653400
1088.000000	20.661645
1089.000000	20.670053
1090.000000	20.678632
1091.000000	20.686485
1092.000000	20.694747
1093.000000	20.702655
1094.000000	20.710718
1095.000000	20.718478
1096.000000	20.725870
1097.000000	20.732090
1098.000000	20.737325
1099.000000	20.743942
1100.000000	20.750645
1101.000000	20.756808
1102.000000	20.787265
1103.000000	20.818680
1104.000000	20.849485
1105.000000	20.879938
1106.000000	20.910535
1107.000000	20.941553
1108.000000	20.973230
1109.000000	21.003708
1110.000000	21.033228
1111.000000	21.062262
1112.000000	21.067618
1113.000000	21.072122
1114.000000	21.076208
1115.000000	21.079642
1116.000000	21.082460
1117.000000	21.085080
1118.000000	21.087545
1119.000000	21.090147
1120.000000	21.091777
1121.000000	21.094650
1122.000000	21.096402
1123.000000	21.098322
1124.000000	21.100162
1125.000000	21.102697
1126.000000	21.079170
1127.000000	21.054713
1128.000000	21.029558
1129.000000	21.003020
1130.000000	20.976527
1131.000000	20.946158
1132.000000	20.913737
1133.000000	20.882105
1134.000000	20.852588
1135.000000	20.821722
1136.000000	20.814628
1137.000000	20.805420
1138.000000	20.796968
1139.000000	20.787942
1140.000000	20.778947
1141.000000	20.771835
1142.000000	20.765905
1143.000000	20.759058
1144.000000	20.751223
1145.000000	20.744265
1146.000000	20.738278
1147.000000	20.709595
1148.000000	20.679505
1149.000000	20.650543
1150.000000	20.622985
1151.000000	20.596108
1152.000000	20.568445
1153.000000	20.541992
1154.000000	20.514300
1155.000000	20.485895
1156.000000	20.456212
1157.000000	20.449303
1158.000000	20.442687
1159.000000	20.434868
1160.000000	20.425142
1161.000000	20.413970
1162.000000	20.402622
1163.000000	20.362705
1164.000000	20.322243
1165.000000	20.280820
1166.000000	20.239675
1167.000000	20.199760
1168.000000	20.158800
1169.000000	20.117690
1170.000000	20.077623
1171.000000	20.037670
1172.000000	19.997643
1173.000000	19.984000
1174.000000	19.970427
1175.000000	19.957777
1176.000000	19.945475
1177.000000	19.933245
1178.000000	19.923045
1179.000000	19.913602
1180.000000	19.902707
1181.000000	19.867647
1182.000000	19.859642
1183.000000	19.827302
1184.000000	19.793520
1185.000000	19.761555
1186.000000	19.731142
1187.000000	19.702513
1188.000000	19.698775
1189.000000	19.696465
1190.000000	19.696662
1191.000000	19.723680
1192.000000	19.726135
1193.000000	19.754777
1194.000000	19.787133
1195.000000	19.819178
1196.000000	19.852010
1197.000000	19.885742
1198.000000	19.896030
1199.000000	19.905560
1200.000000	19.915758
1201.000000	19.925690
1202.000000	19.937025
1203.000000	19.948050
1204.000000	19.959308
1205.000000	19.971130
1206.000000	19.982855
1207.000000	19.994805
1208.000000	20.005607
1209.000000	20.018207
1210.000000	20.031435
1211.000000	20.043880
1212.000000	20.080482
1213.000000	20.117725
1214.000000	20.154885
1215.000000	20.191723
1216.000000	20.229205
1217.000000	20.265712
1218.000000	20.303170
1219.000000	20.339505
1220.000000	20.374153
1221.000000	20.409277
1222.000000	20.419125
1223.000000	20.428648
1224.000000	20.436730
1225.000000	20.444430
1226.000000	20.450715
1227.000000	20.456330
1228.000000	20.461292
1229.000000	20.466015
1230.000000	20.470743
1231.000000	20.474555
1232.000000	20.477628
1233.000000	20.479565
1234.000000	20.481587
1235.000000	20.482968
1236.000000	20.483750
1237.000000	20.485847
1238.000000	20.488155
1239.000000	20.489810
1240.000000	20.491212
1241.000000	20.493462
1242.000000	20.496840
1243.000000	20.500432
1244.000000	20.504232
1245.000000	20.534365
1246.000000	20.565985
1247.000000	20.596407
1248.000000	20.627265
1249.000000	20.659743
1250.000000	20.692835
1251.000000	20.727440
1252.000000	20.761142
1253.000000	20.795088
1254.000000	20.829880
1255.000000	20.839037
1256.000000	20.847840
1257.000000	20.856798
1258.000000	20.865150
1259.000000	20.872853
1260.000000	20.880175
1261.000000	20.885433
1262.000000	20.890710
1263.000000	20.896217
1264.000000	20.900020
1265.000000	20.904015
1266.000000	20.907820
1267.000000	20.911300
1268.000000	20.913468
1269.000000	20.914840
1270.000000	20.915833
1271.000000	20.916060
1272.000000	20.916160
1273.000000	20.915982
1274.000000	20.916510
1275.000000	20.916303
1276.000000	20.915157
1277.000000	20.914580
1278.000000	20.915348
1279.000000	20.915880
1280.000000	20.916698
1281.000000	20.919195
1282.000000	20.922048
1283.000000	20.924968
1284.000000	20.927615
1285.000000	20.930000
1286.000000	20.933470
1287.000000	20.937060
1288.000000	20.940700
1289.000000	20.945047
1290.000000	20.949572
1291.000000	20.954150
1292.000000	20.958730
1293.000000	20.963057
1294.000000	20.967510
1295.000000	20.972048
1296.000000	20.976415
1297.000000	20.981010
1298.000000	20.985833
1299.000000	20.990462
1300.000000	20.993798
1301.000000	20.997070
1302.000000	21.000640
1303.000000	21.004157
1304.000000	21.008010
1305.000000	21.011262
1306.000000	21.013405
1307.000000	21.014005
1308.000000	21.013410
1309.000000	21.012913
1310.000000	21.012392
1311.000000	21.010235
1312.000000	21.006885
1313.000000	21.003215
1314.000000	20.998765
1315.000000	20.994108
1316.000000	20.989043
1317.000000	20.984330
1318.000000	20.979210
1319.000000	20.972622
1320.000000	20.965905
1321.000000	20.958227
1322.000000	20.950543
1323.000000	20.942453
1324.000000	20.933385
1325.000000	20.924230
1326.000000	20.915502
1327.000000	20.906180
1328.000000	20.896442
1329.000000	20.886952
1330.000000	20.852183
1331.000000	20.817865
1332.000000	20.782470
1333.000000	20.746200
1334.000000	20.709803
1335.000000	20.672863
1336.000000	20.634415
1337.000000	20.595002
1338.000000	20.555727
1339.000000	20.516430
1340.000000	20.500570
1341.000000	20.483370
1342.000000	20.465315
1343.000000	20.421860
1344.000000	20.377817
1345.000000	20.332118
1346.000000	20.286228
1347.000000	20.241937
1348.000000	20.196530
1349.000000	20.148290
1350.000000	20.099833
1351.000000	20.049952
1352.000000	19.999083
1353.000000	19.974152
1354.000000	19.952365
1355.000000	19.907590
1356.000000	19.862082
1357.000000	19.813427
1358.000000	19.763008
1359.000000	19.712535
1360.000000	19.666128
1361.000000	19.628915
1362.000000	19.568043
1363.000000	19.503652
1364.000000	19.437940
1365.000000	19.395052
1366.000000	19.348807
1367.000000	19.279913
1368.000000	19.211720
1369.000000	19.141470
1370.000000	19.065333
1371.000000	18.979995
1372.000000	18.888725
1373.000000	18.791430
1374.000000	18.684305
1375.000000	18.572513
1376.000000	18.430582
1377.000000	18.305085
1378.000000	18.170315
1379.000000	18.033023
1380.000000	17.896013
1381.000000	17.738997
1382.000000	17.614022
1383.000000	17.500102
1384.000000	17.392640
1385.000000	17.289335
1386.000000	17.195310
1387.000000	17.113333
1388.000000	17.045685
1389.000000	16.983152
1390.000000	16.921275
1391.000000	16.886672
1392.000000	16.853788
1393.000000	16.818610
1394.000000	16.788115
1395.000000	16.743615
1396.000000	16.725122
1397.000000	16.697882
1398.000000	16.664552
1399.000000	16.638087
1400.000000	16.621140
1401.000000	16.596652
1402.000000	16.562957
1403.000000	16.527452
1404.000000	16.466725
1405.000000	16.422028
1406.000000	16.375175
1407.000000	16.332800
1408.000000	16.292465
1409.000000	16.247843
1410.000000	16.192563
1411.000000	16.111720
1412.000000	16.035852
1413.000000	15.963192
1414.000000	15.915180
1415.000000	15.863135
1416.000000	15.810258
1417.000000	15.756508
1418.000000	15.680370
1419.000000	15.603640
1420.000000	15.527197
1421.000000	15.477062
1422.000000	15.428525
1423.000000	15.379202
1424.000000	15.328348
1425.000000	15.279462
1426.000000	15.232570
1427.000000	15.162752
1428.000000	15.116553
1429.000000	15.068482
1430.000000	15.023540
1431.000000	14.982188
1432.000000	14.941855
1433.000000	14.901115
1434.000000	14.859692
1435.000000	14.820118
1436.000000	14.781572
1437.000000	14.769145
1438.000000	14.756665
1439.000000	14.745918
1440.000000	14.710920
1441.000000	14.674755
1442.000000	14.638715
1443.000000	14.603610
1444.000000	14.569258
1445.000000	14.538777
1446.000000	14.508255
1447.000000	14.474610
1448.000000	14.440170
1449.000000	14.408227
1450.000000	14.402890
1451.000000	14.399047
1452.000000	14.392753
1453.000000	14.385708
1454.000000	14.379610
1455.000000	14.370950
1456.000000	14.362875
1457.000000	14.356142
1458.000000	14.349832
1459.000000	14.343590
1460.000000	14.309438
1461.000000	14.274488
1462.000000	14.241608
1463.000000	14.209447
1464.000000	14.176545
1465.000000	14.144105
1466.000000	14.111960
1467.000000	14.079355
1468.000000	14.047717
1469.000000	14.015597
1470.000000	14.010198
1471.000000	14.005695
1472.000000	14.001030
1473.000000	13.996170
1474.000000	13.990723
1475.000000	13.984163
1476.000000	13.978227
1477.000000	13.974665
1478.000000	13.970480
1479.000000	13.964615
1480.000000	13.958530
1481.000000	13.951150
1482.000000	13.944573
1483.000000	13.937672
1484.000000	13.931545
1485.000000	13.926055
1486.000000	13.920492
1487.000000	13.888567
1488.000000	13.856770
1489.000000	13.825583
1490.000000	13.794190
1491.000000	13.763175
1492.000000	13.732302
1493.000000	13.702015
1494.000000	13.672052
1495.000000	13.642288
1496.000000	13.612930
1497.000000	13.609578
1498.000000	13.607455
1499.000000	13.605720
1500.000000	13.604413
1501.000000	13.604160
1502.000000	13.629500
1503.000000	13.656363
1504.000000	13.683738
1505.000000	13.711718
1506.000000	13.739820
1507.000000	13.768702
1508.000000	13.798528
1509.000000	13.829178
1510.000000	13.860238
1511.000000	13.891493
1512.000000	13.898665
1513.000000	13.905545
1514.000000	13.912693
1515.000000	13.920798
1516.000000	13.928983
1517.000000	13.937242
1518.000000	13.945118
1519.000000	13.953033
1520.000000	13.961963
1521.000000	13.971242
1522.000000	13.980265
1523.000000	13.989183
1524.000000	13.998230
1525.000000	14.006958
1526.000000	14.015635
1527.000000	14.023835
1528.000000	14.032177
1529.000000	14.065893
1530.000000	14.099450
1531.000000	14.132445
1532.000000	14.165210
1533.000000	14.198138
1534.000000	14.230527
1535.000000	14.263550
1536.000000	14.296345
1537.000000	14.329005
1538.000000	14.361227
1539.000000	14.367983
1540.000000	14.375117
1541.000000	14.381955
1542.000000	14.388590
1543.000000	14.395045
1544.000000	14.402040
1545.000000	14.408928
1546.000000	14.415648
1547.000000	14.423128
1548.000000	14.430753
1549.000000	14.438647
1550.000000	14.446673
1551.000000	14.455752
1552.000000	14.465437
1553.000000	14.475438
1554.000000	14.510212
1555.000000	14.544402
1556.000000	14.578470
1557.000000	14.612095
1558.000000	14.645708
1559.000000	14.678820
1560.000000	14.711042
1561.000000	14.741700
1562.000000	14.770943
1563.000000	14.799762
1564.000000	14.803440
1565.000000	14.805650
1566.000000	14.807610
1567.000000	14.809095
1568.000000	14.809495
1569.000000	14.808855
1570.000000	14.807652
1571.000000	14.807315
1572.000000	14.807595
1573.000000	14.807157
1574.000000	14.806980
1575.000000	14.808343
1576.000000	14.809485
1577.000000	14.810193
1578.000000	14.811095
1579.000000	14.812397
1580.000000	14.815183
1581.000000	14.818412
1582.000000	14.821425
1583.000000	14.825650
1584.000000	14.830182
1585.000000	14.834475
1586.000000	14.839810
1587.000000	14.845140
1588.000000	14.851673
1589.000000	14.859482
1590.000000	14.866050
1591.000000	14.872305
1592.000000	14.878865
1593.000000	14.885118
1594.000000	14.892062
1595.000000	14.899440
1596.000000	14.906670
1597.000000	14.914798
1598.000000	14.947730
1599.000000	14.979683
1600.000000	15.011800
1601.000000	15.044583
1602.000000	15.077730
1603.000000	15.111170
1604.000000	15.144573
1605.000000	15.177782
1606.000000	15.210215
1607.000000	15.242455
1608.000000	15.249395
1609.000000	15.257255
1610.000000	15.264957
1611.000000	15.271355
1612.000000	15.277440
1613.000000	15.283108
1614.000000	15.288085
1615.000000	15.293105
1616.000000	15.298453
1617.000000	15.303127
1618.000000	15.307572
1619.000000	15.311065
1620.000000	15.314320
1621.000000	15.342870
1622.000000	15.371652
1623.000000	15.399600
1624.000000	15.427490
1625.000000	15.454778
1626.000000	15.481887
1627.000000	15.509110
1628.000000	15.536548
1629.000000	15.564695
1630.000000	15.593427
1631.000000	15.596193
1632.000000	15.598583
1633.000000	15.601655
1634.000000	15.604015
1635.000000	15.606433
1636.000000	15.608827
1637.000000	15.611495
1638.000000	15.613112
1639.000000	15.613293
1640.000000	15.613647
1641.000000	15.614470
1642.000000	15.613803
1643.000000	15.612520
1644.000000	15.611007
1645.000000	15.609715
1646.000000	15.606463
1647.000000	15.602505
1648.000000	15.598090
1649.000000	15.593217
1650.000000	15.585722
1651.000000	15.576962
1652.000000	15.567280
1653.000000	15.555900
1654.000000	15.542205
1655.000000	15.526595
1656.000000	15.509983
1657.000000	15.491550
1658.000000	15.471885
1659.000000	15.451300
1660.000000	15.405250
1661.000000	15.358087
1662.000000	15.310213
1663.000000	15.262460
1664.000000	15.214572
1665.000000	15.164953
1666.000000	15.116135
1667.000000	15.067295
1668.000000	15.015928
1669.000000	14.962658
1670.000000	14.909940
1671.000000	14.857460
1672.000000	14.804892
1673.000000	14.752380
1674.000000	14.699613
1675.000000	14.648813
1676.000000	14.598657
1677.000000	14.548023
1678.000000	14.500345
1679.000000	14.429317
1680.000000	14.383372
1681.000000	14.337725
1682.000000	14.292550
1683.000000	14.246437
1684.000000	14.200828
1685.000000	14.153897
1686.000000	14.106955
1687.000000	14.061900
1688.000000	14.017225
1689.000000	13.998775
1690.000000	13.982477
1691.000000	13.968937
1692.000000	13.933230
1693.000000	13.899327
1694.000000	13.868633
1695.000000	13.839378
1696.000000	13.812790
1697.000000	13.787702
1698.000000	13.763225
1699.000000	13.739968
1700.000000	13.716905
1701.000000	13.693105
1702.000000	13.694000
1703.000000	13.694502
1704.000000	13.695185
1705.000000	13.696808
1706.000000	13.695123
1707.000000	13.691990
1708.000000	13.688738
1709.000000	13.683843
1710.000000	13.677492
1711.000000	13.668777
1712.000000	13.658780
1713.000000	13.647547
1714.000000	13.632897
1715.000000	13.617050
1716.000000	13.601752
1717.000000	13.560335
1718.000000	13.517880
1719.000000	13.474800
1720.000000	13.431367
1721.000000	13.389212
1722.000000	13.347680
1723.000000	13.307715
1724.000000	13.270950
1725.000000	13.235940
1726.000000	13.202600
1727.000000	13.196395
1728.000000	13.193330
1729.000000	13.192155
1730.000000	13.192457
1731.000000	13.195315
1732.000000	13.198548
1733.000000	13.203205
1734.000000	13.208300
1735.000000	13.214845
1736.000000	13.222297
1737.000000	13.231085
1738.000000	13.238672
1739.000000	13.246713
1740.000000	13.255795
1741.000000	13.264170
1742.000000	13.274027
1743.000000	13.284265
1744.000000	13.294552
1745.000000	13.304380
1746.000000	13.339045
1747.000000	13.373580
1748.000000	13.409237
1749.000000	13.445102
1750.000000	13.480675
1751.000000	13.516212
1752.000000	13.550480
1753.000000	13.584013
1754.000000	13.617462
1755.000000	13.650012
1756.000000	13.657450
1757.000000	13.663233
1758.000000	13.668283
1759.000000	13.673580
1760.000000	13.678322
1761.000000	13.682808
1762.000000	13.686875
1763.000000	13.691768
1764.000000	13.696617
1765.000000	13.701963
1766.000000	13.707530
1767.000000	13.713232
1768.000000	13.719585
1769.000000	13.726190
1770.000000	13.733725
1771.000000	13.741978
1772.000000	13.751285
1773.000000	13.760602
1774.000000	13.769502
1775.000000	13.804337
1776.000000	13.838495
1777.000000	13.872960
1778.000000	13.908103
1779.000000	13.943473
1780.000000	13.978835
1781.000000	14.013837
1782.000000	14.047508
1783.000000	14.080520
1784.000000	14.112990
1785.000000	14.119140
1786.000000	14.125630
1787.000000	14.130680
1788.000000	14.133773
1789.000000	14.136370
1790.000000	14.138018
1791.000000	14.138235
1792.000000	14.139873
1793.000000	14.141923
1794.000000	14.143503
1795.000000	14.145005
1796.000000	14.145150
1797.000000	14.145003
1798.000000	14.145220
1799.000000	14.145892
1800.000000	14.147340
1801.000000	14.150507
1802.000000	14.152427
1803.000000	14.152315
1804.000000	14.152857
1805.000000	14.154368
1806.000000	14.157735
1807.000000	14.162075
1808.000000	14.164832
1809.000000	14.165938
1810.000000	14.166317
1811.000000	14.166990
1812.000000	14.168803
1813.000000	14.170425
1814.000000	14.172095
1815.000000	14.173488
1816.000000	14.172837
1817.000000	14.168820
1818.000000	14.163140
1819.000000	14.160908
1820.000000	14.165762
1821.000000	14.174068
1822.000000	14.179372
1823.000000	14.179905
1824.000000	14.201690
1825.000000	14.222140
1826.000000	14.245340
1827.000000	14.274875
1828.000000	14.308253
1829.000000	14.339952
1830.000000	14.367403
1831.000000	14.389582
1832.000000	14.409963
1833.000000	14.431800
1834.000000	14.430537
1835.000000	14.432093
1836.000000	14.436725
1837.000000	14.441127
1838.000000	14.443980
1839.000000	14.446270
1840.000000	14.449925
1841.000000	14.461172
1842.000000	14.477457
1843.000000	14.491075
1844.000000	14.495268
1845.000000	14.491285
1846.000000	14.487820
1847.000000	14.494018
1848.000000	14.509050
1849.000000	14.521278
1850.000000	14.521390
1851.000000	14.509250
1852.000000	14.496130
1853.000000	14.492045
1854.000000	14.500085
1855.000000	14.513140
1856.000000	14.516272
1857.000000	14.504867
1858.000000	14.489280
1859.000000	14.479162
1860.000000	14.477510
1861.000000	14.479767
1862.000000	14.477890
1863.000000	14.467833
1864.000000	14.450530
1865.000000	14.428960
1866.000000	14.382853
1867.000000	14.336225
1868.000000	14.283347
1869.000000	14.230322
1870.000000	14.181068
1871.000000	14.132668
1872.000000	14.090617
1873.000000	14.030697
1874.000000	13.973730
1875.000000	13.919772
1876.000000	13.891237
1877.000000	13.861060
1878.000000	13.803705
1879.000000	13.735798
1880.000000	13.654230
1881.000000	13.566858
1882.000000	13.473695
1883.000000	13.376527
1884.000000	13.278852
1885.000000	13.178070
1886.000000	13.073487
1887.000000	12.938415
1888.000000	12.823978
1889.000000	12.710190
1890.000000	12.600670
1891.000000	12.467778
1892.000000	12.333335
1893.000000	12.218830
1894.000000	12.098477
1895.000000	11.971612
1896.000000	11.816833
1897.000000	11.689137
1898.000000	11.566793
1899.000000	11.423160
1900.000000	11.278458
1901.000000	11.155355
1902.000000	11.031090
1903.000000	10.884210
1904.000000	10.744958
1905.000000	10.617788
1906.000000	10.523352
1907.000000	10.431873
1908.000000	10.337795
1909.000000	10.239340
1910.000000	10.141032
1911.000000	10.048240
1912.000000	9.961333
1913.000000	9.907447
1914.000000	9.828812
1915.000000	9.745572
1916.000000	9.658857
1917.000000	9.571597
1918.000000	9.488218
1919.000000	9.438083
1920.000000	9.393698
1921.000000	9.352075
1922.000000	9.310755
1923.000000	9.264743
1924.000000	9.217025
1925.000000	9.171817
1926.000000	9.132663
1927.000000	9.099515
1928.000000	9.068745
1929.000000	9.037868
1930.000000	9.007003
1931.000000	8.973765
1932.000000	8.939410
1933.000000	8.908625
1934.000000	8.904303
1935.000000	8.901395
1936.000000	8.898438
1937.000000	8.896128
1938.000000	8.895508
1939.000000	8.896047
1940.000000	8.896820
1941.000000	8.900548
1942.000000	8.903593
1943.000000	8.908395
1944.000000	8.914805
1945.000000	8.921708
1946.000000	8.930480
1947.000000	8.939310
1948.000000	8.946495
1949.000000	8.952960
1950.000000	8.958873
1951.000000	8.964592
1952.000000	8.973323
1953.000000	8.980775
1954.000000	9.016333
1955.000000	9.026830
1956.000000	9.036450
1957.000000	9.046482
1958.000000	9.057218
1959.000000	9.092475
1960.000000	9.128372
1961.000000	9.165718
1962.000000	9.202072
1963.000000	9.238640
1964.000000	9.247630
1965.000000	9.282908
1966.000000	9.318240
1967.000000	9.352255
1968.000000	9.386675
1969.000000	9.396150
1970.000000	9.405918
1971.000000	9.414807
1972.000000	9.423615
1973.000000	9.432397
1974.000000	9.441575
1975.000000	9.449025
1976.000000	9.456465
1977.000000	9.466513
1978.000000	9.475460
1979.000000	9.485588
1980.000000	9.520452
1981.000000	9.554443
1982.000000	9.589405
1983.000000	9.624748
1984.000000	9.659600
1985.000000	9.695417
1986.000000	9.730547
1987.000000	9.764737
1988.000000	9.800797
1989.000000	9.835175
1990.000000	9.845553
1991.000000	9.855552
1992.000000	9.866763
1993.000000	9.876297
1994.000000	9.885735
1995.000000	9.895465
1996.000000	9.905178
1997.000000	9.914618
1998.000000	9.921910
1999.000000	9.954420
2000.000000	9.985902
2001.000000	10.016737
2002.000000	10.046515
2003.000000	10.076915
2004.000000	10.107173
2005.000000	10.135837
2006.000000	10.165007
2007.000000	10.192270
2008.000000	10.219210
2009.000000	10.220165
2010.000000	10.219477
2011.000000	10.219340
2012.000000	10.217290
2013.000000	10.214200
2014.000000	10.210825
2015.000000	10.206250
2016.000000	10.200300
2017.000000	10.193523
2018.000000	10.187390
2019.000000	10.180822
2020.000000	10.173210
2021.000000	10.164015
2022.000000	10.154462
2023.000000	10.145065
2024.000000	10.134185
2025.000000	10.124500
2026.000000	10.113982
2027.000000	10.078097
2028.000000	10.040815
2029.000000	10.002835
2030.000000	9.990507
2031.000000	9.952690
2032.000000	9.914700
2033.000000	9.875127
2034.000000	9.835072
2035.000000	9.793902
2036.000000	9.752270
2037.000000	9.735938
2038.000000	9.718668
2039.000000	9.701242
2040.000000	9.657960
2041.000000	9.638935
2042.000000	9.619390
2043.000000	9.600475
2044.000000	9.582038
2045.000000	9.563005
2046.000000	9.519125
2047.000000	9.474595
2048.000000	9.432185
2049.000000	9.390110
2050.000000	9.348520
2051.000000	9.334193
2052.000000	9.321362
2053.000000	9.284232
2054.000000	9.273623
2055.000000	9.264997
2056.000000	9.283472
2057.000000	9.304695
2058.000000	9.326942
2059.000000	9.352180
2060.000000	9.379628
2061.000000	9.383653
2062.000000	9.388563
2063.000000	9.420290
2064.000000	9.429197
2065.000000	9.438192
2066.000000	9.448453
2067.000000	9.459115
2068.000000	9.470150
2069.000000	9.481385
2070.000000	9.493107
2071.000000	9.504565
2072.000000	9.541297
2073.000000	9.577880
2074.000000	9.613573
2075.000000	9.649778
2076.000000	9.684223
2077.000000	9.718008
2078.000000	9.751320
2079.000000	9.783333
2080.000000	9.815080
2081.000000	9.846070
2082.000000	9.850748
2083.000000	9.854583
2084.000000	9.857220
2085.000000	9.859420
2086.000000	9.861250
2087.000000	9.862227
2088.000000	9.862235
2089.000000	9.861343
2090.000000	9.859780
2091.000000	9.857560
2092.000000	9.855033
2093.000000	9.851925
2094.000000	9.848760
2095.000000	9.845065
2096.000000	9.841107
2097.000000	9.837390
2098.000000	9.833927
2099.000000	9.830285
2100.000000	9.825737
2101.000000	9.821003
2102.000000	9.816723
2103.000000	9.812822
2104.000000	9.808300
2105.000000	9.803115
2106.000000	9.798787
2107.000000	9.794567
2108.000000	9.789278
2109.000000	9.808640
2110.000000	9.828183
2111.000000	9.822872
2112.000000	9.816710
2113.000000	9.809453
2114.000000	9.827403
2115.000000	9.820647
2116.000000	9.838028
2117.000000	9.855238
2118.000000	9.872563
2119.000000	9.864690
2120.000000	9.831678
2121.000000	9.848343
2122.000000	9.864398
2123.000000	9.880537
2124.000000	9.871410
2125.000000	9.886495
2126.000000	9.851017
2127.000000	9.813865
2128.000000	9.801545
2129.000000	9.763893
2130.000000	9.750533
2131.000000	9.710945
2132.000000	9.671365
2133.000000	9.631172
2134.000000	9.615502
2135.000000	9.599692
2136.000000	9.583478
2137.000000	9.567300
2138.000000	9.525860
2139.000000	9.509515
2140.000000	9.493065
2141.000000	9.477478
2142.000000	9.461977
2143.000000	9.446737
2144.000000	9.406752
2145.000000	9.367173
2146.000000	9.352765
2147.000000	9.339327
2148.000000	9.325705
2149.000000	9.310970
2150.000000	9.296925
2151.000000	9.257740
2152.000000	9.218443
2153.000000	9.203405
2154.000000	9.164285
2155.000000	9.125172
2156.000000	9.085793
2157.000000	9.046150
2158.000000	9.007035
2159.000000	8.969120
2160.000000	8.931560
2161.000000	8.894563
2162.000000	8.882755
2163.000000	8.847590
2164.000000	8.811272
2165.000000	8.776333
2166.000000	8.741810
2167.000000	8.708918
2168.000000	8.676330
2169.000000	8.643137
2170.000000	8.610317
2171.000000	8.602977
2172.000000	8.571772
2173.000000	8.539720
2174.000000	8.533182
2175.000000	8.526127
2176.000000	8.518963
2177.000000	8.510877
2178.000000	8.502870
2179.000000	8.495093
2180.000000	8.461372
2181.000000	8.451192
2182.000000	8.440302
2183.000000	8.403842
2184.000000	8.365440
2185.000000	8.325422
2186.000000	8.284870
2187.000000	8.241940
2188.000000	8.195920
2189.000000	8.148055
2190.000000	8.122592
2191.000000	8.069358
2192.000000	7.989190
2193.000000	7.929798
2194.000000	7.868205
2195.000000	7.803278
2196.000000	7.735985
2197.000000	7.665517
2198.000000	7.594378
2199.000000	7.522452
2200.000000	7.424055
2201.000000	7.326910
2202.000000	7.254512
2203.000000	7.185135
2204.000000	7.117225
2205.000000	7.026780
2206.000000	6.939935
2207.000000	6.883087
2208.000000	6.830468
2209.000000	6.756817
2210.000000	6.738750
2211.000000	6.723897
2212.000000	6.713965
2213.000000	6.708985
2214.000000	6.708722
2215.000000	6.713983
2216.000000	6.747580
2217.000000	6.758798
2218.000000	6.771740
2219.000000	6.812087
2220.000000	6.828817
2221.000000	6.847840
2222.000000	6.867068
2223.000000	6.884597
2224.000000	6.928150
2225.000000	6.969995
2226.000000	7.011062
2227.000000	7.026055
2228.000000	7.063773
2229.000000	7.100962
2230.000000	7.135925
2231.000000	7.169320
2232.000000	7.200620
2233.000000	7.232037
2234.000000	7.235125
2235.000000	7.260060
2236.000000	7.258173
2237.000000	7.279885
2238.000000	7.277513
2239.000000	7.271715
2240.000000	7.266263
2241.000000	7.259517
2242.000000	7.226310
2243.000000	7.217300
2244.000000	7.183227
2245.000000	7.175267
2246.000000	7.165685
2247.000000	7.156345
2248.000000	7.146880
2249.000000	7.139118
2250.000000	7.128832
2251.000000	7.119240
2252.000000	7.136275
2253.000000	7.127598
2254.000000	7.144915
2255.000000	7.138510
2256.000000	7.133635
2257.000000	7.129625
2258.000000	7.125258
2259.000000	7.120715
2260.000000	7.119600
2261.000000	7.119440
2262.000000	7.119320
2263.000000	7.120240
2264.000000	7.122525
2265.000000	7.125292
2266.000000	7.128002
2267.000000	7.132712
2268.000000	7.137498
2269.000000	7.143475
2270.000000	7.175020
2271.000000	7.182053
2272.000000	7.189212
2273.000000	7.197298
2274.000000	7.229152
2275.000000	7.261655
2276.000000	7.295288
2277.000000	7.326833
2278.000000	7.358828
2279.000000	7.391313
2280.000000	7.397935
2281.000000	7.429100
2282.000000	7.460268
2283.000000	7.515850
2284.000000	7.546333
2285.000000	7.551545
2286.000000	7.556485
2287.000000	7.561702
2288.000000	7.566910
2289.000000	7.571530
2290.000000	7.576400
2291.000000	7.605345
2292.000000	7.634050
2293.000000	7.637700
2294.000000	7.617902
2295.000000	7.647147
2296.000000	7.676910
2297.000000	7.705843
2298.000000	7.735365
2299.000000	7.765065
2300.000000	7.794760
2301.000000	7.800340
2302.000000	7.806512
2303.000000	7.813277
2304.000000	7.844608
2305.000000	7.876835
2306.000000	7.883867
2307.000000	7.892425
2308.000000	7.926010
2309.000000	7.934278
2310.000000	7.967708
2311.000000	8.001328
2312.000000	8.035008
2313.000000	8.068008
2314.000000	8.101130
2315.000000	8.108725
2316.000000	8.140783
2317.000000	8.172215
2318.000000	8.178305
2319.000000	8.208267
2320.000000	8.212440
2321.000000	8.215510
2322.000000	8.218248
2323.000000	8.245777
2324.000000	8.272315
2325.000000	8.298900
2326.000000	8.299830
2327.000000	8.300425
2328.000000	8.300455
2329.000000	8.325230
2330.000000	8.349718
2331.000000	8.374693
2332.000000	8.399200
2333.000000	8.373305
2334.000000	8.372253
2335.000000	8.371033
2336.000000	8.395245
2337.000000	8.418608
2338.000000	8.466943
2339.000000	8.466320
2340.000000	8.466233
2341.000000	8.465395
2342.000000	8.464473
2343.000000	8.513687
2344.000000	8.539302
2345.000000	8.541042
2346.000000	8.544425
2347.000000	8.549812
2348.000000	8.554368
2349.000000	8.579665
2350.000000	8.599525
2351.000000	8.620125
2352.000000	8.644543
2353.000000	8.646455
2354.000000	8.648800
2355.000000	8.675535
2356.000000	8.726248
2357.000000	8.776385
2358.000000	8.777582
2359.000000	8.783815
2360.000000	8.795548
2361.000000	8.831887
2362.000000	8.840608
2363.000000	8.847973
2364.000000	8.854455
2365.000000	8.860072
2366.000000	8.839620
2367.000000	8.843608
2368.000000	8.873237
2369.000000	8.902570
2370.000000	8.931780
2371.000000	8.936080
2372.000000	8.965155
2373.000000	8.968715
2374.000000	8.971470
2375.000000	8.999085
2376.000000	9.027105
2377.000000	9.030397
2378.000000	9.033180
2379.000000	9.009882
2380.000000	9.011597
2381.000000	9.013305
2382.000000	9.013755
2383.000000	9.038530
2384.000000	9.087805
2385.000000	9.087035
2386.000000	9.086135
2387.000000	9.109985
2388.000000	9.108745
2389.000000	9.107682
2390.000000	9.105222
2391.000000	9.127245
2392.000000	9.125582
2393.000000	9.123815
2394.000000	9.121897
2395.000000	9.144693
2396.000000	9.192142
2397.000000	9.213947
2398.000000	9.210120
2399.000000	9.230970
2400.000000	9.252255
2401.000000	9.223350
2402.000000	9.218433
2403.000000	9.213030
2404.000000	9.207750
2405.000000	9.177722
2406.000000	9.147360
2407.000000	9.116780
2408.000000	9.135393
2409.000000	9.154075
2410.000000	9.148183
2411.000000	9.191897
2412.000000	9.234872
2413.000000	9.253342
2414.000000	9.246517
2415.000000	9.263938
2416.000000	9.255858
2417.000000	9.248030
2418.000000	9.241075
2419.000000	9.233010
2420.000000	9.223695
2421.000000	9.188868
2422.000000	9.179780
2423.000000	9.169503
2424.000000	9.159292
2425.000000	9.148185
2426.000000	9.161735
2427.000000	9.174367
2428.000000	9.161388
2429.000000	9.149335
2430.000000	9.135890
2431.000000	9.147185
2432.000000	9.133705
2433.000000	9.119720
2434.000000	9.129680
2435.000000	9.139943
2436.000000	9.151020
2437.000000	9.137218
2438.000000	9.147913
2439.000000	9.132905
2440.000000	9.143935
2441.000000	9.154455
2442.000000	9.163320
2443.000000	9.174230
2444.000000	9.185605
2445.000000	9.220857
2446.000000	9.204967
2447.000000	9.240610
2448.000000	9.249447
2449.000000	9.258345
2450.000000	9.292537
2451.000000	9.303368
2452.000000	9.289053
2453.000000	9.325067
2454.000000	9.360763
2455.000000	9.372262
2456.000000	9.409910
2457.000000	9.421122
2458.000000	9.459025
2459.000000	9.571813
2460.000000	9.610920
2461.000000	9.672930
2462.000000	9.735337
2463.000000	9.824067
2464.000000	9.938553
2465.000000	10.028302
2466.000000	10.093640
2467.000000	10.132800
2468.000000	10.175860
2469.000000	10.141700
2470.000000	10.184413
2471.000000	10.230318
2472.000000	10.303973
2473.000000	10.349550
2474.000000	10.345160
2475.000000	10.417103
2476.000000	10.512953
2477.000000	10.663667
2478.000000	10.810353
2479.000000	11.034045
2480.000000	11.205715
2481.000000	11.354165
2482.000000	11.552178
2483.000000	11.675695
2484.000000	11.849242
2485.000000	11.948025
2486.000000	12.071885
2487.000000	12.170530
2488.000000	12.344428
2489.000000	12.424173
2490.000000	12.455795
2491.000000	12.532913
2492.000000	12.608587
2493.000000	12.836388
2494.000000	13.016272
2495.000000	13.241430
2496.000000	13.444522
2497.000000	13.675352
2498.000000	13.906270
2499.000000	14.157235
2500.000000	14.308018
2501.000000	17.830500
2502.000000	21.503690
2503.000000	25.075730
2504.000000	29.046510
2505.000000	33.197128
2506.000000	37.345930
2507.000000	41.764657
2508.000000	45.809773
2509.000000	50.080510
2510.000000	54.500000
2511.000000	55.800000
2512.000000	57.000000
2513.000000	58.300000
2514.000000	59.400000
2515.000000	60.400000
2516.000000	61.200000
2517.000000	62.100000
2518.000000	63.000000
2519.000000	63.800000
2520.000000	64.500000
2521.000000	65.300000
2522.000000	66.200000
2523.000000	67.300000
2524.000000	68.300000
2525.000000	68.800000
2526.000000	69.900000
2527.000000	70.200000
2528.000000	70.700000
2529.000000	71.500000
2530.000000	72.500000
2531.000000	73.100000
2532.000000	74.100000
2533.000000	74.900000
2534.000000	75.200000
2535.000000	75.700000
2536.000000	75.900000
2537.000000	77.000000
2538.000000	77.800000
2539.000000	78.700000
2540.000000	79.600000
2541.000000	80.400000
2542.000000	81.000000
2543.000000	81.700000
2544.000000	82.300000
2545.000000	83.300000
2546.000000	84.400000
2547.000000	85.400000
2548.000000	86.800000
2549.000000	87.500000
2550.000000	87.800000
2551.000000	88.500000
2552.000000	89.100000
2553.000000	89.500000
2554.000000	89.600000
2555.000000	89.400000
2556.000000	89.700000
2557.000000	89.900000
2558.000000	90.000000
2559.000000	90.400000
2560.000000	91.200000
2561.000000	91.600000
2562.000000	91.900000
2563.000000	91.800000
2564.000000	92.900000
2565.000000	94.700000
2566.000000	95.000000
2567.000000	94.900000
2568.000000	95.300000
2569.000000	96.100000
2570.000000	97.100000
2571.000000	97.000000
2572.000000	96.700000
2573.000000	96.800000
2574.000000	96.200000
2575.000000	95.200000
2576.000000	95.600000
2577.000000	96.300000
2578.000000	96.400000
2579.000000	95.900000
2580.000000	95.900000
2581.000000	96.700000
2582.000000	97.100000
2583.000000	97.500000
2584.000000	98.400000
2585.000000	99.400000
2586.000000	99.900000
2587.000000	100.100000
2588.000000	100.000000
2589.000000	99.800000
2590.000000	99.200000
2591.000000	99.200000
2592.000000	99.500000
2593.000000	99.600000
2594.000000	99.800000
2595.000000	99.900000
2596.000000	99.900000
2597.000000	99.900000
2598.000000	99.900000
2599.000000	100.400000
2600.000000	100.400000
2601.000000	100.000000
2602.000000	99.800000
2603.000000	99.700000
2604.000000	99.300000
2605.000000	98.300000
2606.000000	97.400000
2607.000000	97.200000
2608.000000	97.500000
2609.000000	97.600000
2610.000000	97.700000
2611.000000	97.700000
2612.000000	97.600000
2613.000000	97.600000
2614.000000	97.900000
2615.000000	98.400000
2616.000000	98.800000
2617.000000	99.000000
2618.000000	99.000000
2619.000000	98.600000
2620.000000	98.600000
2621.000000	99.500000
2622.000000	100.700000
2623.000000	101.200000
2624.000000	101.200000
2625.000000	101.700000
2626.000000	101.500000
2627.000000	101.100000
2628.000000	101.000000
2629.000000	101.300000
2630.000000	101.500000
2631.000000	101.000000
2632.000000	100.200000
2633.000000	100.700000
2634.000000	101.200000
2635.000000	101.000000
2636.000000	101.500000
2637.000000	102.100000
2638.000000	102.500000
2639.000000	102.200000
2640.000000	101.900000
2641.000000	102.200000
2642.000000	102.800000
2643.000000	102.500000
2644.000000	101.700000
2645.000000	101.900000
2646.000000	102.000000
2647.000000	102.000000
2648.000000	102.300000
2649.000000	103.000000
2650.000000	102.700000
2651.000000	101.700000
2652.000000	101.000000
2653.000000	101.000000
2654.000000	101.900000
2655.000000	102.200000
2656.000000	101.900000
2657.000000	101.500000
2658.000000	100.800000
2659.000000	100.200000
2660.000000	100.200000
2661.000000	100.900000
2662.000000	101.400000
2663.000000	101.500000
2664.000000	100.800000
2665.000000	100.400000
2666.000000	100.700000
2667.000000	100.700000
2668.000000	101.400000
2669.000000	101.900000
2670.000000	102.300000
2671.000000	101.900000
2672.000000	101.500000
2673.000000	101.500000
2674.000000	101.400000
2675.000000	100.300000
2676.000000	99.600000
2677.000000	99.200000
2678.000000	98.200000
2679.000000	97.700000
2680.000000	97.100000
2681.000000	97.600000
2682.000000	97.500000
2683.000000	97.700000
2684.000000	98.700000
2685.000000	100.200000
2686.000000	101.100000
2687.000000	102.100000
2688.000000	103.200000
2689.000000	103.200000
2690.000000	104.100000
2691.000000	103.900000
2692.000000	103.200000
2693.000000	102.600000
2694.000000	102.200000
2695.000000	101.400000
2696.000000	101.000000
2697.000000	100.800000
2698.000000	99.900000
2699.000000	100.000000
2700.000000	99.500000
2701.000000	99.600000
2702.000000	100.500000
2703.000000	100.900000
2704.000000	100.600000
2705.000000	100.600000
2706.000000	100.800000
2707.000000	100.500000
2708.000000	100.800000
2709.000000	100.700000
2710.000000	101.700000
2711.000000	101.800000
2712.000000	101.100000
2713.000000	101.100000
2714.000000	101.100000
2715.000000	101.100000
2716.000000	101.200000
2717.000000	101.800000
2718.000000	102.100000
2719.000000	103.300000
2720.000000	102.900000
2721.000000	102.800000
2722.000000	103.800000
2723.000000	103.100000
2724.000000	102.400000
2725.000000	102.500000
2726.000000	102.800000
2727.000000	101.600000
2728.000000	101.400000
2729.000000	101.300000
2730.000000	100.700000
2731.000000	100.500000
2732.000000	100.300000
2733.000000	100.200000
2734.000000	100.700000
2735.000000	100.000000
2736.000000	99.500000
2737.000000	100.100000
2738.000000	99.900000
2739.000000	99.000000
2740.000000	99.300000
2741.000000	99.500000
2742.000000	100.000000
2743.000000	100.100000
2744.000000	101.500000
2745.000000	102.200000
2746.000000	101.800000
2747.000000	102.200000
2748.000000	102.000000
2749.000000	101.800000
2750.000000	101.200000
2751.000000	100.900000
2752.000000	100.300000
2753.000000	100.200000
2754.000000	98.700000
2755.000000	98.900000
2756.000000	99.200000
2757.000000	99.100000
2758.000000	99.300000
2759.000000	99.700000
2760.000000	100.300000
2761.000000	100.300000
2762.000000	100.900000
2763.000000	101.300000
2764.000000	101.700000
2765.000000	101.400000
2766.000000	101.700000
2767.000000	101.900000
2768.000000	101.900000
2769.000000	101.200000
2770.000000	101.400000
2771.000000	102.000000
2772.000000	101.400000
2773.000000	100.900000
2774.000000	100.500000
2775.000000	100.700000
2776.000000	100.500000
2777.000000	99.900000
2778.000000	100.300000
2779.000000	100.500000
2780.000000	100.300000
2781.000000	100.000000
2782.000000	100.200000
2783.000000	100.800000
2784.000000	101.100000
2785.000000	100.900000
2786.000000	100.100000
2787.000000	100.200000
2788.000000	99.000000
2789.000000	98.400000
2790.000000	98.300000
2791.000000	98.800000
2792.000000	99.100000
2793.000000	100.000000
2794.000000	99.500000
2795.000000	99.700000
2796.000000	100.000000
2797.000000	99.500000
2798.000000	100.000000
2799.000000	100.700000
2800.000000	100.300000
2801.000000	99.500000
2802.000000	98.900000
2803.000000	98.300000
2804.000000	98.600000
2805.000000	98.300000
2806.000000	98.900000
2807.000000	99.800000
2808.000000	100.500000
2809.000000	100.900000
2810.000000	101.400000
2811.000000	101.700000
2812.000000	102.100000
2813.000000	102.200000
2814.000000	102.500000
2815.000000	103.000000
2816.000000	103.300000
2817.000000	102.900000
2818.000000	103.000000
2819.000000	103.000000
2820.000000	103.400000
2821.000000	103.900000
2822.000000	103.600000
2823.000000	103.400000
2824.000000	103.400000
2825.000000	103.600000
2826.000000	102.900000
2827.000000	102.200000
2828.000000	101.600000
2829.000000	101.400000
2830.000000	101.100000
2831.000000	100.800000
2832.000000	101.000000
2833.000000	100.700000
2834.000000	100.900000
2835.000000	100.400000
2836.000000	100.700000
2837.000000	101.100000
2838.000000	101.300000
2839.000000	101.700000
2840.000000	102.000000
2841.000000	102.700000
2842.000000	102.600000
2843.000000	102.200000
2844.000000	101.700000
2845.000000	101.700000
2846.000000	102.300000
2847.000000	103.300000
2848.000000	103.300000
2849.000000	103.000000
2850.000000	103.000000
2851.000000	101.900000
2852.000000	101.100000
2853.000000	100.900000
2854.000000	100.500000
2855.000000	100.400000
2856.000000	100.000000
2857.000000	99.800000
2858.000000	99.900000
2859.000000	100.000000
2860.000000	100.200000
2861.000000	100.700000
2862.000000	101.400000
2863.000000	102.100000
2864.000000	102.700000
2865.000000	103.000000
2866.000000	102.900000
2867.000000	102.700000
2868.000000	102.300000
2869.000000	101.200000
2870.000000	100.100000
2871.000000	99.500000
2872.000000	99.400000
2873.000000	99.500000
2874.000000	99.600000
2875.000000	99.900000
2876.000000	99.900000
2877.000000	99.200000
2878.000000	98.700000
2879.000000	99.100000
2880.000000	99.600000
2881.000000	99.800000
2882.000000	99.700000
2883.000000	99.700000
2884.000000	100.100000
2885.000000	100.000000
2886.000000	99.700000
2887.000000	100.200000
2888.000000	101.100000
2889.000000	101.300000
2890.000000	101.100000
2891.000000	101.400000
2892.000000	101.500000
2893.000000	101.100000
2894.000000	100.600000
2895.000000	100.300000
2896.000000	101.200000
2897.000000	100.900000
2898.000000	100.000000
2899.000000	100.200000
2900.000000	100.500000
2901.000000	100.500000
2902.000000	100.600000
2903.000000	100.700000
2904.000000	100.900000
2905.000000	101.100000
2906.000000	100.600000
2907.000000	100.900000
2908.000000	101.500000
2909.000000	101.500000
2910.000000	101.100000
2911.000000	100.100000
2912.000000	100.000000
2913.000000	100.700000
2914.000000	100.400000
2915.000000	99.900000
2916.000000	100.000000
2917.000000	100.400000
2918.000000	100.400000
2919.000000	100.300000
2920.000000	100.600000
2921.000000	101.100000
2922.000000	101.200000
2923.000000	100.300000
2924.000000	100.500000
2925.000000	101.400000
2926.000000	101.500000
2927.000000	101.000000
2928.000000	101.700000
2929.000000	101.900000
2930.000000	102.100000
2931.000000	102.500000
2932.000000	102.000000
2933.000000	102.300000
2934.000000	101.800000
2935.000000	100.900000
2936.000000	99.700000
2937.000000	99.600000
2938.000000	99.600000
2939.000000	99.300000
2940.000000	99.600000
2941.000000	99.400000
2942.000000	99.800000
2943.000000	99.900000
2944.000000	99.900000
2945.000000	100.500000
2946.000000	101.600000
2947.000000	100.700000
2948.000000	99.900000
2949.000000	99.600000
2950.000000	99.500000
2951.000000	100.300000
2952.000000	100.300000
2953.000000	100.400000
2954.000000	100.700000
2955.000000	100.800000
2956.000000	100.800000
2957.000000	101.600000
2958.000000	101.500000
2959.000000	101.200000
2960.000000	100.300000
2961.000000	99.400000
2962.000000	99.800000
2963.000000	99.500000
2964.000000	99.200000
2965.000000	98.900000
2966.000000	98.600000
2967.000000	99.300000
2968.000000	100.500000
2969.000000	101.200000
2970.000000	101.600000
2971.000000	102.300000
2972.000000	101.200000
2973.000000	100.800000
2974.000000	101.200000
2975.000000	100.900000
2976.000000	100.300000
2977.000000	99.700000
2978.000000	98.400000
2979.000000	97.900000
2980.000000	97.300000
2981.000000	96.500000
2982.000000	97.200000
2983.000000	98.000000
2984.000000	97.600000
2985.000000	98.400000
2986.000000	98.600000
2987.000000	98.000000
2988.000000	98.600000
2989.000000	98.600000
2990.000000	99.500000
2991.000000	100.100000
2992.000000	99.700000
2993.000000	98.100000
2994.000000	98.500000
2995.000000	97.700000
2996.000000	97.600000
2997.000000	97.500000
2998.000000	97.500000
2999.000000	98.900000
3000.000000	98.300000
