PE UV       SUBTECH     SPECTRUM    ASCII       PEDS        4.00        
   -1
INBUCR0142-4.Sample.ASC
24/02/07
15:12:37.00
24/02/07
15:12:37.00
Vinicio Soto Monge
Color café con ambos élitros. Pelidnota laevissima. Det: A. Solís. Finca Cafrosa, Embalce, 800 m NO. de Tigra, Puntarenas, Costa Rica. 1280 m.10-21 MAY 1996. E. Navarro, L_S_317800_596200 #7494. INBIOCRI002374952
250,000000
1
Lambda 1050
1050L1511233
PerkinElmer UV WinLab 6.3.2.0749 / 2.02.05 Lambda 900 UV/VIS/NIR, Aug  7 2015 09:38:08

0
0
3350/servo 860,8/2
0
0
UV/VIS
1
1
1
DoubleDePol,CommonBeamDepol,RBeamAtt,SBeamAtt,60mm sphere, WB InGaAs Detector
0
0
0
0
Program
Program
3350/servo 860,8/2
3350/0,2 860,8/0,2
3350/0,2 860,8/0,2
0
15.00
 
 
 
0
 
860,8
319,2
860,8
Front
100
on
S:100 R:100
0
0
0
0
 
0
 
 
 
0
 
 
0
0
0
0
0
 
 
 
 
0
0


0
0
#HDR
-1
-1
#GR
nm
%R
1.0
0.0
2500,000000
-1,000000
2251
8
16,966400
1,302900
#DATA

250.000000	nan
251.000000	nan
252.000000	nan
253.000000	nan
254.000000	nan
255.000000	nan
256.000000	nan
257.000000	nan
258.000000	nan
259.000000	4.373648
260.000000	4.358415
261.000000	4.344275
262.000000	4.326968
263.000000	4.306342
264.000000	4.284534
265.000000	4.262954
266.000000	4.240703
267.000000	4.215027
268.000000	4.192192
269.000000	4.169820
270.000000	4.146375
271.000000	4.121812
272.000000	4.099360
273.000000	4.078264
274.000000	4.058675
275.000000	4.040423
276.000000	4.022058
277.000000	4.005117
278.000000	3.987325
279.000000	3.969282
280.000000	3.956166
281.000000	3.942665
282.000000	3.930203
283.000000	3.918010
284.000000	3.907227
285.000000	3.897653
286.000000	3.890312
287.000000	3.884267
288.000000	3.879260
289.000000	3.878931
290.000000	3.874857
291.000000	3.873230
292.000000	3.873674
293.000000	3.874656
294.000000	3.877098
295.000000	3.879564
296.000000	3.879885
297.000000	3.883045
298.000000	3.885948
299.000000	3.884972
300.000000	3.887062
301.000000	3.888062
302.000000	3.888067
303.000000	3.883026
304.000000	3.878047
305.000000	3.873455
306.000000	3.872724
307.000000	3.867092
308.000000	3.863231
309.000000	3.860048
310.000000	3.854168
311.000000	3.849322
312.000000	3.840958
313.000000	3.839050
314.000000	3.836148
315.000000	3.832691
316.000000	3.827976
317.000000	3.839296
318.000000	3.857052
319.000000	3.869859
320.000000	3.870293
321.000000	3.877052
322.000000	3.889388
323.000000	3.895076
324.000000	3.903166
325.000000	3.911953
326.000000	3.915455
327.000000	3.911791
328.000000	3.895592
329.000000	3.879122
330.000000	3.876446
331.000000	3.872416
332.000000	3.865951
333.000000	3.866158
334.000000	3.863618
335.000000	3.859474
336.000000	3.858849
337.000000	3.852750
338.000000	3.853515
339.000000	3.859490
340.000000	3.862347
341.000000	3.860046
342.000000	3.857402
343.000000	3.853174
344.000000	3.849968
345.000000	3.850786
346.000000	3.851728
347.000000	3.852900
348.000000	3.851685
349.000000	3.852209
350.000000	3.856794
351.000000	3.860454
352.000000	3.864397
353.000000	3.869414
354.000000	3.874711
355.000000	3.877800
356.000000	3.881969
357.000000	3.886816
358.000000	3.892735
359.000000	3.896555
360.000000	3.898643
361.000000	3.901716
362.000000	3.905561
363.000000	3.910532
364.000000	3.914430
365.000000	3.918025
366.000000	3.923778
367.000000	3.927836
368.000000	3.930582
369.000000	3.934349
370.000000	3.939420
371.000000	3.946656
372.000000	3.951765
373.000000	3.956492
374.000000	3.963515
375.000000	3.968323
376.000000	3.970240
377.000000	3.965575
378.000000	3.962804
379.000000	3.960609
380.000000	3.958234
381.000000	3.954174
382.000000	3.952217
383.000000	3.950253
384.000000	3.946323
385.000000	3.944613
386.000000	3.943999
387.000000	3.950435
388.000000	3.957491
389.000000	3.964771
390.000000	3.971490
391.000000	3.978790
392.000000	3.986106
393.000000	3.993333
394.000000	4.000731
395.000000	4.007874
396.000000	4.015819
397.000000	4.024146
398.000000	4.032110
399.000000	4.040225
400.000000	4.048900
401.000000	4.057856
402.000000	4.066686
403.000000	4.075337
404.000000	4.085303
405.000000	4.096108
406.000000	4.107258
407.000000	4.119200
408.000000	4.132190
409.000000	4.146293
410.000000	4.162080
411.000000	4.179691
412.000000	4.199940
413.000000	4.222188
414.000000	4.246417
415.000000	4.273366
416.000000	4.303159
417.000000	4.335719
418.000000	4.371080
419.000000	4.408897
420.000000	4.448935
421.000000	4.491841
422.000000	4.537020
423.000000	4.584961
424.000000	4.634910
425.000000	4.686530
426.000000	4.739579
427.000000	4.793781
428.000000	4.849792
429.000000	4.907144
430.000000	4.965241
431.000000	5.023435
432.000000	5.082041
433.000000	5.141187
434.000000	5.201038
435.000000	5.261448
436.000000	5.322350
437.000000	5.383805
438.000000	5.445318
439.000000	5.506872
440.000000	5.569263
441.000000	5.632839
442.000000	5.697476
443.000000	5.762689
444.000000	5.828392
445.000000	5.894559
446.000000	5.961661
447.000000	6.029792
448.000000	6.098452
449.000000	6.167784
450.000000	6.237820
451.000000	6.308718
452.000000	6.380144
453.000000	6.452300
454.000000	6.524962
455.000000	6.598226
456.000000	6.672047
457.000000	6.746159
458.000000	6.821165
459.000000	6.896964
460.000000	6.973020
461.000000	7.048805
462.000000	7.124557
463.000000	7.201091
464.000000	7.277630
465.000000	7.354294
466.000000	7.431255
467.000000	7.508069
468.000000	7.584496
469.000000	7.660716
470.000000	7.737591
471.000000	7.814880
472.000000	7.891967
473.000000	7.968845
474.000000	8.046203
475.000000	8.123353
476.000000	8.200327
477.000000	8.277760
478.000000	8.355581
479.000000	8.433610
480.000000	8.510736
481.000000	8.587384
482.000000	8.664090
483.000000	8.740485
484.000000	8.816938
485.000000	8.894017
486.000000	8.971507
487.000000	9.049893
488.000000	9.128956
489.000000	9.208563
490.000000	9.288880
491.000000	9.370799
492.000000	9.454029
493.000000	9.538368
494.000000	9.624006
495.000000	9.710184
496.000000	9.796961
497.000000	9.884131
498.000000	9.972338
499.000000	10.061052
500.000000	10.151346
501.000000	10.242038
502.000000	10.333464
503.000000	10.425488
504.000000	10.518176
505.000000	10.612278
506.000000	10.707141
507.000000	10.802572
508.000000	10.897963
509.000000	10.994308
510.000000	11.090804
511.000000	11.188245
512.000000	11.286344
513.000000	11.385212
514.000000	11.484620
515.000000	11.584326
516.000000	11.684738
517.000000	11.786366
518.000000	11.888945
519.000000	11.992613
520.000000	12.097499
521.000000	12.203199
522.000000	12.309870
523.000000	12.418111
524.000000	12.527284
525.000000	12.637354
526.000000	12.749189
527.000000	12.861762
528.000000	12.975746
529.000000	13.090187
530.000000	13.206094
531.000000	13.322969
532.000000	13.440784
533.000000	13.559181
534.000000	13.678248
535.000000	13.798324
536.000000	13.919319
537.000000	14.040436
538.000000	14.162189
539.000000	14.285284
540.000000	14.408767
541.000000	14.532439
542.000000	14.656751
543.000000	14.781535
544.000000	14.907344
545.000000	15.033372
546.000000	15.158589
547.000000	15.285594
548.000000	15.413107
549.000000	15.540786
550.000000	15.668472
551.000000	15.796704
552.000000	15.925977
553.000000	16.055354
554.000000	16.184633
555.000000	16.314280
556.000000	16.444941
557.000000	16.575442
558.000000	16.705709
559.000000	16.835872
560.000000	16.961657
561.000000	17.086067
562.000000	17.210843
563.000000	17.335637
564.000000	17.461527
565.000000	17.587815
566.000000	17.714511
567.000000	17.840395
568.000000	17.966687
569.000000	18.093935
570.000000	18.226186
571.000000	18.360504
572.000000	18.493995
573.000000	18.627964
574.000000	18.762520
575.000000	18.897321
576.000000	19.032628
577.000000	19.167821
578.000000	19.303299
579.000000	19.439012
580.000000	19.575074
581.000000	19.711270
582.000000	19.848122
583.000000	19.985216
584.000000	20.121920
585.000000	20.259550
586.000000	20.396225
587.000000	20.534986
588.000000	20.673416
589.000000	20.811729
590.000000	20.950043
591.000000	21.088796
592.000000	21.226390
593.000000	21.363959
594.000000	21.501027
595.000000	21.638402
596.000000	21.776274
597.000000	21.912880
598.000000	22.049169
599.000000	22.185644
600.000000	22.322364
601.000000	22.459313
602.000000	22.596243
603.000000	22.733614
604.000000	22.870956
605.000000	23.005415
606.000000	23.140932
607.000000	23.276946
608.000000	23.413473
609.000000	23.548498
610.000000	23.682986
611.000000	23.817166
612.000000	23.951873
613.000000	24.085749
614.000000	24.219389
615.000000	24.353663
616.000000	24.487035
617.000000	24.618934
618.000000	24.750882
619.000000	24.883379
620.000000	25.016441
621.000000	25.148571
622.000000	25.280362
623.000000	25.411809
624.000000	25.542426
625.000000	25.673143
626.000000	25.804467
627.000000	25.936923
628.000000	26.069555
629.000000	26.202142
630.000000	26.333473
631.000000	26.465394
632.000000	26.599918
633.000000	26.735217
634.000000	26.871838
635.000000	27.011041
636.000000	27.150247
637.000000	27.289646
638.000000	27.431143
639.000000	27.575316
640.000000	27.722468
641.000000	27.870728
642.000000	28.019335
643.000000	28.170253
644.000000	28.323957
645.000000	28.478060
646.000000	28.633879
647.000000	28.792221
648.000000	28.952063
649.000000	29.111370
650.000000	29.272224
651.000000	29.434166
652.000000	29.595532
653.000000	29.756007
654.000000	29.915327
655.000000	30.074847
656.000000	30.233933
657.000000	30.391019
658.000000	30.545807
659.000000	30.701220
660.000000	30.853133
661.000000	31.002892
662.000000	31.151893
663.000000	31.301036
664.000000	31.449340
665.000000	31.595572
666.000000	31.740883
667.000000	31.886746
668.000000	32.031739
669.000000	32.174276
670.000000	32.316000
671.000000	32.455615
672.000000	32.595369
673.000000	32.732301
674.000000	32.868654
675.000000	33.002586
676.000000	33.134389
677.000000	33.263975
678.000000	33.392682
679.000000	33.521335
680.000000	33.648163
681.000000	33.774185
682.000000	33.897092
683.000000	34.020129
684.000000	34.140924
685.000000	34.260913
686.000000	34.379867
687.000000	34.497631
688.000000	34.613394
689.000000	34.726785
690.000000	34.840321
691.000000	34.953069
692.000000	35.065303
693.000000	35.176675
694.000000	35.286888
695.000000	35.396652
696.000000	35.504012
697.000000	35.609833
698.000000	35.716153
699.000000	35.821594
700.000000	35.926793
701.000000	36.031795
702.000000	36.135736
703.000000	36.239016
704.000000	36.341896
705.000000	36.443475
706.000000	36.544566
707.000000	36.646024
708.000000	36.745188
709.000000	36.844280
710.000000	36.943116
711.000000	37.040536
712.000000	37.136222
713.000000	37.230275
714.000000	37.324042
715.000000	37.418524
716.000000	37.513723
717.000000	37.608386
718.000000	37.701313
719.000000	37.794366
720.000000	37.886334
721.000000	37.979356
722.000000	38.071971
723.000000	38.163880
724.000000	38.255002
725.000000	38.345271
726.000000	38.436534
727.000000	38.528728
728.000000	38.621153
729.000000	38.711182
730.000000	38.797963
731.000000	38.882878
732.000000	38.969628
733.000000	39.056255
734.000000	39.140180
735.000000	39.224872
736.000000	39.310276
737.000000	39.393242
738.000000	39.476218
739.000000	39.561860
740.000000	39.646492
741.000000	39.732146
742.000000	39.818688
743.000000	39.903576
744.000000	39.988181
745.000000	40.072458
746.000000	40.154363
747.000000	40.236899
748.000000	40.320621
749.000000	40.402849
750.000000	40.485686
751.000000	40.564877
752.000000	40.640085
753.000000	40.717284
754.000000	40.798471
755.000000	40.880079
756.000000	40.959864
757.000000	41.039794
758.000000	41.121765
759.000000	41.201858
760.000000	41.283802
761.000000	41.367110
762.000000	41.450094
763.000000	41.531827
764.000000	41.613567
765.000000	41.692517
766.000000	41.770727
767.000000	41.847724
768.000000	41.921547
769.000000	41.994737
770.000000	42.069666
771.000000	42.145261
772.000000	42.220134
773.000000	42.293814
774.000000	42.367563
775.000000	42.442851
776.000000	42.519765
777.000000	42.598356
778.000000	42.676864
779.000000	42.755174
780.000000	42.828409
781.000000	42.905223
782.000000	42.983070
783.000000	43.063176
784.000000	43.140302
785.000000	43.214500
786.000000	43.288578
787.000000	43.364153
788.000000	43.438050
789.000000	43.512767
790.000000	43.588961
791.000000	43.662976
792.000000	43.735165
793.000000	43.808592
794.000000	43.883662
795.000000	43.959444
796.000000	44.036454
797.000000	44.108805
798.000000	44.182906
799.000000	44.257471
800.000000	44.330425
801.000000	44.401811
802.000000	44.476882
803.000000	44.552853
804.000000	44.621587
805.000000	44.693371
806.000000	44.766115
807.000000	44.839924
808.000000	44.911195
809.000000	44.975813
810.000000	45.043563
811.000000	45.112519
812.000000	45.182901
813.000000	45.241631
814.000000	45.307673
815.000000	45.370147
816.000000	45.430834
817.000000	45.487367
818.000000	45.543888
819.000000	45.605345
820.000000	45.667685
821.000000	45.725531
822.000000	45.777333
823.000000	45.840674
824.000000	45.893673
825.000000	45.947933
826.000000	45.995669
827.000000	46.047000
828.000000	46.099552
829.000000	46.149645
830.000000	46.192249
831.000000	46.239127
832.000000	46.285199
833.000000	46.320246
834.000000	46.364699
835.000000	46.400305
836.000000	46.438548
837.000000	46.478560
838.000000	46.513764
839.000000	46.549941
840.000000	46.587787
841.000000	46.613640
842.000000	46.640576
843.000000	46.672121
844.000000	46.703056
845.000000	46.734667
846.000000	46.769702
847.000000	46.794379
848.000000	46.811374
849.000000	46.829825
850.000000	46.850383
851.000000	46.873628
852.000000	46.893325
853.000000	46.910700
854.000000	46.925842
855.000000	46.953457
856.000000	46.969457
857.000000	46.979496
858.000000	47.042948
859.000000	47.149225
860.000000	47.255214
861.000000	47.361059
862.000000	47.466335
863.000000	47.582251
864.000000	47.664957
865.000000	47.744811
866.000000	47.836361
867.000000	47.948469
868.000000	48.017695
869.000000	48.030475
870.000000	48.024845
871.000000	48.027792
872.000000	48.028737
873.000000	48.031005
874.000000	48.070180
875.000000	48.078828
876.000000	48.086420
877.000000	48.066902
878.000000	48.053948
879.000000	48.052473
880.000000	48.062365
881.000000	48.051950
882.000000	48.053970
883.000000	48.033850
884.000000	48.008978
885.000000	47.996480
886.000000	47.988858
887.000000	47.993560
888.000000	47.992730
889.000000	47.981090
890.000000	47.964510
891.000000	47.966387
892.000000	47.958443
893.000000	47.958742
894.000000	47.950900
895.000000	47.950550
896.000000	47.936605
897.000000	47.925260
898.000000	47.915880
899.000000	47.910827
900.000000	47.908817
901.000000	47.902078
902.000000	47.890268
903.000000	47.873217
904.000000	47.864038
905.000000	47.860685
906.000000	47.861967
907.000000	47.863973
908.000000	47.852097
909.000000	47.841020
910.000000	47.827545
911.000000	47.817110
912.000000	47.815713
913.000000	47.822322
914.000000	47.823203
915.000000	47.818420
916.000000	47.813188
917.000000	47.806168
918.000000	47.813510
919.000000	47.822878
920.000000	47.840622
921.000000	47.855835
922.000000	47.860030
923.000000	47.859652
924.000000	47.863597
925.000000	47.874248
926.000000	47.885080
927.000000	47.896145
928.000000	47.895625
929.000000	47.891755
930.000000	47.888942
931.000000	47.885653
932.000000	47.891133
933.000000	47.899138
934.000000	47.904190
935.000000	47.903515
936.000000	47.900760
937.000000	47.898960
938.000000	47.898320
939.000000	47.901148
940.000000	47.901413
941.000000	47.899132
942.000000	47.894895
943.000000	47.890462
944.000000	47.886187
945.000000	47.882595
946.000000	47.878357
947.000000	47.872460
948.000000	47.867712
949.000000	47.863785
950.000000	47.862432
951.000000	47.864250
952.000000	47.864095
953.000000	47.861650
954.000000	47.859810
955.000000	47.858355
956.000000	47.856843
957.000000	47.856220
958.000000	47.858755
959.000000	47.859435
960.000000	47.855802
961.000000	47.849852
962.000000	47.844025
963.000000	47.839712
964.000000	47.835195
965.000000	47.830620
966.000000	47.825997
967.000000	47.822627
968.000000	47.817615
969.000000	47.813960
970.000000	47.811835
971.000000	47.810367
972.000000	47.809190
973.000000	47.806718
974.000000	47.802473
975.000000	47.797780
976.000000	47.794043
977.000000	47.788753
978.000000	47.783188
979.000000	47.776270
980.000000	47.768330
981.000000	47.760503
982.000000	47.752310
983.000000	47.747532
984.000000	47.744363
985.000000	47.741780
986.000000	47.738345
987.000000	47.732797
988.000000	47.726388
989.000000	47.721375
990.000000	47.716448
991.000000	47.712142
992.000000	47.709652
993.000000	47.704800
994.000000	47.700088
995.000000	47.695500
996.000000	47.690810
997.000000	47.688113
998.000000	47.685385
999.000000	47.681695
1000.000000	47.677907
1001.000000	47.673010
1002.000000	47.668430
1003.000000	47.664727
1004.000000	47.659020
1005.000000	47.652388
1006.000000	47.646080
1007.000000	47.641223
1008.000000	47.637870
1009.000000	47.634867
1010.000000	47.632290
1011.000000	47.631107
1012.000000	47.629085
1013.000000	47.624585
1014.000000	47.622005
1015.000000	47.622260
1016.000000	47.623690
1017.000000	47.624183
1018.000000	47.625058
1019.000000	47.626280
1020.000000	47.628732
1021.000000	47.631700
1022.000000	47.636200
1023.000000	47.643985
1024.000000	47.651985
1025.000000	47.658250
1026.000000	47.664178
1027.000000	47.671485
1028.000000	47.678570
1029.000000	47.687270
1030.000000	47.697492
1031.000000	47.707792
1032.000000	47.716505
1033.000000	47.725445
1034.000000	47.735862
1035.000000	47.747132
1036.000000	47.758373
1037.000000	47.769098
1038.000000	47.779272
1039.000000	47.788240
1040.000000	47.797353
1041.000000	47.806577
1042.000000	47.816388
1043.000000	47.826280
1044.000000	47.834852
1045.000000	47.842945
1046.000000	47.851038
1047.000000	47.860460
1048.000000	47.871023
1049.000000	47.881715
1050.000000	47.890955
1051.000000	47.899943
1052.000000	47.909867
1053.000000	47.919998
1054.000000	47.930932
1055.000000	47.942442
1056.000000	47.954918
1057.000000	47.967128
1058.000000	47.979108
1059.000000	47.992060
1060.000000	48.006125
1061.000000	48.020637
1062.000000	48.034573
1063.000000	48.047648
1064.000000	48.060430
1065.000000	48.073140
1066.000000	48.085655
1067.000000	48.098137
1068.000000	48.111900
1069.000000	48.125512
1070.000000	48.139220
1071.000000	48.151783
1072.000000	48.164300
1073.000000	48.176947
1074.000000	48.189428
1075.000000	48.202757
1076.000000	48.215790
1077.000000	48.228310
1078.000000	48.238408
1079.000000	48.247878
1080.000000	48.256865
1081.000000	48.267328
1082.000000	48.278350
1083.000000	48.287658
1084.000000	48.295260
1085.000000	48.303038
1086.000000	48.310885
1087.000000	48.317820
1088.000000	48.325133
1089.000000	48.332300
1090.000000	48.338260
1091.000000	48.342993
1092.000000	48.346848
1093.000000	48.352723
1094.000000	48.360553
1095.000000	48.366467
1096.000000	48.371200
1097.000000	48.375280
1098.000000	48.380380
1099.000000	48.385047
1100.000000	48.389288
1101.000000	48.391955
1102.000000	48.394293
1103.000000	48.395497
1104.000000	48.396220
1105.000000	48.396595
1106.000000	48.396940
1107.000000	48.397890
1108.000000	48.396428
1109.000000	48.393653
1110.000000	48.391790
1111.000000	48.391143
1112.000000	48.387910
1113.000000	48.383740
1114.000000	48.378147
1115.000000	48.372158
1116.000000	48.363735
1117.000000	48.355423
1118.000000	48.347385
1119.000000	48.338187
1120.000000	48.326770
1121.000000	48.314725
1122.000000	48.301200
1123.000000	48.285647
1124.000000	48.267162
1125.000000	48.245655
1126.000000	48.221250
1127.000000	48.191700
1128.000000	48.157330
1129.000000	48.119165
1130.000000	48.075300
1131.000000	48.022928
1132.000000	47.967377
1133.000000	47.909202
1134.000000	47.850580
1135.000000	47.789972
1136.000000	47.723990
1137.000000	47.653985
1138.000000	47.583245
1139.000000	47.511228
1140.000000	47.439260
1141.000000	47.370860
1142.000000	47.303243
1143.000000	47.236688
1144.000000	47.169695
1145.000000	47.104442
1146.000000	47.044690
1147.000000	46.987825
1148.000000	46.932603
1149.000000	46.877733
1150.000000	46.824152
1151.000000	46.770753
1152.000000	46.718097
1153.000000	46.662965
1154.000000	46.604277
1155.000000	46.540633
1156.000000	46.472567
1157.000000	46.402100
1158.000000	46.327105
1159.000000	46.248600
1160.000000	46.165408
1161.000000	46.076685
1162.000000	45.982862
1163.000000	45.885773
1164.000000	45.786185
1165.000000	45.684483
1166.000000	45.583103
1167.000000	45.480765
1168.000000	45.379397
1169.000000	45.279187
1170.000000	45.182617
1171.000000	45.090338
1172.000000	45.002210
1173.000000	44.919108
1174.000000	44.841228
1175.000000	44.769600
1176.000000	44.702175
1177.000000	44.638427
1178.000000	44.579290
1179.000000	44.524705
1180.000000	44.472893
1181.000000	44.423180
1182.000000	44.375818
1183.000000	44.331923
1184.000000	44.291785
1185.000000	44.255840
1186.000000	44.224833
1187.000000	44.198970
1188.000000	44.178575
1189.000000	44.165193
1190.000000	44.159422
1191.000000	44.160843
1192.000000	44.170075
1193.000000	44.183707
1194.000000	44.202665
1195.000000	44.226237
1196.000000	44.253190
1197.000000	44.282390
1198.000000	44.313578
1199.000000	44.344710
1200.000000	44.375900
1201.000000	44.405600
1202.000000	44.434473
1203.000000	44.462385
1204.000000	44.488688
1205.000000	44.513222
1206.000000	44.537565
1207.000000	44.563215
1208.000000	44.587387
1209.000000	44.612048
1210.000000	44.636510
1211.000000	44.662185
1212.000000	44.687975
1213.000000	44.714363
1214.000000	44.741678
1215.000000	44.769640
1216.000000	44.797753
1217.000000	44.825178
1218.000000	44.853747
1219.000000	44.883248
1220.000000	44.912965
1221.000000	44.942683
1222.000000	44.972712
1223.000000	45.003312
1224.000000	45.034207
1225.000000	45.065392
1226.000000	45.096455
1227.000000	45.127060
1228.000000	45.155203
1229.000000	45.182320
1230.000000	45.208655
1231.000000	45.235067
1232.000000	45.259413
1233.000000	45.281640
1234.000000	45.302238
1235.000000	45.319955
1236.000000	45.335738
1237.000000	45.350220
1238.000000	45.365297
1239.000000	45.379380
1240.000000	45.392627
1241.000000	45.404870
1242.000000	45.418527
1243.000000	45.432695
1244.000000	45.447255
1245.000000	45.463628
1246.000000	45.482377
1247.000000	45.503567
1248.000000	45.524718
1249.000000	45.546788
1250.000000	45.568755
1251.000000	45.591490
1252.000000	45.614353
1253.000000	45.637197
1254.000000	45.659247
1255.000000	45.681173
1256.000000	45.700510
1257.000000	45.716838
1258.000000	45.733128
1259.000000	45.748300
1260.000000	45.762662
1261.000000	45.774707
1262.000000	45.785222
1263.000000	45.795503
1264.000000	45.805245
1265.000000	45.814222
1266.000000	45.822558
1267.000000	45.831055
1268.000000	45.838555
1269.000000	45.844082
1270.000000	45.848128
1271.000000	45.852335
1272.000000	45.855488
1273.000000	45.857537
1274.000000	45.859370
1275.000000	45.859610
1276.000000	45.859630
1277.000000	45.859908
1278.000000	45.860287
1279.000000	45.862100
1280.000000	45.866053
1281.000000	45.870905
1282.000000	45.876690
1283.000000	45.883765
1284.000000	45.891765
1285.000000	45.901323
1286.000000	45.912337
1287.000000	45.924200
1288.000000	45.935752
1289.000000	45.947338
1290.000000	45.957930
1291.000000	45.968532
1292.000000	45.979025
1293.000000	45.988525
1294.000000	45.997280
1295.000000	46.005620
1296.000000	46.013190
1297.000000	46.019985
1298.000000	46.027653
1299.000000	46.034418
1300.000000	46.040110
1301.000000	46.044753
1302.000000	46.048055
1303.000000	46.049610
1304.000000	46.050655
1305.000000	46.050857
1306.000000	46.049280
1307.000000	46.045938
1308.000000	46.039965
1309.000000	46.032345
1310.000000	46.022993
1311.000000	46.010913
1312.000000	45.997900
1313.000000	45.985062
1314.000000	45.968847
1315.000000	45.949720
1316.000000	45.928853
1317.000000	45.905905
1318.000000	45.882123
1319.000000	45.857660
1320.000000	45.831190
1321.000000	45.802425
1322.000000	45.770810
1323.000000	45.736790
1324.000000	45.701518
1325.000000	45.664143
1326.000000	45.624390
1327.000000	45.581877
1328.000000	45.536082
1329.000000	45.486648
1330.000000	45.435178
1331.000000	45.382188
1332.000000	45.326058
1333.000000	45.266598
1334.000000	45.204153
1335.000000	45.139480
1336.000000	45.072488
1337.000000	45.003305
1338.000000	44.931530
1339.000000	44.857420
1340.000000	44.781435
1341.000000	44.701945
1342.000000	44.620063
1343.000000	44.535305
1344.000000	44.446365
1345.000000	44.353525
1346.000000	44.259497
1347.000000	44.163950
1348.000000	44.063773
1349.000000	43.959942
1350.000000	43.852125
1351.000000	43.742180
1352.000000	43.632062
1353.000000	43.522863
1354.000000	43.418148
1355.000000	43.316030
1356.000000	43.212473
1357.000000	43.109763
1358.000000	43.009362
1359.000000	42.911725
1360.000000	42.821680
1361.000000	42.743455
1362.000000	42.663150
1363.000000	42.578405
1364.000000	42.492995
1365.000000	42.404962
1366.000000	42.313615
1367.000000	42.223458
1368.000000	42.129377
1369.000000	42.027993
1370.000000	41.915283
1371.000000	41.785688
1372.000000	41.643867
1373.000000	41.487988
1374.000000	41.311837
1375.000000	41.120375
1376.000000	40.913075
1377.000000	40.686950
1378.000000	40.447997
1379.000000	40.201485
1380.000000	39.953845
1381.000000	39.713647
1382.000000	39.485715
1383.000000	39.273392
1384.000000	39.073155
1385.000000	38.885377
1386.000000	38.715592
1387.000000	38.569367
1388.000000	38.441205
1389.000000	38.322940
1390.000000	38.211515
1391.000000	38.106425
1392.000000	38.005243
1393.000000	37.906605
1394.000000	37.817980
1395.000000	37.741735
1396.000000	37.664192
1397.000000	37.570425
1398.000000	37.471320
1399.000000	37.381165
1400.000000	37.296290
1401.000000	37.194600
1402.000000	37.076770
1403.000000	36.949067
1404.000000	36.813857
1405.000000	36.661245
1406.000000	36.502705
1407.000000	36.343400
1408.000000	36.182295
1409.000000	36.006750
1410.000000	35.813075
1411.000000	35.615760
1412.000000	35.425825
1413.000000	35.238973
1414.000000	35.050227
1415.000000	34.860602
1416.000000	34.667562
1417.000000	34.480297
1418.000000	34.295497
1419.000000	34.117033
1420.000000	33.942845
1421.000000	33.776013
1422.000000	33.613425
1423.000000	33.453312
1424.000000	33.294815
1425.000000	33.140965
1426.000000	32.997665
1427.000000	32.857245
1428.000000	32.719735
1429.000000	32.582448
1430.000000	32.453380
1431.000000	32.333562
1432.000000	32.215497
1433.000000	32.101335
1434.000000	31.991618
1435.000000	31.886662
1436.000000	31.783640
1437.000000	31.686100
1438.000000	31.590517
1439.000000	31.499002
1440.000000	31.409722
1441.000000	31.321395
1442.000000	31.235293
1443.000000	31.150903
1444.000000	31.069410
1445.000000	30.994805
1446.000000	30.920257
1447.000000	30.841783
1448.000000	30.763750
1449.000000	30.690340
1450.000000	30.620325
1451.000000	30.550378
1452.000000	30.479787
1453.000000	30.409047
1454.000000	30.339112
1455.000000	30.265363
1456.000000	30.193393
1457.000000	30.123620
1458.000000	30.056250
1459.000000	29.985818
1460.000000	29.912163
1461.000000	29.837350
1462.000000	29.765695
1463.000000	29.695415
1464.000000	29.624150
1465.000000	29.554540
1466.000000	29.486025
1467.000000	29.417482
1468.000000	29.347030
1469.000000	29.279235
1470.000000	29.213952
1471.000000	29.149732
1472.000000	29.085653
1473.000000	29.022222
1474.000000	28.959220
1475.000000	28.896043
1476.000000	28.835158
1477.000000	28.777390
1478.000000	28.723010
1479.000000	28.670360
1480.000000	28.619660
1481.000000	28.572343
1482.000000	28.527352
1483.000000	28.485318
1484.000000	28.447073
1485.000000	28.412347
1486.000000	28.380102
1487.000000	28.350385
1488.000000	28.322150
1489.000000	28.295320
1490.000000	28.270772
1491.000000	28.248627
1492.000000	28.229773
1493.000000	28.214340
1494.000000	28.200615
1495.000000	28.189545
1496.000000	28.180985
1497.000000	28.176470
1498.000000	28.177030
1499.000000	28.181932
1500.000000	28.191025
1501.000000	28.204603
1502.000000	28.223220
1503.000000	28.245278
1504.000000	28.273370
1505.000000	28.306475
1506.000000	28.344545
1507.000000	28.386203
1508.000000	28.431302
1509.000000	28.479315
1510.000000	28.529965
1511.000000	28.582062
1512.000000	28.636075
1513.000000	28.692223
1514.000000	28.748440
1515.000000	28.805678
1516.000000	28.863345
1517.000000	28.920830
1518.000000	28.978428
1519.000000	29.035030
1520.000000	29.092205
1521.000000	29.148870
1522.000000	29.204468
1523.000000	29.259705
1524.000000	29.313885
1525.000000	29.366820
1526.000000	29.418950
1527.000000	29.470138
1528.000000	29.520758
1529.000000	29.571705
1530.000000	29.621265
1531.000000	29.670077
1532.000000	29.717615
1533.000000	29.764085
1534.000000	29.809292
1535.000000	29.853487
1536.000000	29.896442
1537.000000	29.938633
1538.000000	29.979560
1539.000000	30.018642
1540.000000	30.056387
1541.000000	30.092973
1542.000000	30.127777
1543.000000	30.161945
1544.000000	30.197725
1545.000000	30.233853
1546.000000	30.271125
1547.000000	30.309507
1548.000000	30.349580
1549.000000	30.391587
1550.000000	30.434900
1551.000000	30.479865
1552.000000	30.527450
1553.000000	30.575997
1554.000000	30.623217
1555.000000	30.669128
1556.000000	30.713268
1557.000000	30.754810
1558.000000	30.792645
1559.000000	30.827035
1560.000000	30.858103
1561.000000	30.885113
1562.000000	30.906455
1563.000000	30.922070
1564.000000	30.933755
1565.000000	30.941407
1566.000000	30.944398
1567.000000	30.943683
1568.000000	30.940390
1569.000000	30.934535
1570.000000	30.926860
1571.000000	30.918805
1572.000000	30.911082
1573.000000	30.903612
1574.000000	30.896902
1575.000000	30.892125
1576.000000	30.889012
1577.000000	30.888038
1578.000000	30.889785
1579.000000	30.894247
1580.000000	30.901972
1581.000000	30.911970
1582.000000	30.923998
1583.000000	30.939647
1584.000000	30.958598
1585.000000	30.979523
1586.000000	31.004377
1587.000000	31.032245
1588.000000	31.060868
1589.000000	31.090990
1590.000000	31.121700
1591.000000	31.153900
1592.000000	31.189032
1593.000000	31.226480
1594.000000	31.264783
1595.000000	31.304915
1596.000000	31.344615
1597.000000	31.385640
1598.000000	31.429425
1599.000000	31.475658
1600.000000	31.524570
1601.000000	31.575717
1602.000000	31.628148
1603.000000	31.680785
1604.000000	31.735187
1605.000000	31.790160
1606.000000	31.846250
1607.000000	31.901955
1608.000000	31.957963
1609.000000	32.013323
1610.000000	32.067522
1611.000000	32.119657
1612.000000	32.169695
1613.000000	32.217567
1614.000000	32.263272
1615.000000	32.308067
1616.000000	32.351827
1617.000000	32.393537
1618.000000	32.432835
1619.000000	32.470003
1620.000000	32.504935
1621.000000	32.538510
1622.000000	32.571210
1623.000000	32.603668
1624.000000	32.635393
1625.000000	32.667003
1626.000000	32.698453
1627.000000	32.728898
1628.000000	32.757938
1629.000000	32.787475
1630.000000	32.817087
1631.000000	32.847563
1632.000000	32.877448
1633.000000	32.906435
1634.000000	32.934470
1635.000000	32.960090
1636.000000	32.982830
1637.000000	33.005907
1638.000000	33.027455
1639.000000	33.045600
1640.000000	33.062035
1641.000000	33.075947
1642.000000	33.089360
1643.000000	33.100077
1644.000000	33.109585
1645.000000	33.117855
1646.000000	33.124967
1647.000000	33.128743
1648.000000	33.131907
1649.000000	33.134757
1650.000000	33.134540
1651.000000	33.130485
1652.000000	33.121282
1653.000000	33.109075
1654.000000	33.092455
1655.000000	33.069392
1656.000000	33.040658
1657.000000	33.005797
1658.000000	32.963495
1659.000000	32.913970
1660.000000	32.857835
1661.000000	32.793737
1662.000000	32.722495
1663.000000	32.644058
1664.000000	32.555980
1665.000000	32.461168
1666.000000	32.358285
1667.000000	32.253040
1668.000000	32.136628
1669.000000	32.014648
1670.000000	31.888832
1671.000000	31.758910
1672.000000	31.626320
1673.000000	31.489238
1674.000000	31.350403
1675.000000	31.212852
1676.000000	31.073905
1677.000000	30.931845
1678.000000	30.794957
1679.000000	30.655150
1680.000000	30.511910
1681.000000	30.367415
1682.000000	30.219595
1683.000000	30.072400
1684.000000	29.926650
1685.000000	29.781775
1686.000000	29.643177
1687.000000	29.513103
1688.000000	29.396645
1689.000000	29.296972
1690.000000	29.216783
1691.000000	29.156993
1692.000000	29.119580
1693.000000	29.101257
1694.000000	29.099318
1695.000000	29.110683
1696.000000	29.132490
1697.000000	29.159080
1698.000000	29.187593
1699.000000	29.214020
1700.000000	29.235503
1701.000000	29.249377
1702.000000	29.253625
1703.000000	29.250195
1704.000000	29.238858
1705.000000	29.219060
1706.000000	29.191020
1707.000000	29.154262
1708.000000	29.105915
1709.000000	29.048480
1710.000000	28.980295
1711.000000	28.901038
1712.000000	28.811793
1713.000000	28.711248
1714.000000	28.599690
1715.000000	28.476337
1716.000000	28.343758
1717.000000	28.202365
1718.000000	28.054212
1719.000000	27.902250
1720.000000	27.749958
1721.000000	27.602135
1722.000000	27.461872
1723.000000	27.332050
1724.000000	27.216220
1725.000000	27.118948
1726.000000	27.039160
1727.000000	26.979775
1728.000000	26.940360
1729.000000	26.919068
1730.000000	26.916473
1731.000000	26.929932
1732.000000	26.956022
1733.000000	26.993313
1734.000000	27.040137
1735.000000	27.093930
1736.000000	27.154720
1737.000000	27.221080
1738.000000	27.292768
1739.000000	27.370168
1740.000000	27.451445
1741.000000	27.535588
1742.000000	27.622930
1743.000000	27.710760
1744.000000	27.798975
1745.000000	27.885370
1746.000000	27.970347
1747.000000	28.052405
1748.000000	28.129632
1749.000000	28.200475
1750.000000	28.264230
1751.000000	28.322202
1752.000000	28.371997
1753.000000	28.415045
1754.000000	28.451272
1755.000000	28.481842
1756.000000	28.506642
1757.000000	28.526058
1758.000000	28.542155
1759.000000	28.555247
1760.000000	28.566180
1761.000000	28.575835
1762.000000	28.586833
1763.000000	28.600082
1764.000000	28.615230
1765.000000	28.632568
1766.000000	28.652542
1767.000000	28.674892
1768.000000	28.700160
1769.000000	28.729675
1770.000000	28.763615
1771.000000	28.799970
1772.000000	28.837635
1773.000000	28.877318
1774.000000	28.917997
1775.000000	28.960800
1776.000000	29.004223
1777.000000	29.047730
1778.000000	29.090935
1779.000000	29.133567
1780.000000	29.174078
1781.000000	29.211683
1782.000000	29.247718
1783.000000	29.281105
1784.000000	29.312227
1785.000000	29.339050
1786.000000	29.362405
1787.000000	29.382362
1788.000000	29.399777
1789.000000	29.414752
1790.000000	29.429020
1791.000000	29.444108
1792.000000	29.458317
1793.000000	29.472325
1794.000000	29.487113
1795.000000	29.503990
1796.000000	29.521270
1797.000000	29.538940
1798.000000	29.556147
1799.000000	29.574743
1800.000000	29.595255
1801.000000	29.617020
1802.000000	29.639255
1803.000000	29.657693
1804.000000	29.674798
1805.000000	29.694360
1806.000000	29.716333
1807.000000	29.739790
1808.000000	29.762480
1809.000000	29.783065
1810.000000	29.803305
1811.000000	29.825025
1812.000000	29.845865
1813.000000	29.868215
1814.000000	29.891363
1815.000000	29.910180
1816.000000	29.923777
1817.000000	29.931630
1818.000000	29.938010
1819.000000	29.950138
1820.000000	29.966942
1821.000000	29.983308
1822.000000	29.994545
1823.000000	29.998793
1824.000000	29.998740
1825.000000	29.999578
1826.000000	30.004728
1827.000000	30.017802
1828.000000	30.035888
1829.000000	30.050722
1830.000000	30.060760
1831.000000	30.068105
1832.000000	30.077005
1833.000000	30.090958
1834.000000	30.109390
1835.000000	30.131957
1836.000000	30.157975
1837.000000	30.183195
1838.000000	30.206120
1839.000000	30.229058
1840.000000	30.255720
1841.000000	30.290025
1842.000000	30.327023
1843.000000	30.357487
1844.000000	30.376628
1845.000000	30.385970
1846.000000	30.395590
1847.000000	30.417253
1848.000000	30.447852
1849.000000	30.470020
1850.000000	30.475070
1851.000000	30.465842
1852.000000	30.456602
1853.000000	30.458263
1854.000000	30.472028
1855.000000	30.486785
1856.000000	30.488875
1857.000000	30.472140
1858.000000	30.447543
1859.000000	30.431025
1860.000000	30.423905
1861.000000	30.417293
1862.000000	30.402103
1863.000000	30.371767
1864.000000	30.324415
1865.000000	30.270135
1866.000000	30.211212
1867.000000	30.145770
1868.000000	30.069933
1869.000000	29.986320
1870.000000	29.896983
1871.000000	29.799307
1872.000000	29.696375
1873.000000	29.593005
1874.000000	29.485482
1875.000000	29.367475
1876.000000	29.240503
1877.000000	29.102030
1878.000000	28.949415
1879.000000	28.776452
1880.000000	28.584140
1881.000000	28.377660
1882.000000	28.158427
1883.000000	27.927533
1884.000000	27.686732
1885.000000	27.434337
1886.000000	27.169448
1887.000000	26.890470
1888.000000	26.598180
1889.000000	26.297270
1890.000000	25.988162
1891.000000	25.671795
1892.000000	25.343850
1893.000000	24.999770
1894.000000	24.641955
1895.000000	24.272475
1896.000000	23.890217
1897.000000	23.503800
1898.000000	23.113588
1899.000000	22.723515
1900.000000	22.329683
1901.000000	21.928505
1902.000000	21.526013
1903.000000	21.129967
1904.000000	20.745623
1905.000000	20.375998
1906.000000	20.017150
1907.000000	19.666578
1908.000000	19.327260
1909.000000	18.990320
1910.000000	18.664405
1911.000000	18.359805
1912.000000	18.072985
1913.000000	17.801028
1914.000000	17.538035
1915.000000	17.284250
1916.000000	17.043358
1917.000000	16.818215
1918.000000	16.604025
1919.000000	16.407980
1920.000000	16.228098
1921.000000	16.058138
1922.000000	15.903023
1923.000000	15.754590
1924.000000	15.613637
1925.000000	15.487220
1926.000000	15.372385
1927.000000	15.269223
1928.000000	15.176575
1929.000000	15.091542
1930.000000	15.014385
1931.000000	14.943450
1932.000000	14.875610
1933.000000	14.819360
1934.000000	14.776740
1935.000000	14.737725
1936.000000	14.706695
1937.000000	14.679448
1938.000000	14.665778
1939.000000	14.657960
1940.000000	14.655520
1941.000000	14.660015
1942.000000	14.669740
1943.000000	14.686710
1944.000000	14.707992
1945.000000	14.736265
1946.000000	14.771315
1947.000000	14.813063
1948.000000	14.854518
1949.000000	14.900017
1950.000000	14.947445
1951.000000	14.996705
1952.000000	15.052840
1953.000000	15.109950
1954.000000	15.173927
1955.000000	15.238997
1956.000000	15.303532
1957.000000	15.371577
1958.000000	15.437972
1959.000000	15.510075
1960.000000	15.582500
1961.000000	15.658207
1962.000000	15.730647
1963.000000	15.805858
1964.000000	15.877733
1965.000000	15.947188
1966.000000	16.021050
1967.000000	16.091822
1968.000000	16.162075
1969.000000	16.229077
1970.000000	16.295045
1971.000000	16.362645
1972.000000	16.431603
1973.000000	16.498577
1974.000000	16.566507
1975.000000	16.636680
1976.000000	16.703533
1977.000000	16.772928
1978.000000	16.844237
1979.000000	16.917975
1980.000000	16.993950
1981.000000	17.065795
1982.000000	17.139135
1983.000000	17.213802
1984.000000	17.285990
1985.000000	17.358870
1986.000000	17.434643
1987.000000	17.508263
1988.000000	17.582570
1989.000000	17.655498
1990.000000	17.727913
1991.000000	17.800570
1992.000000	17.869880
1993.000000	17.936377
1994.000000	18.003328
1995.000000	18.067490
1996.000000	18.127797
1997.000000	18.187535
1998.000000	18.245100
1999.000000	18.297685
2000.000000	18.349882
2001.000000	18.399910
2002.000000	18.448750
2003.000000	18.495035
2004.000000	18.534573
2005.000000	18.568540
2006.000000	18.598775
2007.000000	18.624723
2008.000000	18.647638
2009.000000	18.665983
2010.000000	18.679025
2011.000000	18.687117
2012.000000	18.686590
2013.000000	18.680145
2014.000000	18.671490
2015.000000	18.661990
2016.000000	18.646612
2017.000000	18.625205
2018.000000	18.598982
2019.000000	18.569382
2020.000000	18.533117
2021.000000	18.491923
2022.000000	18.449217
2023.000000	18.399887
2024.000000	18.343773
2025.000000	18.281987
2026.000000	18.219330
2027.000000	18.153255
2028.000000	18.080752
2029.000000	18.001952
2030.000000	17.918408
2031.000000	17.831547
2032.000000	17.739297
2033.000000	17.644425
2034.000000	17.546597
2035.000000	17.443610
2036.000000	17.333730
2037.000000	17.218058
2038.000000	17.098488
2039.000000	16.978705
2040.000000	16.856930
2041.000000	16.730675
2042.000000	16.601280
2043.000000	16.469645
2044.000000	16.338150
2045.000000	16.206813
2046.000000	16.076065
2047.000000	15.948753
2048.000000	15.825925
2049.000000	15.709808
2050.000000	15.602835
2051.000000	15.503690
2052.000000	15.416897
2053.000000	15.346265
2054.000000	15.289822
2055.000000	15.245292
2056.000000	15.209095
2057.000000	15.183663
2058.000000	15.175915
2059.000000	15.181932
2060.000000	15.201153
2061.000000	15.235780
2062.000000	15.283258
2063.000000	15.340350
2064.000000	15.402080
2065.000000	15.468163
2066.000000	15.548120
2067.000000	15.638137
2068.000000	15.725553
2069.000000	15.812195
2070.000000	15.902710
2071.000000	15.993038
2072.000000	16.077303
2073.000000	16.157547
2074.000000	16.240412
2075.000000	16.327375
2076.000000	16.412453
2077.000000	16.492448
2078.000000	16.572295
2079.000000	16.650255
2080.000000	16.714150
2081.000000	16.768305
2082.000000	16.823120
2083.000000	16.875570
2084.000000	16.921012
2085.000000	16.961357
2086.000000	16.990247
2087.000000	17.009328
2088.000000	17.022200
2089.000000	17.030577
2090.000000	17.041203
2091.000000	17.049898
2092.000000	17.050217
2093.000000	17.046515
2094.000000	17.045433
2095.000000	17.041705
2096.000000	17.037768
2097.000000	17.038245
2098.000000	17.040782
2099.000000	17.040728
2100.000000	17.037800
2101.000000	17.033160
2102.000000	17.026298
2103.000000	17.025695
2104.000000	17.023148
2105.000000	17.020563
2106.000000	17.020943
2107.000000	17.023142
2108.000000	17.022748
2109.000000	17.026665
2110.000000	17.032742
2111.000000	17.041035
2112.000000	17.050877
2113.000000	17.048977
2114.000000	17.042420
2115.000000	17.040935
2116.000000	17.039008
2117.000000	17.034713
2118.000000	17.030217
2119.000000	17.015760
2120.000000	16.997350
2121.000000	16.975838
2122.000000	16.955700
2123.000000	16.940137
2124.000000	16.922538
2125.000000	16.893497
2126.000000	16.864607
2127.000000	16.827323
2128.000000	16.786390
2129.000000	16.750010
2130.000000	16.719350
2131.000000	16.678328
2132.000000	16.632603
2133.000000	16.578040
2134.000000	16.522745
2135.000000	16.464685
2136.000000	16.393912
2137.000000	16.330537
2138.000000	16.269362
2139.000000	16.205272
2140.000000	16.117905
2141.000000	16.039853
2142.000000	15.957973
2143.000000	15.881223
2144.000000	15.800620
2145.000000	15.711745
2146.000000	15.628272
2147.000000	15.528752
2148.000000	15.426977
2149.000000	15.324127
2150.000000	15.229737
2151.000000	15.136560
2152.000000	15.041955
2153.000000	14.944968
2154.000000	14.848830
2155.000000	14.754912
2156.000000	14.664435
2157.000000	14.583680
2158.000000	14.491138
2159.000000	14.401405
2160.000000	14.321158
2161.000000	14.238355
2162.000000	14.165942
2163.000000	14.108263
2164.000000	14.047245
2165.000000	13.991260
2166.000000	13.926450
2167.000000	13.871520
2168.000000	13.832393
2169.000000	13.792837
2170.000000	13.755013
2171.000000	13.717835
2172.000000	13.676993
2173.000000	13.628268
2174.000000	13.593365
2175.000000	13.571175
2176.000000	13.561048
2177.000000	13.545480
2178.000000	13.525595
2179.000000	13.509207
2180.000000	13.487340
2181.000000	13.469272
2182.000000	13.451282
2183.000000	13.438600
2184.000000	13.416100
2185.000000	13.388720
2186.000000	13.366045
2187.000000	13.346493
2188.000000	13.321703
2189.000000	13.294293
2190.000000	13.267310
2191.000000	13.234715
2192.000000	13.205535
2193.000000	13.162207
2194.000000	13.113770
2195.000000	13.070670
2196.000000	13.012612
2197.000000	12.951187
2198.000000	12.890873
2199.000000	12.844188
2200.000000	12.792763
2201.000000	12.742290
2202.000000	12.689798
2203.000000	12.636397
2204.000000	12.587995
2205.000000	12.536468
2206.000000	12.496330
2207.000000	12.449208
2208.000000	12.419487
2209.000000	12.386045
2210.000000	12.360542
2211.000000	12.359355
2212.000000	12.357235
2213.000000	12.378173
2214.000000	12.406522
2215.000000	12.448702
2216.000000	12.496900
2217.000000	12.558610
2218.000000	12.611828
2219.000000	12.663003
2220.000000	12.726000
2221.000000	12.775175
2222.000000	12.840490
2223.000000	12.900355
2224.000000	12.970277
2225.000000	13.028690
2226.000000	13.096058
2227.000000	13.166655
2228.000000	13.239057
2229.000000	13.307432
2230.000000	13.370362
2231.000000	13.430675
2232.000000	13.478533
2233.000000	13.518818
2234.000000	13.546997
2235.000000	13.578592
2236.000000	13.594907
2237.000000	13.603875
2238.000000	13.611873
2239.000000	13.619152
2240.000000	13.614523
2241.000000	13.598390
2242.000000	13.586018
2243.000000	13.561405
2244.000000	13.526250
2245.000000	13.474865
2246.000000	13.414165
2247.000000	13.341355
2248.000000	13.270065
2249.000000	13.191755
2250.000000	13.107352
2251.000000	13.025785
2252.000000	12.933132
2253.000000	12.840940
2254.000000	12.746580
2255.000000	12.664803
2256.000000	12.580958
2257.000000	12.502062
2258.000000	12.406935
2259.000000	12.312695
2260.000000	12.232155
2261.000000	12.157390
2262.000000	12.075045
2263.000000	12.010060
2264.000000	11.958385
2265.000000	11.899270
2266.000000	11.845697
2267.000000	11.792128
2268.000000	11.754365
2269.000000	11.728025
2270.000000	11.696562
2271.000000	11.667038
2272.000000	11.660155
2273.000000	11.638817
2274.000000	11.619430
2275.000000	11.606855
2276.000000	11.612697
2277.000000	11.614577
2278.000000	11.611625
2279.000000	11.599302
2280.000000	11.592823
2281.000000	11.589977
2282.000000	11.585500
2283.000000	11.578563
2284.000000	11.571390
2285.000000	11.567403
2286.000000	11.544370
2287.000000	11.537885
2288.000000	11.534398
2289.000000	11.532488
2290.000000	11.531873
2291.000000	11.528890
2292.000000	11.518232
2293.000000	11.520860
2294.000000	11.518117
2295.000000	11.505150
2296.000000	11.500380
2297.000000	11.495597
2298.000000	11.500855
2299.000000	11.502710
2300.000000	11.506308
2301.000000	11.507345
2302.000000	11.510673
2303.000000	11.515688
2304.000000	11.521980
2305.000000	11.541982
2306.000000	11.559793
2307.000000	11.577075
2308.000000	11.589628
2309.000000	11.610740
2310.000000	11.628287
2311.000000	11.648130
2312.000000	11.683128
2313.000000	11.726653
2314.000000	11.776075
2315.000000	11.820978
2316.000000	11.868942
2317.000000	11.915160
2318.000000	11.960297
2319.000000	12.000930
2320.000000	12.038487
2321.000000	12.075917
2322.000000	12.110910
2323.000000	12.134605
2324.000000	12.156870
2325.000000	12.178592
2326.000000	12.191485
2327.000000	12.197138
2328.000000	12.199400
2329.000000	12.204240
2330.000000	12.215060
2331.000000	12.225898
2332.000000	12.218168
2333.000000	12.211293
2334.000000	12.198828
2335.000000	12.182525
2336.000000	12.185403
2337.000000	12.201335
2338.000000	12.210875
2339.000000	12.219458
2340.000000	12.228665
2341.000000	12.238067
2342.000000	12.263092
2343.000000	12.294223
2344.000000	12.330570
2345.000000	12.358512
2346.000000	12.375847
2347.000000	12.380862
2348.000000	12.394222
2349.000000	12.428490
2350.000000	12.458847
2351.000000	12.478965
2352.000000	12.509970
2353.000000	12.542340
2354.000000	12.574890
2355.000000	12.615395
2356.000000	12.660900
2357.000000	12.718048
2358.000000	12.766673
2359.000000	12.799530
2360.000000	12.832880
2361.000000	12.874937
2362.000000	12.899027
2363.000000	12.924097
2364.000000	12.942150
2365.000000	12.956415
2366.000000	12.966050
2367.000000	12.980583
2368.000000	13.007715
2369.000000	13.032535
2370.000000	13.061317
2371.000000	13.082407
2372.000000	13.106685
2373.000000	13.117372
2374.000000	13.128455
2375.000000	13.145640
2376.000000	13.185045
2377.000000	13.207145
2378.000000	13.212383
2379.000000	13.216003
2380.000000	13.220790
2381.000000	13.257522
2382.000000	13.285300
2383.000000	13.305315
2384.000000	13.328815
2385.000000	13.358908
2386.000000	13.360455
2387.000000	13.365280
2388.000000	13.378895
2389.000000	13.407440
2390.000000	13.411683
2391.000000	13.404933
2392.000000	13.399365
2393.000000	13.410577
2394.000000	13.424095
2395.000000	13.428778
2396.000000	13.437070
2397.000000	13.445710
2398.000000	13.459030
2399.000000	13.459670
2400.000000	13.460745
2401.000000	13.433300
2402.000000	13.431342
2403.000000	13.418680
2404.000000	13.397692
2405.000000	13.389210
2406.000000	13.375785
2407.000000	13.376785
2408.000000	13.373075
2409.000000	13.350862
2410.000000	13.346793
2411.000000	13.357247
2412.000000	13.340610
2413.000000	13.306035
2414.000000	13.289950
2415.000000	13.265300
2416.000000	13.236705
2417.000000	13.197245
2418.000000	13.152240
2419.000000	13.116760
2420.000000	13.103285
2421.000000	13.102388
2422.000000	13.080217
2423.000000	13.044213
2424.000000	12.998558
2425.000000	12.959000
2426.000000	12.926618
2427.000000	12.865910
2428.000000	12.796670
2429.000000	12.731715
2430.000000	12.656802
2431.000000	12.556228
2432.000000	12.508210
2433.000000	12.497953
2434.000000	12.475815
2435.000000	12.452715
2436.000000	12.422557
2437.000000	12.388540
2438.000000	12.358318
2439.000000	12.334043
2440.000000	12.301643
2441.000000	12.282103
2442.000000	12.211927
2443.000000	12.150393
2444.000000	12.056260
2445.000000	11.968973
2446.000000	11.935237
2447.000000	11.886283
2448.000000	11.844795
2449.000000	11.822002
2450.000000	11.815885
2451.000000	11.833227
2452.000000	11.783582
2453.000000	11.729427
2454.000000	11.745073
2455.000000	11.709943
2456.000000	11.643980
2457.000000	11.628768
2458.000000	11.627718
2459.000000	11.576055
2460.000000	11.543942
2461.000000	11.530048
2462.000000	11.543902
2463.000000	11.603955
2464.000000	11.667195
2465.000000	11.732185
2466.000000	11.788905
2467.000000	11.841762
2468.000000	11.867178
2469.000000	11.947947
2470.000000	11.939547
2471.000000	11.915907
2472.000000	12.033765
2473.000000	12.057098
2474.000000	12.088800
2475.000000	12.201980
2476.000000	12.312770
2477.000000	12.414433
2478.000000	12.555050
2479.000000	12.678503
2480.000000	12.844733
2481.000000	12.929280
2482.000000	13.001145
2483.000000	13.087842
2484.000000	13.197543
2485.000000	13.227130
2486.000000	13.379933
2487.000000	13.534203
2488.000000	13.709532
2489.000000	13.923910
2490.000000	14.015533
2491.000000	14.302412
2492.000000	14.591733
2493.000000	14.864160
2494.000000	14.972428
2495.000000	15.145175
2496.000000	15.249825
2497.000000	15.345333
2498.000000	15.459357
2499.000000	15.563325
2500.000000	15.759893
2501.000000	19.569698
2502.000000	23.449552
2503.000000	27.233720
2504.000000	30.867650
2505.000000	34.783710
2506.000000	38.909150
2507.000000	43.090135
2508.000000	47.205670
2509.000000	51.599515
2510.000000	55.960970
2511.000000	56.459740
2512.000000	56.918200
2513.000000	57.968100
2514.000000	59.843110
2515.000000	60.964380
2516.000000	61.922170
2517.000000	62.863100
2518.000000	63.663510
2519.000000	64.416040
2520.000000	64.859730
2521.000000	65.881110
2522.000000	67.177220
2523.000000	67.483590
2524.000000	67.432920
2525.000000	68.640640
2526.000000	69.572280
2527.000000	70.866040
2528.000000	72.028270
2529.000000	72.986650
2530.000000	74.366370
2531.000000	75.935820
2532.000000	76.322040
2533.000000	77.064420
2534.000000	77.671080
2535.000000	78.235830
2536.000000	78.827470
2537.000000	79.063760
2538.000000	79.695590
2539.000000	80.420300
2540.000000	81.317510
2541.000000	81.969480
2542.000000	83.305250
2543.000000	84.775400
2544.000000	85.440960
2545.000000	85.360620
2546.000000	85.601360
2547.000000	85.210930
2548.000000	85.612820
2549.000000	85.745540
2550.000000	85.679540
2551.000000	85.474620
2552.000000	86.402930
2553.000000	87.680890
2554.000000	89.379560
2555.000000	90.717330
2556.000000	91.682350
2557.000000	93.220640
2558.000000	93.432780
2559.000000	93.960080
2560.000000	94.673070
2561.000000	94.667820
2562.000000	93.898330
2563.000000	93.246150
2564.000000	92.851350
2565.000000	93.217940
2566.000000	94.166700
2567.000000	94.416660
2568.000000	95.125830
2569.000000	96.057880
2570.000000	95.906910
2571.000000	95.954710
2572.000000	95.764200
2573.000000	95.144120
2574.000000	94.748100
2575.000000	94.132620
2576.000000	93.894310
2577.000000	94.133700
2578.000000	94.486790
2579.000000	94.465420
2580.000000	95.618680
2581.000000	97.167610
2582.000000	98.260600
2583.000000	99.102010
2584.000000	100.119630
2585.000000	100.712530
2586.000000	100.047230
2587.000000	99.979780
2588.000000	99.474890
2589.000000	99.038810
2590.000000	98.915800
2591.000000	98.906690
2592.000000	99.705690
2593.000000	100.933500
2594.000000	101.621680
2595.000000	102.181350
2596.000000	103.162200
2597.000000	103.529440
2598.000000	103.902300
2599.000000	104.066050
2600.000000	103.440530
2601.000000	101.979730
2602.000000	100.643400
2603.000000	100.037630
2604.000000	99.895140
2605.000000	99.757040
2606.000000	99.498440
2607.000000	99.412160
2608.000000	99.392760
2609.000000	99.475690
2610.000000	99.898510
2611.000000	100.497080
2612.000000	100.445940
2613.000000	99.988810
2614.000000	99.546310
2615.000000	99.691200
2616.000000	100.354460
2617.000000	101.242910
2618.000000	101.890400
2619.000000	102.462460
2620.000000	102.562640
2621.000000	102.647160
2622.000000	103.245970
2623.000000	102.776020
2624.000000	101.411240
2625.000000	100.459010
2626.000000	99.748400
2627.000000	99.605660
2628.000000	100.351950
2629.000000	101.257940
2630.000000	101.687920
2631.000000	102.428050
2632.000000	102.570250
2633.000000	102.803870
2634.000000	104.181640
2635.000000	104.883930
2636.000000	104.695030
2637.000000	103.581850
2638.000000	102.099190
2639.000000	100.613700
2640.000000	100.197340
2641.000000	100.154310
2642.000000	100.881790
2643.000000	102.325230
2644.000000	103.073940
2645.000000	103.328930
2646.000000	103.508920
2647.000000	103.732510
2648.000000	103.272340
2649.000000	102.729410
2650.000000	101.910450
2651.000000	101.387930
2652.000000	100.518070
2653.000000	99.363880
2654.000000	98.935120
2655.000000	99.125630
2656.000000	99.539290
2657.000000	100.108440
2658.000000	101.607590
2659.000000	102.249790
2660.000000	102.812460
2661.000000	102.658200
2662.000000	101.896570
2663.000000	100.990170
2664.000000	99.860780
2665.000000	99.308380
2666.000000	98.676310
2667.000000	98.341700
2668.000000	98.220860
2669.000000	98.723520
2670.000000	98.928010
2671.000000	99.416200
2672.000000	100.544210
2673.000000	100.648840
2674.000000	100.699180
2675.000000	99.775530
2676.000000	99.251060
2677.000000	99.341670
2678.000000	98.375750
2679.000000	97.695510
2680.000000	96.775370
2681.000000	96.470080
2682.000000	96.195400
2683.000000	97.725460
2684.000000	98.905400
2685.000000	100.703960
2686.000000	103.640720
2687.000000	104.360380
2688.000000	105.254560
2689.000000	105.107410
2690.000000	105.217330
2691.000000	104.503380
2692.000000	103.565070
2693.000000	102.460900
2694.000000	100.875250
2695.000000	100.074580
2696.000000	98.131070
2697.000000	97.960440
2698.000000	97.877730
2699.000000	99.204190
2700.000000	100.304240
2701.000000	101.550230
2702.000000	102.401230
2703.000000	102.645760
2704.000000	102.726530
2705.000000	101.902880
2706.000000	101.768080
2707.000000	101.143660
2708.000000	101.014690
2709.000000	100.375470
2710.000000	100.030520
2711.000000	99.731030
2712.000000	99.686710
2713.000000	100.200280
2714.000000	101.903640
2715.000000	101.695330
2716.000000	100.401600
2717.000000	99.259410
2718.000000	99.095390
2719.000000	99.340120
2720.000000	100.623420
2721.000000	101.482270
2722.000000	102.186470
2723.000000	102.659230
2724.000000	102.752370
2725.000000	104.323170
2726.000000	104.773250
2727.000000	105.733170
2728.000000	105.361690
2729.000000	104.393120
2730.000000	102.232210
2731.000000	101.075160
2732.000000	100.355590
2733.000000	98.760090
2734.000000	98.571810
2735.000000	98.529560
2736.000000	100.086810
2737.000000	100.283700
2738.000000	100.269540
2739.000000	100.822720
2740.000000	101.121030
2741.000000	101.000720
2742.000000	100.735640
2743.000000	101.604020
2744.000000	100.280860
2745.000000	99.694020
2746.000000	98.546700
2747.000000	99.163670
2748.000000	100.055080
2749.000000	99.716520
2750.000000	99.421390
2751.000000	99.686430
2752.000000	99.746950
2753.000000	98.672620
2754.000000	99.199810
2755.000000	98.769380
2756.000000	98.473890
2757.000000	97.857660
2758.000000	97.505780
2759.000000	97.675450
2760.000000	99.729960
2761.000000	99.767970
2762.000000	100.281880
2763.000000	101.512670
2764.000000	100.897540
2765.000000	100.495190
2766.000000	100.837230
2767.000000	100.343930
2768.000000	100.263480
2769.000000	99.919850
2770.000000	99.643710
2771.000000	100.892690
2772.000000	100.474450
2773.000000	100.372030
2774.000000	101.373500
2775.000000	102.161080
2776.000000	102.016440
2777.000000	101.837190
2778.000000	101.399630
2779.000000	101.594420
2780.000000	100.590920
2781.000000	100.242290
2782.000000	100.947720
2783.000000	102.067100
2784.000000	102.307050
2785.000000	101.903090
2786.000000	102.142580
2787.000000	102.221130
2788.000000	102.352170
2789.000000	103.475460
2790.000000	103.755920
2791.000000	103.656780
2792.000000	104.796900
2793.000000	103.739370
2794.000000	103.731220
2795.000000	104.543170
2796.000000	104.815050
2797.000000	105.117480
2798.000000	104.941700
2799.000000	103.345110
2800.000000	102.823750
2801.000000	101.679720
2802.000000	100.392160
2803.000000	101.692020
2804.000000	101.755360
2805.000000	101.357700
2806.000000	101.056440
2807.000000	101.293510
2808.000000	101.557930
2809.000000	101.283910
2810.000000	100.939760
2811.000000	101.324250
2812.000000	100.519470
2813.000000	98.811560
2814.000000	99.216480
2815.000000	99.128320
2816.000000	99.699890
2817.000000	100.261480
2818.000000	100.646230
2819.000000	101.712290
2820.000000	102.169020
2821.000000	101.320770
2822.000000	101.305090
2823.000000	101.437700
2824.000000	101.317900
2825.000000	102.873340
2826.000000	103.298390
2827.000000	103.353270
2828.000000	102.692320
2829.000000	101.790460
2830.000000	101.523480
2831.000000	101.822540
2832.000000	101.361570
2833.000000	101.193010
2834.000000	100.338500
2835.000000	99.011170
2836.000000	98.672420
2837.000000	98.469640
2838.000000	99.286540
2839.000000	100.227010
2840.000000	100.198720
2841.000000	99.981470
2842.000000	100.103450
2843.000000	99.992230
2844.000000	99.808450
2845.000000	99.588380
2846.000000	99.529800
2847.000000	100.251760
2848.000000	100.292250
2849.000000	99.995090
2850.000000	100.582740
2851.000000	101.478860
2852.000000	102.450360
2853.000000	102.698730
2854.000000	102.920720
2855.000000	103.115770
2856.000000	102.623810
2857.000000	101.653770
2858.000000	101.666670
2859.000000	102.420980
2860.000000	102.406430
2861.000000	102.352730
2862.000000	101.823320
2863.000000	101.096120
2864.000000	100.534460
2865.000000	100.046390
2866.000000	99.642940
2867.000000	99.086670
2868.000000	98.481610
2869.000000	98.184780
2870.000000	98.519740
2871.000000	97.780400
2872.000000	97.491640
2873.000000	98.206550
2874.000000	98.366680
2875.000000	98.265720
2876.000000	98.356740
2877.000000	98.462850
2878.000000	98.385010
2879.000000	98.512870
2880.000000	98.533120
2881.000000	99.279360
2882.000000	99.904190
2883.000000	99.899300
2884.000000	99.871640
2885.000000	99.595140
2886.000000	100.155570
2887.000000	100.788150
2888.000000	101.166480
2889.000000	101.234280
2890.000000	100.994060
2891.000000	101.269800
2892.000000	101.693470
2893.000000	102.074890
2894.000000	102.492000
2895.000000	102.991390
2896.000000	102.324240
2897.000000	101.995660
2898.000000	102.186730
2899.000000	101.962800
2900.000000	102.136410
2901.000000	102.441600
2902.000000	102.194670
2903.000000	101.372010
2904.000000	100.515260
2905.000000	99.929420
2906.000000	99.903670
2907.000000	99.944040
2908.000000	99.364790
2909.000000	99.144160
2910.000000	98.876730
2911.000000	97.760430
2912.000000	97.129790
2913.000000	97.448780
2914.000000	98.237250
2915.000000	98.952590
2916.000000	98.974220
2917.000000	98.998980
2918.000000	99.089560
2919.000000	98.702170
2920.000000	99.408700
2921.000000	100.756380
2922.000000	100.650800
2923.000000	100.230860
2924.000000	99.753740
2925.000000	99.126230
2926.000000	99.233940
2927.000000	98.986150
2928.000000	99.455500
2929.000000	100.054870
2930.000000	99.666030
2931.000000	99.666850
2932.000000	100.358490
2933.000000	100.581960
2934.000000	100.452680
2935.000000	100.343410
2936.000000	101.073660
2937.000000	101.547100
2938.000000	102.140190
2939.000000	102.739320
2940.000000	103.678360
2941.000000	103.934570
2942.000000	104.439740
2943.000000	104.386190
2944.000000	104.110450
2945.000000	104.836340
2946.000000	104.823100
2947.000000	104.118140
2948.000000	103.382480
2949.000000	103.324650
2950.000000	102.393080
2951.000000	101.112000
2952.000000	100.155670
2953.000000	100.668820
2954.000000	100.733320
2955.000000	101.113910
2956.000000	101.189580
2957.000000	102.522360
2958.000000	103.277060
2959.000000	102.729090
2960.000000	101.998030
2961.000000	101.761210
2962.000000	101.849130
2963.000000	101.889160
2964.000000	102.945970
2965.000000	102.526840
2966.000000	102.339380
2967.000000	102.126680
2968.000000	101.210020
2969.000000	100.249430
2970.000000	100.187780
2971.000000	99.902760
2972.000000	99.505330
2973.000000	99.343990
2974.000000	99.574290
2975.000000	99.443570
2976.000000	99.130710
2977.000000	98.534540
2978.000000	98.057130
2979.000000	98.688320
2980.000000	98.931910
2981.000000	99.122850
2982.000000	99.518190
2983.000000	99.983960
2984.000000	100.476870
2985.000000	101.360420
2986.000000	101.701810
2987.000000	101.756910
2988.000000	101.866620
2989.000000	101.355870
2990.000000	100.938550
2991.000000	101.014690
2992.000000	101.490820
2993.000000	101.673730
2994.000000	100.839450
2995.000000	99.907900
2996.000000	100.028050
2997.000000	100.362730
2998.000000	100.212490
2999.000000	100.440540
3000.000000	100.387110
