PE UV       SUBTECH     SPECTRUM    ASCII       PEDS        4.00        
   -1
INBUCR0122-5.Sample.ASC
24/02/12
14:35:35.00
24/02/12
14:35:35.00
Vinicio Soto Monge
Pelidnota strigosa. Color café con ambos élitros (Det: A. Solís) COSTA RICA Prov. Guanacaste. Cañas. Reserva Leones. Naciente Quebrada Leones Cabo Blanco. 800-900m 25-26 SEP 2008 J.A. Azofeifa. Tp Luz Mercurio L_N_291200_422800 #94907 INB0004171901 
250,000000
1
Lambda 1050
1050L1511233
PerkinElmer UV WinLab 6.3.2.0749 / 2.02.05 Lambda 900 UV/VIS/NIR, Aug  7 2015 09:38:08

0
0
3350/servo 860,8/2
0
0
UV/VIS
1
1
1
DoubleDePol,CommonBeamDepol,RBeamAtt,SBeamAtt,60mm sphere, WB InGaAs Detector
0
0
0
0
Program
Program
3350/servo 860,8/2
3350/0,2 860,8/0,2
3350/0,2 860,8/0,2
0
15.00
 
 
 
0
 
860,8
150
860,8
Front
100
on
S:100 R:100
0
0
0
0
 
0
 
 
 
0
 
 
0
0
0
0
0
 
 
 
 
0
0


0
0
#HDR
-1
-1
#GR
nm
%R
1.0
0.0
2500,000000
-1,000000
2251
8
21,534800
1,590000
#DATA

250.000000	nan
251.000000	nan
252.000000	nan
253.000000	nan
254.000000	nan
255.000000	nan
256.000000	nan
257.000000	nan
258.000000	nan
259.000000	3.352313
260.000000	3.336084
261.000000	3.298283
262.000000	3.273100
263.000000	3.241523
264.000000	3.224561
265.000000	3.217510
266.000000	3.189975
267.000000	3.159727
268.000000	3.150749
269.000000	3.124739
270.000000	3.099465
271.000000	3.074538
272.000000	3.041915
273.000000	3.016457
274.000000	2.996040
275.000000	2.966545
276.000000	2.945659
277.000000	2.933242
278.000000	2.921079
279.000000	2.916548
280.000000	2.904971
281.000000	2.890389
282.000000	2.883798
283.000000	2.882860
284.000000	2.879623
285.000000	2.880623
286.000000	2.873391
287.000000	2.861454
288.000000	2.847376
289.000000	2.840451
290.000000	2.836272
291.000000	2.835673
292.000000	2.835885
293.000000	2.835737
294.000000	2.830422
295.000000	2.824475
296.000000	2.820465
297.000000	2.819538
298.000000	2.817886
299.000000	2.816515
300.000000	2.811338
301.000000	2.805774
302.000000	2.800455
303.000000	2.794058
304.000000	2.789425
305.000000	2.780907
306.000000	2.781075
307.000000	2.782004
308.000000	2.780587
309.000000	2.777151
310.000000	2.777153
311.000000	2.778409
312.000000	2.779962
313.000000	2.776704
314.000000	2.777250
315.000000	2.779873
316.000000	2.778213
317.000000	2.807287
318.000000	2.842305
319.000000	2.870364
320.000000	2.899777
321.000000	2.933928
322.000000	2.945291
323.000000	2.968972
324.000000	2.989473
325.000000	3.009971
326.000000	3.025338
327.000000	3.015416
328.000000	2.998170
329.000000	2.986610
330.000000	2.967105
331.000000	2.938650
332.000000	2.939553
333.000000	2.929436
334.000000	2.923313
335.000000	2.920776
336.000000	2.916815
337.000000	2.905661
338.000000	2.899521
339.000000	2.892591
340.000000	2.893917
341.000000	2.895474
342.000000	2.885078
343.000000	2.874879
344.000000	2.863860
345.000000	2.852604
346.000000	2.841880
347.000000	2.837436
348.000000	2.831900
349.000000	2.827166
350.000000	2.824493
351.000000	2.820604
352.000000	2.819163
353.000000	2.819153
354.000000	2.815654
355.000000	2.812399
356.000000	2.816893
357.000000	2.815601
358.000000	2.813503
359.000000	2.811621
360.000000	2.799963
361.000000	2.795204
362.000000	2.794172
363.000000	2.794681
364.000000	2.792566
365.000000	2.788896
366.000000	2.783414
367.000000	2.781345
368.000000	2.781917
369.000000	2.773249
370.000000	2.768941
371.000000	2.765741
372.000000	2.757126
373.000000	2.747385
374.000000	2.739332
375.000000	2.732522
376.000000	2.727907
377.000000	2.713038
378.000000	2.694603
379.000000	2.687010
380.000000	2.680422
381.000000	2.671071
382.000000	2.664534
383.000000	2.658330
384.000000	2.654094
385.000000	2.649960
386.000000	2.641574
387.000000	2.641544
388.000000	2.642100
389.000000	2.641661
390.000000	2.641753
391.000000	2.641350
392.000000	2.640911
393.000000	2.641007
394.000000	2.640571
395.000000	2.640215
396.000000	2.640437
397.000000	2.640790
398.000000	2.641233
399.000000	2.641671
400.000000	2.642032
401.000000	2.643133
402.000000	2.643963
403.000000	2.644338
404.000000	2.645396
405.000000	2.646528
406.000000	2.647543
407.000000	2.648323
408.000000	2.648970
409.000000	2.650033
410.000000	2.651928
411.000000	2.654139
412.000000	2.656865
413.000000	2.660090
414.000000	2.663275
415.000000	2.666806
416.000000	2.670589
417.000000	2.674990
418.000000	2.680220
419.000000	2.686060
420.000000	2.692175
421.000000	2.698375
422.000000	2.704698
423.000000	2.711204
424.000000	2.718266
425.000000	2.726009
426.000000	2.734470
427.000000	2.742915
428.000000	2.751741
429.000000	2.760472
430.000000	2.769644
431.000000	2.779358
432.000000	2.789467
433.000000	2.800053
434.000000	2.811086
435.000000	2.822401
436.000000	2.833848
437.000000	2.845739
438.000000	2.857933
439.000000	2.871006
440.000000	2.883939
441.000000	2.897026
442.000000	2.911132
443.000000	2.925546
444.000000	2.939889
445.000000	2.954536
446.000000	2.969451
447.000000	2.984702
448.000000	3.000434
449.000000	3.015929
450.000000	3.031845
451.000000	3.048595
452.000000	3.065403
453.000000	3.082165
454.000000	3.099305
455.000000	3.116771
456.000000	3.134366
457.000000	3.152105
458.000000	3.170037
459.000000	3.188771
460.000000	3.207978
461.000000	3.227073
462.000000	3.245986
463.000000	3.265350
464.000000	3.285147
465.000000	3.305535
466.000000	3.326429
467.000000	3.347504
468.000000	3.368792
469.000000	3.390570
470.000000	3.412497
471.000000	3.434498
472.000000	3.456993
473.000000	3.480180
474.000000	3.503483
475.000000	3.526494
476.000000	3.549770
477.000000	3.573705
478.000000	3.598371
479.000000	3.622941
480.000000	3.647508
481.000000	3.672330
482.000000	3.697097
483.000000	3.722001
484.000000	3.747761
485.000000	3.774817
486.000000	3.802377
487.000000	3.830386
488.000000	3.858607
489.000000	3.887825
490.000000	3.918734
491.000000	3.950665
492.000000	3.983969
493.000000	4.018496
494.000000	4.053486
495.000000	4.088596
496.000000	4.124689
497.000000	4.161659
498.000000	4.199440
499.000000	4.238481
500.000000	4.277447
501.000000	4.317323
502.000000	4.357630
503.000000	4.398330
504.000000	4.439946
505.000000	4.481979
506.000000	4.525334
507.000000	4.569677
508.000000	4.614227
509.000000	4.658965
510.000000	4.704576
511.000000	4.750994
512.000000	4.798051
513.000000	4.845948
514.000000	4.894222
515.000000	4.944007
516.000000	4.994295
517.000000	5.044750
518.000000	5.096760
519.000000	5.149703
520.000000	5.203884
521.000000	5.259029
522.000000	5.315575
523.000000	5.373003
524.000000	5.431818
525.000000	5.491451
526.000000	5.551941
527.000000	5.613919
528.000000	5.677349
529.000000	5.741814
530.000000	5.807024
531.000000	5.872829
532.000000	5.940217
533.000000	6.009126
534.000000	6.078897
535.000000	6.149634
536.000000	6.221573
537.000000	6.293999
538.000000	6.366608
539.000000	6.440192
540.000000	6.514749
541.000000	6.590504
542.000000	6.666535
543.000000	6.742955
544.000000	6.821024
545.000000	6.899555
546.000000	6.979035
547.000000	7.059079
548.000000	7.140236
549.000000	7.221768
550.000000	7.303882
551.000000	7.387270
552.000000	7.471061
553.000000	7.554912
554.000000	7.638896
555.000000	7.723989
556.000000	7.809741
557.000000	7.896762
558.000000	7.984099
559.000000	8.072073
560.000000	8.152158
561.000000	8.231950
562.000000	8.312286
563.000000	8.394057
564.000000	8.477306
565.000000	8.562063
566.000000	8.648193
567.000000	8.736350
568.000000	8.827129
569.000000	8.920423
570.000000	9.024687
571.000000	9.132656
572.000000	9.244225
573.000000	9.359547
574.000000	9.477859
575.000000	9.598791
576.000000	9.722687
577.000000	9.849768
578.000000	9.978528
579.000000	10.109911
580.000000	10.243733
581.000000	10.379369
582.000000	10.517031
583.000000	10.653816
584.000000	10.791653
585.000000	10.928826
586.000000	11.065247
587.000000	11.200294
588.000000	11.332958
589.000000	11.463208
590.000000	11.590294
591.000000	11.712328
592.000000	11.829567
593.000000	11.943437
594.000000	12.050756
595.000000	12.152941
596.000000	12.248849
597.000000	12.337046
598.000000	12.420705
599.000000	12.496812
600.000000	12.566433
601.000000	12.630651
602.000000	12.687585
603.000000	12.739176
604.000000	12.784471
605.000000	12.825243
606.000000	12.859851
607.000000	12.889872
608.000000	12.914412
609.000000	12.935105
610.000000	12.952474
611.000000	12.965221
612.000000	12.975075
613.000000	12.982024
614.000000	12.987852
615.000000	12.991402
616.000000	12.993725
617.000000	12.996544
618.000000	12.999289
619.000000	13.001041
620.000000	13.003983
621.000000	13.009657
622.000000	13.016559
623.000000	13.024905
624.000000	13.035490
625.000000	13.048617
626.000000	13.065411
627.000000	13.086050
628.000000	13.110034
629.000000	13.139235
630.000000	13.172021
631.000000	13.207975
632.000000	13.249336
633.000000	13.295207
634.000000	13.344543
635.000000	13.397689
636.000000	13.454850
637.000000	13.515614
638.000000	13.580095
639.000000	13.648035
640.000000	13.717534
641.000000	13.790439
642.000000	13.865048
643.000000	13.942960
644.000000	14.023393
645.000000	14.105675
646.000000	14.190096
647.000000	14.274917
648.000000	14.361193
649.000000	14.448088
650.000000	14.536851
651.000000	14.626940
652.000000	14.718052
653.000000	14.808259
654.000000	14.899630
655.000000	14.989971
656.000000	15.079334
657.000000	15.169836
658.000000	15.261014
659.000000	15.352516
660.000000	15.443844
661.000000	15.533810
662.000000	15.623694
663.000000	15.714304
664.000000	15.803340
665.000000	15.894783
666.000000	15.985995
667.000000	16.076265
668.000000	16.166255
669.000000	16.255297
670.000000	16.342556
671.000000	16.429176
672.000000	16.516846
673.000000	16.604338
674.000000	16.690850
675.000000	16.777344
676.000000	16.865200
677.000000	16.951500
678.000000	17.036973
679.000000	17.123857
680.000000	17.212174
681.000000	17.299858
682.000000	17.386546
683.000000	17.472880
684.000000	17.559650
685.000000	17.645409
686.000000	17.730649
687.000000	17.816198
688.000000	17.901273
689.000000	17.984841
690.000000	18.070092
691.000000	18.157214
692.000000	18.242058
693.000000	18.325558
694.000000	18.410662
695.000000	18.494834
696.000000	18.578447
697.000000	18.662616
698.000000	18.746656
699.000000	18.830644
700.000000	18.912832
701.000000	18.993149
702.000000	19.073993
703.000000	19.155522
704.000000	19.237253
705.000000	19.319733
706.000000	19.401202
707.000000	19.482284
708.000000	19.563253
709.000000	19.644626
710.000000	19.726720
711.000000	19.808781
712.000000	19.890031
713.000000	19.970350
714.000000	20.051454
715.000000	20.129912
716.000000	20.208122
717.000000	20.288058
718.000000	20.366835
719.000000	20.446989
720.000000	20.528311
721.000000	20.608215
722.000000	20.689625
723.000000	20.772078
724.000000	20.848936
725.000000	20.927175
726.000000	21.008096
727.000000	21.088204
728.000000	21.168350
729.000000	21.245587
730.000000	21.321835
731.000000	21.400400
732.000000	21.476640
733.000000	21.553426
734.000000	21.633471
735.000000	21.713131
736.000000	21.790052
737.000000	21.867109
738.000000	21.946989
739.000000	22.026059
740.000000	22.102740
741.000000	22.180835
742.000000	22.261167
743.000000	22.340949
744.000000	22.420343
745.000000	22.496397
746.000000	22.574228
747.000000	22.654045
748.000000	22.732281
749.000000	22.811016
750.000000	22.891635
751.000000	22.969635
752.000000	23.047079
753.000000	23.122546
754.000000	23.197619
755.000000	23.276868
756.000000	23.357114
757.000000	23.435416
758.000000	23.513481
759.000000	23.590572
760.000000	23.665680
761.000000	23.742279
762.000000	23.819769
763.000000	23.895454
764.000000	23.972855
765.000000	24.051032
766.000000	24.128333
767.000000	24.203053
768.000000	24.275223
769.000000	24.351429
770.000000	24.430791
771.000000	24.506990
772.000000	24.582631
773.000000	24.661770
774.000000	24.737160
775.000000	24.815427
776.000000	24.889788
777.000000	24.967048
778.000000	25.047392
779.000000	25.125059
780.000000	25.202199
781.000000	25.280719
782.000000	25.360732
783.000000	25.437777
784.000000	25.514060
785.000000	25.588754
786.000000	25.670373
787.000000	25.750669
788.000000	25.825317
789.000000	25.901957
790.000000	25.975065
791.000000	26.051970
792.000000	26.131027
793.000000	26.208977
794.000000	26.285874
795.000000	26.360133
796.000000	26.431368
797.000000	26.494900
798.000000	26.562465
799.000000	26.636273
800.000000	26.714142
801.000000	26.783043
802.000000	26.847697
803.000000	26.921611
804.000000	26.998210
805.000000	27.069534
806.000000	27.138633
807.000000	27.213927
808.000000	27.294566
809.000000	27.372047
810.000000	27.443801
811.000000	27.522510
812.000000	27.601826
813.000000	27.671982
814.000000	27.740622
815.000000	27.815970
816.000000	27.891661
817.000000	27.966942
818.000000	28.034876
819.000000	28.095061
820.000000	28.154372
821.000000	28.221744
822.000000	28.284333
823.000000	28.349626
824.000000	28.410138
825.000000	28.463950
826.000000	28.519866
827.000000	28.581083
828.000000	28.649141
829.000000	28.714870
830.000000	28.779975
831.000000	28.836581
832.000000	28.890386
833.000000	28.943836
834.000000	29.002435
835.000000	29.053651
836.000000	29.115612
837.000000	29.167790
838.000000	29.200958
839.000000	29.233823
840.000000	29.260530
841.000000	29.292900
842.000000	29.337157
843.000000	29.382629
844.000000	29.421178
845.000000	29.470602
846.000000	29.491974
847.000000	29.517865
848.000000	29.567143
849.000000	29.606954
850.000000	29.677368
851.000000	29.732873
852.000000	29.765976
853.000000	29.816681
854.000000	29.853928
855.000000	29.913810
856.000000	29.950795
857.000000	30.001362
858.000000	30.207643
859.000000	30.313426
860.000000	30.391111
861.000000	30.486802
862.000000	30.605615
863.000000	30.681940
864.000000	30.722939
865.000000	30.788113
866.000000	30.895501
867.000000	30.992238
868.000000	30.916217
869.000000	30.934585
870.000000	30.955400
871.000000	30.935043
872.000000	30.939945
873.000000	30.967188
874.000000	31.038280
875.000000	31.074873
876.000000	31.079293
877.000000	31.083345
878.000000	31.100587
879.000000	31.107195
880.000000	31.134370
881.000000	31.194783
882.000000	31.208295
883.000000	31.202185
884.000000	31.205208
885.000000	31.206235
886.000000	31.236370
887.000000	31.235853
888.000000	31.232315
889.000000	31.251650
890.000000	31.251810
891.000000	31.236777
892.000000	31.239245
893.000000	31.256338
894.000000	31.272097
895.000000	31.267228
896.000000	31.254250
897.000000	31.281585
898.000000	31.297425
899.000000	31.315592
900.000000	31.303690
901.000000	31.317260
902.000000	31.320128
903.000000	31.319660
904.000000	31.322578
905.000000	31.334388
906.000000	31.361580
907.000000	31.373813
908.000000	31.384320
909.000000	31.385975
910.000000	31.418150
911.000000	31.438453
912.000000	31.460080
913.000000	31.492437
914.000000	31.521172
915.000000	31.548175
916.000000	31.567640
917.000000	31.578652
918.000000	31.604962
919.000000	31.632403
920.000000	31.656315
921.000000	31.680298
922.000000	31.708002
923.000000	31.730225
924.000000	31.750103
925.000000	31.765048
926.000000	31.777815
927.000000	31.791655
928.000000	31.804098
929.000000	31.824135
930.000000	31.843713
931.000000	31.854852
932.000000	31.864050
933.000000	31.874925
934.000000	31.893360
935.000000	31.921350
936.000000	31.945790
937.000000	31.978227
938.000000	31.995595
939.000000	32.012267
940.000000	32.023075
941.000000	32.040363
942.000000	32.061793
943.000000	32.078080
944.000000	32.092867
945.000000	32.097460
946.000000	32.101035
947.000000	32.105440
948.000000	32.119960
949.000000	32.134098
950.000000	32.155028
951.000000	32.170030
952.000000	32.186008
953.000000	32.201750
954.000000	32.214110
955.000000	32.235253
956.000000	32.257940
957.000000	32.272653
958.000000	32.280670
959.000000	32.292918
960.000000	32.306458
961.000000	32.323122
962.000000	32.334837
963.000000	32.346967
964.000000	32.358000
965.000000	32.363672
966.000000	32.367932
967.000000	32.375150
968.000000	32.385708
969.000000	32.393163
970.000000	32.400400
971.000000	32.406635
972.000000	32.412075
973.000000	32.417080
974.000000	32.424060
975.000000	32.431777
976.000000	32.438868
977.000000	32.446188
978.000000	32.453330
979.000000	32.459795
980.000000	32.463807
981.000000	32.469955
982.000000	32.474873
983.000000	32.481005
984.000000	32.487823
985.000000	32.494303
986.000000	32.499772
987.000000	32.504568
988.000000	32.509137
989.000000	32.517152
990.000000	32.528242
991.000000	32.535725
992.000000	32.543880
993.000000	32.551260
994.000000	32.556227
995.000000	32.562885
996.000000	32.572243
997.000000	32.582878
998.000000	32.593720
999.000000	32.603865
1000.000000	32.612362
1001.000000	32.619200
1002.000000	32.627095
1003.000000	32.638675
1004.000000	32.650500
1005.000000	32.658495
1006.000000	32.664825
1007.000000	32.670430
1008.000000	32.675818
1009.000000	32.678435
1010.000000	32.679482
1011.000000	32.686172
1012.000000	32.694288
1013.000000	32.697283
1014.000000	32.700550
1015.000000	32.706965
1016.000000	32.713508
1017.000000	32.722605
1018.000000	32.732997
1019.000000	32.744343
1020.000000	32.755893
1021.000000	32.763787
1022.000000	32.771657
1023.000000	32.782588
1024.000000	32.793760
1025.000000	32.805428
1026.000000	32.819617
1027.000000	32.831925
1028.000000	32.842063
1029.000000	32.852877
1030.000000	32.866552
1031.000000	32.882220
1032.000000	32.896543
1033.000000	32.910585
1034.000000	32.925953
1035.000000	32.941637
1036.000000	32.956660
1037.000000	32.971720
1038.000000	32.987252
1039.000000	33.002493
1040.000000	33.016422
1041.000000	33.030440
1042.000000	33.044845
1043.000000	33.061102
1044.000000	33.075608
1045.000000	33.088485
1046.000000	33.099432
1047.000000	33.111702
1048.000000	33.124797
1049.000000	33.137628
1050.000000	33.152372
1051.000000	33.164490
1052.000000	33.176007
1053.000000	33.188740
1054.000000	33.202072
1055.000000	33.216405
1056.000000	33.231942
1057.000000	33.245915
1058.000000	33.261582
1059.000000	33.277080
1060.000000	33.291048
1061.000000	33.307650
1062.000000	33.325428
1063.000000	33.341802
1064.000000	33.357710
1065.000000	33.371372
1066.000000	33.384540
1067.000000	33.400977
1068.000000	33.416455
1069.000000	33.433307
1070.000000	33.450272
1071.000000	33.467565
1072.000000	33.482925
1073.000000	33.496700
1074.000000	33.510975
1075.000000	33.529583
1076.000000	33.546540
1077.000000	33.563410
1078.000000	33.579008
1079.000000	33.593198
1080.000000	33.608423
1081.000000	33.621592
1082.000000	33.635890
1083.000000	33.651005
1084.000000	33.666275
1085.000000	33.676958
1086.000000	33.689792
1087.000000	33.699897
1088.000000	33.708872
1089.000000	33.720073
1090.000000	33.729195
1091.000000	33.738110
1092.000000	33.748047
1093.000000	33.757360
1094.000000	33.765245
1095.000000	33.774225
1096.000000	33.781977
1097.000000	33.789310
1098.000000	33.797350
1099.000000	33.803843
1100.000000	33.811255
1101.000000	33.819210
1102.000000	33.825968
1103.000000	33.830497
1104.000000	33.833938
1105.000000	33.838058
1106.000000	33.841752
1107.000000	33.845613
1108.000000	33.849065
1109.000000	33.850895
1110.000000	33.850590
1111.000000	33.849728
1112.000000	33.845940
1113.000000	33.843927
1114.000000	33.843940
1115.000000	33.841440
1116.000000	33.840135
1117.000000	33.838160
1118.000000	33.835693
1119.000000	33.832635
1120.000000	33.828155
1121.000000	33.824340
1122.000000	33.820847
1123.000000	33.816980
1124.000000	33.809380
1125.000000	33.801280
1126.000000	33.787812
1127.000000	33.769953
1128.000000	33.752080
1129.000000	33.732698
1130.000000	33.710278
1131.000000	33.680595
1132.000000	33.647222
1133.000000	33.610587
1134.000000	33.574287
1135.000000	33.536215
1136.000000	33.496210
1137.000000	33.455900
1138.000000	33.410660
1139.000000	33.363613
1140.000000	33.318970
1141.000000	33.275245
1142.000000	33.232690
1143.000000	33.190220
1144.000000	33.145333
1145.000000	33.104647
1146.000000	33.064845
1147.000000	33.027935
1148.000000	32.991723
1149.000000	32.954220
1150.000000	32.916662
1151.000000	32.882030
1152.000000	32.847133
1153.000000	32.809862
1154.000000	32.771835
1155.000000	32.728450
1156.000000	32.683402
1157.000000	32.633850
1158.000000	32.580970
1159.000000	32.526097
1160.000000	32.465605
1161.000000	32.403575
1162.000000	32.337743
1163.000000	32.268993
1164.000000	32.199410
1165.000000	32.127505
1166.000000	32.055272
1167.000000	31.980645
1168.000000	31.908540
1169.000000	31.839232
1170.000000	31.772668
1171.000000	31.703817
1172.000000	31.640100
1173.000000	31.580975
1174.000000	31.525390
1175.000000	31.471745
1176.000000	31.421105
1177.000000	31.375848
1178.000000	31.334720
1179.000000	31.293682
1180.000000	31.256562
1181.000000	31.221400
1182.000000	31.187860
1183.000000	31.156485
1184.000000	31.127600
1185.000000	31.103030
1186.000000	31.082025
1187.000000	31.064692
1188.000000	31.049645
1189.000000	31.040595
1190.000000	31.036915
1191.000000	31.039720
1192.000000	31.046303
1193.000000	31.057678
1194.000000	31.073338
1195.000000	31.090742
1196.000000	31.111577
1197.000000	31.134650
1198.000000	31.158455
1199.000000	31.183605
1200.000000	31.208520
1201.000000	31.233478
1202.000000	31.259675
1203.000000	31.284083
1204.000000	31.306962
1205.000000	31.329965
1206.000000	31.351927
1207.000000	31.373705
1208.000000	31.395640
1209.000000	31.417917
1210.000000	31.439222
1211.000000	31.460595
1212.000000	31.479962
1213.000000	31.499478
1214.000000	31.519340
1215.000000	31.540368
1216.000000	31.562227
1217.000000	31.583600
1218.000000	31.604982
1219.000000	31.625637
1220.000000	31.646195
1221.000000	31.667185
1222.000000	31.688295
1223.000000	31.708933
1224.000000	31.729688
1225.000000	31.748650
1226.000000	31.767840
1227.000000	31.786858
1228.000000	31.805805
1229.000000	31.824508
1230.000000	31.844185
1231.000000	31.862115
1232.000000	31.880192
1233.000000	31.898855
1234.000000	31.915908
1235.000000	31.934235
1236.000000	31.951482
1237.000000	31.969110
1238.000000	31.985760
1239.000000	32.001650
1240.000000	32.018372
1241.000000	32.036793
1242.000000	32.054850
1243.000000	32.074487
1244.000000	32.095247
1245.000000	32.116168
1246.000000	32.137450
1247.000000	32.158400
1248.000000	32.181047
1249.000000	32.205853
1250.000000	32.229033
1251.000000	32.250852
1252.000000	32.272630
1253.000000	32.292395
1254.000000	32.310582
1255.000000	32.328443
1256.000000	32.345067
1257.000000	32.360440
1258.000000	32.374003
1259.000000	32.384600
1260.000000	32.392375
1261.000000	32.399035
1262.000000	32.406050
1263.000000	32.412280
1264.000000	32.418818
1265.000000	32.423447
1266.000000	32.426243
1267.000000	32.428678
1268.000000	32.429885
1269.000000	32.430700
1270.000000	32.432090
1271.000000	32.432258
1272.000000	32.431467
1273.000000	32.430777
1274.000000	32.429480
1275.000000	32.429358
1276.000000	32.430455
1277.000000	32.431670
1278.000000	32.434277
1279.000000	32.438055
1280.000000	32.442992
1281.000000	32.448630
1282.000000	32.454490
1283.000000	32.462807
1284.000000	32.472730
1285.000000	32.482740
1286.000000	32.492868
1287.000000	32.503998
1288.000000	32.515265
1289.000000	32.526072
1290.000000	32.538468
1291.000000	32.553230
1292.000000	32.567752
1293.000000	32.580230
1294.000000	32.591517
1295.000000	32.602445
1296.000000	32.614095
1297.000000	32.624705
1298.000000	32.634680
1299.000000	32.643968
1300.000000	32.649975
1301.000000	32.653737
1302.000000	32.656860
1303.000000	32.658757
1304.000000	32.659585
1305.000000	32.659345
1306.000000	32.656745
1307.000000	32.653300
1308.000000	32.648190
1309.000000	32.642230
1310.000000	32.636525
1311.000000	32.629440
1312.000000	32.619948
1313.000000	32.608608
1314.000000	32.596710
1315.000000	32.583605
1316.000000	32.568598
1317.000000	32.552575
1318.000000	32.536050
1319.000000	32.518055
1320.000000	32.497410
1321.000000	32.474383
1322.000000	32.451588
1323.000000	32.428337
1324.000000	32.402805
1325.000000	32.376953
1326.000000	32.350125
1327.000000	32.321730
1328.000000	32.290840
1329.000000	32.258178
1330.000000	32.225350
1331.000000	32.190973
1332.000000	32.153100
1333.000000	32.112450
1334.000000	32.070030
1335.000000	32.024527
1336.000000	31.977165
1337.000000	31.926035
1338.000000	31.873170
1339.000000	31.817158
1340.000000	31.757603
1341.000000	31.695218
1342.000000	31.631300
1343.000000	31.565450
1344.000000	31.495935
1345.000000	31.421938
1346.000000	31.345612
1347.000000	31.269050
1348.000000	31.188985
1349.000000	31.104428
1350.000000	31.015677
1351.000000	30.925802
1352.000000	30.833592
1353.000000	30.743415
1354.000000	30.659560
1355.000000	30.579375
1356.000000	30.500927
1357.000000	30.422738
1358.000000	30.345118
1359.000000	30.271065
1360.000000	30.207828
1361.000000	30.157128
1362.000000	30.110397
1363.000000	30.059365
1364.000000	30.007045
1365.000000	29.954177
1366.000000	29.897515
1367.000000	29.842217
1368.000000	29.788515
1369.000000	29.731245
1370.000000	29.665670
1371.000000	29.588793
1372.000000	29.503445
1373.000000	29.410463
1374.000000	29.308110
1375.000000	29.197055
1376.000000	29.076837
1377.000000	28.948138
1378.000000	28.804922
1379.000000	28.657207
1380.000000	28.507062
1381.000000	28.361363
1382.000000	28.223248
1383.000000	28.095200
1384.000000	27.968430
1385.000000	27.844745
1386.000000	27.728803
1387.000000	27.622332
1388.000000	27.531883
1389.000000	27.444437
1390.000000	27.356925
1391.000000	27.267812
1392.000000	27.177677
1393.000000	27.085187
1394.000000	26.996635
1395.000000	26.922023
1396.000000	26.848993
1397.000000	26.762977
1398.000000	26.665402
1399.000000	26.575900
1400.000000	26.496330
1401.000000	26.405563
1402.000000	26.300395
1403.000000	26.189795
1404.000000	26.074833
1405.000000	25.943533
1406.000000	25.805493
1407.000000	25.671508
1408.000000	25.539770
1409.000000	25.399058
1410.000000	25.242725
1411.000000	25.084028
1412.000000	24.929907
1413.000000	24.780055
1414.000000	24.631903
1415.000000	24.481907
1416.000000	24.333157
1417.000000	24.185128
1418.000000	24.042522
1419.000000	23.902885
1420.000000	23.767075
1421.000000	23.638485
1422.000000	23.517208
1423.000000	23.396742
1424.000000	23.277562
1425.000000	23.163132
1426.000000	23.055163
1427.000000	22.952320
1428.000000	22.849708
1429.000000	22.747973
1430.000000	22.650478
1431.000000	22.560658
1432.000000	22.472258
1433.000000	22.386325
1434.000000	22.302862
1435.000000	22.223735
1436.000000	22.147345
1437.000000	22.075107
1438.000000	22.006448
1439.000000	21.943193
1440.000000	21.882880
1441.000000	21.820660
1442.000000	21.760755
1443.000000	21.700855
1444.000000	21.644755
1445.000000	21.594105
1446.000000	21.544630
1447.000000	21.490750
1448.000000	21.435640
1449.000000	21.381398
1450.000000	21.329215
1451.000000	21.279547
1452.000000	21.227535
1453.000000	21.177860
1454.000000	21.126952
1455.000000	21.072780
1456.000000	21.017685
1457.000000	20.964773
1458.000000	20.914310
1459.000000	20.861567
1460.000000	20.807062
1461.000000	20.750380
1462.000000	20.696760
1463.000000	20.642312
1464.000000	20.586068
1465.000000	20.529962
1466.000000	20.475933
1467.000000	20.421125
1468.000000	20.365937
1469.000000	20.312560
1470.000000	20.260117
1471.000000	20.208942
1472.000000	20.158633
1473.000000	20.109810
1474.000000	20.061730
1475.000000	20.013777
1476.000000	19.966797
1477.000000	19.922987
1478.000000	19.881118
1479.000000	19.840555
1480.000000	19.800890
1481.000000	19.765167
1482.000000	19.731310
1483.000000	19.697662
1484.000000	19.667585
1485.000000	19.640005
1486.000000	19.614058
1487.000000	19.589705
1488.000000	19.566950
1489.000000	19.546345
1490.000000	19.528388
1491.000000	19.508633
1492.000000	19.491855
1493.000000	19.479630
1494.000000	19.470592
1495.000000	19.464845
1496.000000	19.460438
1497.000000	19.458900
1498.000000	19.459765
1499.000000	19.464555
1500.000000	19.472970
1501.000000	19.486997
1502.000000	19.504495
1503.000000	19.524603
1504.000000	19.547643
1505.000000	19.573700
1506.000000	19.603625
1507.000000	19.637220
1508.000000	19.675175
1509.000000	19.714643
1510.000000	19.756125
1511.000000	19.798120
1512.000000	19.841627
1513.000000	19.886678
1514.000000	19.931938
1515.000000	19.977773
1516.000000	20.023212
1517.000000	20.067428
1518.000000	20.111390
1519.000000	20.154363
1520.000000	20.197382
1521.000000	20.240362
1522.000000	20.281535
1523.000000	20.323072
1524.000000	20.362793
1525.000000	20.402400
1526.000000	20.443033
1527.000000	20.483403
1528.000000	20.522705
1529.000000	20.561010
1530.000000	20.597442
1531.000000	20.633812
1532.000000	20.670143
1533.000000	20.703827
1534.000000	20.737410
1535.000000	20.769503
1536.000000	20.799397
1537.000000	20.828145
1538.000000	20.856500
1539.000000	20.886345
1540.000000	20.915448
1541.000000	20.942867
1542.000000	20.969900
1543.000000	20.997760
1544.000000	21.026420
1545.000000	21.055355
1546.000000	21.086185
1547.000000	21.119320
1548.000000	21.152110
1549.000000	21.185083
1550.000000	21.221342
1551.000000	21.259698
1552.000000	21.298420
1553.000000	21.337618
1554.000000	21.376112
1555.000000	21.413322
1556.000000	21.447788
1557.000000	21.479320
1558.000000	21.510498
1559.000000	21.538490
1560.000000	21.560530
1561.000000	21.579352
1562.000000	21.594210
1563.000000	21.604247
1564.000000	21.610847
1565.000000	21.615390
1566.000000	21.618212
1567.000000	21.618210
1568.000000	21.613428
1569.000000	21.607737
1570.000000	21.601807
1571.000000	21.592268
1572.000000	21.584118
1573.000000	21.576215
1574.000000	21.569070
1575.000000	21.563472
1576.000000	21.560453
1577.000000	21.559860
1578.000000	21.560900
1579.000000	21.562820
1580.000000	21.567260
1581.000000	21.575918
1582.000000	21.587587
1583.000000	21.602895
1584.000000	21.619847
1585.000000	21.639437
1586.000000	21.659743
1587.000000	21.680972
1588.000000	21.704600
1589.000000	21.731355
1590.000000	21.759352
1591.000000	21.789550
1592.000000	21.819905
1593.000000	21.850335
1594.000000	21.882920
1595.000000	21.915523
1596.000000	21.950063
1597.000000	21.986675
1598.000000	22.022730
1599.000000	22.059125
1600.000000	22.098667
1601.000000	22.139187
1602.000000	22.180795
1603.000000	22.224350
1604.000000	22.269377
1605.000000	22.314905
1606.000000	22.360323
1607.000000	22.405560
1608.000000	22.453015
1609.000000	22.498728
1610.000000	22.542023
1611.000000	22.584155
1612.000000	22.626345
1613.000000	22.666615
1614.000000	22.704135
1615.000000	22.739380
1616.000000	22.772737
1617.000000	22.804245
1618.000000	22.834708
1619.000000	22.866335
1620.000000	22.896558
1621.000000	22.926475
1622.000000	22.950410
1623.000000	22.974162
1624.000000	22.998220
1625.000000	23.024075
1626.000000	23.048725
1627.000000	23.076040
1628.000000	23.101523
1629.000000	23.125945
1630.000000	23.149738
1631.000000	23.173903
1632.000000	23.201315
1633.000000	23.229308
1634.000000	23.253753
1635.000000	23.274757
1636.000000	23.295903
1637.000000	23.312155
1638.000000	23.330790
1639.000000	23.347560
1640.000000	23.363230
1641.000000	23.376798
1642.000000	23.386778
1643.000000	23.395480
1644.000000	23.404685
1645.000000	23.414538
1646.000000	23.421762
1647.000000	23.429000
1648.000000	23.430733
1649.000000	23.433298
1650.000000	23.433377
1651.000000	23.429250
1652.000000	23.425560
1653.000000	23.416760
1654.000000	23.405127
1655.000000	23.388307
1656.000000	23.368092
1657.000000	23.343122
1658.000000	23.312523
1659.000000	23.274773
1660.000000	23.231227
1661.000000	23.183835
1662.000000	23.130892
1663.000000	23.072247
1664.000000	23.006712
1665.000000	22.933763
1666.000000	22.855187
1667.000000	22.772660
1668.000000	22.685760
1669.000000	22.591585
1670.000000	22.493985
1671.000000	22.390725
1672.000000	22.282643
1673.000000	22.171130
1674.000000	22.058242
1675.000000	21.946818
1676.000000	21.831877
1677.000000	21.713455
1678.000000	21.595060
1679.000000	21.472288
1680.000000	21.350025
1681.000000	21.229442
1682.000000	21.106012
1683.000000	20.984145
1684.000000	20.859417
1685.000000	20.738380
1686.000000	20.625908
1687.000000	20.521223
1688.000000	20.427132
1689.000000	20.350590
1690.000000	20.287135
1691.000000	20.236408
1692.000000	20.203015
1693.000000	20.181805
1694.000000	20.179770
1695.000000	20.184740
1696.000000	20.195173
1697.000000	20.210770
1698.000000	20.227700
1699.000000	20.245315
1700.000000	20.256425
1701.000000	20.264897
1702.000000	20.266995
1703.000000	20.262780
1704.000000	20.249945
1705.000000	20.229605
1706.000000	20.202040
1707.000000	20.165900
1708.000000	20.122120
1709.000000	20.067625
1710.000000	20.004565
1711.000000	19.931038
1712.000000	19.849870
1713.000000	19.762990
1714.000000	19.668613
1715.000000	19.567800
1716.000000	19.458460
1717.000000	19.344545
1718.000000	19.229678
1719.000000	19.113193
1720.000000	19.000355
1721.000000	18.893915
1722.000000	18.790803
1723.000000	18.695213
1724.000000	18.611417
1725.000000	18.541320
1726.000000	18.488543
1727.000000	18.449740
1728.000000	18.424348
1729.000000	18.415255
1730.000000	18.418343
1731.000000	18.430170
1732.000000	18.454542
1733.000000	18.492372
1734.000000	18.537867
1735.000000	18.589415
1736.000000	18.646768
1737.000000	18.707657
1738.000000	18.770902
1739.000000	18.836895
1740.000000	18.906793
1741.000000	18.980847
1742.000000	19.055032
1743.000000	19.126723
1744.000000	19.196350
1745.000000	19.263693
1746.000000	19.327773
1747.000000	19.389630
1748.000000	19.448298
1749.000000	19.500710
1750.000000	19.547845
1751.000000	19.588363
1752.000000	19.624805
1753.000000	19.654432
1754.000000	19.678468
1755.000000	19.698100
1756.000000	19.711025
1757.000000	19.721218
1758.000000	19.729792
1759.000000	19.736990
1760.000000	19.740668
1761.000000	19.743407
1762.000000	19.747528
1763.000000	19.752800
1764.000000	19.761018
1765.000000	19.772172
1766.000000	19.787655
1767.000000	19.806360
1768.000000	19.826890
1769.000000	19.852920
1770.000000	19.885838
1771.000000	19.921682
1772.000000	19.959920
1773.000000	19.999892
1774.000000	20.039567
1775.000000	20.079343
1776.000000	20.120622
1777.000000	20.161865
1778.000000	20.202600
1779.000000	20.239805
1780.000000	20.276273
1781.000000	20.310267
1782.000000	20.338150
1783.000000	20.365100
1784.000000	20.389720
1785.000000	20.412365
1786.000000	20.431165
1787.000000	20.447482
1788.000000	20.461202
1789.000000	20.471275
1790.000000	20.477647
1791.000000	20.484850
1792.000000	20.493985
1793.000000	20.500895
1794.000000	20.508565
1795.000000	20.517468
1796.000000	20.527560
1797.000000	20.536255
1798.000000	20.543618
1799.000000	20.553895
1800.000000	20.566500
1801.000000	20.578885
1802.000000	20.589790
1803.000000	20.599695
1804.000000	20.610360
1805.000000	20.621748
1806.000000	20.633437
1807.000000	20.647490
1808.000000	20.661360
1809.000000	20.673965
1810.000000	20.685725
1811.000000	20.698497
1812.000000	20.713465
1813.000000	20.729455
1814.000000	20.742835
1815.000000	20.753875
1816.000000	20.762930
1817.000000	20.764257
1818.000000	20.763128
1819.000000	20.769202
1820.000000	20.783733
1821.000000	20.800615
1822.000000	20.812737
1823.000000	20.814925
1824.000000	20.813040
1825.000000	20.809913
1826.000000	20.810835
1827.000000	20.819675
1828.000000	20.833918
1829.000000	20.845368
1830.000000	20.852332
1831.000000	20.853990
1832.000000	20.854593
1833.000000	20.862230
1834.000000	20.876713
1835.000000	20.897523
1836.000000	20.917740
1837.000000	20.939477
1838.000000	20.959657
1839.000000	20.979433
1840.000000	21.002595
1841.000000	21.037435
1842.000000	21.079773
1843.000000	21.116943
1844.000000	21.141275
1845.000000	21.152992
1846.000000	21.168067
1847.000000	21.194830
1848.000000	21.234098
1849.000000	21.267100
1850.000000	21.278472
1851.000000	21.272285
1852.000000	21.261858
1853.000000	21.259915
1854.000000	21.269470
1855.000000	21.283487
1856.000000	21.285215
1857.000000	21.267117
1858.000000	21.238985
1859.000000	21.218197
1860.000000	21.207645
1861.000000	21.201632
1862.000000	21.189217
1863.000000	21.163173
1864.000000	21.126432
1865.000000	21.083200
1866.000000	21.036220
1867.000000	20.981398
1868.000000	20.919160
1869.000000	20.845630
1870.000000	20.776508
1871.000000	20.701857
1872.000000	20.628410
1873.000000	20.557893
1874.000000	20.482032
1875.000000	20.406425
1876.000000	20.324015
1877.000000	20.238717
1878.000000	20.139910
1879.000000	20.028128
1880.000000	19.891762
1881.000000	19.739818
1882.000000	19.573020
1883.000000	19.398947
1884.000000	19.217450
1885.000000	19.023283
1886.000000	18.815820
1887.000000	18.594147
1888.000000	18.357540
1889.000000	18.114443
1890.000000	17.870125
1891.000000	17.621932
1892.000000	17.369375
1893.000000	17.103522
1894.000000	16.828125
1895.000000	16.545278
1896.000000	16.260520
1897.000000	15.976255
1898.000000	15.696723
1899.000000	15.420732
1900.000000	15.145855
1901.000000	14.865220
1902.000000	14.587960
1903.000000	14.313858
1904.000000	14.050135
1905.000000	13.798988
1906.000000	13.556730
1907.000000	13.324613
1908.000000	13.096422
1909.000000	12.873360
1910.000000	12.657673
1911.000000	12.457023
1912.000000	12.269495
1913.000000	12.098030
1914.000000	11.940085
1915.000000	11.784747
1916.000000	11.632407
1917.000000	11.491185
1918.000000	11.363465
1919.000000	11.249398
1920.000000	11.138500
1921.000000	11.038753
1922.000000	10.943080
1923.000000	10.851187
1924.000000	10.760347
1925.000000	10.675630
1926.000000	10.608395
1927.000000	10.546113
1928.000000	10.488522
1929.000000	10.435787
1930.000000	10.392238
1931.000000	10.350868
1932.000000	10.313545
1933.000000	10.278378
1934.000000	10.254705
1935.000000	10.235518
1936.000000	10.220272
1937.000000	10.208583
1938.000000	10.199212
1939.000000	10.195750
1940.000000	10.197168
1941.000000	10.206417
1942.000000	10.212850
1943.000000	10.229105
1944.000000	10.244612
1945.000000	10.260490
1946.000000	10.284390
1947.000000	10.309972
1948.000000	10.339758
1949.000000	10.368213
1950.000000	10.396422
1951.000000	10.426323
1952.000000	10.466037
1953.000000	10.510948
1954.000000	10.552430
1955.000000	10.598200
1956.000000	10.646845
1957.000000	10.699403
1958.000000	10.757345
1959.000000	10.806403
1960.000000	10.858325
1961.000000	10.913990
1962.000000	10.965100
1963.000000	11.010222
1964.000000	11.058675
1965.000000	11.114680
1966.000000	11.159958
1967.000000	11.203115
1968.000000	11.243158
1969.000000	11.295880
1970.000000	11.347095
1971.000000	11.391215
1972.000000	11.437077
1973.000000	11.488538
1974.000000	11.541255
1975.000000	11.586272
1976.000000	11.636895
1977.000000	11.685450
1978.000000	11.737235
1979.000000	11.785250
1980.000000	11.837550
1981.000000	11.889102
1982.000000	11.940235
1983.000000	11.990382
1984.000000	12.040622
1985.000000	12.090880
1986.000000	12.137485
1987.000000	12.188692
1988.000000	12.236135
1989.000000	12.283162
1990.000000	12.327262
1991.000000	12.379570
1992.000000	12.426555
1993.000000	12.468437
1994.000000	12.511880
1995.000000	12.555318
1996.000000	12.596303
1997.000000	12.633547
1998.000000	12.673147
1999.000000	12.708088
2000.000000	12.740620
2001.000000	12.766277
2002.000000	12.795580
2003.000000	12.820793
2004.000000	12.846390
2005.000000	12.863500
2006.000000	12.877950
2007.000000	12.893100
2008.000000	12.903213
2009.000000	12.912012
2010.000000	12.913905
2011.000000	12.912023
2012.000000	12.911413
2013.000000	12.907667
2014.000000	12.889558
2015.000000	12.873615
2016.000000	12.854532
2017.000000	12.829535
2018.000000	12.802988
2019.000000	12.779343
2020.000000	12.749725
2021.000000	12.715595
2022.000000	12.677695
2023.000000	12.632725
2024.000000	12.587217
2025.000000	12.542400
2026.000000	12.493340
2027.000000	12.440633
2028.000000	12.385927
2029.000000	12.318832
2030.000000	12.256832
2031.000000	12.192687
2032.000000	12.121045
2033.000000	12.053628
2034.000000	11.983913
2035.000000	11.907755
2036.000000	11.835525
2037.000000	11.760045
2038.000000	11.681515
2039.000000	11.603742
2040.000000	11.526330
2041.000000	11.442715
2042.000000	11.352467
2043.000000	11.258937
2044.000000	11.168485
2045.000000	11.083727
2046.000000	10.994295
2047.000000	10.901917
2048.000000	10.818380
2049.000000	10.738760
2050.000000	10.651530
2051.000000	10.574955
2052.000000	10.519423
2053.000000	10.476992
2054.000000	10.441092
2055.000000	10.410967
2056.000000	10.393982
2057.000000	10.395338
2058.000000	10.395127
2059.000000	10.404930
2060.000000	10.440232
2061.000000	10.485720
2062.000000	10.530225
2063.000000	10.572620
2064.000000	10.614142
2065.000000	10.666060
2066.000000	10.729250
2067.000000	10.792798
2068.000000	10.863195
2069.000000	10.935128
2070.000000	10.995675
2071.000000	11.054618
2072.000000	11.118130
2073.000000	11.192670
2074.000000	11.275308
2075.000000	11.348470
2076.000000	11.412435
2077.000000	11.473637
2078.000000	11.533405
2079.000000	11.590732
2080.000000	11.651832
2081.000000	11.706722
2082.000000	11.744903
2083.000000	11.776397
2084.000000	11.806332
2085.000000	11.833312
2086.000000	11.852650
2087.000000	11.865113
2088.000000	11.878485
2089.000000	11.887098
2090.000000	11.879888
2091.000000	11.874028
2092.000000	11.885322
2093.000000	11.886318
2094.000000	11.879822
2095.000000	11.885053
2096.000000	11.889045
2097.000000	11.898802
2098.000000	11.895347
2099.000000	11.889855
2100.000000	11.896877
2101.000000	11.901892
2102.000000	11.900543
2103.000000	11.909598
2104.000000	11.909925
2105.000000	11.886965
2106.000000	11.878847
2107.000000	11.873783
2108.000000	11.876762
2109.000000	11.871463
2110.000000	11.873630
2111.000000	11.880442
2112.000000	11.877377
2113.000000	11.868562
2114.000000	11.876642
2115.000000	11.899197
2116.000000	11.908765
2117.000000	11.917888
2118.000000	11.921268
2119.000000	11.947675
2120.000000	11.956685
2121.000000	11.962222
2122.000000	11.957638
2123.000000	11.955583
2124.000000	11.942357
2125.000000	11.926245
2126.000000	11.908753
2127.000000	11.878832
2128.000000	11.853578
2129.000000	11.819175
2130.000000	11.785140
2131.000000	11.754077
2132.000000	11.753725
2133.000000	11.735307
2134.000000	11.710855
2135.000000	11.684292
2136.000000	11.635012
2137.000000	11.599518
2138.000000	11.559172
2139.000000	11.503383
2140.000000	11.454430
2141.000000	11.389783
2142.000000	11.303273
2143.000000	11.228463
2144.000000	11.155133
2145.000000	11.102690
2146.000000	11.045033
2147.000000	10.978985
2148.000000	10.916898
2149.000000	10.858332
2150.000000	10.797285
2151.000000	10.745527
2152.000000	10.704170
2153.000000	10.651653
2154.000000	10.600822
2155.000000	10.538885
2156.000000	10.505447
2157.000000	10.473450
2158.000000	10.414198
2159.000000	10.362025
2160.000000	10.314868
2161.000000	10.284417
2162.000000	10.241457
2163.000000	10.204228
2164.000000	10.168273
2165.000000	10.123425
2166.000000	10.080568
2167.000000	10.030425
2168.000000	10.012540
2169.000000	9.989467
2170.000000	9.947198
2171.000000	9.916063
2172.000000	9.875455
2173.000000	9.836052
2174.000000	9.829393
2175.000000	9.819160
2176.000000	9.811030
2177.000000	9.802568
2178.000000	9.795077
2179.000000	9.770112
2180.000000	9.793223
2181.000000	9.781412
2182.000000	9.769865
2183.000000	9.782745
2184.000000	9.760850
2185.000000	9.758813
2186.000000	9.720570
2187.000000	9.690860
2188.000000	9.657240
2189.000000	9.639352
2190.000000	9.612253
2191.000000	9.576847
2192.000000	9.563197
2193.000000	9.521800
2194.000000	9.507058
2195.000000	9.475015
2196.000000	9.459520
2197.000000	9.460268
2198.000000	9.438880
2199.000000	9.437345
2200.000000	9.402900
2201.000000	9.403873
2202.000000	9.380875
2203.000000	9.362187
2204.000000	9.344357
2205.000000	9.326605
2206.000000	9.333222
2207.000000	9.317227
2208.000000	9.317800
2209.000000	9.307323
2210.000000	9.304860
2211.000000	9.308525
2212.000000	9.320415
2213.000000	9.348950
2214.000000	9.377223
2215.000000	9.405458
2216.000000	9.429568
2217.000000	9.461235
2218.000000	9.512963
2219.000000	9.558693
2220.000000	9.601898
2221.000000	9.648300
2222.000000	9.709957
2223.000000	9.763822
2224.000000	9.800997
2225.000000	9.848295
2226.000000	9.901843
2227.000000	9.945758
2228.000000	9.975347
2229.000000	10.027123
2230.000000	10.090242
2231.000000	10.124793
2232.000000	10.140995
2233.000000	10.159122
2234.000000	10.189732
2235.000000	10.186685
2236.000000	10.177370
2237.000000	10.179525
2238.000000	10.190293
2239.000000	10.177875
2240.000000	10.148217
2241.000000	10.136535
2242.000000	10.123882
2243.000000	10.109652
2244.000000	10.058360
2245.000000	10.028665
2246.000000	10.019673
2247.000000	9.995248
2248.000000	9.943855
2249.000000	9.899138
2250.000000	9.851020
2251.000000	9.787142
2252.000000	9.729520
2253.000000	9.636147
2254.000000	9.572250
2255.000000	9.521202
2256.000000	9.442195
2257.000000	9.357577
2258.000000	9.283838
2259.000000	9.199887
2260.000000	9.137915
2261.000000	9.076685
2262.000000	9.024587
2263.000000	9.005202
2264.000000	8.979920
2265.000000	8.934017
2266.000000	8.897177
2267.000000	8.883188
2268.000000	8.867878
2269.000000	8.859220
2270.000000	8.851083
2271.000000	8.844987
2272.000000	8.807277
2273.000000	8.785490
2274.000000	8.770580
2275.000000	8.783500
2276.000000	8.790198
2277.000000	8.803935
2278.000000	8.802840
2279.000000	8.809955
2280.000000	8.817010
2281.000000	8.833865
2282.000000	8.874690
2283.000000	8.893700
2284.000000	8.916520
2285.000000	8.907958
2286.000000	8.906975
2287.000000	8.890710
2288.000000	8.892235
2289.000000	8.895610
2290.000000	8.894605
2291.000000	8.895095
2292.000000	8.889307
2293.000000	8.873867
2294.000000	8.852110
2295.000000	8.857440
2296.000000	8.860758
2297.000000	8.865903
2298.000000	8.870538
2299.000000	8.867637
2300.000000	8.867630
2301.000000	8.848947
2302.000000	8.839832
2303.000000	8.847368
2304.000000	8.852845
2305.000000	8.869047
2306.000000	8.884835
2307.000000	8.909405
2308.000000	8.943397
2309.000000	8.982667
2310.000000	9.010132
2311.000000	9.033098
2312.000000	9.060850
2313.000000	9.109055
2314.000000	9.165023
2315.000000	9.189452
2316.000000	9.198455
2317.000000	9.210362
2318.000000	9.233998
2319.000000	9.266410
2320.000000	9.302968
2321.000000	9.348405
2322.000000	9.404190
2323.000000	9.441253
2324.000000	9.458902
2325.000000	9.473790
2326.000000	9.495570
2327.000000	9.523568
2328.000000	9.531170
2329.000000	9.523683
2330.000000	9.533385
2331.000000	9.551478
2332.000000	9.549105
2333.000000	9.537145
2334.000000	9.529920
2335.000000	9.523800
2336.000000	9.539915
2337.000000	9.550050
2338.000000	9.566592
2339.000000	9.592705
2340.000000	9.616615
2341.000000	9.622325
2342.000000	9.633900
2343.000000	9.667870
2344.000000	9.711282
2345.000000	9.770458
2346.000000	9.824790
2347.000000	9.877075
2348.000000	9.900685
2349.000000	9.920882
2350.000000	9.932402
2351.000000	9.938062
2352.000000	9.956360
2353.000000	9.980510
2354.000000	10.013585
2355.000000	10.035945
2356.000000	10.052263
2357.000000	10.054102
2358.000000	10.084745
2359.000000	10.115763
2360.000000	10.148363
2361.000000	10.190618
2362.000000	10.214625
2363.000000	10.231965
2364.000000	10.226882
2365.000000	10.247397
2366.000000	10.252675
2367.000000	10.277567
2368.000000	10.298057
2369.000000	10.306140
2370.000000	10.308620
2371.000000	10.313982
2372.000000	10.336175
2373.000000	10.354050
2374.000000	10.398910
2375.000000	10.445747
2376.000000	10.505355
2377.000000	10.548370
2378.000000	10.593335
2379.000000	10.646175
2380.000000	10.719810
2381.000000	10.739690
2382.000000	10.729140
2383.000000	10.736822
2384.000000	10.750058
2385.000000	10.737418
2386.000000	10.703100
2387.000000	10.676067
2388.000000	10.675665
2389.000000	10.692760
2390.000000	10.668680
2391.000000	10.712215
2392.000000	10.794735
2393.000000	10.818793
2394.000000	10.801475
2395.000000	10.816905
2396.000000	10.849860
2397.000000	10.892777
2398.000000	10.900992
2399.000000	10.878470
2400.000000	10.856312
2401.000000	10.830752
2402.000000	10.799655
2403.000000	10.791777
2404.000000	10.801897
2405.000000	10.798542
2406.000000	10.799375
2407.000000	10.804390
2408.000000	10.823635
2409.000000	10.839632
2410.000000	10.886485
2411.000000	10.920510
2412.000000	10.980920
2413.000000	11.013497
2414.000000	11.030247
2415.000000	11.050855
2416.000000	11.091060
2417.000000	11.073742
2418.000000	11.047017
2419.000000	11.025780
2420.000000	11.002823
2421.000000	10.989202
2422.000000	10.935510
2423.000000	10.943392
2424.000000	10.909767
2425.000000	10.846935
2426.000000	10.786035
2427.000000	10.802575
2428.000000	10.805418
2429.000000	10.825422
2430.000000	10.818088
2431.000000	10.827288
2432.000000	10.872215
2433.000000	10.843703
2434.000000	10.894678
2435.000000	10.906797
2436.000000	10.920983
2437.000000	10.914370
2438.000000	10.889748
2439.000000	10.892950
2440.000000	10.952445
2441.000000	10.960410
2442.000000	10.937085
2443.000000	10.919982
2444.000000	10.902750
2445.000000	10.904970
2446.000000	10.897495
2447.000000	10.903595
2448.000000	11.012090
2449.000000	11.090425
2450.000000	11.148080
2451.000000	11.158688
2452.000000	11.158003
2453.000000	11.177080
2454.000000	11.197375
2455.000000	11.252585
2456.000000	11.343875
2457.000000	11.322252
2458.000000	11.267728
2459.000000	11.268835
2460.000000	11.223448
2461.000000	11.255513
2462.000000	11.295785
2463.000000	11.383420
2464.000000	11.504285
2465.000000	11.608125
2466.000000	11.667120
2467.000000	11.878370
2468.000000	11.920970
2469.000000	12.033980
2470.000000	12.159915
2471.000000	12.387845
2472.000000	12.571965
2473.000000	12.718180
2474.000000	12.770290
2475.000000	12.866910
2476.000000	13.050413
2477.000000	13.130785
2478.000000	13.272330
2479.000000	13.326965
2480.000000	13.428305
2481.000000	13.542815
2482.000000	13.807507
2483.000000	14.013395
2484.000000	14.280835
2485.000000	14.477675
2486.000000	14.623930
2487.000000	14.830545
2488.000000	15.177210
2489.000000	15.457933
2490.000000	15.678215
2491.000000	15.893057
2492.000000	15.849308
2493.000000	16.154783
2494.000000	16.334907
2495.000000	16.580220
2496.000000	16.826078
2497.000000	17.151870
2498.000000	17.227193
2499.000000	17.361917
2500.000000	17.597518
2501.000000	22.829953
2502.000000	27.937115
2503.000000	32.953455
2504.000000	38.381938
2505.000000	43.913010
2506.000000	49.611080
2507.000000	55.000220
2508.000000	60.297935
2509.000000	65.762777
2510.000000	71.785090
2511.000000	72.279950
2512.000000	73.266200
2513.000000	74.111370
2514.000000	74.557430
2515.000000	75.197130
2516.000000	76.037650
2517.000000	76.776560
2518.000000	77.133640
2519.000000	77.923440
2520.000000	78.546750
2521.000000	79.280630
2522.000000	79.993220
2523.000000	81.356540
2524.000000	82.894550
2525.000000	83.711510
2526.000000	84.068910
2527.000000	84.150620
2528.000000	85.718640
2529.000000	86.834780
2530.000000	87.221220
2531.000000	88.281290
2532.000000	89.273880
2533.000000	89.533050
2534.000000	89.569980
2535.000000	89.902330
2536.000000	90.283350
2537.000000	90.901290
2538.000000	90.699560
2539.000000	91.354760
2540.000000	92.585770
2541.000000	93.247680
2542.000000	93.643490
2543.000000	94.190760
2544.000000	94.213300
2545.000000	94.602870
2546.000000	95.282180
2547.000000	96.013600
2548.000000	96.417300
2549.000000	95.628070
2550.000000	94.484790
2551.000000	93.626070
2552.000000	93.678250
2553.000000	93.833140
2554.000000	94.402280
2555.000000	95.046540
2556.000000	94.632160
2557.000000	94.476100
2558.000000	95.012880
2559.000000	96.037080
2560.000000	97.827280
2561.000000	99.407090
2562.000000	100.235330
2563.000000	100.712750
2564.000000	101.174070
2565.000000	101.248390
2566.000000	101.928240
2567.000000	102.310020
2568.000000	102.635960
2569.000000	102.895660
2570.000000	102.015420
2571.000000	100.610750
2572.000000	99.438300
2573.000000	98.753540
2574.000000	98.583680
2575.000000	98.862690
2576.000000	99.558690
2577.000000	100.111900
2578.000000	100.307480
2579.000000	100.425070
2580.000000	100.768230
2581.000000	101.589070
2582.000000	102.059260
2583.000000	102.380450
2584.000000	103.063160
2585.000000	103.162200
2586.000000	102.541100
2587.000000	102.833770
2588.000000	102.839450
2589.000000	102.700420
2590.000000	102.786080
2591.000000	102.905470
2592.000000	103.193690
2593.000000	103.214980
2594.000000	102.534100
2595.000000	102.042890
2596.000000	102.193630
2597.000000	102.144740
2598.000000	102.167390
2599.000000	102.085050
2600.000000	101.686620
2601.000000	101.245520
2602.000000	101.119820
2603.000000	101.306580
2604.000000	101.250340
2605.000000	101.092680
2606.000000	101.252740
2607.000000	101.166820
2608.000000	101.573220
2609.000000	101.706980
2610.000000	101.539830
2611.000000	101.475020
2612.000000	101.273870
2613.000000	100.938170
2614.000000	100.551030
2615.000000	100.374320
2616.000000	99.382950
2617.000000	98.827470
2618.000000	98.516240
2619.000000	98.343350
2620.000000	98.673290
2621.000000	99.124330
2622.000000	99.611160
2623.000000	100.103210
2624.000000	100.853010
2625.000000	100.909270
2626.000000	101.638220
2627.000000	102.881830
2628.000000	102.591470
2629.000000	102.106840
2630.000000	101.964230
2631.000000	101.992010
2632.000000	101.553530
2633.000000	101.818670
2634.000000	102.336730
2635.000000	103.205700
2636.000000	103.244430
2637.000000	102.647180
2638.000000	103.096330
2639.000000	103.543010
2640.000000	103.276760
2641.000000	102.965040
2642.000000	103.032780
2643.000000	102.001650
2644.000000	100.728080
2645.000000	100.044360
2646.000000	99.911360
2647.000000	99.707440
2648.000000	99.749070
2649.000000	100.381160
2650.000000	101.170300
2651.000000	101.556670
2652.000000	101.606860
2653.000000	102.357680
2654.000000	102.586650
2655.000000	102.345700
2656.000000	102.657630
2657.000000	102.341780
2658.000000	101.834870
2659.000000	101.835490
2660.000000	101.966740
2661.000000	102.888000
2662.000000	103.656920
2663.000000	102.828480
2664.000000	102.281440
2665.000000	102.360560
2666.000000	102.306240
2667.000000	102.984780
2668.000000	102.932910
2669.000000	103.125330
2670.000000	102.770710
2671.000000	101.193070
2672.000000	100.240920
2673.000000	100.159120
2674.000000	100.734540
2675.000000	101.306880
2676.000000	100.575100
2677.000000	99.977990
2678.000000	100.060530
2679.000000	99.741840
2680.000000	99.687610
2681.000000	100.388710
2682.000000	100.464940
2683.000000	101.229620
2684.000000	101.444080
2685.000000	100.945200
2686.000000	100.832710
2687.000000	100.782060
2688.000000	101.638520
2689.000000	101.816190
2690.000000	101.779870
2691.000000	101.889700
2692.000000	102.013710
2693.000000	101.906150
2694.000000	101.861520
2695.000000	101.972840
2696.000000	103.069850
2697.000000	103.684980
2698.000000	103.595890
2699.000000	102.417420
2700.000000	103.248560
2701.000000	103.588920
2702.000000	103.477900
2703.000000	102.686830
2704.000000	103.554970
2705.000000	103.299750
2706.000000	102.572610
2707.000000	101.698460
2708.000000	100.319190
2709.000000	101.041530
2710.000000	99.901770
2711.000000	100.075560
2712.000000	99.542910
2713.000000	100.597270
2714.000000	100.018680
2715.000000	100.297010
2716.000000	100.926820
2717.000000	100.611810
2718.000000	101.259950
2719.000000	100.295510
2720.000000	100.302330
2721.000000	99.580430
2722.000000	100.560830
2723.000000	100.349770
2724.000000	100.293040
2725.000000	100.901120
2726.000000	100.609670
2727.000000	101.039460
2728.000000	100.638860
2729.000000	102.142070
2730.000000	102.600180
2731.000000	103.043360
2732.000000	102.975740
2733.000000	102.849550
2734.000000	103.066190
2735.000000	102.889570
2736.000000	102.257240
2737.000000	102.542150
2738.000000	102.994630
2739.000000	102.599420
2740.000000	103.519110
2741.000000	102.414230
2742.000000	102.069700
2743.000000	101.607100
2744.000000	100.996320
2745.000000	100.713130
2746.000000	101.712940
2747.000000	101.592980
2748.000000	102.040280
2749.000000	101.927460
2750.000000	101.959080
2751.000000	102.331970
2752.000000	102.237250
2753.000000	102.989650
2754.000000	103.683860
2755.000000	103.614920
2756.000000	102.596680
2757.000000	102.462990
2758.000000	102.144230
2759.000000	101.771000
2760.000000	100.353630
2761.000000	99.927720
2762.000000	99.637380
2763.000000	99.970020
2764.000000	100.022690
2765.000000	100.723970
2766.000000	101.387490
2767.000000	101.030930
2768.000000	100.955490
2769.000000	101.475950
2770.000000	102.439400
2771.000000	103.226240
2772.000000	104.190270
2773.000000	103.855550
2774.000000	103.484010
2775.000000	102.788590
2776.000000	103.517570
2777.000000	105.661770
2778.000000	105.623060
2779.000000	105.444790
2780.000000	105.804160
2781.000000	106.455420
2782.000000	106.669780
2783.000000	106.200440
2784.000000	105.749920
2785.000000	105.370140
2786.000000	104.358640
2787.000000	102.926200
2788.000000	103.483430
2789.000000	103.742190
2790.000000	102.157550
2791.000000	101.174210
2792.000000	100.357770
2793.000000	100.432990
2794.000000	101.268450
2795.000000	102.046930
2796.000000	103.019460
2797.000000	102.502490
2798.000000	101.406730
2799.000000	99.990210
2800.000000	99.583860
2801.000000	100.169560
2802.000000	100.707750
2803.000000	101.445100
2804.000000	101.394210
2805.000000	101.098940
2806.000000	100.649090
2807.000000	101.277960
2808.000000	101.854650
2809.000000	103.031110
2810.000000	104.112470
2811.000000	103.268250
2812.000000	102.518460
2813.000000	101.726770
2814.000000	101.364980
2815.000000	101.200000
2816.000000	101.242610
2817.000000	101.660920
2818.000000	101.472570
2819.000000	101.264690
2820.000000	100.654850
2821.000000	100.756090
2822.000000	101.197430
2823.000000	101.070310
2824.000000	100.200920
2825.000000	99.277860
2826.000000	99.333680
2827.000000	100.081750
2828.000000	100.088470
2829.000000	100.490920
2830.000000	101.590430
2831.000000	102.007930
2832.000000	101.504490
2833.000000	101.294580
2834.000000	101.879710
2835.000000	102.512040
2836.000000	101.694980
2837.000000	100.139740
2838.000000	100.149740
2839.000000	99.462750
2840.000000	98.487930
2841.000000	98.209170
2842.000000	98.690590
2843.000000	99.037660
2844.000000	98.768380
2845.000000	98.312920
2846.000000	98.218920
2847.000000	98.519790
2848.000000	99.173110
2849.000000	99.567160
2850.000000	100.185140
2851.000000	101.248630
2852.000000	101.536370
2853.000000	101.579730
2854.000000	102.575610
2855.000000	103.858660
2856.000000	104.195950
2857.000000	103.548550
2858.000000	102.541000
2859.000000	102.469300
2860.000000	102.656780
2861.000000	102.237950
2862.000000	102.399050
2863.000000	102.762800
2864.000000	102.373010
2865.000000	102.087130
2866.000000	102.136680
2867.000000	102.578350
2868.000000	103.373320
2869.000000	104.079830
2870.000000	103.942530
2871.000000	103.367990
2872.000000	103.048830
2873.000000	102.566800
2874.000000	102.024400
2875.000000	101.795660
2876.000000	102.183610
2877.000000	102.788470
2878.000000	103.203150
2879.000000	102.997230
2880.000000	102.644440
2881.000000	103.097060
2882.000000	102.642030
2883.000000	102.209340
2884.000000	102.588700
2885.000000	102.663550
2886.000000	102.446830
2887.000000	102.604470
2888.000000	102.334220
2889.000000	102.369920
2890.000000	102.697510
2891.000000	102.637250
2892.000000	103.499670
2893.000000	104.474320
2894.000000	104.703360
2895.000000	104.891460
2896.000000	104.491150
2897.000000	103.783320
2898.000000	103.864990
2899.000000	103.874420
2900.000000	103.844730
2901.000000	103.394630
2902.000000	102.315620
2903.000000	101.695980
2904.000000	101.587310
2905.000000	101.480150
2906.000000	101.759230
2907.000000	101.821730
2908.000000	101.628790
2909.000000	101.221870
2910.000000	100.921940
2911.000000	101.257010
2912.000000	101.562040
2913.000000	101.823210
2914.000000	101.957040
2915.000000	101.976830
2916.000000	102.605020
2917.000000	102.431660
2918.000000	101.913450
2919.000000	101.745060
2920.000000	101.839360
2921.000000	101.390210
2922.000000	102.420910
2923.000000	102.559030
2924.000000	102.642110
2925.000000	102.145740
2926.000000	101.382530
2927.000000	102.003970
2928.000000	102.149520
2929.000000	102.371930
2930.000000	103.449180
2931.000000	104.512600
2932.000000	103.802300
2933.000000	104.533630
2934.000000	104.737180
2935.000000	104.991510
2936.000000	105.251990
2937.000000	104.901690
2938.000000	105.513240
2939.000000	105.463760
2940.000000	104.945570
2941.000000	104.323100
2942.000000	104.525760
2943.000000	103.805590
2944.000000	103.183120
2945.000000	103.061500
2946.000000	102.973820
2947.000000	102.418240
2948.000000	101.843740
2949.000000	101.931330
2950.000000	101.523540
2951.000000	101.903860
2952.000000	101.322070
2953.000000	100.900470
2954.000000	100.372890
2955.000000	100.905690
2956.000000	101.434980
2957.000000	102.505390
2958.000000	102.479660
2959.000000	102.564270
2960.000000	102.357650
2961.000000	101.890710
2962.000000	101.564730
2963.000000	102.698420
2964.000000	102.869880
2965.000000	102.375480
2966.000000	102.163700
2967.000000	101.902580
2968.000000	101.127430
2969.000000	100.283310
2970.000000	101.355430
2971.000000	101.140490
2972.000000	102.204750
2973.000000	102.011080
2974.000000	102.284820
2975.000000	102.225990
2976.000000	102.398600
2977.000000	101.925000
2978.000000	102.172510
2979.000000	101.924250
2980.000000	100.446150
2981.000000	100.524140
2982.000000	99.905110
2983.000000	99.383150
2984.000000	98.732100
2985.000000	99.973840
2986.000000	99.999740
2987.000000	100.598740
2988.000000	101.023920
2989.000000	102.061920
2990.000000	102.526790
2991.000000	102.555160
2992.000000	101.989310
2993.000000	101.983040
2994.000000	103.105290
2995.000000	102.153600
2996.000000	101.713260
2997.000000	101.678290
2998.000000	101.930130
2999.000000	101.640000
3000.000000	101.623450
