PE UV       SUBTECH     SPECTRUM    ASCII       PEDS        4.00        
   -1
INBUCR0223-4.Sample.ASC
24/02/08
10:38:59.00
24/02/08
10:38:59.00
Vinicio Soto Monge
Chrysina sp. Rojizo con bordes dorados. 
250,000000
1
Lambda 1050
1050L1511233
PerkinElmer UV WinLab 6.3.2.0749 / 2.02.05 Lambda 900 UV/VIS/NIR, Aug  7 2015 09:38:08

0
0
3350/servo 860,8/2
0
0
UV/VIS
1
1
1
DoubleDePol,CommonBeamDepol,RBeamAtt,SBeamAtt,60mm sphere, WB InGaAs Detector
0
0
0
0
Program
Program
3350/servo 860,8/2
3350/0,2 860,8/0,2
3350/0,2 860,8/0,2
0
15.00
 
 
 
0
 
860,8
319,2
860,8
Front
100
on
S:100 R:100
0
0
0
0
 
0
 
 
 
0
 
 
0
0
0
0
0
 
 
 
 
0
0


0
0
#HDR
-1
-1
#GR
nm
%R
1.0
0.0
2500,000000
-1,000000
2251
8
13,820200
1,162000
#DATA

250.000000	nan
251.000000	nan
252.000000	nan
253.000000	nan
254.000000	nan
255.000000	nan
256.000000	nan
257.000000	nan
258.000000	nan
259.000000	3.972315
260.000000	3.959494
261.000000	3.947349
262.000000	3.934254
263.000000	3.923948
264.000000	3.909673
265.000000	3.893806
266.000000	3.878831
267.000000	3.863390
268.000000	3.850144
269.000000	3.836790
270.000000	3.822241
271.000000	3.808332
272.000000	3.792807
273.000000	3.778788
274.000000	3.764566
275.000000	3.753234
276.000000	3.743940
277.000000	3.735412
278.000000	3.725356
279.000000	3.715147
280.000000	3.708939
281.000000	3.702028
282.000000	3.697691
283.000000	3.690871
284.000000	3.687412
285.000000	3.684705
286.000000	3.680237
287.000000	3.675980
288.000000	3.671560
289.000000	3.670444
290.000000	3.667810
291.000000	3.664408
292.000000	3.661954
293.000000	3.661710
294.000000	3.661901
295.000000	3.660679
296.000000	3.658544
297.000000	3.657104
298.000000	3.659861
299.000000	3.659022
300.000000	3.657240
301.000000	3.657996
302.000000	3.657906
303.000000	3.656694
304.000000	3.653869
305.000000	3.652196
306.000000	3.648794
307.000000	3.648742
308.000000	3.642923
309.000000	3.638732
310.000000	3.635103
311.000000	3.631427
312.000000	3.624752
313.000000	3.619245
314.000000	3.616564
315.000000	3.613351
316.000000	3.614951
317.000000	3.640239
318.000000	3.670909
319.000000	3.689152
320.000000	3.714291
321.000000	3.746104
322.000000	3.769039
323.000000	3.800500
324.000000	3.815938
325.000000	3.838295
326.000000	3.856626
327.000000	3.847797
328.000000	3.836954
329.000000	3.838284
330.000000	3.832007
331.000000	3.819457
332.000000	3.817668
333.000000	3.805220
334.000000	3.803657
335.000000	3.798591
336.000000	3.796857
337.000000	3.790732
338.000000	3.782311
339.000000	3.775026
340.000000	3.765640
341.000000	3.758601
342.000000	3.754194
343.000000	3.750677
344.000000	3.749770
345.000000	3.748366
346.000000	3.744683
347.000000	3.748755
348.000000	3.749530
349.000000	3.750383
350.000000	3.751875
351.000000	3.751834
352.000000	3.749524
353.000000	3.751391
354.000000	3.750491
355.000000	3.748260
356.000000	3.747503
357.000000	3.745196
358.000000	3.748269
359.000000	3.748069
360.000000	3.747423
361.000000	3.747391
362.000000	3.751654
363.000000	3.750856
364.000000	3.751934
365.000000	3.752062
366.000000	3.752204
367.000000	3.751429
368.000000	3.751463
369.000000	3.752216
370.000000	3.753151
371.000000	3.748752
372.000000	3.740980
373.000000	3.734116
374.000000	3.726320
375.000000	3.720005
376.000000	3.714030
377.000000	3.700805
378.000000	3.687737
379.000000	3.675653
380.000000	3.665817
381.000000	3.657713
382.000000	3.650420
383.000000	3.645088
384.000000	3.642360
385.000000	3.638039
386.000000	3.632148
387.000000	3.633400
388.000000	3.634177
389.000000	3.635787
390.000000	3.637607
391.000000	3.640105
392.000000	3.641847
393.000000	3.642434
394.000000	3.642725
395.000000	3.643852
396.000000	3.645288
397.000000	3.646994
398.000000	3.648792
399.000000	3.650301
400.000000	3.651568
401.000000	3.652697
402.000000	3.654240
403.000000	3.656676
404.000000	3.659867
405.000000	3.663316
406.000000	3.666123
407.000000	3.668898
408.000000	3.671676
409.000000	3.674731
410.000000	3.678051
411.000000	3.681455
412.000000	3.684765
413.000000	3.687931
414.000000	3.691194
415.000000	3.694623
416.000000	3.698458
417.000000	3.702531
418.000000	3.706716
419.000000	3.710648
420.000000	3.715115
421.000000	3.719997
422.000000	3.724912
423.000000	3.729875
424.000000	3.734925
425.000000	3.740391
426.000000	3.746050
427.000000	3.751498
428.000000	3.757136
429.000000	3.763078
430.000000	3.768793
431.000000	3.774597
432.000000	3.780763
433.000000	3.787326
434.000000	3.794161
435.000000	3.800777
436.000000	3.807295
437.000000	3.814188
438.000000	3.821527
439.000000	3.829314
440.000000	3.836734
441.000000	3.844228
442.000000	3.852036
443.000000	3.859723
444.000000	3.867060
445.000000	3.874436
446.000000	3.882244
447.000000	3.890442
448.000000	3.898297
449.000000	3.905773
450.000000	3.913995
451.000000	3.922463
452.000000	3.930772
453.000000	3.939094
454.000000	3.947794
455.000000	3.956915
456.000000	3.966090
457.000000	3.974853
458.000000	3.983702
459.000000	3.993037
460.000000	4.002521
461.000000	4.011912
462.000000	4.021447
463.000000	4.031325
464.000000	4.041279
465.000000	4.051165
466.000000	4.061350
467.000000	4.071713
468.000000	4.082535
469.000000	4.093687
470.000000	4.104315
471.000000	4.114957
472.000000	4.125822
473.000000	4.136703
474.000000	4.147407
475.000000	4.157731
476.000000	4.168000
477.000000	4.178088
478.000000	4.187792
479.000000	4.197376
480.000000	4.207254
481.000000	4.216738
482.000000	4.225741
483.000000	4.235111
484.000000	4.244962
485.000000	4.255502
486.000000	4.266253
487.000000	4.277601
488.000000	4.289481
489.000000	4.301547
490.000000	4.314627
491.000000	4.328489
492.000000	4.343178
493.000000	4.358206
494.000000	4.373125
495.000000	4.388298
496.000000	4.404148
497.000000	4.420425
498.000000	4.436983
499.000000	4.454229
500.000000	4.471480
501.000000	4.489366
502.000000	4.507910
503.000000	4.526717
504.000000	4.546030
505.000000	4.566161
506.000000	4.586237
507.000000	4.606404
508.000000	4.627094
509.000000	4.647890
510.000000	4.669381
511.000000	4.691395
512.000000	4.713622
513.000000	4.736440
514.000000	4.760273
515.000000	4.784487
516.000000	4.809622
517.000000	4.835944
518.000000	4.863697
519.000000	4.893031
520.000000	4.923862
521.000000	4.956669
522.000000	4.991591
523.000000	5.029312
524.000000	5.069839
525.000000	5.113035
526.000000	5.159160
527.000000	5.208931
528.000000	5.262006
529.000000	5.318322
530.000000	5.377842
531.000000	5.440540
532.000000	5.505642
533.000000	5.572716
534.000000	5.641143
535.000000	5.710434
536.000000	5.780452
537.000000	5.849637
538.000000	5.917543
539.000000	5.983631
540.000000	6.047567
541.000000	6.109054
542.000000	6.168724
543.000000	6.225939
544.000000	6.280705
545.000000	6.333852
546.000000	6.385158
547.000000	6.434804
548.000000	6.483897
549.000000	6.532427
550.000000	6.580672
551.000000	6.628791
552.000000	6.676330
553.000000	6.724399
554.000000	6.773395
555.000000	6.822685
556.000000	6.872723
557.000000	6.923581
558.000000	6.974698
559.000000	7.026641
560.000000	7.074023
561.000000	7.121038
562.000000	7.169675
563.000000	7.219102
564.000000	7.269207
565.000000	7.320099
566.000000	7.372239
567.000000	7.425011
568.000000	7.479684
569.000000	7.535234
570.000000	7.597975
571.000000	7.664059
572.000000	7.731361
573.000000	7.800944
574.000000	7.872483
575.000000	7.946980
576.000000	8.023484
577.000000	8.103724
578.000000	8.185975
579.000000	8.271613
580.000000	8.359587
581.000000	8.450366
582.000000	8.544503
583.000000	8.641956
584.000000	8.743202
585.000000	8.848366
586.000000	8.957315
587.000000	9.069551
588.000000	9.186333
589.000000	9.308395
590.000000	9.436243
591.000000	9.569421
592.000000	9.708725
593.000000	9.854639
594.000000	10.006766
595.000000	10.165637
596.000000	10.332782
597.000000	10.509019
598.000000	10.695746
599.000000	10.893110
600.000000	11.102901
601.000000	11.326476
602.000000	11.567069
603.000000	11.826384
604.000000	12.108587
605.000000	12.414449
606.000000	12.746429
607.000000	13.107212
608.000000	13.497027
609.000000	13.918056
610.000000	14.371553
611.000000	14.858810
612.000000	15.375801
613.000000	15.922871
614.000000	16.495577
615.000000	17.091572
616.000000	17.706549
617.000000	18.334749
618.000000	18.970539
619.000000	19.608843
620.000000	20.245292
621.000000	20.873540
622.000000	21.488423
623.000000	22.082836
624.000000	22.654732
625.000000	23.198597
626.000000	23.712470
627.000000	24.194492
628.000000	24.646989
629.000000	25.067048
630.000000	25.452275
631.000000	25.805420
632.000000	26.127886
633.000000	26.422952
634.000000	26.689851
635.000000	26.933291
636.000000	27.153834
637.000000	27.354102
638.000000	27.534742
639.000000	27.697924
640.000000	27.846921
641.000000	27.981902
642.000000	28.105377
643.000000	28.217913
644.000000	28.322449
645.000000	28.418658
646.000000	28.510041
647.000000	28.597429
648.000000	28.680151
649.000000	28.759053
650.000000	28.834889
651.000000	28.906888
652.000000	28.976377
653.000000	29.043370
654.000000	29.105798
655.000000	29.164994
656.000000	29.221705
657.000000	29.273632
658.000000	29.322510
659.000000	29.369366
660.000000	29.412927
661.000000	29.453321
662.000000	29.491176
663.000000	29.526165
664.000000	29.561496
665.000000	29.596719
666.000000	29.631215
667.000000	29.665945
668.000000	29.700353
669.000000	29.737921
670.000000	29.776810
671.000000	29.819040
672.000000	29.863330
673.000000	29.908228
674.000000	29.953635
675.000000	30.001429
676.000000	30.047070
677.000000	30.091364
678.000000	30.135669
679.000000	30.175545
680.000000	30.213111
681.000000	30.246935
682.000000	30.277723
683.000000	30.307263
684.000000	30.334873
685.000000	30.357037
686.000000	30.377520
687.000000	30.396208
688.000000	30.412702
689.000000	30.427339
690.000000	30.441592
691.000000	30.456645
692.000000	30.469559
693.000000	30.482406
694.000000	30.494033
695.000000	30.506674
696.000000	30.520286
697.000000	30.535890
698.000000	30.554012
699.000000	30.572949
700.000000	30.593623
701.000000	30.615442
702.000000	30.639024
703.000000	30.663681
704.000000	30.689672
705.000000	30.716767
706.000000	30.745564
707.000000	30.775260
708.000000	30.803386
709.000000	30.832714
710.000000	30.860400
711.000000	30.887442
712.000000	30.917161
713.000000	30.947965
714.000000	30.980219
715.000000	31.011884
716.000000	31.043875
717.000000	31.076325
718.000000	31.108669
719.000000	31.143392
720.000000	31.180045
721.000000	31.216530
722.000000	31.252230
723.000000	31.288010
724.000000	31.324419
725.000000	31.364441
726.000000	31.403967
727.000000	31.446433
728.000000	31.492739
729.000000	31.535376
730.000000	31.576477
731.000000	31.619554
732.000000	31.662358
733.000000	31.705101
734.000000	31.749925
735.000000	31.795261
736.000000	31.839997
737.000000	31.881656
738.000000	31.923017
739.000000	31.967706
740.000000	32.013729
741.000000	32.060690
742.000000	32.110432
743.000000	32.160399
744.000000	32.208226
745.000000	32.254651
746.000000	32.303793
747.000000	32.353205
748.000000	32.401558
749.000000	32.452099
750.000000	32.504208
751.000000	32.555644
752.000000	32.604873
753.000000	32.656067
754.000000	32.709482
755.000000	32.764278
756.000000	32.821179
757.000000	32.881707
758.000000	32.944013
759.000000	33.005416
760.000000	33.070381
761.000000	33.137061
762.000000	33.205568
763.000000	33.277113
764.000000	33.348041
765.000000	33.417898
766.000000	33.488582
767.000000	33.560862
768.000000	33.633998
769.000000	33.710069
770.000000	33.784866
771.000000	33.859089
772.000000	33.930598
773.000000	34.000372
774.000000	34.076578
775.000000	34.154670
776.000000	34.232101
777.000000	34.307311
778.000000	34.383599
779.000000	34.459216
780.000000	34.535794
781.000000	34.615475
782.000000	34.700871
783.000000	34.782687
784.000000	34.860372
785.000000	34.941065
786.000000	35.024103
787.000000	35.107442
788.000000	35.189349
789.000000	35.271117
790.000000	35.353055
791.000000	35.433697
792.000000	35.513028
793.000000	35.596338
794.000000	35.680456
795.000000	35.763287
796.000000	35.843532
797.000000	35.923224
798.000000	36.005556
799.000000	36.092211
800.000000	36.178065
801.000000	36.263833
802.000000	36.349933
803.000000	36.434709
804.000000	36.515081
805.000000	36.599411
806.000000	36.685364
807.000000	36.771846
808.000000	36.858113
809.000000	36.940669
810.000000	37.027870
811.000000	37.116697
812.000000	37.203897
813.000000	37.287063
814.000000	37.373027
815.000000	37.456303
816.000000	37.537085
817.000000	37.622578
818.000000	37.709139
819.000000	37.788383
820.000000	37.863755
821.000000	37.943049
822.000000	38.023296
823.000000	38.102657
824.000000	38.180014
825.000000	38.262071
826.000000	38.345129
827.000000	38.418385
828.000000	38.488581
829.000000	38.567000
830.000000	38.645530
831.000000	38.710087
832.000000	38.777974
833.000000	38.851480
834.000000	38.927791
835.000000	38.985900
836.000000	39.052153
837.000000	39.122290
838.000000	39.185036
839.000000	39.240399
840.000000	39.296334
841.000000	39.360337
842.000000	39.413831
843.000000	39.464788
844.000000	39.515715
845.000000	39.583499
846.000000	39.621355
847.000000	39.668675
848.000000	39.721336
849.000000	39.773571
850.000000	39.806349
851.000000	39.848824
852.000000	39.903157
853.000000	39.934403
854.000000	39.968329
855.000000	39.989775
856.000000	40.030507
857.000000	40.046736
858.000000	40.233018
859.000000	40.343231
860.000000	40.438133
861.000000	40.545999
862.000000	40.637141
863.000000	40.755939
864.000000	40.843983
865.000000	40.911281
866.000000	40.990193
867.000000	41.079289
868.000000	40.997200
869.000000	40.972617
870.000000	40.988195
871.000000	40.975215
872.000000	40.962812
873.000000	40.949555
874.000000	40.939058
875.000000	40.957905
876.000000	40.964112
877.000000	40.967828
878.000000	40.958465
879.000000	40.962902
880.000000	40.961083
881.000000	40.951045
882.000000	40.956750
883.000000	40.943370
884.000000	40.946180
885.000000	40.941480
886.000000	40.926043
887.000000	40.916675
888.000000	40.902985
889.000000	40.893705
890.000000	40.878925
891.000000	40.863325
892.000000	40.836645
893.000000	40.811253
894.000000	40.790190
895.000000	40.764978
896.000000	40.748195
897.000000	40.717588
898.000000	40.704057
899.000000	40.682898
900.000000	40.665550
901.000000	40.648760
902.000000	40.630440
903.000000	40.613510
904.000000	40.588910
905.000000	40.571158
906.000000	40.547917
907.000000	40.528725
908.000000	40.503127
909.000000	40.484260
910.000000	40.455550
911.000000	40.426660
912.000000	40.392768
913.000000	40.366252
914.000000	40.346632
915.000000	40.319317
916.000000	40.289362
917.000000	40.260385
918.000000	40.230995
919.000000	40.209855
920.000000	40.188680
921.000000	40.166387
922.000000	40.147652
923.000000	40.126025
924.000000	40.099115
925.000000	40.071722
926.000000	40.045710
927.000000	40.020933
928.000000	39.994400
929.000000	39.953220
930.000000	39.912225
931.000000	39.878377
932.000000	39.844268
933.000000	39.808847
934.000000	39.772850
935.000000	39.732760
936.000000	39.695985
937.000000	39.657562
938.000000	39.622030
939.000000	39.587913
940.000000	39.549878
941.000000	39.508888
942.000000	39.468448
943.000000	39.429090
944.000000	39.390515
945.000000	39.355332
946.000000	39.315463
947.000000	39.278078
948.000000	39.237730
949.000000	39.196357
950.000000	39.157410
951.000000	39.120070
952.000000	39.082822
953.000000	39.044828
954.000000	39.004110
955.000000	38.964883
956.000000	38.930325
957.000000	38.895725
958.000000	38.860422
959.000000	38.825420
960.000000	38.793470
961.000000	38.760775
962.000000	38.723730
963.000000	38.686220
964.000000	38.649493
965.000000	38.614938
966.000000	38.578375
967.000000	38.538798
968.000000	38.500377
969.000000	38.465475
970.000000	38.428003
971.000000	38.390415
972.000000	38.357180
973.000000	38.325520
974.000000	38.294322
975.000000	38.260343
976.000000	38.227918
977.000000	38.197007
978.000000	38.167490
979.000000	38.137017
980.000000	38.107222
981.000000	38.076133
982.000000	38.042613
983.000000	38.011475
984.000000	37.982682
985.000000	37.953752
986.000000	37.923057
987.000000	37.893672
988.000000	37.865967
989.000000	37.838345
990.000000	37.810575
991.000000	37.784253
992.000000	37.760895
993.000000	37.737055
994.000000	37.712197
995.000000	37.688225
996.000000	37.666045
997.000000	37.645593
998.000000	37.625015
999.000000	37.605128
1000.000000	37.586990
1001.000000	37.569522
1002.000000	37.551837
1003.000000	37.534897
1004.000000	37.518473
1005.000000	37.502480
1006.000000	37.487080
1007.000000	37.472522
1008.000000	37.458050
1009.000000	37.443055
1010.000000	37.429035
1011.000000	37.417088
1012.000000	37.406278
1013.000000	37.393355
1014.000000	37.381392
1015.000000	37.372075
1016.000000	37.363952
1017.000000	37.356078
1018.000000	37.349805
1019.000000	37.345920
1020.000000	37.341570
1021.000000	37.336433
1022.000000	37.331330
1023.000000	37.328755
1024.000000	37.327688
1025.000000	37.326705
1026.000000	37.325458
1027.000000	37.324045
1028.000000	37.322928
1029.000000	37.323673
1030.000000	37.326850
1031.000000	37.331032
1032.000000	37.336705
1033.000000	37.343040
1034.000000	37.349863
1035.000000	37.355967
1036.000000	37.362302
1037.000000	37.369613
1038.000000	37.377842
1039.000000	37.385625
1040.000000	37.391602
1041.000000	37.397463
1042.000000	37.402867
1043.000000	37.407353
1044.000000	37.412385
1045.000000	37.418818
1046.000000	37.425905
1047.000000	37.433505
1048.000000	37.439778
1049.000000	37.445553
1050.000000	37.452250
1051.000000	37.459705
1052.000000	37.468937
1053.000000	37.479825
1054.000000	37.489410
1055.000000	37.500245
1056.000000	37.511278
1057.000000	37.522005
1058.000000	37.533842
1059.000000	37.545072
1060.000000	37.557008
1061.000000	37.569675
1062.000000	37.581783
1063.000000	37.593823
1064.000000	37.606673
1065.000000	37.618740
1066.000000	37.632080
1067.000000	37.644357
1068.000000	37.656885
1069.000000	37.671743
1070.000000	37.687377
1071.000000	37.702450
1072.000000	37.717695
1073.000000	37.732888
1074.000000	37.748525
1075.000000	37.763243
1076.000000	37.777660
1077.000000	37.793825
1078.000000	37.810727
1079.000000	37.824985
1080.000000	37.838003
1081.000000	37.851590
1082.000000	37.865642
1083.000000	37.879903
1084.000000	37.893083
1085.000000	37.906953
1086.000000	37.921065
1087.000000	37.933892
1088.000000	37.943905
1089.000000	37.956142
1090.000000	37.969440
1091.000000	37.982515
1092.000000	37.994878
1093.000000	38.006665
1094.000000	38.019765
1095.000000	38.033102
1096.000000	38.044848
1097.000000	38.057115
1098.000000	38.070222
1099.000000	38.082563
1100.000000	38.093592
1101.000000	38.103995
1102.000000	38.113765
1103.000000	38.123177
1104.000000	38.131982
1105.000000	38.141355
1106.000000	38.151085
1107.000000	38.160085
1108.000000	38.169603
1109.000000	38.177935
1110.000000	38.186988
1111.000000	38.195747
1112.000000	38.203408
1113.000000	38.210780
1114.000000	38.217905
1115.000000	38.222333
1116.000000	38.228105
1117.000000	38.232932
1118.000000	38.236045
1119.000000	38.238858
1120.000000	38.240325
1121.000000	38.240048
1122.000000	38.240205
1123.000000	38.238400
1124.000000	38.232375
1125.000000	38.226582
1126.000000	38.216527
1127.000000	38.204870
1128.000000	38.192262
1129.000000	38.175345
1130.000000	38.154155
1131.000000	38.129928
1132.000000	38.101305
1133.000000	38.071630
1134.000000	38.043083
1135.000000	38.013120
1136.000000	37.979430
1137.000000	37.941865
1138.000000	37.902358
1139.000000	37.863470
1140.000000	37.826258
1141.000000	37.789455
1142.000000	37.754487
1143.000000	37.719035
1144.000000	37.683417
1145.000000	37.648103
1146.000000	37.616727
1147.000000	37.586742
1148.000000	37.557440
1149.000000	37.528852
1150.000000	37.501550
1151.000000	37.473525
1152.000000	37.445152
1153.000000	37.415460
1154.000000	37.383697
1155.000000	37.349925
1156.000000	37.311630
1157.000000	37.271805
1158.000000	37.229210
1159.000000	37.182772
1160.000000	37.131160
1161.000000	37.077605
1162.000000	37.020075
1163.000000	36.959965
1164.000000	36.898392
1165.000000	36.833672
1166.000000	36.770100
1167.000000	36.706180
1168.000000	36.640482
1169.000000	36.576968
1170.000000	36.516053
1171.000000	36.456582
1172.000000	36.399790
1173.000000	36.347923
1174.000000	36.298350
1175.000000	36.251263
1176.000000	36.208253
1177.000000	36.169100
1178.000000	36.135315
1179.000000	36.104955
1180.000000	36.076003
1181.000000	36.049973
1182.000000	36.026853
1183.000000	36.005868
1184.000000	35.987758
1185.000000	35.974833
1186.000000	35.964050
1187.000000	35.956660
1188.000000	35.951948
1189.000000	35.951937
1190.000000	35.958092
1191.000000	35.969358
1192.000000	35.985387
1193.000000	36.005347
1194.000000	36.030045
1195.000000	36.057340
1196.000000	36.087702
1197.000000	36.120945
1198.000000	36.157275
1199.000000	36.193443
1200.000000	36.230578
1201.000000	36.267110
1202.000000	36.303910
1203.000000	36.339120
1204.000000	36.373352
1205.000000	36.407702
1206.000000	36.441173
1207.000000	36.473505
1208.000000	36.503772
1209.000000	36.534355
1210.000000	36.562663
1211.000000	36.592408
1212.000000	36.619335
1213.000000	36.645638
1214.000000	36.671515
1215.000000	36.694900
1216.000000	36.717123
1217.000000	36.739230
1218.000000	36.760485
1219.000000	36.780055
1220.000000	36.799035
1221.000000	36.814698
1222.000000	36.830345
1223.000000	36.845707
1224.000000	36.860120
1225.000000	36.874220
1226.000000	36.887660
1227.000000	36.900425
1228.000000	36.913578
1229.000000	36.926227
1230.000000	36.938460
1231.000000	36.952027
1232.000000	36.966095
1233.000000	36.980653
1234.000000	36.995207
1235.000000	37.010753
1236.000000	37.026390
1237.000000	37.041595
1238.000000	37.056452
1239.000000	37.072100
1240.000000	37.089385
1241.000000	37.106795
1242.000000	37.124868
1243.000000	37.143873
1244.000000	37.164358
1245.000000	37.185080
1246.000000	37.207030
1247.000000	37.229903
1248.000000	37.254330
1249.000000	37.279395
1250.000000	37.304067
1251.000000	37.328772
1252.000000	37.353063
1253.000000	37.376198
1254.000000	37.397772
1255.000000	37.418332
1256.000000	37.437695
1257.000000	37.456302
1258.000000	37.473303
1259.000000	37.488128
1260.000000	37.500673
1261.000000	37.511935
1262.000000	37.522475
1263.000000	37.532313
1264.000000	37.541460
1265.000000	37.550280
1266.000000	37.558817
1267.000000	37.566617
1268.000000	37.573513
1269.000000	37.580568
1270.000000	37.587223
1271.000000	37.593592
1272.000000	37.600197
1273.000000	37.606257
1274.000000	37.612305
1275.000000	37.617982
1276.000000	37.623762
1277.000000	37.630760
1278.000000	37.638935
1279.000000	37.647643
1280.000000	37.657580
1281.000000	37.669123
1282.000000	37.681378
1283.000000	37.695565
1284.000000	37.711015
1285.000000	37.727877
1286.000000	37.744752
1287.000000	37.760813
1288.000000	37.777072
1289.000000	37.792927
1290.000000	37.809282
1291.000000	37.825660
1292.000000	37.841693
1293.000000	37.856255
1294.000000	37.869642
1295.000000	37.882008
1296.000000	37.893810
1297.000000	37.904877
1298.000000	37.915228
1299.000000	37.925165
1300.000000	37.933830
1301.000000	37.940210
1302.000000	37.944293
1303.000000	37.947015
1304.000000	37.948835
1305.000000	37.949838
1306.000000	37.948988
1307.000000	37.946620
1308.000000	37.942773
1309.000000	37.937192
1310.000000	37.929533
1311.000000	37.920347
1312.000000	37.910273
1313.000000	37.898332
1314.000000	37.884665
1315.000000	37.869363
1316.000000	37.852797
1317.000000	37.834022
1318.000000	37.813895
1319.000000	37.792678
1320.000000	37.770245
1321.000000	37.746613
1322.000000	37.721290
1323.000000	37.694220
1324.000000	37.665238
1325.000000	37.634432
1326.000000	37.601990
1327.000000	37.568815
1328.000000	37.533205
1329.000000	37.494802
1330.000000	37.454282
1331.000000	37.411017
1332.000000	37.364713
1333.000000	37.316285
1334.000000	37.265693
1335.000000	37.212000
1336.000000	37.155023
1337.000000	37.094310
1338.000000	37.030337
1339.000000	36.963858
1340.000000	36.893730
1341.000000	36.819580
1342.000000	36.741915
1343.000000	36.661223
1344.000000	36.576145
1345.000000	36.485520
1346.000000	36.391540
1347.000000	36.296745
1348.000000	36.199213
1349.000000	36.097973
1350.000000	35.994937
1351.000000	35.891160
1352.000000	35.785640
1353.000000	35.680975
1354.000000	35.580227
1355.000000	35.485540
1356.000000	35.393985
1357.000000	35.304727
1358.000000	35.219538
1359.000000	35.137405
1360.000000	35.064210
1361.000000	35.001343
1362.000000	34.943925
1363.000000	34.885205
1364.000000	34.826975
1365.000000	34.767070
1366.000000	34.703468
1367.000000	34.638577
1368.000000	34.569385
1369.000000	34.494630
1370.000000	34.408428
1371.000000	34.306725
1372.000000	34.191298
1373.000000	34.060965
1374.000000	33.912793
1375.000000	33.750698
1376.000000	33.574270
1377.000000	33.380700
1378.000000	33.175465
1379.000000	32.960572
1380.000000	32.744430
1381.000000	32.534315
1382.000000	32.331565
1383.000000	32.143328
1384.000000	31.962953
1385.000000	31.792110
1386.000000	31.636070
1387.000000	31.498793
1388.000000	31.375432
1389.000000	31.262208
1390.000000	31.151850
1391.000000	31.044145
1392.000000	30.938380
1393.000000	30.830455
1394.000000	30.730937
1395.000000	30.637505
1396.000000	30.541375
1397.000000	30.431722
1398.000000	30.313810
1399.000000	30.200070
1400.000000	30.089533
1401.000000	29.965402
1402.000000	29.828677
1403.000000	29.683910
1404.000000	29.531265
1405.000000	29.365055
1406.000000	29.192925
1407.000000	29.019667
1408.000000	28.844200
1409.000000	28.659285
1410.000000	28.460502
1411.000000	28.259195
1412.000000	28.062437
1413.000000	27.869718
1414.000000	27.676392
1415.000000	27.482275
1416.000000	27.287100
1417.000000	27.097618
1418.000000	26.913460
1419.000000	26.733715
1420.000000	26.559225
1421.000000	26.390985
1422.000000	26.228213
1423.000000	26.071452
1424.000000	25.916865
1425.000000	25.767935
1426.000000	25.627693
1427.000000	25.491840
1428.000000	25.359905
1429.000000	25.231962
1430.000000	25.111258
1431.000000	24.998773
1432.000000	24.890113
1433.000000	24.782235
1434.000000	24.678735
1435.000000	24.581007
1436.000000	24.486650
1437.000000	24.396787
1438.000000	24.309783
1439.000000	24.223903
1440.000000	24.140840
1441.000000	24.060047
1442.000000	23.982473
1443.000000	23.906008
1444.000000	23.833345
1445.000000	23.765255
1446.000000	23.697880
1447.000000	23.628972
1448.000000	23.560345
1449.000000	23.495670
1450.000000	23.433610
1451.000000	23.372518
1452.000000	23.308452
1453.000000	23.245637
1454.000000	23.182358
1455.000000	23.117420
1456.000000	23.054550
1457.000000	22.991198
1458.000000	22.927702
1459.000000	22.863593
1460.000000	22.797890
1461.000000	22.730943
1462.000000	22.667450
1463.000000	22.604237
1464.000000	22.541258
1465.000000	22.477665
1466.000000	22.413820
1467.000000	22.351975
1468.000000	22.290408
1469.000000	22.229940
1470.000000	22.170265
1471.000000	22.112402
1472.000000	22.054632
1473.000000	21.997965
1474.000000	21.941040
1475.000000	21.887185
1476.000000	21.836557
1477.000000	21.788142
1478.000000	21.742623
1479.000000	21.698445
1480.000000	21.657913
1481.000000	21.620033
1482.000000	21.584625
1483.000000	21.553590
1484.000000	21.526880
1485.000000	21.502353
1486.000000	21.478670
1487.000000	21.458438
1488.000000	21.440632
1489.000000	21.424995
1490.000000	21.410158
1491.000000	21.397330
1492.000000	21.388012
1493.000000	21.379507
1494.000000	21.372550
1495.000000	21.368155
1496.000000	21.368215
1497.000000	21.370255
1498.000000	21.375917
1499.000000	21.386065
1500.000000	21.399997
1501.000000	21.418167
1502.000000	21.440152
1503.000000	21.466907
1504.000000	21.497993
1505.000000	21.532850
1506.000000	21.570205
1507.000000	21.611400
1508.000000	21.655313
1509.000000	21.701532
1510.000000	21.750425
1511.000000	21.800593
1512.000000	21.852483
1513.000000	21.905640
1514.000000	21.959805
1515.000000	22.014708
1516.000000	22.069700
1517.000000	22.124198
1518.000000	22.178618
1519.000000	22.232908
1520.000000	22.286433
1521.000000	22.339292
1522.000000	22.390945
1523.000000	22.441600
1524.000000	22.491460
1525.000000	22.540700
1526.000000	22.589395
1527.000000	22.637117
1528.000000	22.684275
1529.000000	22.730410
1530.000000	22.774603
1531.000000	22.817390
1532.000000	22.859082
1533.000000	22.900215
1534.000000	22.940777
1535.000000	22.979515
1536.000000	23.016905
1537.000000	23.053238
1538.000000	23.088550
1539.000000	23.122800
1540.000000	23.156215
1541.000000	23.189345
1542.000000	23.222053
1543.000000	23.254905
1544.000000	23.287580
1545.000000	23.321000
1546.000000	23.355625
1547.000000	23.391618
1548.000000	23.429140
1549.000000	23.468453
1550.000000	23.510062
1551.000000	23.552520
1552.000000	23.595345
1553.000000	23.638170
1554.000000	23.681705
1555.000000	23.723545
1556.000000	23.762358
1557.000000	23.799428
1558.000000	23.833873
1559.000000	23.864438
1560.000000	23.890483
1561.000000	23.912800
1562.000000	23.931545
1563.000000	23.945303
1564.000000	23.953933
1565.000000	23.959735
1566.000000	23.963010
1567.000000	23.962540
1568.000000	23.959517
1569.000000	23.953832
1570.000000	23.946997
1571.000000	23.939495
1572.000000	23.932135
1573.000000	23.924882
1574.000000	23.918585
1575.000000	23.914110
1576.000000	23.912187
1577.000000	23.912517
1578.000000	23.913650
1579.000000	23.917525
1580.000000	23.924867
1581.000000	23.935390
1582.000000	23.947895
1583.000000	23.963593
1584.000000	23.982408
1585.000000	24.002543
1586.000000	24.024138
1587.000000	24.047663
1588.000000	24.073747
1589.000000	24.101760
1590.000000	24.132205
1591.000000	24.163305
1592.000000	24.195030
1593.000000	24.227765
1594.000000	24.261520
1595.000000	24.296838
1596.000000	24.334035
1597.000000	24.372577
1598.000000	24.413208
1599.000000	24.454745
1600.000000	24.496785
1601.000000	24.541135
1602.000000	24.588040
1603.000000	24.636300
1604.000000	24.686028
1605.000000	24.737590
1606.000000	24.787427
1607.000000	24.838047
1608.000000	24.887980
1609.000000	24.936950
1610.000000	24.985405
1611.000000	25.032042
1612.000000	25.076483
1613.000000	25.119175
1614.000000	25.158380
1615.000000	25.195182
1616.000000	25.231760
1617.000000	25.265932
1618.000000	25.298755
1619.000000	25.331392
1620.000000	25.361483
1621.000000	25.390200
1622.000000	25.418337
1623.000000	25.445833
1624.000000	25.473595
1625.000000	25.500143
1626.000000	25.526590
1627.000000	25.552868
1628.000000	25.578185
1629.000000	25.603970
1630.000000	25.628545
1631.000000	25.652585
1632.000000	25.676657
1633.000000	25.699320
1634.000000	25.721053
1635.000000	25.741992
1636.000000	25.761335
1637.000000	25.779087
1638.000000	25.795525
1639.000000	25.809468
1640.000000	25.823015
1641.000000	25.834745
1642.000000	25.842935
1643.000000	25.849320
1644.000000	25.853483
1645.000000	25.857432
1646.000000	25.858502
1647.000000	25.857682
1648.000000	25.855248
1649.000000	25.851008
1650.000000	25.844097
1651.000000	25.833813
1652.000000	25.821427
1653.000000	25.806362
1654.000000	25.787763
1655.000000	25.761868
1656.000000	25.732713
1657.000000	25.698442
1658.000000	25.657885
1659.000000	25.609535
1660.000000	25.554807
1661.000000	25.494955
1662.000000	25.429870
1663.000000	25.357627
1664.000000	25.278380
1665.000000	25.193180
1666.000000	25.101402
1667.000000	25.005105
1668.000000	24.901755
1669.000000	24.793805
1670.000000	24.683242
1671.000000	24.568710
1672.000000	24.451675
1673.000000	24.333122
1674.000000	24.215832
1675.000000	24.098910
1676.000000	23.982658
1677.000000	23.865805
1678.000000	23.752650
1679.000000	23.638895
1680.000000	23.524133
1681.000000	23.407657
1682.000000	23.289235
1683.000000	23.171600
1684.000000	23.053278
1685.000000	22.937730
1686.000000	22.828207
1687.000000	22.728445
1688.000000	22.637080
1689.000000	22.562100
1690.000000	22.504290
1691.000000	22.466343
1692.000000	22.448738
1693.000000	22.447952
1694.000000	22.460943
1695.000000	22.486670
1696.000000	22.519480
1697.000000	22.554917
1698.000000	22.595508
1699.000000	22.632660
1700.000000	22.663560
1701.000000	22.687415
1702.000000	22.702352
1703.000000	22.708247
1704.000000	22.706280
1705.000000	22.693918
1706.000000	22.675717
1707.000000	22.649315
1708.000000	22.612502
1709.000000	22.565828
1710.000000	22.510590
1711.000000	22.445840
1712.000000	22.370815
1713.000000	22.286918
1714.000000	22.193302
1715.000000	22.091617
1716.000000	21.979210
1717.000000	21.857950
1718.000000	21.731365
1719.000000	21.603937
1720.000000	21.475893
1721.000000	21.348515
1722.000000	21.228547
1723.000000	21.118507
1724.000000	21.021283
1725.000000	20.939800
1726.000000	20.875305
1727.000000	20.829335
1728.000000	20.800303
1729.000000	20.785847
1730.000000	20.784938
1731.000000	20.799035
1732.000000	20.822032
1733.000000	20.852188
1734.000000	20.888027
1735.000000	20.927792
1736.000000	20.971145
1737.000000	21.017795
1738.000000	21.065517
1739.000000	21.116640
1740.000000	21.171177
1741.000000	21.226427
1742.000000	21.283532
1743.000000	21.342363
1744.000000	21.403232
1745.000000	21.463007
1746.000000	21.521290
1747.000000	21.577102
1748.000000	21.631663
1749.000000	21.683058
1750.000000	21.728887
1751.000000	21.770905
1752.000000	21.807502
1753.000000	21.837882
1754.000000	21.862300
1755.000000	21.883895
1756.000000	21.901142
1757.000000	21.916103
1758.000000	21.926932
1759.000000	21.933490
1760.000000	21.940440
1761.000000	21.946713
1762.000000	21.951835
1763.000000	21.959032
1764.000000	21.967395
1765.000000	21.977163
1766.000000	21.988777
1767.000000	22.001560
1768.000000	22.015923
1769.000000	22.033203
1770.000000	22.051055
1771.000000	22.070755
1772.000000	22.094023
1773.000000	22.117855
1774.000000	22.143440
1775.000000	22.168563
1776.000000	22.193513
1777.000000	22.219092
1778.000000	22.246762
1779.000000	22.275115
1780.000000	22.301853
1781.000000	22.326168
1782.000000	22.347960
1783.000000	22.367510
1784.000000	22.385573
1785.000000	22.401843
1786.000000	22.416145
1787.000000	22.427430
1788.000000	22.435170
1789.000000	22.441055
1790.000000	22.446638
1791.000000	22.453408
1792.000000	22.459687
1793.000000	22.466397
1794.000000	22.474227
1795.000000	22.482913
1796.000000	22.491520
1797.000000	22.500608
1798.000000	22.511175
1799.000000	22.522905
1800.000000	22.537120
1801.000000	22.551803
1802.000000	22.566995
1803.000000	22.581038
1804.000000	22.592678
1805.000000	22.606037
1806.000000	22.622425
1807.000000	22.639907
1808.000000	22.655998
1809.000000	22.670600
1810.000000	22.684223
1811.000000	22.698095
1812.000000	22.712197
1813.000000	22.726963
1814.000000	22.741975
1815.000000	22.755672
1816.000000	22.767000
1817.000000	22.773823
1818.000000	22.777960
1819.000000	22.784263
1820.000000	22.794690
1821.000000	22.806572
1822.000000	22.815532
1823.000000	22.819310
1824.000000	22.819625
1825.000000	22.818630
1826.000000	22.818595
1827.000000	22.824987
1828.000000	22.835725
1829.000000	22.844630
1830.000000	22.852125
1831.000000	22.857345
1832.000000	22.863912
1833.000000	22.873027
1834.000000	22.884252
1835.000000	22.899307
1836.000000	22.920472
1837.000000	22.943270
1838.000000	22.965510
1839.000000	22.990372
1840.000000	23.014717
1841.000000	23.043400
1842.000000	23.073422
1843.000000	23.100270
1844.000000	23.121070
1845.000000	23.135945
1846.000000	23.148467
1847.000000	23.164460
1848.000000	23.186355
1849.000000	23.202542
1850.000000	23.207235
1851.000000	23.200615
1852.000000	23.190402
1853.000000	23.185768
1854.000000	23.190593
1855.000000	23.194243
1856.000000	23.185318
1857.000000	23.166755
1858.000000	23.139632
1859.000000	23.112295
1860.000000	23.090275
1861.000000	23.067978
1862.000000	23.039593
1863.000000	23.000267
1864.000000	22.948045
1865.000000	22.889187
1866.000000	22.828910
1867.000000	22.761163
1868.000000	22.684450
1869.000000	22.602355
1870.000000	22.517022
1871.000000	22.427855
1872.000000	22.335973
1873.000000	22.240797
1874.000000	22.139943
1875.000000	22.031453
1876.000000	21.910920
1877.000000	21.781322
1878.000000	21.639833
1879.000000	21.483982
1880.000000	21.307865
1881.000000	21.114062
1882.000000	20.911290
1883.000000	20.697330
1884.000000	20.474052
1885.000000	20.238962
1886.000000	19.995332
1887.000000	19.736075
1888.000000	19.467135
1889.000000	19.190295
1890.000000	18.907843
1891.000000	18.619750
1892.000000	18.320020
1893.000000	18.011245
1894.000000	17.689447
1895.000000	17.363785
1896.000000	17.031015
1897.000000	16.696805
1898.000000	16.362163
1899.000000	16.025782
1900.000000	15.689837
1901.000000	15.354775
1902.000000	15.022620
1903.000000	14.693487
1904.000000	14.377873
1905.000000	14.069850
1906.000000	13.773965
1907.000000	13.486683
1908.000000	13.211380
1909.000000	12.943780
1910.000000	12.685663
1911.000000	12.442042
1912.000000	12.210958
1913.000000	11.996835
1914.000000	11.790330
1915.000000	11.598052
1916.000000	11.413435
1917.000000	11.240985
1918.000000	11.079522
1919.000000	10.933438
1920.000000	10.797790
1921.000000	10.671935
1922.000000	10.555827
1923.000000	10.447712
1924.000000	10.345812
1925.000000	10.249945
1926.000000	10.169030
1927.000000	10.094888
1928.000000	10.028650
1929.000000	9.965825
1930.000000	9.911900
1931.000000	9.864350
1932.000000	9.817850
1933.000000	9.778842
1934.000000	9.746607
1935.000000	9.719137
1936.000000	9.693560
1937.000000	9.675215
1938.000000	9.659865
1939.000000	9.654903
1940.000000	9.654785
1941.000000	9.657260
1942.000000	9.664720
1943.000000	9.676718
1944.000000	9.697075
1945.000000	9.721015
1946.000000	9.747510
1947.000000	9.777712
1948.000000	9.808943
1949.000000	9.841250
1950.000000	9.875248
1951.000000	9.909522
1952.000000	9.953895
1953.000000	9.997020
1954.000000	10.041270
1955.000000	10.086887
1956.000000	10.136660
1957.000000	10.187877
1958.000000	10.240502
1959.000000	10.293272
1960.000000	10.343658
1961.000000	10.398368
1962.000000	10.448808
1963.000000	10.502028
1964.000000	10.554692
1965.000000	10.606917
1966.000000	10.657332
1967.000000	10.707947
1968.000000	10.759975
1969.000000	10.809510
1970.000000	10.863190
1971.000000	10.918785
1972.000000	10.975290
1973.000000	11.029357
1974.000000	11.083607
1975.000000	11.138972
1976.000000	11.193980
1977.000000	11.249765
1978.000000	11.306035
1979.000000	11.365805
1980.000000	11.421880
1981.000000	11.475302
1982.000000	11.529678
1983.000000	11.583725
1984.000000	11.639688
1985.000000	11.698263
1986.000000	11.757257
1987.000000	11.816525
1988.000000	11.874283
1989.000000	11.928955
1990.000000	11.987005
1991.000000	12.045675
1992.000000	12.102405
1993.000000	12.159225
1994.000000	12.215560
1995.000000	12.267110
1996.000000	12.318600
1997.000000	12.365400
1998.000000	12.412727
1999.000000	12.458753
2000.000000	12.500032
2001.000000	12.538400
2002.000000	12.573477
2003.000000	12.607190
2004.000000	12.634162
2005.000000	12.659930
2006.000000	12.683438
2007.000000	12.708697
2008.000000	12.729020
2009.000000	12.743875
2010.000000	12.757388
2011.000000	12.764298
2012.000000	12.767217
2013.000000	12.763447
2014.000000	12.760442
2015.000000	12.755465
2016.000000	12.747117
2017.000000	12.729020
2018.000000	12.707295
2019.000000	12.685087
2020.000000	12.661478
2021.000000	12.636157
2022.000000	12.606685
2023.000000	12.578005
2024.000000	12.543900
2025.000000	12.503520
2026.000000	12.457427
2027.000000	12.411518
2028.000000	12.359285
2029.000000	12.305060
2030.000000	12.246685
2031.000000	12.184995
2032.000000	12.121002
2033.000000	12.052488
2034.000000	11.982277
2035.000000	11.912080
2036.000000	11.838995
2037.000000	11.757657
2038.000000	11.675587
2039.000000	11.592277
2040.000000	11.506063
2041.000000	11.420890
2042.000000	11.334105
2043.000000	11.247687
2044.000000	11.159750
2045.000000	11.067795
2046.000000	10.977727
2047.000000	10.896648
2048.000000	10.819000
2049.000000	10.742612
2050.000000	10.674473
2051.000000	10.613198
2052.000000	10.560208
2053.000000	10.512405
2054.000000	10.475423
2055.000000	10.449763
2056.000000	10.427760
2057.000000	10.411700
2058.000000	10.407188
2059.000000	10.414730
2060.000000	10.427107
2061.000000	10.447375
2062.000000	10.478827
2063.000000	10.515545
2064.000000	10.560948
2065.000000	10.615190
2066.000000	10.676552
2067.000000	10.743380
2068.000000	10.809632
2069.000000	10.874555
2070.000000	10.941935
2071.000000	11.010998
2072.000000	11.075725
2073.000000	11.140353
2074.000000	11.200017
2075.000000	11.252975
2076.000000	11.305915
2077.000000	11.356602
2078.000000	11.409617
2079.000000	11.461578
2080.000000	11.508065
2081.000000	11.548550
2082.000000	11.586125
2083.000000	11.617745
2084.000000	11.642850
2085.000000	11.664903
2086.000000	11.683517
2087.000000	11.701140
2088.000000	11.714037
2089.000000	11.719050
2090.000000	11.721183
2091.000000	11.719078
2092.000000	11.715860
2093.000000	11.715235
2094.000000	11.710350
2095.000000	11.703323
2096.000000	11.694040
2097.000000	11.686140
2098.000000	11.673578
2099.000000	11.670450
2100.000000	11.675280
2101.000000	11.678025
2102.000000	11.677492
2103.000000	11.674568
2104.000000	11.673650
2105.000000	11.675598
2106.000000	11.690722
2107.000000	11.706658
2108.000000	11.722945
2109.000000	11.727403
2110.000000	11.725865
2111.000000	11.727082
2112.000000	11.732287
2113.000000	11.738350
2114.000000	11.742802
2115.000000	11.748695
2116.000000	11.742820
2117.000000	11.728933
2118.000000	11.717727
2119.000000	11.707955
2120.000000	11.697840
2121.000000	11.683362
2122.000000	11.660365
2123.000000	11.645003
2124.000000	11.642185
2125.000000	11.624638
2126.000000	11.603637
2127.000000	11.585748
2128.000000	11.561613
2129.000000	11.544523
2130.000000	11.521497
2131.000000	11.496358
2132.000000	11.474742
2133.000000	11.435188
2134.000000	11.385130
2135.000000	11.346850
2136.000000	11.306565
2137.000000	11.255510
2138.000000	11.209978
2139.000000	11.161262
2140.000000	11.116660
2141.000000	11.053717
2142.000000	10.985695
2143.000000	10.929010
2144.000000	10.866240
2145.000000	10.790155
2146.000000	10.728210
2147.000000	10.665268
2148.000000	10.601537
2149.000000	10.528583
2150.000000	10.458720
2151.000000	10.401728
2152.000000	10.341348
2153.000000	10.275512
2154.000000	10.207565
2155.000000	10.152423
2156.000000	10.086803
2157.000000	10.032838
2158.000000	9.983028
2159.000000	9.936825
2160.000000	9.882860
2161.000000	9.838912
2162.000000	9.795025
2163.000000	9.757968
2164.000000	9.719995
2165.000000	9.685315
2166.000000	9.646605
2167.000000	9.609085
2168.000000	9.564933
2169.000000	9.525772
2170.000000	9.491135
2171.000000	9.458385
2172.000000	9.427675
2173.000000	9.402015
2174.000000	9.391217
2175.000000	9.370610
2176.000000	9.352673
2177.000000	9.337177
2178.000000	9.326247
2179.000000	9.310438
2180.000000	9.299335
2181.000000	9.295008
2182.000000	9.288342
2183.000000	9.276098
2184.000000	9.267125
2185.000000	9.264278
2186.000000	9.252807
2187.000000	9.248423
2188.000000	9.234940
2189.000000	9.221298
2190.000000	9.197535
2191.000000	9.166193
2192.000000	9.144255
2193.000000	9.119552
2194.000000	9.076103
2195.000000	9.043838
2196.000000	9.020500
2197.000000	8.980245
2198.000000	8.930338
2199.000000	8.885150
2200.000000	8.847333
2201.000000	8.817065
2202.000000	8.776008
2203.000000	8.747333
2204.000000	8.724403
2205.000000	8.678163
2206.000000	8.639725
2207.000000	8.609540
2208.000000	8.602175
2209.000000	8.600748
2210.000000	8.602085
2211.000000	8.593465
2212.000000	8.606115
2213.000000	8.604195
2214.000000	8.612925
2215.000000	8.639775
2216.000000	8.681350
2217.000000	8.724993
2218.000000	8.774093
2219.000000	8.822992
2220.000000	8.877522
2221.000000	8.938895
2222.000000	8.994535
2223.000000	9.037545
2224.000000	9.093490
2225.000000	9.154980
2226.000000	9.201835
2227.000000	9.247463
2228.000000	9.288602
2229.000000	9.328530
2230.000000	9.357860
2231.000000	9.392830
2232.000000	9.427153
2233.000000	9.479945
2234.000000	9.508408
2235.000000	9.522610
2236.000000	9.535265
2237.000000	9.550923
2238.000000	9.555257
2239.000000	9.544588
2240.000000	9.536708
2241.000000	9.528772
2242.000000	9.513248
2243.000000	9.494645
2244.000000	9.466360
2245.000000	9.437093
2246.000000	9.395293
2247.000000	9.346090
2248.000000	9.304290
2249.000000	9.266085
2250.000000	9.214735
2251.000000	9.149640
2252.000000	9.080018
2253.000000	9.003650
2254.000000	8.936630
2255.000000	8.874885
2256.000000	8.819300
2257.000000	8.766615
2258.000000	8.707812
2259.000000	8.650435
2260.000000	8.598385
2261.000000	8.549177
2262.000000	8.505015
2263.000000	8.466585
2264.000000	8.433352
2265.000000	8.403250
2266.000000	8.370040
2267.000000	8.332390
2268.000000	8.297160
2269.000000	8.273528
2270.000000	8.265625
2271.000000	8.254017
2272.000000	8.241710
2273.000000	8.232300
2274.000000	8.229055
2275.000000	8.229108
2276.000000	8.226047
2277.000000	8.235395
2278.000000	8.245247
2279.000000	8.242208
2280.000000	8.231285
2281.000000	8.235050
2282.000000	8.246507
2283.000000	8.251660
2284.000000	8.260105
2285.000000	8.261472
2286.000000	8.266863
2287.000000	8.264460
2288.000000	8.273815
2289.000000	8.289845
2290.000000	8.304018
2291.000000	8.311210
2292.000000	8.309372
2293.000000	8.316620
2294.000000	8.331743
2295.000000	8.343592
2296.000000	8.352638
2297.000000	8.358147
2298.000000	8.355145
2299.000000	8.351527
2300.000000	8.357810
2301.000000	8.366575
2302.000000	8.384540
2303.000000	8.406823
2304.000000	8.417632
2305.000000	8.430700
2306.000000	8.446970
2307.000000	8.465640
2308.000000	8.491153
2309.000000	8.525108
2310.000000	8.554977
2311.000000	8.583543
2312.000000	8.610720
2313.000000	8.626910
2314.000000	8.641522
2315.000000	8.661178
2316.000000	8.685993
2317.000000	8.723620
2318.000000	8.754610
2319.000000	8.774093
2320.000000	8.784215
2321.000000	8.790167
2322.000000	8.805643
2323.000000	8.831270
2324.000000	8.861508
2325.000000	8.892902
2326.000000	8.925020
2327.000000	8.929787
2328.000000	8.920663
2329.000000	8.921428
2330.000000	8.933537
2331.000000	8.943708
2332.000000	8.935500
2333.000000	8.929700
2334.000000	8.920013
2335.000000	8.907035
2336.000000	8.892875
2337.000000	8.890410
2338.000000	8.909648
2339.000000	8.922073
2340.000000	8.931432
2341.000000	8.954665
2342.000000	8.996073
2343.000000	9.024405
2344.000000	9.041977
2345.000000	9.067592
2346.000000	9.102335
2347.000000	9.145757
2348.000000	9.182453
2349.000000	9.209293
2350.000000	9.239113
2351.000000	9.255845
2352.000000	9.243620
2353.000000	9.240467
2354.000000	9.266420
2355.000000	9.283545
2356.000000	9.283610
2357.000000	9.284760
2358.000000	9.287772
2359.000000	9.307643
2360.000000	9.328122
2361.000000	9.369198
2362.000000	9.438807
2363.000000	9.496107
2364.000000	9.527492
2365.000000	9.546205
2366.000000	9.570585
2367.000000	9.584550
2368.000000	9.588915
2369.000000	9.601497
2370.000000	9.615013
2371.000000	9.616272
2372.000000	9.600303
2373.000000	9.587788
2374.000000	9.575640
2375.000000	9.588440
2376.000000	9.605093
2377.000000	9.629878
2378.000000	9.656358
2379.000000	9.654277
2380.000000	9.651760
2381.000000	9.660245
2382.000000	9.700690
2383.000000	9.739290
2384.000000	9.771400
2385.000000	9.790392
2386.000000	9.814005
2387.000000	9.840357
2388.000000	9.855358
2389.000000	9.884037
2390.000000	9.904077
2391.000000	9.899173
2392.000000	9.872765
2393.000000	9.856780
2394.000000	9.856942
2395.000000	9.857198
2396.000000	9.857208
2397.000000	9.851142
2398.000000	9.858925
2399.000000	9.858960
2400.000000	9.863735
2401.000000	9.880250
2402.000000	9.879772
2403.000000	9.901053
2404.000000	9.896737
2405.000000	9.897215
2406.000000	9.905513
2407.000000	9.899847
2408.000000	9.895212
2409.000000	9.882040
2410.000000	9.839158
2411.000000	9.821082
2412.000000	9.817335
2413.000000	9.802655
2414.000000	9.785878
2415.000000	9.769608
2416.000000	9.753077
2417.000000	9.760875
2418.000000	9.749948
2419.000000	9.749427
2420.000000	9.772102
2421.000000	9.744447
2422.000000	9.701295
2423.000000	9.660853
2424.000000	9.655102
2425.000000	9.611477
2426.000000	9.585447
2427.000000	9.518345
2428.000000	9.461920
2429.000000	9.421308
2430.000000	9.369272
2431.000000	9.337170
2432.000000	9.310128
2433.000000	9.297352
2434.000000	9.249415
2435.000000	9.235983
2436.000000	9.182845
2437.000000	9.167768
2438.000000	9.150268
2439.000000	9.136672
2440.000000	9.112343
2441.000000	9.094965
2442.000000	9.086975
2443.000000	9.057137
2444.000000	9.054598
2445.000000	9.021088
2446.000000	8.983015
2447.000000	8.963847
2448.000000	8.982710
2449.000000	8.982715
2450.000000	8.962975
2451.000000	8.945545
2452.000000	8.948407
2453.000000	8.927153
2454.000000	8.917377
2455.000000	8.895808
2456.000000	8.913970
2457.000000	8.891792
2458.000000	8.858292
2459.000000	8.822737
2460.000000	8.861630
2461.000000	8.859395
2462.000000	8.876330
2463.000000	8.928992
2464.000000	8.967875
2465.000000	9.046960
2466.000000	9.142120
2467.000000	9.243080
2468.000000	9.284623
2469.000000	9.387305
2470.000000	9.490032
2471.000000	9.627505
2472.000000	9.708010
2473.000000	9.801877
2474.000000	9.879375
2475.000000	9.999600
2476.000000	10.024113
2477.000000	10.074640
2478.000000	10.238810
2479.000000	10.329235
2480.000000	10.456133
2481.000000	10.587858
2482.000000	10.731730
2483.000000	10.901992
2484.000000	11.021970
2485.000000	11.124522
2486.000000	11.352673
2487.000000	11.594038
2488.000000	11.796968
2489.000000	11.970852
2490.000000	12.004532
2491.000000	12.063532
2492.000000	12.165133
2493.000000	12.205350
2494.000000	12.332320
2495.000000	12.498638
2496.000000	12.687123
2497.000000	12.918033
2498.000000	13.027000
2499.000000	13.245518
2500.000000	13.528220
2501.000000	17.613243
2502.000000	21.226775
2503.000000	24.896313
2504.000000	28.441460
2505.000000	32.204588
2506.000000	36.004567
2507.000000	39.867927
2508.000000	44.201162
2509.000000	48.182207
2510.000000	52.350660
2511.000000	52.837600
2512.000000	53.891620
2513.000000	55.137380
2514.000000	56.633510
2515.000000	57.787670
2516.000000	58.366290
2517.000000	59.427890
2518.000000	60.550910
2519.000000	61.634540
2520.000000	62.530630
2521.000000	63.504560
2522.000000	64.475010
2523.000000	65.306950
2524.000000	65.655320
2525.000000	65.961220
2526.000000	67.068980
2527.000000	67.939530
2528.000000	68.124830
2529.000000	69.045950
2530.000000	70.474580
2531.000000	71.160170
2532.000000	71.856870
2533.000000	72.540240
2534.000000	73.980890
2535.000000	75.559600
2536.000000	76.333050
2537.000000	76.638400
2538.000000	77.643320
2539.000000	78.613020
2540.000000	79.261840
2541.000000	80.250420
2542.000000	81.218340
2543.000000	82.244790
2544.000000	82.636790
2545.000000	83.145880
2546.000000	84.702010
2547.000000	86.533750
2548.000000	87.052340
2549.000000	87.152350
2550.000000	87.597080
2551.000000	88.224250
2552.000000	88.506070
2553.000000	89.135210
2554.000000	90.093820
2555.000000	90.567330
2556.000000	90.066310
2557.000000	89.703480
2558.000000	90.525860
2559.000000	91.497740
2560.000000	91.755620
2561.000000	91.847000
2562.000000	92.597620
2563.000000	93.375920
2564.000000	93.386280
2565.000000	93.542280
2566.000000	95.031870
2567.000000	96.481840
2568.000000	96.730000
2569.000000	96.372800
2570.000000	96.430020
2571.000000	97.267410
2572.000000	97.322110
2573.000000	96.901040
2574.000000	97.389140
2575.000000	97.821670
2576.000000	97.162100
2577.000000	95.770730
2578.000000	94.993640
2579.000000	95.690080
2580.000000	96.216690
2581.000000	95.960250
2582.000000	96.290900
2583.000000	97.190130
2584.000000	97.577570
2585.000000	97.518620
2586.000000	98.003230
2587.000000	98.860140
2588.000000	99.761640
2589.000000	99.737140
2590.000000	99.690730
2591.000000	100.321840
2592.000000	100.546020
2593.000000	99.675990
2594.000000	99.335250
2595.000000	100.233380
2596.000000	100.539400
2597.000000	100.232990
2598.000000	100.263160
2599.000000	100.827270
2600.000000	101.374720
2601.000000	101.164440
2602.000000	100.910930
2603.000000	101.656230
2604.000000	102.100150
2605.000000	101.116830
2606.000000	100.470900
2607.000000	101.201670
2608.000000	102.161380
2609.000000	101.614340
2610.000000	100.166550
2611.000000	99.992180
2612.000000	100.408800
2613.000000	99.664120
2614.000000	99.202640
2615.000000	100.000770
2616.000000	100.304560
2617.000000	99.626170
2618.000000	98.760730
2619.000000	99.797680
2620.000000	101.344120
2621.000000	101.160800
2622.000000	100.928550
2623.000000	101.428450
2624.000000	101.850990
2625.000000	101.907330
2626.000000	102.257100
2627.000000	103.040280
2628.000000	103.562490
2629.000000	102.546250
2630.000000	101.429940
2631.000000	101.705440
2632.000000	102.982820
2633.000000	103.166790
2634.000000	102.149980
2635.000000	101.485810
2636.000000	101.570110
2637.000000	101.218890
2638.000000	100.837240
2639.000000	100.861940
2640.000000	101.969970
2641.000000	101.812350
2642.000000	100.009460
2643.000000	99.408700
2644.000000	100.348550
2645.000000	100.300770
2646.000000	99.510500
2647.000000	99.216770
2648.000000	99.247430
2649.000000	99.235850
2650.000000	98.397020
2651.000000	98.567230
2652.000000	98.963750
2653.000000	99.119500
2654.000000	98.593590
2655.000000	98.906530
2656.000000	100.048490
2657.000000	100.098090
2658.000000	99.872530
2659.000000	100.013100
2660.000000	100.482740
2661.000000	100.558010
2662.000000	100.508590
2663.000000	100.420520
2664.000000	100.494220
2665.000000	100.151700
2666.000000	99.247220
2667.000000	99.444030
2668.000000	99.644670
2669.000000	99.644670
2670.000000	99.871070
2671.000000	99.358240
2672.000000	99.991370
2673.000000	100.823670
2674.000000	100.995130
2675.000000	101.187190
2676.000000	101.849960
2677.000000	101.687370
2678.000000	101.932650
2679.000000	102.240380
2680.000000	102.298580
2681.000000	102.866910
2682.000000	102.326210
2683.000000	101.628540
2684.000000	101.706830
2685.000000	102.126020
2686.000000	101.502280
2687.000000	101.886880
2688.000000	101.203750
2689.000000	101.224060
2690.000000	100.558030
2691.000000	99.828520
2692.000000	99.711230
2693.000000	100.477150
2694.000000	100.629640
2695.000000	100.725810
2696.000000	100.978610
2697.000000	100.664960
2698.000000	100.822150
2699.000000	100.710460
2700.000000	101.023210
2701.000000	102.464730
2702.000000	103.276330
2703.000000	102.717540
2704.000000	102.711590
2705.000000	102.639040
2706.000000	102.742460
2707.000000	102.616070
2708.000000	103.124150
2709.000000	103.666070
2710.000000	103.451450
2711.000000	102.650180
2712.000000	101.939270
2713.000000	101.480800
2714.000000	101.928160
2715.000000	101.683490
2716.000000	101.105960
2717.000000	102.164370
2718.000000	102.241020
2719.000000	101.024570
2720.000000	101.031150
2721.000000	101.439850
2722.000000	101.453920
2723.000000	101.705270
2724.000000	101.281970
2725.000000	102.495640
2726.000000	103.536270
2727.000000	103.039460
2728.000000	103.180280
2729.000000	103.507820
2730.000000	104.094920
2731.000000	103.575620
2732.000000	104.415210
2733.000000	104.752800
2734.000000	104.058670
2735.000000	102.495430
2736.000000	101.905530
2737.000000	101.922330
2738.000000	102.530090
2739.000000	103.459640
2740.000000	103.044830
2741.000000	103.198130
2742.000000	102.640220
2743.000000	102.311750
2744.000000	103.027290
2745.000000	103.598510
2746.000000	103.156830
2747.000000	102.558560
2748.000000	102.049260
2749.000000	101.555370
2750.000000	102.365520
2751.000000	102.071340
2752.000000	101.783200
2753.000000	102.065900
2754.000000	101.473450
2755.000000	100.971490
2756.000000	101.666490
2757.000000	101.917250
2758.000000	101.156960
2759.000000	100.269520
2760.000000	99.321160
2761.000000	99.413290
2762.000000	99.018290
2763.000000	98.945710
2764.000000	99.876950
2765.000000	100.714380
2766.000000	100.536420
2767.000000	100.204060
2768.000000	100.857210
2769.000000	102.981010
2770.000000	102.958250
2771.000000	102.732790
2772.000000	103.056240
2773.000000	103.356950
2774.000000	102.678060
2775.000000	101.057870
2776.000000	100.738710
2777.000000	101.295080
2778.000000	101.298130
2779.000000	99.617090
2780.000000	100.336970
2781.000000	100.700950
2782.000000	100.595080
2783.000000	99.904930
2784.000000	99.760440
2785.000000	101.193270
2786.000000	101.882370
2787.000000	100.935720
2788.000000	100.943500
2789.000000	101.344630
2790.000000	101.024180
2791.000000	101.225420
2792.000000	100.790550
2793.000000	101.164710
2794.000000	101.396930
2795.000000	101.618190
2796.000000	101.329770
2797.000000	102.662410
2798.000000	102.401590
2799.000000	102.486590
2800.000000	102.970250
2801.000000	102.676430
2802.000000	103.384630
2803.000000	102.705540
2804.000000	102.876260
2805.000000	101.701090
2806.000000	100.537910
2807.000000	99.741900
2808.000000	99.930860
2809.000000	100.235540
2810.000000	99.394250
2811.000000	100.174130
2812.000000	100.640740
2813.000000	101.155280
2814.000000	101.115500
2815.000000	101.900280
2816.000000	103.026500
2817.000000	103.500660
2818.000000	103.172480
2819.000000	102.905600
2820.000000	103.728750
2821.000000	103.638290
2822.000000	103.450310
2823.000000	103.817470
2824.000000	103.631340
2825.000000	103.722800
2826.000000	104.327270
2827.000000	104.351310
2828.000000	104.171770
2829.000000	103.278690
2830.000000	102.350960
2831.000000	101.750700
2832.000000	100.962730
2833.000000	99.871400
2834.000000	100.083060
2835.000000	99.964260
2836.000000	98.576810
2837.000000	97.428300
2838.000000	97.203810
2839.000000	97.865560
2840.000000	98.351750
2841.000000	98.525090
2842.000000	99.256680
2843.000000	100.707210
2844.000000	100.654170
2845.000000	99.982820
2846.000000	100.499380
2847.000000	101.525270
2848.000000	102.167140
2849.000000	102.545020
2850.000000	102.333150
2851.000000	101.890210
2852.000000	101.802700
2853.000000	100.912950
2854.000000	100.346360
2855.000000	100.753900
2856.000000	100.952890
2857.000000	101.478330
2858.000000	101.498110
2859.000000	100.309890
2860.000000	100.234980
2861.000000	100.484170
2862.000000	100.154070
2863.000000	100.088970
2864.000000	100.647660
2865.000000	101.056150
2866.000000	100.984980
2867.000000	100.594640
2868.000000	100.625540
2869.000000	101.146110
2870.000000	101.117280
2871.000000	100.845060
2872.000000	100.589570
2873.000000	100.547420
2874.000000	100.044940
2875.000000	99.392310
2876.000000	99.354540
2877.000000	98.812370
2878.000000	98.333930
2879.000000	99.004580
2880.000000	99.215320
2881.000000	98.949650
2882.000000	99.018800
2883.000000	99.166110
2884.000000	100.713340
2885.000000	101.646550
2886.000000	100.925140
2887.000000	101.391340
2888.000000	101.741600
2889.000000	100.765230
2890.000000	100.249810
2891.000000	100.958860
2892.000000	101.114700
2893.000000	100.855330
2894.000000	99.683790
2895.000000	99.083730
2896.000000	99.434620
2897.000000	99.072660
2898.000000	99.545480
2899.000000	100.017280
2900.000000	99.896360
2901.000000	99.399310
2902.000000	99.634260
2903.000000	100.179210
2904.000000	100.380270
2905.000000	100.330830
2906.000000	100.805060
2907.000000	101.329120
2908.000000	101.555600
2909.000000	102.018880
2910.000000	103.241690
2911.000000	103.440270
2912.000000	102.918980
2913.000000	102.625840
2914.000000	102.522670
2915.000000	102.673850
2916.000000	102.418190
2917.000000	102.396850
2918.000000	102.036630
2919.000000	101.315050
2920.000000	100.009480
2921.000000	100.507310
2922.000000	101.485470
2923.000000	102.113740
2924.000000	102.501450
2925.000000	102.836930
2926.000000	102.905750
2927.000000	101.761750
2928.000000	101.181420
2929.000000	101.612700
2930.000000	102.214240
2931.000000	102.215830
2932.000000	102.132380
2933.000000	101.815250
2934.000000	100.532610
2935.000000	99.290760
2936.000000	99.311830
2937.000000	100.006540
2938.000000	99.011380
2939.000000	98.750970
2940.000000	98.464720
2941.000000	97.924690
2942.000000	97.542540
2943.000000	97.801290
2944.000000	98.698860
2945.000000	99.768330
2946.000000	99.575990
2947.000000	99.945220
2948.000000	101.430950
2949.000000	100.567150
2950.000000	100.173880
2951.000000	100.176610
2952.000000	100.172020
2953.000000	99.823770
2954.000000	99.978590
2955.000000	100.640470
2956.000000	101.096380
2957.000000	99.992280
2958.000000	100.142230
2959.000000	101.215760
2960.000000	101.621670
2961.000000	101.910420
2962.000000	101.600660
2963.000000	101.305500
2964.000000	100.638170
2965.000000	100.405830
2966.000000	100.096390
2967.000000	101.107760
2968.000000	100.398550
2969.000000	100.616610
2970.000000	101.556880
2971.000000	101.792080
2972.000000	102.033040
2973.000000	102.916440
2974.000000	103.802440
2975.000000	102.590770
2976.000000	103.262400
2977.000000	103.414040
2978.000000	103.252850
2979.000000	103.285820
2980.000000	103.038440
2981.000000	102.906870
2982.000000	103.324710
2983.000000	102.021650
2984.000000	102.574800
2985.000000	102.708540
2986.000000	102.488060
2987.000000	102.594530
2988.000000	102.852440
2989.000000	102.310040
2990.000000	101.106970
2991.000000	101.105560
2992.000000	100.129760
2993.000000	100.956580
2994.000000	100.781910
2995.000000	101.520610
2996.000000	101.599090
2997.000000	100.471520
2998.000000	101.859790
2999.000000	101.883310
3000.000000	102.475070
