PE UV       SUBTECH     SPECTRUM    ASCII       PEDS        4.00        
   -1
INBUCR0216-4.Sample.ASC
24/02/08
09:52:45.00
24/02/08
09:52:45.00
Vinicio Soto Monge
Coopelares, Sector Las Pailas, Prov Guanacaste. COSTA RICA. 1600 m. 24 JUN-10 JUL 1995. K. Taylor L_N_311400_389400 #6199. INBIOCRI002426713.
250,000000
1
Lambda 1050
1050L1511233
PerkinElmer UV WinLab 6.3.2.0749 / 2.02.05 Lambda 900 UV/VIS/NIR, Aug  7 2015 09:38:08

0
0
3350/servo 860,8/2
0
0
UV/VIS
1
1
1
DoubleDePol,CommonBeamDepol,RBeamAtt,SBeamAtt,60mm sphere, WB InGaAs Detector
0
0
0
0
Program
Program
3350/servo 860,8/2
3350/0,2 860,8/0,2
3350/0,2 860,8/0,2
0
15.00
 
 
 
0
 
860,8
319,2
860,8
Front
100
on
S:100 R:100
0
0
0
0
 
0
 
 
 
0
 
 
0
0
0
0
0
 
 
 
 
0
0


0
0
#HDR
-1
-1
#GR
nm
%R
1.0
0.0
2500,000000
-1,000000
2251
8
14,336900
1,328200
#DATA

250.000000	nan
251.000000	nan
252.000000	nan
253.000000	nan
254.000000	nan
255.000000	nan
256.000000	nan
257.000000	nan
258.000000	nan
259.000000	4.195480
260.000000	4.182828
261.000000	4.169935
262.000000	4.154610
263.000000	4.140702
264.000000	4.124070
265.000000	4.107818
266.000000	4.091773
267.000000	4.076599
268.000000	4.059761
269.000000	4.046364
270.000000	4.031282
271.000000	4.015274
272.000000	4.000231
273.000000	3.986804
274.000000	3.974610
275.000000	3.963742
276.000000	3.951960
277.000000	3.942975
278.000000	3.933412
279.000000	3.922790
280.000000	3.914680
281.000000	3.909080
282.000000	3.903196
283.000000	3.897495
284.000000	3.894297
285.000000	3.890328
286.000000	3.887025
287.000000	3.882774
288.000000	3.881211
289.000000	3.881230
290.000000	3.879739
291.000000	3.876933
292.000000	3.876308
293.000000	3.875008
294.000000	3.871855
295.000000	3.871234
296.000000	3.872970
297.000000	3.872000
298.000000	3.869118
299.000000	3.865666
300.000000	3.863840
301.000000	3.862763
302.000000	3.860857
303.000000	3.858748
304.000000	3.857488
305.000000	3.854883
306.000000	3.849247
307.000000	3.846123
308.000000	3.843289
309.000000	3.841572
310.000000	3.835911
311.000000	3.830809
312.000000	3.827881
313.000000	3.826615
314.000000	3.823742
315.000000	3.821872
316.000000	3.820690
317.000000	3.836345
318.000000	3.847962
319.000000	3.867788
320.000000	3.894771
321.000000	3.912618
322.000000	3.932007
323.000000	3.944383
324.000000	3.962499
325.000000	3.969640
326.000000	3.984410
327.000000	3.980106
328.000000	3.984622
329.000000	3.973680
330.000000	3.962219
331.000000	3.960173
332.000000	3.952062
333.000000	3.949566
334.000000	3.941958
335.000000	3.947184
336.000000	3.943666
337.000000	3.941540
338.000000	3.934557
339.000000	3.934910
340.000000	3.933511
341.000000	3.933195
342.000000	3.933795
343.000000	3.931256
344.000000	3.930420
345.000000	3.928783
346.000000	3.930691
347.000000	3.935239
348.000000	3.938686
349.000000	3.938240
350.000000	3.940188
351.000000	3.942509
352.000000	3.948832
353.000000	3.955456
354.000000	3.960759
355.000000	3.965390
356.000000	3.969953
357.000000	3.973135
358.000000	3.975727
359.000000	3.979072
360.000000	3.981019
361.000000	3.980396
362.000000	3.977763
363.000000	3.979898
364.000000	3.979593
365.000000	3.974807
366.000000	3.970986
367.000000	3.966051
368.000000	3.963286
369.000000	3.963554
370.000000	3.961849
371.000000	3.959697
372.000000	3.955600
373.000000	3.949786
374.000000	3.948233
375.000000	3.947361
376.000000	3.948320
377.000000	3.943142
378.000000	3.938285
379.000000	3.932027
380.000000	3.926194
381.000000	3.921466
382.000000	3.918837
383.000000	3.916043
384.000000	3.912176
385.000000	3.910552
386.000000	3.905248
387.000000	3.907450
388.000000	3.910227
389.000000	3.912921
390.000000	3.915499
391.000000	3.917738
392.000000	3.920617
393.000000	3.923030
394.000000	3.925521
395.000000	3.928264
396.000000	3.931213
397.000000	3.933698
398.000000	3.935465
399.000000	3.937774
400.000000	3.940524
401.000000	3.943156
402.000000	3.945420
403.000000	3.949047
404.000000	3.952378
405.000000	3.956116
406.000000	3.959127
407.000000	3.962277
408.000000	3.966103
409.000000	3.969731
410.000000	3.973228
411.000000	3.977276
412.000000	3.981784
413.000000	3.985646
414.000000	3.989461
415.000000	3.993573
416.000000	3.998547
417.000000	4.003542
418.000000	4.008171
419.000000	4.013245
420.000000	4.018290
421.000000	4.023081
422.000000	4.027589
423.000000	4.032426
424.000000	4.037954
425.000000	4.043364
426.000000	4.048270
427.000000	4.053290
428.000000	4.058704
429.000000	4.064202
430.000000	4.069878
431.000000	4.075603
432.000000	4.081664
433.000000	4.088043
434.000000	4.094497
435.000000	4.101278
436.000000	4.108020
437.000000	4.114759
438.000000	4.121888
439.000000	4.128944
440.000000	4.136076
441.000000	4.143594
442.000000	4.150972
443.000000	4.158440
444.000000	4.165616
445.000000	4.172683
446.000000	4.180553
447.000000	4.188333
448.000000	4.195512
449.000000	4.202840
450.000000	4.210495
451.000000	4.218327
452.000000	4.226052
453.000000	4.233653
454.000000	4.241548
455.000000	4.249814
456.000000	4.258084
457.000000	4.267080
458.000000	4.276360
459.000000	4.285711
460.000000	4.295407
461.000000	4.305280
462.000000	4.315510
463.000000	4.326372
464.000000	4.338009
465.000000	4.349437
466.000000	4.361502
467.000000	4.374388
468.000000	4.388275
469.000000	4.402891
470.000000	4.418030
471.000000	4.434277
472.000000	4.451834
473.000000	4.470190
474.000000	4.489250
475.000000	4.509944
476.000000	4.531819
477.000000	4.554469
478.000000	4.578151
479.000000	4.603429
480.000000	4.630478
481.000000	4.658666
482.000000	4.688284
483.000000	4.720473
484.000000	4.755546
485.000000	4.793746
486.000000	4.834928
487.000000	4.879503
488.000000	4.928359
489.000000	4.981818
490.000000	5.040665
491.000000	5.105273
492.000000	5.176190
493.000000	5.254064
494.000000	5.339175
495.000000	5.432302
496.000000	5.535099
497.000000	5.649155
498.000000	5.775187
499.000000	5.914311
500.000000	6.069158
501.000000	6.242862
502.000000	6.437425
503.000000	6.655447
504.000000	6.900901
505.000000	7.177587
506.000000	7.490069
507.000000	7.842491
508.000000	8.240014
509.000000	8.688470
510.000000	9.192129
511.000000	9.755125
512.000000	10.380381
513.000000	11.069790
514.000000	11.823832
515.000000	12.642278
516.000000	13.521391
517.000000	14.455477
518.000000	15.436966
519.000000	16.455437
520.000000	17.497244
521.000000	18.546186
522.000000	19.586025
523.000000	20.597974
524.000000	21.562258
525.000000	22.461989
526.000000	23.284364
527.000000	24.020080
528.000000	24.663591
529.000000	25.213178
530.000000	25.671965
531.000000	26.045847
532.000000	26.344326
533.000000	26.577292
534.000000	26.759465
535.000000	26.901742
536.000000	27.013915
537.000000	27.105492
538.000000	27.181834
539.000000	27.247294
540.000000	27.304630
541.000000	27.356637
542.000000	27.402962
543.000000	27.447546
544.000000	27.489552
545.000000	27.531336
546.000000	27.572126
547.000000	27.611306
548.000000	27.649985
549.000000	27.687450
550.000000	27.724609
551.000000	27.760567
552.000000	27.796990
553.000000	27.831503
554.000000	27.865287
555.000000	27.894928
556.000000	27.923213
557.000000	27.949535
558.000000	27.973158
559.000000	27.993971
560.000000	27.993865
561.000000	27.989039
562.000000	27.980020
563.000000	27.969186
564.000000	27.954846
565.000000	27.937615
566.000000	27.917229
567.000000	27.894042
568.000000	27.867970
569.000000	27.839818
570.000000	27.825573
571.000000	27.809562
572.000000	27.790560
573.000000	27.766093
574.000000	27.736279
575.000000	27.702088
576.000000	27.659675
577.000000	27.608833
578.000000	27.551422
579.000000	27.486312
580.000000	27.412307
581.000000	27.327748
582.000000	27.233181
583.000000	27.128652
584.000000	27.015530
585.000000	26.892782
586.000000	26.764399
587.000000	26.635268
588.000000	26.504910
589.000000	26.381195
590.000000	26.271417
591.000000	26.180032
592.000000	26.108229
593.000000	26.053772
594.000000	26.009589
595.000000	25.968791
596.000000	25.921729
597.000000	25.858486
598.000000	25.774295
599.000000	25.659112
600.000000	25.507589
601.000000	25.318956
602.000000	25.093665
603.000000	24.844379
604.000000	24.587817
605.000000	24.345993
606.000000	24.141373
607.000000	23.991505
608.000000	23.901934
609.000000	23.869410
610.000000	23.880741
611.000000	23.920917
612.000000	23.974522
613.000000	24.023895
614.000000	24.051115
615.000000	24.040654
616.000000	23.977594
617.000000	23.852570
618.000000	23.670184
619.000000	23.446051
620.000000	23.205397
621.000000	22.976995
622.000000	22.791025
623.000000	22.668103
624.000000	22.621253
625.000000	22.647938
626.000000	22.737597
627.000000	22.873420
628.000000	23.036624
629.000000	23.203014
630.000000	23.351654
631.000000	23.461321
632.000000	23.511412
633.000000	23.488298
634.000000	23.390220
635.000000	23.228589
636.000000	23.023156
637.000000	22.802442
638.000000	22.593829
639.000000	22.428548
640.000000	22.328935
641.000000	22.308766
642.000000	22.368190
643.000000	22.502348
644.000000	22.693758
645.000000	22.919719
646.000000	23.158714
647.000000	23.383926
648.000000	23.573443
649.000000	23.705256
650.000000	23.764035
651.000000	23.742450
652.000000	23.647630
653.000000	23.493090
654.000000	23.303820
655.000000	23.107761
656.000000	22.930258
657.000000	22.797739
658.000000	22.727319
659.000000	22.730987
660.000000	22.812351
661.000000	22.965125
662.000000	23.176857
663.000000	23.429369
664.000000	23.700370
665.000000	23.967440
666.000000	24.210153
667.000000	24.408424
668.000000	24.549154
669.000000	24.624272
670.000000	24.632407
671.000000	24.583411
672.000000	24.491824
673.000000	24.377022
674.000000	24.260876
675.000000	24.160871
676.000000	24.094982
677.000000	24.074008
678.000000	24.107883
679.000000	24.201524
680.000000	24.354069
681.000000	24.557970
682.000000	24.800973
683.000000	25.068459
684.000000	25.342155
685.000000	25.605133
686.000000	25.843966
687.000000	26.048099
688.000000	26.208745
689.000000	26.322964
690.000000	26.391350
691.000000	26.418586
692.000000	26.416053
693.000000	26.393730
694.000000	26.365632
695.000000	26.346348
696.000000	26.345310
697.000000	26.373455
698.000000	26.436288
699.000000	26.536136
700.000000	26.673503
701.000000	26.845880
702.000000	27.045282
703.000000	27.264562
704.000000	27.493409
705.000000	27.720995
706.000000	27.936758
707.000000	28.132606
708.000000	28.303159
709.000000	28.443835
710.000000	28.553056
711.000000	28.635247
712.000000	28.694788
713.000000	28.737232
714.000000	28.767784
715.000000	28.794527
716.000000	28.826268
717.000000	28.867435
718.000000	28.921287
719.000000	28.991369
720.000000	29.079605
721.000000	29.184068
722.000000	29.301780
723.000000	29.430514
724.000000	29.568228
725.000000	29.710476
726.000000	29.852176
727.000000	29.991223
728.000000	30.123879
729.000000	30.247670
730.000000	30.360267
731.000000	30.460740
732.000000	30.550020
733.000000	30.629382
734.000000	30.699921
735.000000	30.763297
736.000000	30.823298
737.000000	30.877295
738.000000	30.929931
739.000000	30.983704
740.000000	31.039381
741.000000	31.100126
742.000000	31.167133
743.000000	31.240983
744.000000	31.321352
745.000000	31.408558
746.000000	31.499587
747.000000	31.596755
748.000000	31.697057
749.000000	31.797602
750.000000	31.897989
751.000000	31.993759
752.000000	32.082953
753.000000	32.165834
754.000000	32.241036
755.000000	32.309027
756.000000	32.368108
757.000000	32.420318
758.000000	32.467500
759.000000	32.510956
760.000000	32.555044
761.000000	32.602182
762.000000	32.657428
763.000000	32.716838
764.000000	32.782021
765.000000	32.857298
766.000000	32.942334
767.000000	33.036350
768.000000	33.135100
769.000000	33.236167
770.000000	33.336697
771.000000	33.434346
772.000000	33.523142
773.000000	33.606695
774.000000	33.683902
775.000000	33.751041
776.000000	33.808530
777.000000	33.857405
778.000000	33.902739
779.000000	33.946502
780.000000	33.991211
781.000000	34.038226
782.000000	34.088088
783.000000	34.140936
784.000000	34.201550
785.000000	34.266391
786.000000	34.337684
787.000000	34.411836
788.000000	34.488993
789.000000	34.566305
790.000000	34.644302
791.000000	34.715346
792.000000	34.783321
793.000000	34.846018
794.000000	34.902254
795.000000	34.952642
796.000000	34.998815
797.000000	35.042092
798.000000	35.082517
799.000000	35.121631
800.000000	35.160819
801.000000	35.208162
802.000000	35.262054
803.000000	35.320588
804.000000	35.383517
805.000000	35.453557
806.000000	35.527586
807.000000	35.609429
808.000000	35.695031
809.000000	35.786417
810.000000	35.873175
811.000000	35.956818
812.000000	36.038596
813.000000	36.121158
814.000000	36.198533
815.000000	36.275668
816.000000	36.351344
817.000000	36.424529
818.000000	36.498737
819.000000	36.571283
820.000000	36.649744
821.000000	36.727652
822.000000	36.806384
823.000000	36.885168
824.000000	36.965357
825.000000	37.040018
826.000000	37.118181
827.000000	37.199467
828.000000	37.273259
829.000000	37.345437
830.000000	37.414149
831.000000	37.485923
832.000000	37.551087
833.000000	37.611679
834.000000	37.680277
835.000000	37.750829
836.000000	37.820924
837.000000	37.874935
838.000000	37.933563
839.000000	37.988399
840.000000	38.042906
841.000000	38.100804
842.000000	38.159076
843.000000	38.217672
844.000000	38.269312
845.000000	38.321910
846.000000	38.361944
847.000000	38.400259
848.000000	38.440303
849.000000	38.485225
850.000000	38.526685
851.000000	38.556599
852.000000	38.587376
853.000000	38.628930
854.000000	38.667880
855.000000	38.696081
856.000000	38.722919
857.000000	38.771871
858.000000	38.724656
859.000000	38.836453
860.000000	38.943505
861.000000	39.064497
862.000000	39.213459
863.000000	39.329880
864.000000	39.451625
865.000000	39.589101
866.000000	39.738479
867.000000	39.855385
868.000000	40.056247
869.000000	40.089113
870.000000	40.110990
871.000000	40.136138
872.000000	40.126902
873.000000	40.134585
874.000000	40.120530
875.000000	40.105643
876.000000	40.080262
877.000000	40.059052
878.000000	40.038905
879.000000	40.026155
880.000000	40.023585
881.000000	40.010095
882.000000	39.991175
883.000000	39.958723
884.000000	39.933172
885.000000	39.899940
886.000000	39.864548
887.000000	39.833685
888.000000	39.811237
889.000000	39.778935
890.000000	39.744090
891.000000	39.706788
892.000000	39.677845
893.000000	39.651870
894.000000	39.622595
895.000000	39.584545
896.000000	39.546252
897.000000	39.510082
898.000000	39.463853
899.000000	39.424080
900.000000	39.392325
901.000000	39.347310
902.000000	39.294675
903.000000	39.241657
904.000000	39.193880
905.000000	39.152138
906.000000	39.111473
907.000000	39.065395
908.000000	39.017212
909.000000	38.956625
910.000000	38.889063
911.000000	38.825530
912.000000	38.766205
913.000000	38.716700
914.000000	38.674788
915.000000	38.616875
916.000000	38.553790
917.000000	38.490092
918.000000	38.432655
919.000000	38.381405
920.000000	38.327263
921.000000	38.267643
922.000000	38.207060
923.000000	38.140977
924.000000	38.065825
925.000000	38.000845
926.000000	37.936825
927.000000	37.877192
928.000000	37.809115
929.000000	37.741957
930.000000	37.675810
931.000000	37.615558
932.000000	37.552833
933.000000	37.490918
934.000000	37.426992
935.000000	37.361978
936.000000	37.296435
937.000000	37.229892
938.000000	37.164932
939.000000	37.099068
940.000000	37.029625
941.000000	36.954825
942.000000	36.881125
943.000000	36.806238
944.000000	36.734555
945.000000	36.664085
946.000000	36.597020
947.000000	36.536613
948.000000	36.476630
949.000000	36.415798
950.000000	36.359317
951.000000	36.306583
952.000000	36.258163
953.000000	36.215855
954.000000	36.174095
955.000000	36.132105
956.000000	36.088965
957.000000	36.043070
958.000000	35.995447
959.000000	35.948712
960.000000	35.903753
961.000000	35.861393
962.000000	35.819088
963.000000	35.775482
964.000000	35.732408
965.000000	35.691547
966.000000	35.655498
967.000000	35.621940
968.000000	35.592348
969.000000	35.564702
970.000000	35.540098
971.000000	35.517453
972.000000	35.494087
973.000000	35.472068
974.000000	35.450023
975.000000	35.428768
976.000000	35.405552
977.000000	35.383770
978.000000	35.365327
979.000000	35.346480
980.000000	35.327832
981.000000	35.309447
982.000000	35.291850
983.000000	35.274365
984.000000	35.258772
985.000000	35.246615
986.000000	35.237220
987.000000	35.228257
988.000000	35.218782
989.000000	35.210930
990.000000	35.203517
991.000000	35.197515
992.000000	35.193490
993.000000	35.192280
994.000000	35.193258
995.000000	35.192842
996.000000	35.193500
997.000000	35.193980
998.000000	35.194658
999.000000	35.195795
1000.000000	35.197760
1001.000000	35.200975
1002.000000	35.205678
1003.000000	35.211523
1004.000000	35.216307
1005.000000	35.220980
1006.000000	35.226070
1007.000000	35.231288
1008.000000	35.238213
1009.000000	35.247355
1010.000000	35.256905
1011.000000	35.265720
1012.000000	35.274465
1013.000000	35.282767
1014.000000	35.291755
1015.000000	35.303377
1016.000000	35.315973
1017.000000	35.330665
1018.000000	35.345852
1019.000000	35.359943
1020.000000	35.374932
1021.000000	35.391115
1022.000000	35.407298
1023.000000	35.424428
1024.000000	35.444043
1025.000000	35.463518
1026.000000	35.483050
1027.000000	35.502720
1028.000000	35.523230
1029.000000	35.545432
1030.000000	35.567705
1031.000000	35.589748
1032.000000	35.613492
1033.000000	35.637608
1034.000000	35.661547
1035.000000	35.684795
1036.000000	35.707693
1037.000000	35.730115
1038.000000	35.752050
1039.000000	35.773250
1040.000000	35.795383
1041.000000	35.818088
1042.000000	35.840313
1043.000000	35.861477
1044.000000	35.881122
1045.000000	35.901780
1046.000000	35.923485
1047.000000	35.945855
1048.000000	35.967635
1049.000000	35.989765
1050.000000	36.012338
1051.000000	36.036008
1052.000000	36.059155
1053.000000	36.081962
1054.000000	36.105098
1055.000000	36.127823
1056.000000	36.149938
1057.000000	36.172913
1058.000000	36.197707
1059.000000	36.222215
1060.000000	36.245660
1061.000000	36.268180
1062.000000	36.291365
1063.000000	36.316317
1064.000000	36.341707
1065.000000	36.366515
1066.000000	36.392313
1067.000000	36.417450
1068.000000	36.441795
1069.000000	36.466147
1070.000000	36.490535
1071.000000	36.515500
1072.000000	36.540078
1073.000000	36.563548
1074.000000	36.587130
1075.000000	36.612018
1076.000000	36.635673
1077.000000	36.657835
1078.000000	36.678872
1079.000000	36.700758
1080.000000	36.723840
1081.000000	36.745893
1082.000000	36.767625
1083.000000	36.790140
1084.000000	36.811610
1085.000000	36.831713
1086.000000	36.853047
1087.000000	36.873920
1088.000000	36.894667
1089.000000	36.915465
1090.000000	36.936735
1091.000000	36.958040
1092.000000	36.978640
1093.000000	36.999560
1094.000000	37.020212
1095.000000	37.041385
1096.000000	37.061450
1097.000000	37.081945
1098.000000	37.103505
1099.000000	37.123955
1100.000000	37.143055
1101.000000	37.162590
1102.000000	37.182098
1103.000000	37.201170
1104.000000	37.220337
1105.000000	37.239762
1106.000000	37.259622
1107.000000	37.280125
1108.000000	37.298460
1109.000000	37.315893
1110.000000	37.333545
1111.000000	37.350453
1112.000000	37.367220
1113.000000	37.382962
1114.000000	37.398533
1115.000000	37.413223
1116.000000	37.426935
1117.000000	37.440157
1118.000000	37.454838
1119.000000	37.469375
1120.000000	37.483430
1121.000000	37.494903
1122.000000	37.505068
1123.000000	37.515315
1124.000000	37.523862
1125.000000	37.531105
1126.000000	37.535045
1127.000000	37.536995
1128.000000	37.537320
1129.000000	37.536140
1130.000000	37.531865
1131.000000	37.525002
1132.000000	37.514330
1133.000000	37.501835
1134.000000	37.490340
1135.000000	37.479110
1136.000000	37.468465
1137.000000	37.454340
1138.000000	37.438072
1139.000000	37.420740
1140.000000	37.402965
1141.000000	37.387480
1142.000000	37.374027
1143.000000	37.358137
1144.000000	37.342680
1145.000000	37.328320
1146.000000	37.313907
1147.000000	37.301563
1148.000000	37.290810
1149.000000	37.279268
1150.000000	37.267310
1151.000000	37.254248
1152.000000	37.242155
1153.000000	37.230095
1154.000000	37.213893
1155.000000	37.194065
1156.000000	37.171573
1157.000000	37.148340
1158.000000	37.122287
1159.000000	37.095267
1160.000000	37.065907
1161.000000	37.033060
1162.000000	36.998220
1163.000000	36.960990
1164.000000	36.923435
1165.000000	36.883670
1166.000000	36.845383
1167.000000	36.805015
1168.000000	36.765113
1169.000000	36.726082
1170.000000	36.687413
1171.000000	36.653232
1172.000000	36.619007
1173.000000	36.587848
1174.000000	36.558655
1175.000000	36.533207
1176.000000	36.508547
1177.000000	36.488168
1178.000000	36.469430
1179.000000	36.452415
1180.000000	36.437660
1181.000000	36.424870
1182.000000	36.415460
1183.000000	36.406940
1184.000000	36.400692
1185.000000	36.395600
1186.000000	36.393715
1187.000000	36.394385
1188.000000	36.398537
1189.000000	36.406878
1190.000000	36.418503
1191.000000	36.432572
1192.000000	36.449192
1193.000000	36.469970
1194.000000	36.493070
1195.000000	36.519150
1196.000000	36.547413
1197.000000	36.575317
1198.000000	36.603370
1199.000000	36.631985
1200.000000	36.661588
1201.000000	36.690815
1202.000000	36.719288
1203.000000	36.747240
1204.000000	36.775115
1205.000000	36.801370
1206.000000	36.826478
1207.000000	36.852778
1208.000000	36.880390
1209.000000	36.905735
1210.000000	36.931025
1211.000000	36.956612
1212.000000	36.982017
1213.000000	37.007213
1214.000000	37.031812
1215.000000	37.056992
1216.000000	37.081837
1217.000000	37.104830
1218.000000	37.126593
1219.000000	37.147695
1220.000000	37.168067
1221.000000	37.187525
1222.000000	37.206340
1223.000000	37.224072
1224.000000	37.241708
1225.000000	37.259028
1226.000000	37.275507
1227.000000	37.291400
1228.000000	37.306313
1229.000000	37.322030
1230.000000	37.336787
1231.000000	37.351073
1232.000000	37.365010
1233.000000	37.378107
1234.000000	37.389565
1235.000000	37.399492
1236.000000	37.409438
1237.000000	37.419767
1238.000000	37.429752
1239.000000	37.439932
1240.000000	37.450200
1241.000000	37.459498
1242.000000	37.469150
1243.000000	37.480310
1244.000000	37.493305
1245.000000	37.507973
1246.000000	37.523100
1247.000000	37.539850
1248.000000	37.557315
1249.000000	37.575608
1250.000000	37.594822
1251.000000	37.614717
1252.000000	37.635590
1253.000000	37.657105
1254.000000	37.677965
1255.000000	37.697682
1256.000000	37.717417
1257.000000	37.737045
1258.000000	37.756645
1259.000000	37.775080
1260.000000	37.792797
1261.000000	37.811032
1262.000000	37.829330
1263.000000	37.845703
1264.000000	37.861158
1265.000000	37.877245
1266.000000	37.893645
1267.000000	37.909030
1268.000000	37.922947
1269.000000	37.936507
1270.000000	37.950198
1271.000000	37.962833
1272.000000	37.973690
1273.000000	37.985005
1274.000000	37.996718
1275.000000	38.007548
1276.000000	38.016917
1277.000000	38.026397
1278.000000	38.036680
1279.000000	38.047115
1280.000000	38.058020
1281.000000	38.070265
1282.000000	38.083118
1283.000000	38.095470
1284.000000	38.107757
1285.000000	38.120765
1286.000000	38.134320
1287.000000	38.147570
1288.000000	38.161482
1289.000000	38.175995
1290.000000	38.189960
1291.000000	38.202818
1292.000000	38.215938
1293.000000	38.229950
1294.000000	38.243817
1295.000000	38.257555
1296.000000	38.271158
1297.000000	38.283923
1298.000000	38.295123
1299.000000	38.305953
1300.000000	38.316862
1301.000000	38.327360
1302.000000	38.336543
1303.000000	38.345140
1304.000000	38.353515
1305.000000	38.360912
1306.000000	38.367460
1307.000000	38.373467
1308.000000	38.378980
1309.000000	38.383090
1310.000000	38.385670
1311.000000	38.386690
1312.000000	38.386297
1313.000000	38.384135
1314.000000	38.380260
1315.000000	38.375628
1316.000000	38.369685
1317.000000	38.362045
1318.000000	38.352400
1319.000000	38.341510
1320.000000	38.328607
1321.000000	38.315440
1322.000000	38.301972
1323.000000	38.286700
1324.000000	38.270310
1325.000000	38.251507
1326.000000	38.231177
1327.000000	38.209485
1328.000000	38.186908
1329.000000	38.162247
1330.000000	38.136322
1331.000000	38.108105
1332.000000	38.077360
1333.000000	38.044202
1334.000000	38.008378
1335.000000	37.971507
1336.000000	37.933682
1337.000000	37.893645
1338.000000	37.851350
1339.000000	37.807647
1340.000000	37.762383
1341.000000	37.714163
1342.000000	37.664073
1343.000000	37.613705
1344.000000	37.561985
1345.000000	37.506450
1346.000000	37.448473
1347.000000	37.390383
1348.000000	37.331052
1349.000000	37.268422
1350.000000	37.202327
1351.000000	37.135373
1352.000000	37.065652
1353.000000	36.995452
1354.000000	36.928525
1355.000000	36.865073
1356.000000	36.801428
1357.000000	36.736105
1358.000000	36.670980
1359.000000	36.607200
1360.000000	36.548793
1361.000000	36.497923
1362.000000	36.453402
1363.000000	36.405660
1364.000000	36.353970
1365.000000	36.300170
1366.000000	36.242930
1367.000000	36.186875
1368.000000	36.130668
1369.000000	36.069248
1370.000000	35.999440
1371.000000	35.918548
1372.000000	35.822660
1373.000000	35.714220
1374.000000	35.590210
1375.000000	35.450800
1376.000000	35.298693
1377.000000	35.129572
1378.000000	34.945487
1379.000000	34.753722
1380.000000	34.559107
1381.000000	34.365257
1382.000000	34.179805
1383.000000	34.007687
1384.000000	33.847610
1385.000000	33.699278
1386.000000	33.564943
1387.000000	33.449790
1388.000000	33.351870
1389.000000	33.265510
1390.000000	33.184428
1391.000000	33.109303
1392.000000	33.038687
1393.000000	32.970700
1394.000000	32.906042
1395.000000	32.851568
1396.000000	32.796875
1397.000000	32.730490
1398.000000	32.654565
1399.000000	32.581078
1400.000000	32.514770
1401.000000	32.436625
1402.000000	32.343857
1403.000000	32.236753
1404.000000	32.126402
1405.000000	32.002098
1406.000000	31.870645
1407.000000	31.738150
1408.000000	31.603020
1409.000000	31.457765
1410.000000	31.294812
1411.000000	31.127090
1412.000000	30.962030
1413.000000	30.804285
1414.000000	30.643420
1415.000000	30.478642
1416.000000	30.308525
1417.000000	30.141582
1418.000000	29.979432
1419.000000	29.822010
1420.000000	29.668655
1421.000000	29.519418
1422.000000	29.374255
1423.000000	29.230427
1424.000000	29.087912
1425.000000	28.950570
1426.000000	28.822272
1427.000000	28.698467
1428.000000	28.574948
1429.000000	28.451705
1430.000000	28.334115
1431.000000	28.224980
1432.000000	28.119895
1433.000000	28.016703
1434.000000	27.917605
1435.000000	27.822463
1436.000000	27.730490
1437.000000	27.641822
1438.000000	27.557505
1439.000000	27.476515
1440.000000	27.398647
1441.000000	27.322425
1442.000000	27.249723
1443.000000	27.179590
1444.000000	27.112430
1445.000000	27.049445
1446.000000	26.989148
1447.000000	26.926592
1448.000000	26.862673
1449.000000	26.801550
1450.000000	26.743810
1451.000000	26.688337
1452.000000	26.630555
1453.000000	26.573275
1454.000000	26.515075
1455.000000	26.456770
1456.000000	26.398203
1457.000000	26.341317
1458.000000	26.286860
1459.000000	26.231068
1460.000000	26.171875
1461.000000	26.111370
1462.000000	26.052392
1463.000000	25.994945
1464.000000	25.937835
1465.000000	25.880958
1466.000000	25.825450
1467.000000	25.769000
1468.000000	25.711673
1469.000000	25.656577
1470.000000	25.603402
1471.000000	25.550870
1472.000000	25.500647
1473.000000	25.448373
1474.000000	25.396523
1475.000000	25.344255
1476.000000	25.292763
1477.000000	25.246400
1478.000000	25.203285
1479.000000	25.161342
1480.000000	25.121643
1481.000000	25.084743
1482.000000	25.048810
1483.000000	25.018138
1484.000000	24.990810
1485.000000	24.966575
1486.000000	24.945093
1487.000000	24.925013
1488.000000	24.907320
1489.000000	24.891265
1490.000000	24.877410
1491.000000	24.866070
1492.000000	24.856470
1493.000000	24.848005
1494.000000	24.842807
1495.000000	24.838855
1496.000000	24.837142
1497.000000	24.837948
1498.000000	24.842660
1499.000000	24.851243
1500.000000	24.862772
1501.000000	24.877012
1502.000000	24.895072
1503.000000	24.916840
1504.000000	24.941965
1505.000000	24.971515
1506.000000	25.006148
1507.000000	25.043780
1508.000000	25.083335
1509.000000	25.124962
1510.000000	25.168525
1511.000000	25.213585
1512.000000	25.259995
1513.000000	25.308597
1514.000000	25.358000
1515.000000	25.408610
1516.000000	25.458347
1517.000000	25.507585
1518.000000	25.557325
1519.000000	25.607367
1520.000000	25.657733
1521.000000	25.708127
1522.000000	25.757722
1523.000000	25.806233
1524.000000	25.853765
1525.000000	25.900580
1526.000000	25.946560
1527.000000	25.992313
1528.000000	26.036653
1529.000000	26.079187
1530.000000	26.121258
1531.000000	26.162623
1532.000000	26.204203
1533.000000	26.245290
1534.000000	26.284578
1535.000000	26.322433
1536.000000	26.358455
1537.000000	26.392903
1538.000000	26.427008
1539.000000	26.459800
1540.000000	26.490533
1541.000000	26.520198
1542.000000	26.548172
1543.000000	26.575270
1544.000000	26.602040
1545.000000	26.628730
1546.000000	26.656968
1547.000000	26.686693
1548.000000	26.717327
1549.000000	26.750187
1550.000000	26.785130
1551.000000	26.822032
1552.000000	26.860675
1553.000000	26.898508
1554.000000	26.936928
1555.000000	26.975078
1556.000000	27.011455
1557.000000	27.045373
1558.000000	27.075805
1559.000000	27.103685
1560.000000	27.127675
1561.000000	27.146873
1562.000000	27.161732
1563.000000	27.174525
1564.000000	27.184297
1565.000000	27.189988
1566.000000	27.191343
1567.000000	27.190338
1568.000000	27.188510
1569.000000	27.183685
1570.000000	27.177798
1571.000000	27.171737
1572.000000	27.164555
1573.000000	27.156935
1574.000000	27.149207
1575.000000	27.143167
1576.000000	27.140652
1577.000000	27.139747
1578.000000	27.139717
1579.000000	27.141595
1580.000000	27.144367
1581.000000	27.149162
1582.000000	27.157305
1583.000000	27.168453
1584.000000	27.182817
1585.000000	27.198912
1586.000000	27.216168
1587.000000	27.235537
1588.000000	27.256605
1589.000000	27.279460
1590.000000	27.305695
1591.000000	27.333980
1592.000000	27.362380
1593.000000	27.391080
1594.000000	27.419425
1595.000000	27.449050
1596.000000	27.480573
1597.000000	27.513058
1598.000000	27.546977
1599.000000	27.582918
1600.000000	27.619097
1601.000000	27.655162
1602.000000	27.694972
1603.000000	27.736765
1604.000000	27.779910
1605.000000	27.824590
1606.000000	27.868633
1607.000000	27.912520
1608.000000	27.956760
1609.000000	28.000032
1610.000000	28.042807
1611.000000	28.084843
1612.000000	28.124392
1613.000000	28.162255
1614.000000	28.198285
1615.000000	28.232617
1616.000000	28.266537
1617.000000	28.297682
1618.000000	28.326830
1619.000000	28.355442
1620.000000	28.383022
1621.000000	28.409675
1622.000000	28.435113
1623.000000	28.459720
1624.000000	28.484940
1625.000000	28.509743
1626.000000	28.533133
1627.000000	28.557693
1628.000000	28.581755
1629.000000	28.605225
1630.000000	28.628035
1631.000000	28.651317
1632.000000	28.673972
1633.000000	28.695850
1634.000000	28.717177
1635.000000	28.736732
1636.000000	28.755343
1637.000000	28.773160
1638.000000	28.790847
1639.000000	28.806163
1640.000000	28.820080
1641.000000	28.831822
1642.000000	28.842190
1643.000000	28.852253
1644.000000	28.859740
1645.000000	28.867480
1646.000000	28.873628
1647.000000	28.877265
1648.000000	28.879770
1649.000000	28.878947
1650.000000	28.877243
1651.000000	28.873740
1652.000000	28.868240
1653.000000	28.859587
1654.000000	28.847153
1655.000000	28.831088
1656.000000	28.812180
1657.000000	28.789448
1658.000000	28.760728
1659.000000	28.729697
1660.000000	28.692287
1661.000000	28.649983
1662.000000	28.601435
1663.000000	28.547787
1664.000000	28.489840
1665.000000	28.424125
1666.000000	28.353820
1667.000000	28.278837
1668.000000	28.196903
1669.000000	28.111242
1670.000000	28.021127
1671.000000	27.925662
1672.000000	27.828278
1673.000000	27.726605
1674.000000	27.623665
1675.000000	27.521922
1676.000000	27.417350
1677.000000	27.311395
1678.000000	27.206625
1679.000000	27.099102
1680.000000	26.989960
1681.000000	26.879710
1682.000000	26.767375
1683.000000	26.653875
1684.000000	26.539150
1685.000000	26.425428
1686.000000	26.315925
1687.000000	26.213323
1688.000000	26.120862
1689.000000	26.041107
1690.000000	25.976438
1691.000000	25.929462
1692.000000	25.897755
1693.000000	25.880637
1694.000000	25.878422
1695.000000	25.887142
1696.000000	25.904210
1697.000000	25.926525
1698.000000	25.950155
1699.000000	25.972663
1700.000000	25.992248
1701.000000	26.004780
1702.000000	26.012072
1703.000000	26.014747
1704.000000	26.011130
1705.000000	26.000495
1706.000000	25.982957
1707.000000	25.957007
1708.000000	25.923503
1709.000000	25.882718
1710.000000	25.832962
1711.000000	25.776357
1712.000000	25.711990
1713.000000	25.638610
1714.000000	25.556220
1715.000000	25.463180
1716.000000	25.362940
1717.000000	25.256052
1718.000000	25.143695
1719.000000	25.026572
1720.000000	24.909578
1721.000000	24.793690
1722.000000	24.680197
1723.000000	24.575758
1724.000000	24.481952
1725.000000	24.402655
1726.000000	24.337715
1727.000000	24.288187
1728.000000	24.253330
1729.000000	24.235163
1730.000000	24.229847
1731.000000	24.236240
1732.000000	24.254277
1733.000000	24.279565
1734.000000	24.309957
1735.000000	24.344145
1736.000000	24.380755
1737.000000	24.421095
1738.000000	24.466385
1739.000000	24.512273
1740.000000	24.562460
1741.000000	24.614513
1742.000000	24.666998
1743.000000	24.718915
1744.000000	24.771278
1745.000000	24.825463
1746.000000	24.880055
1747.000000	24.933480
1748.000000	24.983185
1749.000000	25.030007
1750.000000	25.070845
1751.000000	25.107470
1752.000000	25.141192
1753.000000	25.172310
1754.000000	25.199185
1755.000000	25.221010
1756.000000	25.238380
1757.000000	25.252488
1758.000000	25.262960
1759.000000	25.272455
1760.000000	25.281030
1761.000000	25.288165
1762.000000	25.294515
1763.000000	25.299928
1764.000000	25.306542
1765.000000	25.314395
1766.000000	25.324690
1767.000000	25.336503
1768.000000	25.350525
1769.000000	25.365965
1770.000000	25.382595
1771.000000	25.401285
1772.000000	25.422280
1773.000000	25.445515
1774.000000	25.469625
1775.000000	25.495335
1776.000000	25.520915
1777.000000	25.546850
1778.000000	25.572225
1779.000000	25.597835
1780.000000	25.623362
1781.000000	25.648195
1782.000000	25.670667
1783.000000	25.690550
1784.000000	25.708873
1785.000000	25.724980
1786.000000	25.740137
1787.000000	25.752677
1788.000000	25.764413
1789.000000	25.773910
1790.000000	25.782362
1791.000000	25.790300
1792.000000	25.798145
1793.000000	25.807575
1794.000000	25.818130
1795.000000	25.828880
1796.000000	25.839005
1797.000000	25.849732
1798.000000	25.860105
1799.000000	25.872032
1800.000000	25.886383
1801.000000	25.903247
1802.000000	25.920825
1803.000000	25.936220
1804.000000	25.949065
1805.000000	25.962933
1806.000000	25.979450
1807.000000	25.996915
1808.000000	26.013732
1809.000000	26.028665
1810.000000	26.042550
1811.000000	26.056608
1812.000000	26.070523
1813.000000	26.084943
1814.000000	26.100828
1815.000000	26.115950
1816.000000	26.127168
1817.000000	26.134618
1818.000000	26.140355
1819.000000	26.147435
1820.000000	26.158865
1821.000000	26.172395
1822.000000	26.184577
1823.000000	26.191015
1824.000000	26.191503
1825.000000	26.190400
1826.000000	26.192780
1827.000000	26.199557
1828.000000	26.210485
1829.000000	26.223315
1830.000000	26.232455
1831.000000	26.237375
1832.000000	26.241435
1833.000000	26.247998
1834.000000	26.259280
1835.000000	26.274485
1836.000000	26.292672
1837.000000	26.311653
1838.000000	26.330278
1839.000000	26.348190
1840.000000	26.366708
1841.000000	26.391668
1842.000000	26.420562
1843.000000	26.448375
1844.000000	26.467990
1845.000000	26.477595
1846.000000	26.482565
1847.000000	26.495808
1848.000000	26.517315
1849.000000	26.536192
1850.000000	26.545307
1851.000000	26.538120
1852.000000	26.524630
1853.000000	26.516983
1854.000000	26.519390
1855.000000	26.527985
1856.000000	26.530687
1857.000000	26.518023
1858.000000	26.495173
1859.000000	26.472855
1860.000000	26.456470
1861.000000	26.445332
1862.000000	26.429575
1863.000000	26.402598
1864.000000	26.362298
1865.000000	26.311745
1866.000000	26.260233
1867.000000	26.205870
1868.000000	26.142708
1869.000000	26.069093
1870.000000	25.990845
1871.000000	25.907060
1872.000000	25.819965
1873.000000	25.730178
1874.000000	25.641270
1875.000000	25.546422
1876.000000	25.441993
1877.000000	25.328128
1878.000000	25.202932
1879.000000	25.065803
1880.000000	24.912202
1881.000000	24.745398
1882.000000	24.568388
1883.000000	24.381795
1884.000000	24.180430
1885.000000	23.970508
1886.000000	23.746828
1887.000000	23.510078
1888.000000	23.264577
1889.000000	23.011210
1890.000000	22.749685
1891.000000	22.478033
1892.000000	22.196915
1893.000000	21.905810
1894.000000	21.604170
1895.000000	21.290590
1896.000000	20.970532
1897.000000	20.641902
1898.000000	20.310337
1899.000000	19.975870
1900.000000	19.637060
1901.000000	19.300310
1902.000000	18.963612
1903.000000	18.627600
1904.000000	18.296528
1905.000000	17.973453
1906.000000	17.659920
1907.000000	17.358230
1908.000000	17.063055
1909.000000	16.777133
1910.000000	16.503153
1911.000000	16.236275
1912.000000	15.978140
1913.000000	15.734227
1914.000000	15.505728
1915.000000	15.291193
1916.000000	15.082923
1917.000000	14.886463
1918.000000	14.701310
1919.000000	14.526020
1920.000000	14.365602
1921.000000	14.217485
1922.000000	14.084050
1923.000000	13.958160
1924.000000	13.836318
1925.000000	13.721910
1926.000000	13.622430
1927.000000	13.532140
1928.000000	13.448987
1929.000000	13.376465
1930.000000	13.307780
1931.000000	13.246697
1932.000000	13.189865
1933.000000	13.140812
1934.000000	13.099973
1935.000000	13.065592
1936.000000	13.037918
1937.000000	13.014333
1938.000000	13.000668
1939.000000	12.991252
1940.000000	12.987395
1941.000000	12.990367
1942.000000	12.997837
1943.000000	13.008337
1944.000000	13.025168
1945.000000	13.046142
1946.000000	13.066960
1947.000000	13.096013
1948.000000	13.127613
1949.000000	13.161810
1950.000000	13.198292
1951.000000	13.236853
1952.000000	13.277607
1953.000000	13.322135
1954.000000	13.368990
1955.000000	13.421605
1956.000000	13.474490
1957.000000	13.529417
1958.000000	13.583157
1959.000000	13.639580
1960.000000	13.697970
1961.000000	13.755525
1962.000000	13.815295
1963.000000	13.873435
1964.000000	13.932278
1965.000000	13.989445
1966.000000	14.049658
1967.000000	14.103217
1968.000000	14.160227
1969.000000	14.214058
1970.000000	14.270843
1971.000000	14.327170
1972.000000	14.383215
1973.000000	14.442080
1974.000000	14.499425
1975.000000	14.556093
1976.000000	14.613817
1977.000000	14.676667
1978.000000	14.736527
1979.000000	14.798550
1980.000000	14.856435
1981.000000	14.917773
1982.000000	14.981642
1983.000000	15.042010
1984.000000	15.104433
1985.000000	15.164048
1986.000000	15.226050
1987.000000	15.284053
1988.000000	15.344763
1989.000000	15.408960
1990.000000	15.472165
1991.000000	15.534428
1992.000000	15.591120
1993.000000	15.648227
1994.000000	15.704330
1995.000000	15.762232
1996.000000	15.815033
1997.000000	15.870128
1998.000000	15.921592
1999.000000	15.969020
2000.000000	16.014298
2001.000000	16.057335
2002.000000	16.102417
2003.000000	16.144220
2004.000000	16.184120
2005.000000	16.217725
2006.000000	16.247383
2007.000000	16.272570
2008.000000	16.296620
2009.000000	16.316920
2010.000000	16.333378
2011.000000	16.342845
2012.000000	16.348435
2013.000000	16.352135
2014.000000	16.349093
2015.000000	16.344090
2016.000000	16.338338
2017.000000	16.329525
2018.000000	16.314805
2019.000000	16.295917
2020.000000	16.274027
2021.000000	16.246540
2022.000000	16.213740
2023.000000	16.178405
2024.000000	16.143562
2025.000000	16.104710
2026.000000	16.059360
2027.000000	16.008610
2028.000000	15.953423
2029.000000	15.893723
2030.000000	15.830692
2031.000000	15.768770
2032.000000	15.705090
2033.000000	15.636750
2034.000000	15.564177
2035.000000	15.489013
2036.000000	15.410337
2037.000000	15.330830
2038.000000	15.247002
2039.000000	15.159725
2040.000000	15.072020
2041.000000	14.981533
2042.000000	14.885192
2043.000000	14.789675
2044.000000	14.694408
2045.000000	14.601440
2046.000000	14.511847
2047.000000	14.421958
2048.000000	14.333620
2049.000000	14.248615
2050.000000	14.168930
2051.000000	14.098268
2052.000000	14.037867
2053.000000	13.984215
2054.000000	13.937158
2055.000000	13.894020
2056.000000	13.858900
2057.000000	13.836410
2058.000000	13.827785
2059.000000	13.832710
2060.000000	13.847152
2061.000000	13.866085
2062.000000	13.895198
2063.000000	13.932590
2064.000000	13.975025
2065.000000	14.027790
2066.000000	14.090160
2067.000000	14.155620
2068.000000	14.221785
2069.000000	14.289860
2070.000000	14.357460
2071.000000	14.423535
2072.000000	14.487433
2073.000000	14.550932
2074.000000	14.617653
2075.000000	14.684997
2076.000000	14.747197
2077.000000	14.802990
2078.000000	14.856987
2079.000000	14.905245
2080.000000	14.952348
2081.000000	15.003310
2082.000000	15.048395
2083.000000	15.082045
2084.000000	15.106680
2085.000000	15.122220
2086.000000	15.132552
2087.000000	15.141090
2088.000000	15.148122
2089.000000	15.154068
2090.000000	15.156545
2091.000000	15.151452
2092.000000	15.143638
2093.000000	15.138383
2094.000000	15.131822
2095.000000	15.125850
2096.000000	15.115692
2097.000000	15.104665
2098.000000	15.096310
2099.000000	15.086710
2100.000000	15.076197
2101.000000	15.069170
2102.000000	15.063755
2103.000000	15.059340
2104.000000	15.057555
2105.000000	15.053802
2106.000000	15.060427
2107.000000	15.067953
2108.000000	15.066813
2109.000000	15.065968
2110.000000	15.075243
2111.000000	15.080868
2112.000000	15.085265
2113.000000	15.090790
2114.000000	15.089832
2115.000000	15.091340
2116.000000	15.086203
2117.000000	15.078048
2118.000000	15.074690
2119.000000	15.070862
2120.000000	15.056720
2121.000000	15.045225
2122.000000	15.029528
2123.000000	15.003735
2124.000000	14.986517
2125.000000	14.966850
2126.000000	14.947477
2127.000000	14.933282
2128.000000	14.912545
2129.000000	14.890743
2130.000000	14.862085
2131.000000	14.821343
2132.000000	14.776937
2133.000000	14.744505
2134.000000	14.710110
2135.000000	14.674185
2136.000000	14.628672
2137.000000	14.571925
2138.000000	14.517690
2139.000000	14.459472
2140.000000	14.407695
2141.000000	14.361345
2142.000000	14.317728
2143.000000	14.265470
2144.000000	14.203157
2145.000000	14.136182
2146.000000	14.072395
2147.000000	14.001880
2148.000000	13.930585
2149.000000	13.860143
2150.000000	13.792125
2151.000000	13.726080
2152.000000	13.647105
2153.000000	13.562148
2154.000000	13.472665
2155.000000	13.399132
2156.000000	13.330153
2157.000000	13.267307
2158.000000	13.207115
2159.000000	13.144970
2160.000000	13.077450
2161.000000	13.008145
2162.000000	12.954718
2163.000000	12.910203
2164.000000	12.881842
2165.000000	12.845590
2166.000000	12.805590
2167.000000	12.767040
2168.000000	12.725283
2169.000000	12.692050
2170.000000	12.660417
2171.000000	12.629428
2172.000000	12.601033
2173.000000	12.571112
2174.000000	12.537070
2175.000000	12.502768
2176.000000	12.471127
2177.000000	12.452388
2178.000000	12.433220
2179.000000	12.408685
2180.000000	12.394875
2181.000000	12.381702
2182.000000	12.367382
2183.000000	12.360100
2184.000000	12.350420
2185.000000	12.331930
2186.000000	12.316365
2187.000000	12.292105
2188.000000	12.283430
2189.000000	12.271440
2190.000000	12.245085
2191.000000	12.209713
2192.000000	12.175508
2193.000000	12.134953
2194.000000	12.098823
2195.000000	12.064943
2196.000000	12.018915
2197.000000	11.979390
2198.000000	11.916220
2199.000000	11.856290
2200.000000	11.797285
2201.000000	11.753308
2202.000000	11.707802
2203.000000	11.660650
2204.000000	11.603070
2205.000000	11.550037
2206.000000	11.507938
2207.000000	11.478900
2208.000000	11.458512
2209.000000	11.442745
2210.000000	11.439113
2211.000000	11.430465
2212.000000	11.434747
2213.000000	11.442685
2214.000000	11.466070
2215.000000	11.498420
2216.000000	11.542888
2217.000000	11.574477
2218.000000	11.623358
2219.000000	11.673880
2220.000000	11.721277
2221.000000	11.781578
2222.000000	11.836315
2223.000000	11.889937
2224.000000	11.947953
2225.000000	12.015645
2226.000000	12.071515
2227.000000	12.127640
2228.000000	12.174915
2229.000000	12.223282
2230.000000	12.265123
2231.000000	12.301490
2232.000000	12.335725
2233.000000	12.376787
2234.000000	12.417595
2235.000000	12.439798
2236.000000	12.456200
2237.000000	12.471302
2238.000000	12.481330
2239.000000	12.482325
2240.000000	12.479073
2241.000000	12.475067
2242.000000	12.461513
2243.000000	12.440057
2244.000000	12.408342
2245.000000	12.372058
2246.000000	12.330010
2247.000000	12.280840
2248.000000	12.231480
2249.000000	12.173472
2250.000000	12.117902
2251.000000	12.060785
2252.000000	11.991357
2253.000000	11.923422
2254.000000	11.852255
2255.000000	11.792880
2256.000000	11.737490
2257.000000	11.679202
2258.000000	11.617712
2259.000000	11.553313
2260.000000	11.495487
2261.000000	11.433238
2262.000000	11.378268
2263.000000	11.316173
2264.000000	11.260262
2265.000000	11.212193
2266.000000	11.178088
2267.000000	11.148825
2268.000000	11.119935
2269.000000	11.101940
2270.000000	11.076252
2271.000000	11.053442
2272.000000	11.033463
2273.000000	11.022543
2274.000000	11.014595
2275.000000	11.007895
2276.000000	11.001115
2277.000000	10.998448
2278.000000	10.989873
2279.000000	10.974982
2280.000000	10.968737
2281.000000	10.965130
2282.000000	10.974752
2283.000000	10.992247
2284.000000	11.007468
2285.000000	11.005895
2286.000000	10.998880
2287.000000	10.994138
2288.000000	10.997160
2289.000000	11.016872
2290.000000	11.036710
2291.000000	11.049843
2292.000000	11.061208
2293.000000	11.064407
2294.000000	11.057520
2295.000000	11.054213
2296.000000	11.057107
2297.000000	11.063702
2298.000000	11.075442
2299.000000	11.077940
2300.000000	11.074027
2301.000000	11.084658
2302.000000	11.100338
2303.000000	11.116500
2304.000000	11.149862
2305.000000	11.179450
2306.000000	11.200572
2307.000000	11.223137
2308.000000	11.245365
2309.000000	11.260690
2310.000000	11.282042
2311.000000	11.301937
2312.000000	11.326357
2313.000000	11.355272
2314.000000	11.376228
2315.000000	11.399780
2316.000000	11.426913
2317.000000	11.452065
2318.000000	11.470825
2319.000000	11.497615
2320.000000	11.525538
2321.000000	11.549010
2322.000000	11.565340
2323.000000	11.577290
2324.000000	11.580065
2325.000000	11.585703
2326.000000	11.590217
2327.000000	11.584877
2328.000000	11.589412
2329.000000	11.603537
2330.000000	11.620228
2331.000000	11.632645
2332.000000	11.634493
2333.000000	11.629638
2334.000000	11.622947
2335.000000	11.617722
2336.000000	11.623715
2337.000000	11.643545
2338.000000	11.664250
2339.000000	11.682495
2340.000000	11.695562
2341.000000	11.696058
2342.000000	11.701852
2343.000000	11.727150
2344.000000	11.766497
2345.000000	11.806667
2346.000000	11.840032
2347.000000	11.857670
2348.000000	11.867017
2349.000000	11.868845
2350.000000	11.866392
2351.000000	11.886245
2352.000000	11.905732
2353.000000	11.908587
2354.000000	11.915400
2355.000000	11.937192
2356.000000	11.962507
2357.000000	11.980372
2358.000000	12.011997
2359.000000	12.049520
2360.000000	12.083073
2361.000000	12.117887
2362.000000	12.154725
2363.000000	12.187345
2364.000000	12.213150
2365.000000	12.212278
2366.000000	12.207747
2367.000000	12.226810
2368.000000	12.231750
2369.000000	12.241142
2370.000000	12.261183
2371.000000	12.283043
2372.000000	12.297855
2373.000000	12.306495
2374.000000	12.319952
2375.000000	12.351735
2376.000000	12.376530
2377.000000	12.386455
2378.000000	12.400638
2379.000000	12.408290
2380.000000	12.410348
2381.000000	12.393535
2382.000000	12.391938
2383.000000	12.406508
2384.000000	12.430587
2385.000000	12.437555
2386.000000	12.458138
2387.000000	12.470288
2388.000000	12.484208
2389.000000	12.486390
2390.000000	12.495570
2391.000000	12.524945
2392.000000	12.553655
2393.000000	12.574293
2394.000000	12.571098
2395.000000	12.563042
2396.000000	12.544575
2397.000000	12.540185
2398.000000	12.526777
2399.000000	12.519953
2400.000000	12.529882
2401.000000	12.529860
2402.000000	12.509032
2403.000000	12.484763
2404.000000	12.465723
2405.000000	12.471195
2406.000000	12.471788
2407.000000	12.447895
2408.000000	12.441887
2409.000000	12.438070
2410.000000	12.422497
2411.000000	12.390590
2412.000000	12.345450
2413.000000	12.324153
2414.000000	12.313805
2415.000000	12.295697
2416.000000	12.272220
2417.000000	12.264685
2418.000000	12.233807
2419.000000	12.228860
2420.000000	12.205615
2421.000000	12.181342
2422.000000	12.174262
2423.000000	12.164388
2424.000000	12.138565
2425.000000	12.099457
2426.000000	12.085432
2427.000000	12.053235
2428.000000	12.019825
2429.000000	11.973455
2430.000000	11.936438
2431.000000	11.905010
2432.000000	11.877123
2433.000000	11.848100
2434.000000	11.795045
2435.000000	11.746683
2436.000000	11.697040
2437.000000	11.673837
2438.000000	11.643503
2439.000000	11.584948
2440.000000	11.504550
2441.000000	11.433680
2442.000000	11.390958
2443.000000	11.332345
2444.000000	11.306667
2445.000000	11.287913
2446.000000	11.242678
2447.000000	11.208695
2448.000000	11.167027
2449.000000	11.144445
2450.000000	11.154720
2451.000000	11.184027
2452.000000	11.180365
2453.000000	11.176975
2454.000000	11.174265
2455.000000	11.178690
2456.000000	11.190015
2457.000000	11.166977
2458.000000	11.177600
2459.000000	11.221602
2460.000000	11.264577
2461.000000	11.289010
2462.000000	11.280225
2463.000000	11.277085
2464.000000	11.251910
2465.000000	11.189578
2466.000000	11.237545
2467.000000	11.276867
2468.000000	11.360793
2469.000000	11.423422
2470.000000	11.427725
2471.000000	11.450570
2472.000000	11.468222
2473.000000	11.509243
2474.000000	11.622193
2475.000000	11.808338
2476.000000	11.858630
2477.000000	11.983493
2478.000000	12.038410
2479.000000	12.049965
2480.000000	12.117783
2481.000000	12.178355
2482.000000	12.367455
2483.000000	12.581750
2484.000000	12.692353
2485.000000	12.806640
2486.000000	12.975182
2487.000000	13.087285
2488.000000	13.246332
2489.000000	13.432380
2490.000000	13.650570
2491.000000	13.880527
2492.000000	14.007290
2493.000000	14.138085
2494.000000	14.327673
2495.000000	14.486767
2496.000000	14.558288
2497.000000	14.710883
2498.000000	14.876080
2499.000000	15.093075
2500.000000	15.266790
2501.000000	19.234790
2502.000000	23.299428
2503.000000	27.401100
2504.000000	31.326875
2505.000000	35.349712
2506.000000	39.764147
2507.000000	43.889822
2508.000000	48.087663
2509.000000	52.716273
2510.000000	56.978090
2511.000000	57.793930
2512.000000	58.581310
2513.000000	59.099200
2514.000000	59.771540
2515.000000	60.463570
2516.000000	61.297140
2517.000000	62.183680
2518.000000	63.542150
2519.000000	64.269820
2520.000000	65.342240
2521.000000	65.458620
2522.000000	65.659950
2523.000000	66.623530
2524.000000	67.806360
2525.000000	68.765020
2526.000000	69.665160
2527.000000	70.757520
2528.000000	71.108800
2529.000000	71.935910
2530.000000	71.861630
2531.000000	72.698290
2532.000000	73.756790
2533.000000	74.656500
2534.000000	75.866910
2535.000000	77.497460
2536.000000	78.809430
2537.000000	79.408180
2538.000000	80.104700
2539.000000	80.412830
2540.000000	82.364510
2541.000000	84.110560
2542.000000	86.012950
2543.000000	87.322200
2544.000000	87.798760
2545.000000	87.780660
2546.000000	87.861790
2547.000000	88.135920
2548.000000	88.619930
2549.000000	89.620790
2550.000000	90.033030
2551.000000	90.755560
2552.000000	90.739520
2553.000000	90.421550
2554.000000	90.216750
2555.000000	90.360800
2556.000000	90.102360
2557.000000	90.358340
2558.000000	91.598970
2559.000000	92.058770
2560.000000	92.259040
2561.000000	92.169910
2562.000000	91.962580
2563.000000	92.304470
2564.000000	93.318500
2565.000000	93.659130
2566.000000	94.409390
2567.000000	95.560760
2568.000000	95.309780
2569.000000	95.711970
2570.000000	96.131460
2571.000000	95.694150
2572.000000	95.565530
2573.000000	96.118650
2574.000000	96.210170
2575.000000	96.269640
2576.000000	96.115750
2577.000000	95.960930
2578.000000	96.347320
2579.000000	95.979850
2580.000000	95.384760
2581.000000	95.393410
2582.000000	95.805380
2583.000000	95.921480
2584.000000	96.300990
2585.000000	98.031230
2586.000000	99.218690
2587.000000	99.191530
2588.000000	98.571500
2589.000000	98.670090
2590.000000	99.631320
2591.000000	100.892000
2592.000000	102.076510
2593.000000	102.598640
2594.000000	102.326100
2595.000000	100.772150
2596.000000	99.956220
2597.000000	100.065700
2598.000000	100.852700
2599.000000	101.839290
2600.000000	102.091170
2601.000000	101.984580
2602.000000	101.492230
2603.000000	100.981720
2604.000000	101.006860
2605.000000	101.703440
2606.000000	102.225060
2607.000000	102.462170
2608.000000	102.258930
2609.000000	101.810050
2610.000000	101.624690
2611.000000	101.380200
2612.000000	101.164920
2613.000000	100.617550
2614.000000	99.995490
2615.000000	100.187660
2616.000000	100.641700
2617.000000	100.844020
2618.000000	101.591520
2619.000000	101.787970
2620.000000	101.428160
2621.000000	101.197430
2622.000000	100.597610
2623.000000	101.432610
2624.000000	102.860030
2625.000000	102.862750
2626.000000	102.662310
2627.000000	103.104150
2628.000000	102.765610
2629.000000	101.845750
2630.000000	101.268870
2631.000000	101.244720
2632.000000	101.844550
2633.000000	102.147850
2634.000000	102.065020
2635.000000	102.224700
2636.000000	101.518960
2637.000000	100.363740
2638.000000	99.675560
2639.000000	100.155410
2640.000000	101.437730
2641.000000	102.931690
2642.000000	104.346770
2643.000000	104.225790
2644.000000	103.402730
2645.000000	102.302920
2646.000000	102.591530
2647.000000	102.901770
2648.000000	103.253060
2649.000000	103.645260
2650.000000	103.043850
2651.000000	101.900660
2652.000000	101.484900
2653.000000	101.618380
2654.000000	101.998520
2655.000000	102.801980
2656.000000	102.926780
2657.000000	103.419360
2658.000000	103.898980
2659.000000	104.366340
2660.000000	105.233010
2661.000000	105.415740
2662.000000	103.749240
2663.000000	102.443390
2664.000000	102.212580
2665.000000	102.501170
2666.000000	103.008530
2667.000000	104.000340
2668.000000	103.364120
2669.000000	102.450820
2670.000000	101.240060
2671.000000	100.384610
2672.000000	100.373950
2673.000000	101.136200
2674.000000	101.586440
2675.000000	101.483580
2676.000000	100.988960
2677.000000	99.759500
2678.000000	99.416660
2679.000000	99.713210
2680.000000	100.112750
2681.000000	100.844910
2682.000000	102.064370
2683.000000	102.125200
2684.000000	101.167830
2685.000000	100.957420
2686.000000	101.213280
2687.000000	101.162260
2688.000000	101.332190
2689.000000	100.744980
2690.000000	101.497470
2691.000000	101.698430
2692.000000	101.079050
2693.000000	100.827940
2694.000000	101.495670
2695.000000	101.795830
2696.000000	101.638590
2697.000000	101.247770
2698.000000	101.818770
2699.000000	102.095560
2700.000000	101.739870
2701.000000	101.527790
2702.000000	101.094170
2703.000000	101.021000
2704.000000	100.784970
2705.000000	100.089120
2706.000000	100.042680
2707.000000	100.381970
2708.000000	100.517750
2709.000000	100.007370
2710.000000	99.868420
2711.000000	99.696490
2712.000000	99.685780
2713.000000	99.981580
2714.000000	100.586710
2715.000000	100.764200
2716.000000	101.165010
2717.000000	100.582830
2718.000000	100.092490
2719.000000	99.979280
2720.000000	99.889150
2721.000000	99.864530
2722.000000	100.818930
2723.000000	101.356040
2724.000000	101.403500
2725.000000	101.380460
2726.000000	100.717150
2727.000000	101.266480
2728.000000	101.174100
2729.000000	102.010120
2730.000000	102.595860
2731.000000	103.092780
2732.000000	102.357410
2733.000000	102.172480
2734.000000	101.683680
2735.000000	101.516950
2736.000000	101.519500
2737.000000	102.256080
2738.000000	103.292110
2739.000000	103.455890
2740.000000	102.331700
2741.000000	101.661640
2742.000000	101.805490
2743.000000	100.912400
2744.000000	100.236190
2745.000000	100.815890
2746.000000	101.311050
2747.000000	101.188060
2748.000000	100.440560
2749.000000	100.217040
2750.000000	99.763630
2751.000000	100.177140
2752.000000	100.000400
2753.000000	99.924440
2754.000000	100.067790
2755.000000	99.972900
2756.000000	99.964210
2757.000000	99.518200
2758.000000	99.607750
2759.000000	99.292020
2760.000000	100.311250
2761.000000	100.333950
2762.000000	100.817030
2763.000000	101.490680
2764.000000	102.181460
2765.000000	102.071520
2766.000000	101.160580
2767.000000	100.466260
2768.000000	99.878950
2769.000000	100.021430
2770.000000	100.064640
2771.000000	100.310360
2772.000000	100.628970
2773.000000	101.048900
2774.000000	101.591210
2775.000000	101.162320
2776.000000	101.105710
2777.000000	101.033200
2778.000000	101.259230
2779.000000	101.303980
2780.000000	100.671500
2781.000000	99.837360
2782.000000	99.809270
2783.000000	99.437610
2784.000000	98.987250
2785.000000	99.668730
2786.000000	101.358750
2787.000000	102.398830
2788.000000	102.673030
2789.000000	102.278890
2790.000000	102.134530
2791.000000	102.758190
2792.000000	103.092660
2793.000000	103.466980
2794.000000	103.371370
2795.000000	103.207040
2796.000000	102.133120
2797.000000	101.270660
2798.000000	100.737570
2799.000000	100.698810
2800.000000	101.207000
2801.000000	101.515860
2802.000000	101.063830
2803.000000	100.704440
2804.000000	100.302380
2805.000000	100.022950
2806.000000	99.879460
2807.000000	99.784490
2808.000000	99.841050
2809.000000	100.882270
2810.000000	101.180870
2811.000000	101.013260
2812.000000	100.896570
2813.000000	100.252090
2814.000000	100.005200
2815.000000	99.682810
2816.000000	99.602940
2817.000000	101.112990
2818.000000	102.124490
2819.000000	101.844880
2820.000000	101.184900
2821.000000	100.629360
2822.000000	100.375870
2823.000000	100.944450
2824.000000	101.105030
2825.000000	101.942870
2826.000000	102.342780
2827.000000	101.551790
2828.000000	101.197010
2829.000000	100.643580
2830.000000	100.554480
2831.000000	100.454700
2832.000000	100.426250
2833.000000	100.843820
2834.000000	101.538110
2835.000000	100.802910
2836.000000	100.317040
2837.000000	100.131620
2838.000000	100.123890
2839.000000	100.270010
2840.000000	101.068000
2841.000000	102.042360
2842.000000	103.686320
2843.000000	104.451150
2844.000000	103.914090
2845.000000	103.962360
2846.000000	103.809270
2847.000000	103.674190
2848.000000	102.992190
2849.000000	102.979150
2850.000000	102.998530
2851.000000	102.900600
2852.000000	101.626020
2853.000000	99.750180
2854.000000	98.956690
2855.000000	98.682080
2856.000000	99.277240
2857.000000	100.087940
2858.000000	101.300030
2859.000000	102.051870
2860.000000	101.760230
2861.000000	100.813150
2862.000000	99.842230
2863.000000	100.603050
2864.000000	102.382990
2865.000000	103.023250
2866.000000	102.923070
2867.000000	102.258960
2868.000000	100.793410
2869.000000	99.717880
2870.000000	99.750590
2871.000000	100.758080
2872.000000	102.686580
2873.000000	103.460280
2874.000000	103.070600
2875.000000	103.375530
2876.000000	103.184670
2877.000000	102.227350
2878.000000	102.409890
2879.000000	103.209160
2880.000000	103.247600
2881.000000	103.316110
2882.000000	103.006210
2883.000000	102.148050
2884.000000	101.188200
2885.000000	100.432430
2886.000000	100.894640
2887.000000	102.987720
2888.000000	104.217070
2889.000000	104.443190
2890.000000	104.805120
2891.000000	103.846480
2892.000000	102.277130
2893.000000	101.968920
2894.000000	102.143570
2895.000000	103.014530
2896.000000	103.624880
2897.000000	102.875210
2898.000000	102.218840
2899.000000	101.300550
2900.000000	100.191680
2901.000000	100.074490
2902.000000	100.749180
2903.000000	101.305800
2904.000000	102.013880
2905.000000	101.627220
2906.000000	100.912660
2907.000000	100.459520
2908.000000	100.581730
2909.000000	101.558580
2910.000000	102.316940
2911.000000	102.979420
2912.000000	103.671340
2913.000000	103.370520
2914.000000	102.989370
2915.000000	102.640750
2916.000000	101.758580
2917.000000	102.182620
2918.000000	102.504450
2919.000000	102.947870
2920.000000	103.571250
2921.000000	103.895330
2922.000000	103.018600
2923.000000	102.903310
2924.000000	102.933530
2925.000000	102.854600
2926.000000	103.211970
2927.000000	103.527180
2928.000000	103.331420
2929.000000	102.183810
2930.000000	101.412400
2931.000000	100.557640
2932.000000	100.742130
2933.000000	100.831220
2934.000000	101.181620
2935.000000	101.728990
2936.000000	102.322370
2937.000000	101.173380
2938.000000	100.070660
2939.000000	100.099220
2940.000000	100.615330
2941.000000	101.641560
2942.000000	102.343560
2943.000000	103.155430
2944.000000	103.309070
2945.000000	103.604470
2946.000000	102.763880
2947.000000	103.436950
2948.000000	104.237820
2949.000000	104.804870
2950.000000	103.909090
2951.000000	102.789340
2952.000000	101.224350
2953.000000	99.824520
2954.000000	99.100490
2955.000000	99.479210
2956.000000	101.221850
2957.000000	101.218840
2958.000000	101.784690
2959.000000	101.750470
2960.000000	101.634040
2961.000000	101.907810
2962.000000	102.622030
2963.000000	103.659160
2964.000000	104.222080
2965.000000	103.515670
2966.000000	101.446720
2967.000000	101.509040
2968.000000	100.674030
2969.000000	99.915080
2970.000000	100.791750
2971.000000	101.529980
2972.000000	102.318200
2973.000000	101.776500
2974.000000	101.280500
2975.000000	101.283730
2976.000000	101.332270
2977.000000	100.124180
2978.000000	100.094160
2979.000000	101.021090
2980.000000	101.271840
2981.000000	101.553730
2982.000000	100.597760
2983.000000	100.237820
2984.000000	100.363650
2985.000000	100.497970
2986.000000	102.725250
2987.000000	104.571170
2988.000000	105.209750
2989.000000	104.160070
2990.000000	102.591850
2991.000000	101.360740
2992.000000	101.628480
2993.000000	102.042870
2994.000000	101.484680
2995.000000	100.978670
2996.000000	99.176570
2997.000000	97.688520
2998.000000	97.520910
2999.000000	97.511680
3000.000000	98.842920
