PE UV       SUBTECH     SPECTRUM    ASCII       PEDS        4.00        
   -1
INBUCR0121-5.Sample.ASC
24/02/12
14:23:16.00
24/02/12
14:23:16.00
Vinicio Soto Monge
P. strigosa. Color café sin élitro izquierdo (Det: A. Solís) COSTA RICA Prov. Puntarenas. Isla San Lucas. Puesto Isla San Lucas alrededores del puesto. 0-100m 14-15 SEP 2005  #84359 INB0003969555 
250,000000
1
Lambda 1050
1050L1511233
PerkinElmer UV WinLab 6.3.2.0749 / 2.02.05 Lambda 900 UV/VIS/NIR, Aug  7 2015 09:38:08

0
0
3350/servo 860,8/2
0
0
UV/VIS
1
1
1
DoubleDePol,CommonBeamDepol,RBeamAtt,SBeamAtt,60mm sphere, WB InGaAs Detector
0
0
0
0
Program
Program
3350/servo 860,8/2
3350/0,2 860,8/0,2
3350/0,2 860,8/0,2
0
15.00
 
 
 
0
 
860,8
150
860,8
Front
100
on
S:100 R:100
0
0
0
0
 
0
 
 
 
0
 
 
0
0
0
0
0
 
 
 
 
0
0


0
0
#HDR
-1
-1
#GR
nm
%R
1.0
0.0
2500,000000
-1,000000
2251
8
21,734000
1,545300
#DATA

250.000000	nan
251.000000	nan
252.000000	nan
253.000000	nan
254.000000	nan
255.000000	nan
256.000000	nan
257.000000	nan
258.000000	nan
259.000000	2.975434
260.000000	2.906047
261.000000	2.872671
262.000000	2.802209
263.000000	2.745668
264.000000	2.669717
265.000000	2.613103
266.000000	2.579585
267.000000	2.533007
268.000000	2.499442
269.000000	2.473096
270.000000	2.439284
271.000000	2.425401
272.000000	2.399284
273.000000	2.376210
274.000000	2.357140
275.000000	2.351906
276.000000	2.336149
277.000000	2.327415
278.000000	2.327615
279.000000	2.322509
280.000000	2.310558
281.000000	2.303889
282.000000	2.295775
283.000000	2.283958
284.000000	2.283359
285.000000	2.270193
286.000000	2.262006
287.000000	2.259733
288.000000	2.253127
289.000000	2.243637
290.000000	2.235244
291.000000	2.230471
292.000000	2.232155
293.000000	2.238597
294.000000	2.235367
295.000000	2.235016
296.000000	2.239439
297.000000	2.236944
298.000000	2.236827
299.000000	2.237216
300.000000	2.239145
301.000000	2.239421
302.000000	2.240073
303.000000	2.236766
304.000000	2.238194
305.000000	2.240068
306.000000	2.238808
307.000000	2.241848
308.000000	2.244642
309.000000	2.248548
310.000000	2.249592
311.000000	2.253789
312.000000	2.255038
313.000000	2.254864
314.000000	2.255069
315.000000	2.255972
316.000000	2.256998
317.000000	2.287889
318.000000	2.309961
319.000000	2.327266
320.000000	2.348724
321.000000	2.372028
322.000000	2.401107
323.000000	2.416956
324.000000	2.439350
325.000000	2.456193
326.000000	2.471325
327.000000	2.456769
328.000000	2.451484
329.000000	2.444916
330.000000	2.433206
331.000000	2.427193
332.000000	2.416548
333.000000	2.413605
334.000000	2.404667
335.000000	2.404299
336.000000	2.402290
337.000000	2.402852
338.000000	2.396875
339.000000	2.398895
340.000000	2.402405
341.000000	2.397065
342.000000	2.395410
343.000000	2.397637
344.000000	2.398393
345.000000	2.395685
346.000000	2.398099
347.000000	2.391465
348.000000	2.392166
349.000000	2.395134
350.000000	2.396510
351.000000	2.396459
352.000000	2.391218
353.000000	2.392222
354.000000	2.391397
355.000000	2.389675
356.000000	2.384302
357.000000	2.389385
358.000000	2.395344
359.000000	2.394929
360.000000	2.392087
361.000000	2.390231
362.000000	2.392151
363.000000	2.390290
364.000000	2.389854
365.000000	2.390733
366.000000	2.394731
367.000000	2.393335
368.000000	2.387488
369.000000	2.382675
370.000000	2.385270
371.000000	2.386636
372.000000	2.388023
373.000000	2.389335
374.000000	2.387586
375.000000	2.386292
376.000000	2.383818
377.000000	2.377984
378.000000	2.374167
379.000000	2.372053
380.000000	2.367837
381.000000	2.365130
382.000000	2.361143
383.000000	2.358399
384.000000	2.359113
385.000000	2.359736
386.000000	2.360167
387.000000	2.364600
388.000000	2.368977
389.000000	2.374261
390.000000	2.379602
391.000000	2.383951
392.000000	2.389125
393.000000	2.394716
394.000000	2.400370
395.000000	2.406099
396.000000	2.411878
397.000000	2.417751
398.000000	2.423746
399.000000	2.429532
400.000000	2.435417
401.000000	2.442499
402.000000	2.449223
403.000000	2.454992
404.000000	2.460745
405.000000	2.466486
406.000000	2.472622
407.000000	2.479379
408.000000	2.485728
409.000000	2.491982
410.000000	2.498571
411.000000	2.504772
412.000000	2.510972
413.000000	2.517834
414.000000	2.524858
415.000000	2.532073
416.000000	2.539176
417.000000	2.546093
418.000000	2.553622
419.000000	2.561379
420.000000	2.569016
421.000000	2.576977
422.000000	2.585841
423.000000	2.595464
424.000000	2.604566
425.000000	2.613602
426.000000	2.622973
427.000000	2.632406
428.000000	2.642145
429.000000	2.651835
430.000000	2.661847
431.000000	2.672292
432.000000	2.682482
433.000000	2.691845
434.000000	2.702088
435.000000	2.713052
436.000000	2.724553
437.000000	2.736104
438.000000	2.747265
439.000000	2.758619
440.000000	2.770336
441.000000	2.781837
442.000000	2.793045
443.000000	2.804580
444.000000	2.816604
445.000000	2.829069
446.000000	2.840884
447.000000	2.852651
448.000000	2.865041
449.000000	2.877666
450.000000	2.890244
451.000000	2.902711
452.000000	2.915488
453.000000	2.929058
454.000000	2.942387
455.000000	2.954931
456.000000	2.967866
457.000000	2.981620
458.000000	2.995264
459.000000	3.008653
460.000000	3.022271
461.000000	3.036316
462.000000	3.050293
463.000000	3.064106
464.000000	3.078086
465.000000	3.092626
466.000000	3.107792
467.000000	3.122174
468.000000	3.136342
469.000000	3.151162
470.000000	3.166517
471.000000	3.181818
472.000000	3.197148
473.000000	3.212400
474.000000	3.227749
475.000000	3.243056
476.000000	3.257951
477.000000	3.273089
478.000000	3.288788
479.000000	3.304384
480.000000	3.318793
481.000000	3.332784
482.000000	3.347152
483.000000	3.361705
484.000000	3.376678
485.000000	3.392124
486.000000	3.408296
487.000000	3.425947
488.000000	3.444185
489.000000	3.463039
490.000000	3.483443
491.000000	3.505402
492.000000	3.528104
493.000000	3.551470
494.000000	3.575612
495.000000	3.600513
496.000000	3.625743
497.000000	3.650863
498.000000	3.676473
499.000000	3.702543
500.000000	3.728886
501.000000	3.755583
502.000000	3.782772
503.000000	3.810325
504.000000	3.837922
505.000000	3.865682
506.000000	3.893461
507.000000	3.920978
508.000000	3.948788
509.000000	3.976930
510.000000	4.004773
511.000000	4.032527
512.000000	4.059989
513.000000	4.087512
514.000000	4.114960
515.000000	4.142255
516.000000	4.169455
517.000000	4.197072
518.000000	4.224401
519.000000	4.251346
520.000000	4.278891
521.000000	4.306664
522.000000	4.334619
523.000000	4.362644
524.000000	4.391171
525.000000	4.420189
526.000000	4.450342
527.000000	4.481046
528.000000	4.512495
529.000000	4.545018
530.000000	4.578457
531.000000	4.612380
532.000000	4.647351
533.000000	4.683280
534.000000	4.720158
535.000000	4.757774
536.000000	4.795843
537.000000	4.835235
538.000000	4.875185
539.000000	4.915805
540.000000	4.956613
541.000000	4.998269
542.000000	5.040523
543.000000	5.083537
544.000000	5.126749
545.000000	5.169986
546.000000	5.214101
547.000000	5.257772
548.000000	5.301780
549.000000	5.345373
550.000000	5.389673
551.000000	5.434279
552.000000	5.478820
553.000000	5.523186
554.000000	5.567471
555.000000	5.611879
556.000000	5.655534
557.000000	5.699061
558.000000	5.742062
559.000000	5.785243
560.000000	5.822456
561.000000	5.858015
562.000000	5.892963
563.000000	5.927202
564.000000	5.961130
565.000000	5.994665
566.000000	6.027975
567.000000	6.061252
568.000000	6.093800
569.000000	6.126054
570.000000	6.163498
571.000000	6.201535
572.000000	6.239324
573.000000	6.276919
574.000000	6.314480
575.000000	6.351495
576.000000	6.388187
577.000000	6.424408
578.000000	6.461506
579.000000	6.497807
580.000000	6.533700
581.000000	6.569320
582.000000	6.605187
583.000000	6.640654
584.000000	6.675814
585.000000	6.711494
586.000000	6.746953
587.000000	6.781839
588.000000	6.815754
589.000000	6.850360
590.000000	6.884695
591.000000	6.919608
592.000000	6.953889
593.000000	6.988525
594.000000	7.022437
595.000000	7.056973
596.000000	7.091038
597.000000	7.125886
598.000000	7.161060
599.000000	7.196314
600.000000	7.231474
601.000000	7.266480
602.000000	7.301121
603.000000	7.336319
604.000000	7.372624
605.000000	7.407799
606.000000	7.443707
607.000000	7.479516
608.000000	7.515819
609.000000	7.551222
610.000000	7.587916
611.000000	7.624258
612.000000	7.661256
613.000000	7.698860
614.000000	7.736512
615.000000	7.774112
616.000000	7.812118
617.000000	7.850811
618.000000	7.890066
619.000000	7.930039
620.000000	7.970223
621.000000	8.010598
622.000000	8.051786
623.000000	8.092895
624.000000	8.134404
625.000000	8.177069
626.000000	8.219894
627.000000	8.263430
628.000000	8.306434
629.000000	8.351107
630.000000	8.395652
631.000000	8.440821
632.000000	8.486885
633.000000	8.533928
634.000000	8.580770
635.000000	8.627736
636.000000	8.675804
637.000000	8.724111
638.000000	8.773062
639.000000	8.822038
640.000000	8.872240
641.000000	8.923520
642.000000	8.975364
643.000000	9.026584
644.000000	9.078617
645.000000	9.131832
646.000000	9.185658
647.000000	9.239562
648.000000	9.294157
649.000000	9.348679
650.000000	9.403049
651.000000	9.457602
652.000000	9.512496
653.000000	9.567136
654.000000	9.622069
655.000000	9.677013
656.000000	9.731813
657.000000	9.786504
658.000000	9.841181
659.000000	9.896293
660.000000	9.951268
661.000000	10.005421
662.000000	10.058641
663.000000	10.113241
664.000000	10.167616
665.000000	10.222029
666.000000	10.276530
667.000000	10.331576
668.000000	10.387006
669.000000	10.442029
670.000000	10.497591
671.000000	10.554942
672.000000	10.613979
673.000000	10.673533
674.000000	10.734759
675.000000	10.797021
676.000000	10.860522
677.000000	10.924373
678.000000	10.988650
679.000000	11.054873
680.000000	11.122567
681.000000	11.191130
682.000000	11.259191
683.000000	11.327864
684.000000	11.396489
685.000000	11.464674
686.000000	11.533642
687.000000	11.604357
688.000000	11.675023
689.000000	11.745104
690.000000	11.814547
691.000000	11.882080
692.000000	11.950608
693.000000	12.019407
694.000000	12.088058
695.000000	12.156668
696.000000	12.224232
697.000000	12.290975
698.000000	12.356244
699.000000	12.420889
700.000000	12.486075
701.000000	12.552817
702.000000	12.619287
703.000000	12.684888
704.000000	12.750062
705.000000	12.814887
706.000000	12.880166
707.000000	12.945167
708.000000	13.010741
709.000000	13.076847
710.000000	13.141934
711.000000	13.208111
712.000000	13.273842
713.000000	13.339253
714.000000	13.405314
715.000000	13.472067
716.000000	13.538346
717.000000	13.605019
718.000000	13.674117
719.000000	13.742805
720.000000	13.810994
721.000000	13.877717
722.000000	13.945224
723.000000	14.013301
724.000000	14.080985
725.000000	14.148991
726.000000	14.217229
727.000000	14.284815
728.000000	14.351662
729.000000	14.419423
730.000000	14.489017
731.000000	14.560190
732.000000	14.630733
733.000000	14.700100
734.000000	14.769377
735.000000	14.839110
736.000000	14.909260
737.000000	14.980031
738.000000	15.051591
739.000000	15.123382
740.000000	15.195084
741.000000	15.265486
742.000000	15.334914
743.000000	15.405844
744.000000	15.477729
745.000000	15.548812
746.000000	15.619853
747.000000	15.691549
748.000000	15.762360
749.000000	15.833704
750.000000	15.904324
751.000000	15.974123
752.000000	16.045007
753.000000	16.115816
754.000000	16.187378
755.000000	16.259249
756.000000	16.329477
757.000000	16.400387
758.000000	16.472444
759.000000	16.542641
760.000000	16.613154
761.000000	16.685962
762.000000	16.759623
763.000000	16.831386
764.000000	16.902244
765.000000	16.974377
766.000000	17.048534
767.000000	17.120771
768.000000	17.191940
769.000000	17.265371
770.000000	17.341176
771.000000	17.417408
772.000000	17.491728
773.000000	17.566351
774.000000	17.641039
775.000000	17.715766
776.000000	17.791203
777.000000	17.867131
778.000000	17.943288
779.000000	18.017975
780.000000	18.090434
781.000000	18.160321
782.000000	18.232164
783.000000	18.307154
784.000000	18.382034
785.000000	18.455363
786.000000	18.526926
787.000000	18.601340
788.000000	18.677183
789.000000	18.751859
790.000000	18.827060
791.000000	18.904167
792.000000	18.979431
793.000000	19.056072
794.000000	19.133609
795.000000	19.210387
796.000000	19.287376
797.000000	19.363272
798.000000	19.437457
799.000000	19.510838
800.000000	19.583143
801.000000	19.654679
802.000000	19.730218
803.000000	19.804289
804.000000	19.878145
805.000000	19.953276
806.000000	20.027524
807.000000	20.098981
808.000000	20.174156
809.000000	20.251928
810.000000	20.330795
811.000000	20.407641
812.000000	20.480180
813.000000	20.553465
814.000000	20.627743
815.000000	20.699404
816.000000	20.774354
817.000000	20.848151
818.000000	20.918867
819.000000	20.986657
820.000000	21.055333
821.000000	21.123630
822.000000	21.191287
823.000000	21.256404
824.000000	21.321369
825.000000	21.384949
826.000000	21.444124
827.000000	21.509114
828.000000	21.568516
829.000000	21.629668
830.000000	21.691708
831.000000	21.753969
832.000000	21.811384
833.000000	21.872499
834.000000	21.930788
835.000000	21.992831
836.000000	22.055304
837.000000	22.108274
838.000000	22.163716
839.000000	22.224131
840.000000	22.282313
841.000000	22.336083
842.000000	22.388759
843.000000	22.440900
844.000000	22.486711
845.000000	22.536464
846.000000	22.586700
847.000000	22.636352
848.000000	22.679822
849.000000	22.718817
850.000000	22.745183
851.000000	22.790531
852.000000	22.825208
853.000000	22.865999
854.000000	22.902815
855.000000	22.947036
856.000000	22.984457
857.000000	23.031964
858.000000	23.316955
859.000000	23.404191
860.000000	23.512605
861.000000	23.614308
862.000000	23.742752
863.000000	23.842713
864.000000	23.941956
865.000000	24.008789
866.000000	24.087220
867.000000	24.158282
868.000000	24.001585
869.000000	24.043878
870.000000	24.079817
871.000000	24.097355
872.000000	24.083447
873.000000	24.095385
874.000000	24.091645
875.000000	24.111078
876.000000	24.119290
877.000000	24.136210
878.000000	24.154175
879.000000	24.156842
880.000000	24.156965
881.000000	24.152620
882.000000	24.163630
883.000000	24.168760
884.000000	24.191723
885.000000	24.201398
886.000000	24.215785
887.000000	24.227135
888.000000	24.226440
889.000000	24.236207
890.000000	24.237255
891.000000	24.244578
892.000000	24.253808
893.000000	24.259867
894.000000	24.267598
895.000000	24.288790
896.000000	24.307688
897.000000	24.323487
898.000000	24.335190
899.000000	24.345148
900.000000	24.366357
901.000000	24.389070
902.000000	24.415980
903.000000	24.442438
904.000000	24.471550
905.000000	24.491112
906.000000	24.510490
907.000000	24.515673
908.000000	24.537840
909.000000	24.562695
910.000000	24.589328
911.000000	24.616385
912.000000	24.637670
913.000000	24.653270
914.000000	24.678470
915.000000	24.705285
916.000000	24.730975
917.000000	24.769838
918.000000	24.798385
919.000000	24.829670
920.000000	24.853675
921.000000	24.876258
922.000000	24.906965
923.000000	24.939987
924.000000	24.963752
925.000000	24.987102
926.000000	25.012555
927.000000	25.035248
928.000000	25.063353
929.000000	25.080985
930.000000	25.101260
931.000000	25.126960
932.000000	25.145812
933.000000	25.168968
934.000000	25.189013
935.000000	25.215348
936.000000	25.239922
937.000000	25.263278
938.000000	25.283020
939.000000	25.306873
940.000000	25.326120
941.000000	25.344045
942.000000	25.363117
943.000000	25.375555
944.000000	25.392218
945.000000	25.403415
946.000000	25.417060
947.000000	25.428645
948.000000	25.442037
949.000000	25.458067
950.000000	25.472668
951.000000	25.489795
952.000000	25.507082
953.000000	25.528073
954.000000	25.547622
955.000000	25.566645
956.000000	25.584978
957.000000	25.605625
958.000000	25.625295
959.000000	25.642210
960.000000	25.660277
961.000000	25.677640
962.000000	25.693743
963.000000	25.709522
964.000000	25.723132
965.000000	25.736155
966.000000	25.749018
967.000000	25.762498
968.000000	25.774617
969.000000	25.786780
970.000000	25.800102
971.000000	25.810593
972.000000	25.822492
973.000000	25.834770
974.000000	25.849905
975.000000	25.865707
976.000000	25.880268
977.000000	25.893308
978.000000	25.906903
979.000000	25.920455
980.000000	25.933345
981.000000	25.947200
982.000000	25.959600
983.000000	25.971075
984.000000	25.982762
985.000000	25.995375
986.000000	26.006550
987.000000	26.017493
988.000000	26.027585
989.000000	26.038500
990.000000	26.048447
991.000000	26.058320
992.000000	26.068372
993.000000	26.080780
994.000000	26.092140
995.000000	26.099867
996.000000	26.108587
997.000000	26.119715
998.000000	26.130637
999.000000	26.139762
1000.000000	26.149667
1001.000000	26.160283
1002.000000	26.170855
1003.000000	26.179960
1004.000000	26.189515
1005.000000	26.201270
1006.000000	26.211280
1007.000000	26.219170
1008.000000	26.228627
1009.000000	26.239825
1010.000000	26.249550
1011.000000	26.259733
1012.000000	26.270563
1013.000000	26.279800
1014.000000	26.288605
1015.000000	26.296760
1016.000000	26.306800
1017.000000	26.317967
1018.000000	26.328407
1019.000000	26.339580
1020.000000	26.351075
1021.000000	26.360647
1022.000000	26.371073
1023.000000	26.382060
1024.000000	26.392442
1025.000000	26.404388
1026.000000	26.416428
1027.000000	26.428397
1028.000000	26.440530
1029.000000	26.452378
1030.000000	26.465053
1031.000000	26.478528
1032.000000	26.490213
1033.000000	26.501790
1034.000000	26.514350
1035.000000	26.526977
1036.000000	26.539755
1037.000000	26.552375
1038.000000	26.565385
1039.000000	26.578095
1040.000000	26.590087
1041.000000	26.602162
1042.000000	26.614340
1043.000000	26.627108
1044.000000	26.639783
1045.000000	26.651357
1046.000000	26.661998
1047.000000	26.673060
1048.000000	26.684603
1049.000000	26.696045
1050.000000	26.707385
1051.000000	26.718863
1052.000000	26.729975
1053.000000	26.741593
1054.000000	26.753557
1055.000000	26.765720
1056.000000	26.778730
1057.000000	26.790168
1058.000000	26.800403
1059.000000	26.811545
1060.000000	26.823230
1061.000000	26.834300
1062.000000	26.846170
1063.000000	26.857385
1064.000000	26.867275
1065.000000	26.876707
1066.000000	26.886352
1067.000000	26.897922
1068.000000	26.910215
1069.000000	26.921610
1070.000000	26.932080
1071.000000	26.942265
1072.000000	26.952860
1073.000000	26.963640
1074.000000	26.976010
1075.000000	26.988048
1076.000000	26.999030
1077.000000	27.008105
1078.000000	27.016597
1079.000000	27.026188
1080.000000	27.036310
1081.000000	27.047287
1082.000000	27.057442
1083.000000	27.066733
1084.000000	27.074365
1085.000000	27.081983
1086.000000	27.090845
1087.000000	27.100595
1088.000000	27.109245
1089.000000	27.115208
1090.000000	27.121210
1091.000000	27.126292
1092.000000	27.132182
1093.000000	27.139122
1094.000000	27.145238
1095.000000	27.151947
1096.000000	27.156427
1097.000000	27.161928
1098.000000	27.167402
1099.000000	27.174475
1100.000000	27.179202
1101.000000	27.183595
1102.000000	27.186990
1103.000000	27.188885
1104.000000	27.192790
1105.000000	27.196042
1106.000000	27.200085
1107.000000	27.201940
1108.000000	27.204563
1109.000000	27.206370
1110.000000	27.208985
1111.000000	27.211260
1112.000000	27.213443
1113.000000	27.215010
1114.000000	27.214405
1115.000000	27.213555
1116.000000	27.211825
1117.000000	27.209427
1118.000000	27.206738
1119.000000	27.200498
1120.000000	27.195647
1121.000000	27.189775
1122.000000	27.183837
1123.000000	27.176283
1124.000000	27.167770
1125.000000	27.158502
1126.000000	27.148175
1127.000000	27.137552
1128.000000	27.124705
1129.000000	27.112553
1130.000000	27.095308
1131.000000	27.075243
1132.000000	27.052310
1133.000000	27.030818
1134.000000	27.010795
1135.000000	26.990812
1136.000000	26.968007
1137.000000	26.942602
1138.000000	26.915502
1139.000000	26.889455
1140.000000	26.865130
1141.000000	26.841777
1142.000000	26.817852
1143.000000	26.791780
1144.000000	26.763907
1145.000000	26.735855
1146.000000	26.710197
1147.000000	26.686257
1148.000000	26.663158
1149.000000	26.639100
1150.000000	26.614688
1151.000000	26.589972
1152.000000	26.565915
1153.000000	26.542652
1154.000000	26.517970
1155.000000	26.490018
1156.000000	26.460195
1157.000000	26.427353
1158.000000	26.393255
1159.000000	26.356695
1160.000000	26.319133
1161.000000	26.280323
1162.000000	26.240623
1163.000000	26.197662
1164.000000	26.153330
1165.000000	26.108950
1166.000000	26.063313
1167.000000	26.018405
1168.000000	25.973382
1169.000000	25.930375
1170.000000	25.888685
1171.000000	25.847458
1172.000000	25.806540
1173.000000	25.768050
1174.000000	25.731510
1175.000000	25.696715
1176.000000	25.665400
1177.000000	25.636958
1178.000000	25.611537
1179.000000	25.586372
1180.000000	25.560965
1181.000000	25.540662
1182.000000	25.522498
1183.000000	25.505878
1184.000000	25.490025
1185.000000	25.476920
1186.000000	25.466515
1187.000000	25.457058
1188.000000	25.448963
1189.000000	25.443355
1190.000000	25.442845
1191.000000	25.442687
1192.000000	25.444318
1193.000000	25.449210
1194.000000	25.459052
1195.000000	25.469910
1196.000000	25.481450
1197.000000	25.493682
1198.000000	25.507055
1199.000000	25.522020
1200.000000	25.536420
1201.000000	25.550785
1202.000000	25.565930
1203.000000	25.579707
1204.000000	25.592675
1205.000000	25.605788
1206.000000	25.618707
1207.000000	25.632712
1208.000000	25.646310
1209.000000	25.660357
1210.000000	25.673973
1211.000000	25.688585
1212.000000	25.703560
1213.000000	25.720675
1214.000000	25.736145
1215.000000	25.751590
1216.000000	25.766552
1217.000000	25.781097
1218.000000	25.797355
1219.000000	25.813080
1220.000000	25.827993
1221.000000	25.842095
1222.000000	25.855575
1223.000000	25.867052
1224.000000	25.878307
1225.000000	25.890045
1226.000000	25.901400
1227.000000	25.912300
1228.000000	25.920775
1229.000000	25.928598
1230.000000	25.935840
1231.000000	25.943105
1232.000000	25.949113
1233.000000	25.954537
1234.000000	25.959520
1235.000000	25.963045
1236.000000	25.966112
1237.000000	25.968755
1238.000000	25.971122
1239.000000	25.972960
1240.000000	25.974755
1241.000000	25.975492
1242.000000	25.976210
1243.000000	25.977612
1244.000000	25.980410
1245.000000	25.983123
1246.000000	25.986763
1247.000000	25.991465
1248.000000	25.997108
1249.000000	26.004095
1250.000000	26.011225
1251.000000	26.020410
1252.000000	26.030460
1253.000000	26.040438
1254.000000	26.050263
1255.000000	26.060523
1256.000000	26.071000
1257.000000	26.081183
1258.000000	26.091318
1259.000000	26.101387
1260.000000	26.112118
1261.000000	26.120955
1262.000000	26.129458
1263.000000	26.138212
1264.000000	26.145810
1265.000000	26.153132
1266.000000	26.160445
1267.000000	26.167782
1268.000000	26.173977
1269.000000	26.178545
1270.000000	26.182723
1271.000000	26.187002
1272.000000	26.191312
1273.000000	26.194257
1274.000000	26.197395
1275.000000	26.200078
1276.000000	26.201123
1277.000000	26.201618
1278.000000	26.202932
1279.000000	26.203845
1280.000000	26.204142
1281.000000	26.204248
1282.000000	26.204232
1283.000000	26.204967
1284.000000	26.206342
1285.000000	26.208058
1286.000000	26.210828
1287.000000	26.214283
1288.000000	26.216845
1289.000000	26.219997
1290.000000	26.224043
1291.000000	26.228268
1292.000000	26.231997
1293.000000	26.235535
1294.000000	26.239155
1295.000000	26.243347
1296.000000	26.246810
1297.000000	26.249780
1298.000000	26.253348
1299.000000	26.257052
1300.000000	26.259765
1301.000000	26.261147
1302.000000	26.263148
1303.000000	26.265377
1304.000000	26.266393
1305.000000	26.266407
1306.000000	26.266303
1307.000000	26.265268
1308.000000	26.262720
1309.000000	26.259100
1310.000000	26.255005
1311.000000	26.251250
1312.000000	26.245783
1313.000000	26.238510
1314.000000	26.230685
1315.000000	26.221303
1316.000000	26.210090
1317.000000	26.197905
1318.000000	26.185952
1319.000000	26.172280
1320.000000	26.156897
1321.000000	26.140797
1322.000000	26.123207
1323.000000	26.103753
1324.000000	26.082020
1325.000000	26.060005
1326.000000	26.037288
1327.000000	26.013143
1328.000000	25.986807
1329.000000	25.959202
1330.000000	25.931268
1331.000000	25.901170
1332.000000	25.869192
1333.000000	25.837438
1334.000000	25.805712
1335.000000	25.772150
1336.000000	25.736305
1337.000000	25.698683
1338.000000	25.659968
1339.000000	25.621327
1340.000000	25.580993
1341.000000	25.538892
1342.000000	25.497040
1343.000000	25.454150
1344.000000	25.409765
1345.000000	25.363422
1346.000000	25.317410
1347.000000	25.271802
1348.000000	25.226225
1349.000000	25.178677
1350.000000	25.129255
1351.000000	25.079078
1352.000000	25.026875
1353.000000	24.975060
1354.000000	24.926747
1355.000000	24.879390
1356.000000	24.830345
1357.000000	24.779513
1358.000000	24.726278
1359.000000	24.669875
1360.000000	24.616217
1361.000000	24.568658
1362.000000	24.521000
1363.000000	24.466447
1364.000000	24.407988
1365.000000	24.344580
1366.000000	24.275928
1367.000000	24.206472
1368.000000	24.133897
1369.000000	24.055833
1370.000000	23.970153
1371.000000	23.874623
1372.000000	23.767830
1373.000000	23.653173
1374.000000	23.524723
1375.000000	23.389028
1376.000000	23.246572
1377.000000	23.092390
1378.000000	22.927867
1379.000000	22.762525
1380.000000	22.596490
1381.000000	22.435550
1382.000000	22.286540
1383.000000	22.150558
1384.000000	22.025052
1385.000000	21.908270
1386.000000	21.804943
1387.000000	21.719297
1388.000000	21.652675
1389.000000	21.595818
1390.000000	21.545370
1391.000000	21.499010
1392.000000	21.458775
1393.000000	21.420680
1394.000000	21.391058
1395.000000	21.376098
1396.000000	21.365400
1397.000000	21.345160
1398.000000	21.317793
1399.000000	21.298485
1400.000000	21.290583
1401.000000	21.276733
1402.000000	21.250273
1403.000000	21.218015
1404.000000	21.183340
1405.000000	21.136560
1406.000000	21.083680
1407.000000	21.034595
1408.000000	20.987630
1409.000000	20.931655
1410.000000	20.859057
1411.000000	20.781883
1412.000000	20.707935
1413.000000	20.637103
1414.000000	20.564155
1415.000000	20.486775
1416.000000	20.404675
1417.000000	20.321777
1418.000000	20.240290
1419.000000	20.160140
1420.000000	20.080570
1421.000000	20.003040
1422.000000	19.928563
1423.000000	19.854050
1424.000000	19.777117
1425.000000	19.702870
1426.000000	19.632613
1427.000000	19.566942
1428.000000	19.499955
1429.000000	19.429478
1430.000000	19.363380
1431.000000	19.303757
1432.000000	19.246100
1433.000000	19.190157
1434.000000	19.135182
1435.000000	19.081575
1436.000000	19.031878
1437.000000	18.982652
1438.000000	18.934392
1439.000000	18.890162
1440.000000	18.849133
1441.000000	18.806403
1442.000000	18.764377
1443.000000	18.720905
1444.000000	18.680782
1445.000000	18.645110
1446.000000	18.610688
1447.000000	18.572478
1448.000000	18.536200
1449.000000	18.501667
1450.000000	18.467598
1451.000000	18.435342
1452.000000	18.403292
1453.000000	18.373303
1454.000000	18.341952
1455.000000	18.309905
1456.000000	18.276343
1457.000000	18.245767
1458.000000	18.214730
1459.000000	18.183420
1460.000000	18.150362
1461.000000	18.117250
1462.000000	18.083472
1463.000000	18.051050
1464.000000	18.019315
1465.000000	17.987683
1466.000000	17.957180
1467.000000	17.926885
1468.000000	17.896790
1469.000000	17.868055
1470.000000	17.840888
1471.000000	17.813785
1472.000000	17.787438
1473.000000	17.760487
1474.000000	17.732385
1475.000000	17.704455
1476.000000	17.677790
1477.000000	17.652235
1478.000000	17.627540
1479.000000	17.603385
1480.000000	17.580262
1481.000000	17.558025
1482.000000	17.536795
1483.000000	17.516315
1484.000000	17.498667
1485.000000	17.481848
1486.000000	17.466225
1487.000000	17.451095
1488.000000	17.437348
1489.000000	17.422878
1490.000000	17.408835
1491.000000	17.396013
1492.000000	17.384477
1493.000000	17.375410
1494.000000	17.368405
1495.000000	17.362840
1496.000000	17.357265
1497.000000	17.353740
1498.000000	17.351850
1499.000000	17.353893
1500.000000	17.357995
1501.000000	17.364030
1502.000000	17.372692
1503.000000	17.383305
1504.000000	17.394633
1505.000000	17.407620
1506.000000	17.423488
1507.000000	17.441058
1508.000000	17.461102
1509.000000	17.481578
1510.000000	17.503325
1511.000000	17.525695
1512.000000	17.548817
1513.000000	17.571748
1514.000000	17.595678
1515.000000	17.621658
1516.000000	17.648133
1517.000000	17.673723
1518.000000	17.698498
1519.000000	17.724052
1520.000000	17.749420
1521.000000	17.775015
1522.000000	17.800350
1523.000000	17.826160
1524.000000	17.852705
1525.000000	17.878502
1526.000000	17.903320
1527.000000	17.927668
1528.000000	17.952008
1529.000000	17.975465
1530.000000	17.997628
1531.000000	18.019305
1532.000000	18.040760
1533.000000	18.061685
1534.000000	18.081045
1535.000000	18.098553
1536.000000	18.115388
1537.000000	18.133128
1538.000000	18.149735
1539.000000	18.164980
1540.000000	18.180293
1541.000000	18.195285
1542.000000	18.210275
1543.000000	18.224865
1544.000000	18.240010
1545.000000	18.255277
1546.000000	18.270547
1547.000000	18.286103
1548.000000	18.303230
1549.000000	18.320745
1550.000000	18.338715
1551.000000	18.357513
1552.000000	18.376170
1553.000000	18.394750
1554.000000	18.413333
1555.000000	18.432005
1556.000000	18.450565
1557.000000	18.467548
1558.000000	18.481720
1559.000000	18.494593
1560.000000	18.506243
1561.000000	18.516040
1562.000000	18.523590
1563.000000	18.529395
1564.000000	18.532715
1565.000000	18.534070
1566.000000	18.534145
1567.000000	18.533278
1568.000000	18.531263
1569.000000	18.528355
1570.000000	18.525222
1571.000000	18.521142
1572.000000	18.517225
1573.000000	18.513772
1574.000000	18.511250
1575.000000	18.509493
1576.000000	18.507360
1577.000000	18.506835
1578.000000	18.507928
1579.000000	18.509310
1580.000000	18.511175
1581.000000	18.514997
1582.000000	18.519808
1583.000000	18.524493
1584.000000	18.530352
1585.000000	18.538027
1586.000000	18.547238
1587.000000	18.556738
1588.000000	18.567270
1589.000000	18.580627
1590.000000	18.595002
1591.000000	18.608875
1592.000000	18.623540
1593.000000	18.640487
1594.000000	18.657470
1595.000000	18.673928
1596.000000	18.689688
1597.000000	18.706280
1598.000000	18.724417
1599.000000	18.742170
1600.000000	18.760880
1601.000000	18.781142
1602.000000	18.801408
1603.000000	18.821140
1604.000000	18.841025
1605.000000	18.861217
1606.000000	18.883810
1607.000000	18.906192
1608.000000	18.927480
1609.000000	18.949875
1610.000000	18.970905
1611.000000	18.990362
1612.000000	19.009958
1613.000000	19.028885
1614.000000	19.047650
1615.000000	19.065902
1616.000000	19.082407
1617.000000	19.097995
1618.000000	19.113555
1619.000000	19.126840
1620.000000	19.140287
1621.000000	19.153888
1622.000000	19.166277
1623.000000	19.178435
1624.000000	19.190013
1625.000000	19.202132
1626.000000	19.213818
1627.000000	19.225695
1628.000000	19.236533
1629.000000	19.247390
1630.000000	19.256515
1631.000000	19.265595
1632.000000	19.275820
1633.000000	19.286382
1634.000000	19.296228
1635.000000	19.305295
1636.000000	19.312425
1637.000000	19.318700
1638.000000	19.325448
1639.000000	19.330825
1640.000000	19.336625
1641.000000	19.341102
1642.000000	19.343382
1643.000000	19.345163
1644.000000	19.345855
1645.000000	19.345697
1646.000000	19.346205
1647.000000	19.345135
1648.000000	19.341703
1649.000000	19.338145
1650.000000	19.333410
1651.000000	19.326060
1652.000000	19.317388
1653.000000	19.306348
1654.000000	19.292337
1655.000000	19.275393
1656.000000	19.256117
1657.000000	19.235312
1658.000000	19.211265
1659.000000	19.184197
1660.000000	19.154305
1661.000000	19.122890
1662.000000	19.088390
1663.000000	19.049225
1664.000000	19.009963
1665.000000	18.967643
1666.000000	18.922937
1667.000000	18.874170
1668.000000	18.819567
1669.000000	18.762910
1670.000000	18.702958
1671.000000	18.640670
1672.000000	18.576210
1673.000000	18.511433
1674.000000	18.443863
1675.000000	18.375470
1676.000000	18.306365
1677.000000	18.237190
1678.000000	18.171737
1679.000000	18.104308
1680.000000	18.037400
1681.000000	17.969720
1682.000000	17.902063
1683.000000	17.835975
1684.000000	17.769895
1685.000000	17.706007
1686.000000	17.644157
1687.000000	17.586405
1688.000000	17.533460
1689.000000	17.486628
1690.000000	17.446977
1691.000000	17.416330
1692.000000	17.392335
1693.000000	17.374873
1694.000000	17.365285
1695.000000	17.359098
1696.000000	17.358377
1697.000000	17.358850
1698.000000	17.360892
1699.000000	17.364455
1700.000000	17.366960
1701.000000	17.367035
1702.000000	17.367002
1703.000000	17.363543
1704.000000	17.357167
1705.000000	17.348098
1706.000000	17.333825
1707.000000	17.317820
1708.000000	17.298395
1709.000000	17.275005
1710.000000	17.245877
1711.000000	17.214265
1712.000000	17.176553
1713.000000	17.133997
1714.000000	17.086282
1715.000000	17.036448
1716.000000	16.984210
1717.000000	16.929668
1718.000000	16.872010
1719.000000	16.812967
1720.000000	16.753882
1721.000000	16.694825
1722.000000	16.639813
1723.000000	16.588673
1724.000000	16.543760
1725.000000	16.504703
1726.000000	16.472082
1727.000000	16.445170
1728.000000	16.425420
1729.000000	16.413035
1730.000000	16.408397
1731.000000	16.410275
1732.000000	16.416683
1733.000000	16.428828
1734.000000	16.444350
1735.000000	16.464105
1736.000000	16.485658
1737.000000	16.509810
1738.000000	16.537630
1739.000000	16.567592
1740.000000	16.599795
1741.000000	16.632718
1742.000000	16.666330
1743.000000	16.699435
1744.000000	16.732695
1745.000000	16.763858
1746.000000	16.796760
1747.000000	16.830302
1748.000000	16.861665
1749.000000	16.891235
1750.000000	16.918492
1751.000000	16.943267
1752.000000	16.967170
1753.000000	16.989058
1754.000000	17.009453
1755.000000	17.027715
1756.000000	17.043727
1757.000000	17.055822
1758.000000	17.066443
1759.000000	17.076693
1760.000000	17.086460
1761.000000	17.093565
1762.000000	17.099250
1763.000000	17.106835
1764.000000	17.115537
1765.000000	17.125825
1766.000000	17.136108
1767.000000	17.148800
1768.000000	17.162463
1769.000000	17.176283
1770.000000	17.191425
1771.000000	17.208278
1772.000000	17.226055
1773.000000	17.243775
1774.000000	17.260940
1775.000000	17.279648
1776.000000	17.297208
1777.000000	17.314795
1778.000000	17.332433
1779.000000	17.350327
1780.000000	17.368070
1781.000000	17.386513
1782.000000	17.402770
1783.000000	17.417695
1784.000000	17.433380
1785.000000	17.446665
1786.000000	17.460210
1787.000000	17.471387
1788.000000	17.480355
1789.000000	17.486555
1790.000000	17.490827
1791.000000	17.495540
1792.000000	17.501675
1793.000000	17.507290
1794.000000	17.511147
1795.000000	17.515710
1796.000000	17.520317
1797.000000	17.525913
1798.000000	17.531755
1799.000000	17.538340
1800.000000	17.548080
1801.000000	17.558567
1802.000000	17.568823
1803.000000	17.576195
1804.000000	17.583420
1805.000000	17.591725
1806.000000	17.601057
1807.000000	17.610508
1808.000000	17.618982
1809.000000	17.626575
1810.000000	17.632787
1811.000000	17.638888
1812.000000	17.644905
1813.000000	17.653515
1814.000000	17.662290
1815.000000	17.669600
1816.000000	17.674043
1817.000000	17.673137
1818.000000	17.670797
1819.000000	17.673202
1820.000000	17.682460
1821.000000	17.695570
1822.000000	17.705670
1823.000000	17.708272
1824.000000	17.706820
1825.000000	17.704155
1826.000000	17.705327
1827.000000	17.713900
1828.000000	17.727005
1829.000000	17.738582
1830.000000	17.743903
1831.000000	17.743855
1832.000000	17.743493
1833.000000	17.746035
1834.000000	17.751455
1835.000000	17.760307
1836.000000	17.771918
1837.000000	17.783597
1838.000000	17.793845
1839.000000	17.803630
1840.000000	17.818385
1841.000000	17.840422
1842.000000	17.864883
1843.000000	17.884785
1844.000000	17.894120
1845.000000	17.894258
1846.000000	17.892947
1847.000000	17.902120
1848.000000	17.921965
1849.000000	17.937070
1850.000000	17.935028
1851.000000	17.918173
1852.000000	17.900998
1853.000000	17.894993
1854.000000	17.901042
1855.000000	17.911725
1856.000000	17.913788
1857.000000	17.900065
1858.000000	17.878065
1859.000000	17.859770
1860.000000	17.851197
1861.000000	17.848717
1862.000000	17.841112
1863.000000	17.821295
1864.000000	17.790505
1865.000000	17.753020
1866.000000	17.711435
1867.000000	17.667035
1868.000000	17.615675
1869.000000	17.564163
1870.000000	17.511893
1871.000000	17.456315
1872.000000	17.403527
1873.000000	17.356045
1874.000000	17.311315
1875.000000	17.267405
1876.000000	17.220840
1877.000000	17.168675
1878.000000	17.108760
1879.000000	17.032068
1880.000000	16.939995
1881.000000	16.837138
1882.000000	16.726183
1883.000000	16.607917
1884.000000	16.484393
1885.000000	16.354830
1886.000000	16.219305
1887.000000	16.071807
1888.000000	15.918455
1889.000000	15.764702
1890.000000	15.610560
1891.000000	15.457793
1892.000000	15.302505
1893.000000	15.139560
1894.000000	14.963432
1895.000000	14.776888
1896.000000	14.587082
1897.000000	14.398523
1898.000000	14.212862
1899.000000	14.026640
1900.000000	13.838360
1901.000000	13.646278
1902.000000	13.448692
1903.000000	13.252345
1904.000000	13.069153
1905.000000	12.898435
1906.000000	12.734557
1907.000000	12.577317
1908.000000	12.417325
1909.000000	12.255057
1910.000000	12.095810
1911.000000	11.941485
1912.000000	11.801792
1913.000000	11.672137
1914.000000	11.547290
1915.000000	11.423085
1916.000000	11.298420
1917.000000	11.178113
1918.000000	11.065747
1919.000000	10.967363
1920.000000	10.884013
1921.000000	10.808747
1922.000000	10.732812
1923.000000	10.659480
1924.000000	10.584950
1925.000000	10.517278
1926.000000	10.458295
1927.000000	10.404660
1928.000000	10.360390
1929.000000	10.322518
1930.000000	10.281295
1931.000000	10.243520
1932.000000	10.207522
1933.000000	10.176122
1934.000000	10.152175
1935.000000	10.131052
1936.000000	10.115042
1937.000000	10.103582
1938.000000	10.094130
1939.000000	10.083403
1940.000000	10.077903
1941.000000	10.075285
1942.000000	10.074780
1943.000000	10.078825
1944.000000	10.084168
1945.000000	10.094020
1946.000000	10.108710
1947.000000	10.122818
1948.000000	10.135057
1949.000000	10.148480
1950.000000	10.166450
1951.000000	10.183128
1952.000000	10.203588
1953.000000	10.224230
1954.000000	10.250207
1955.000000	10.275115
1956.000000	10.298752
1957.000000	10.325698
1958.000000	10.354332
1959.000000	10.387080
1960.000000	10.419098
1961.000000	10.451492
1962.000000	10.484072
1963.000000	10.512842
1964.000000	10.540660
1965.000000	10.571925
1966.000000	10.600495
1967.000000	10.632288
1968.000000	10.663100
1969.000000	10.692275
1970.000000	10.717665
1971.000000	10.745048
1972.000000	10.773960
1973.000000	10.806450
1974.000000	10.836163
1975.000000	10.865780
1976.000000	10.895440
1977.000000	10.923910
1978.000000	10.956135
1979.000000	10.986818
1980.000000	11.020222
1981.000000	11.054042
1982.000000	11.086040
1983.000000	11.117422
1984.000000	11.151167
1985.000000	11.181217
1986.000000	11.216020
1987.000000	11.246742
1988.000000	11.278990
1989.000000	11.314095
1990.000000	11.347675
1991.000000	11.378632
1992.000000	11.408472
1993.000000	11.441143
1994.000000	11.474100
1995.000000	11.503753
1996.000000	11.528583
1997.000000	11.554745
1998.000000	11.579490
1999.000000	11.602338
2000.000000	11.626160
2001.000000	11.649955
2002.000000	11.672745
2003.000000	11.693155
2004.000000	11.715293
2005.000000	11.738130
2006.000000	11.762250
2007.000000	11.785615
2008.000000	11.805530
2009.000000	11.822010
2010.000000	11.834252
2011.000000	11.844445
2012.000000	11.854400
2013.000000	11.858795
2014.000000	11.860090
2015.000000	11.861930
2016.000000	11.860055
2017.000000	11.855087
2018.000000	11.850978
2019.000000	11.844112
2020.000000	11.833790
2021.000000	11.823018
2022.000000	11.809223
2023.000000	11.796705
2024.000000	11.776153
2025.000000	11.754012
2026.000000	11.729815
2027.000000	11.703535
2028.000000	11.670438
2029.000000	11.641223
2030.000000	11.612773
2031.000000	11.582565
2032.000000	11.548645
2033.000000	11.509353
2034.000000	11.472342
2035.000000	11.435735
2036.000000	11.397065
2037.000000	11.356827
2038.000000	11.314343
2039.000000	11.264890
2040.000000	11.215830
2041.000000	11.164355
2042.000000	11.114892
2043.000000	11.066737
2044.000000	11.013930
2045.000000	10.956377
2046.000000	10.900495
2047.000000	10.847140
2048.000000	10.801262
2049.000000	10.759578
2050.000000	10.715980
2051.000000	10.672625
2052.000000	10.633085
2053.000000	10.597613
2054.000000	10.567452
2055.000000	10.543913
2056.000000	10.523370
2057.000000	10.508895
2058.000000	10.500068
2059.000000	10.493157
2060.000000	10.493173
2061.000000	10.503127
2062.000000	10.517973
2063.000000	10.537960
2064.000000	10.567328
2065.000000	10.597832
2066.000000	10.632940
2067.000000	10.670925
2068.000000	10.706455
2069.000000	10.742265
2070.000000	10.781035
2071.000000	10.817607
2072.000000	10.853355
2073.000000	10.886940
2074.000000	10.913557
2075.000000	10.940360
2076.000000	10.969378
2077.000000	10.992558
2078.000000	11.014062
2079.000000	11.039245
2080.000000	11.060543
2081.000000	11.078230
2082.000000	11.091107
2083.000000	11.106903
2084.000000	11.129687
2085.000000	11.148445
2086.000000	11.154438
2087.000000	11.158928
2088.000000	11.167255
2089.000000	11.175800
2090.000000	11.182163
2091.000000	11.186145
2092.000000	11.191305
2093.000000	11.193510
2094.000000	11.188068
2095.000000	11.179987
2096.000000	11.176300
2097.000000	11.170605
2098.000000	11.164627
2099.000000	11.162923
2100.000000	11.158945
2101.000000	11.154932
2102.000000	11.158148
2103.000000	11.162080
2104.000000	11.164772
2105.000000	11.171995
2106.000000	11.175610
2107.000000	11.176355
2108.000000	11.173193
2109.000000	11.163605
2110.000000	11.157155
2111.000000	11.158568
2112.000000	11.153900
2113.000000	11.143328
2114.000000	11.136003
2115.000000	11.123107
2116.000000	11.108997
2117.000000	11.100618
2118.000000	11.089997
2119.000000	11.081703
2120.000000	11.075025
2121.000000	11.061367
2122.000000	11.046473
2123.000000	11.029317
2124.000000	11.009208
2125.000000	10.995685
2126.000000	10.988823
2127.000000	10.979637
2128.000000	10.969508
2129.000000	10.952928
2130.000000	10.929970
2131.000000	10.910450
2132.000000	10.888865
2133.000000	10.870330
2134.000000	10.847767
2135.000000	10.819152
2136.000000	10.792238
2137.000000	10.762227
2138.000000	10.730330
2139.000000	10.698672
2140.000000	10.669817
2141.000000	10.630625
2142.000000	10.593245
2143.000000	10.546700
2144.000000	10.503167
2145.000000	10.473630
2146.000000	10.440777
2147.000000	10.402793
2148.000000	10.365815
2149.000000	10.328078
2150.000000	10.283053
2151.000000	10.248053
2152.000000	10.211445
2153.000000	10.176633
2154.000000	10.140315
2155.000000	10.097083
2156.000000	10.049882
2157.000000	10.010133
2158.000000	9.967138
2159.000000	9.920718
2160.000000	9.879038
2161.000000	9.836635
2162.000000	9.793155
2163.000000	9.759290
2164.000000	9.726617
2165.000000	9.687055
2166.000000	9.653728
2167.000000	9.621073
2168.000000	9.587452
2169.000000	9.563870
2170.000000	9.543975
2171.000000	9.527580
2172.000000	9.505883
2173.000000	9.477277
2174.000000	9.452225
2175.000000	9.421325
2176.000000	9.395782
2177.000000	9.377202
2178.000000	9.357880
2179.000000	9.336232
2180.000000	9.305885
2181.000000	9.278187
2182.000000	9.257767
2183.000000	9.243522
2184.000000	9.214865
2185.000000	9.197295
2186.000000	9.167613
2187.000000	9.123247
2188.000000	9.078418
2189.000000	9.025485
2190.000000	8.971195
2191.000000	8.900443
2192.000000	8.824535
2193.000000	8.738927
2194.000000	8.666307
2195.000000	8.581782
2196.000000	8.497352
2197.000000	8.418740
2198.000000	8.335245
2199.000000	8.250528
2200.000000	8.164148
2201.000000	8.078825
2202.000000	8.000395
2203.000000	7.929910
2204.000000	7.854440
2205.000000	7.787560
2206.000000	7.725390
2207.000000	7.667793
2208.000000	7.614468
2209.000000	7.566295
2210.000000	7.528373
2211.000000	7.511900
2212.000000	7.497960
2213.000000	7.479990
2214.000000	7.468837
2215.000000	7.458563
2216.000000	7.464708
2217.000000	7.475118
2218.000000	7.503027
2219.000000	7.528135
2220.000000	7.556105
2221.000000	7.576767
2222.000000	7.599115
2223.000000	7.637990
2224.000000	7.670555
2225.000000	7.705062
2226.000000	7.736928
2227.000000	7.769970
2228.000000	7.795587
2229.000000	7.836087
2230.000000	7.870015
2231.000000	7.913667
2232.000000	7.948527
2233.000000	7.961977
2234.000000	7.993355
2235.000000	8.023410
2236.000000	8.042817
2237.000000	8.063083
2238.000000	8.082470
2239.000000	8.086043
2240.000000	8.092130
2241.000000	8.076295
2242.000000	8.052162
2243.000000	8.047193
2244.000000	8.035908
2245.000000	8.024565
2246.000000	8.007547
2247.000000	7.984520
2248.000000	7.953493
2249.000000	7.929875
2250.000000	7.909653
2251.000000	7.891090
2252.000000	7.887165
2253.000000	7.873345
2254.000000	7.841482
2255.000000	7.814985
2256.000000	7.800598
2257.000000	7.789557
2258.000000	7.776380
2259.000000	7.770663
2260.000000	7.763245
2261.000000	7.767520
2262.000000	7.757233
2263.000000	7.763985
2264.000000	7.773243
2265.000000	7.784925
2266.000000	7.786843
2267.000000	7.784063
2268.000000	7.795518
2269.000000	7.789420
2270.000000	7.789990
2271.000000	7.784565
2272.000000	7.796535
2273.000000	7.805743
2274.000000	7.807053
2275.000000	7.810930
2276.000000	7.825592
2277.000000	7.833933
2278.000000	7.847817
2279.000000	7.863782
2280.000000	7.882637
2281.000000	7.904552
2282.000000	7.932355
2283.000000	7.956885
2284.000000	7.990632
2285.000000	8.012828
2286.000000	8.032888
2287.000000	8.050683
2288.000000	8.069415
2289.000000	8.093163
2290.000000	8.114748
2291.000000	8.140220
2292.000000	8.142985
2293.000000	8.142923
2294.000000	8.161100
2295.000000	8.173523
2296.000000	8.190902
2297.000000	8.217252
2298.000000	8.234992
2299.000000	8.246267
2300.000000	8.246285
2301.000000	8.249908
2302.000000	8.266455
2303.000000	8.284417
2304.000000	8.305807
2305.000000	8.333722
2306.000000	8.351328
2307.000000	8.374752
2308.000000	8.403870
2309.000000	8.437890
2310.000000	8.478535
2311.000000	8.504223
2312.000000	8.532333
2313.000000	8.565405
2314.000000	8.587490
2315.000000	8.621850
2316.000000	8.657538
2317.000000	8.677648
2318.000000	8.703672
2319.000000	8.723678
2320.000000	8.753348
2321.000000	8.785130
2322.000000	8.814328
2323.000000	8.830752
2324.000000	8.850595
2325.000000	8.860463
2326.000000	8.866367
2327.000000	8.876925
2328.000000	8.878010
2329.000000	8.896115
2330.000000	8.896007
2331.000000	8.911610
2332.000000	8.927850
2333.000000	8.938860
2334.000000	8.935968
2335.000000	8.934365
2336.000000	8.947512
2337.000000	8.974830
2338.000000	8.994205
2339.000000	9.004718
2340.000000	9.019865
2341.000000	9.031403
2342.000000	9.044203
2343.000000	9.053995
2344.000000	9.071817
2345.000000	9.090938
2346.000000	9.115888
2347.000000	9.134047
2348.000000	9.140635
2349.000000	9.145685
2350.000000	9.158560
2351.000000	9.178150
2352.000000	9.200955
2353.000000	9.231425
2354.000000	9.260763
2355.000000	9.281023
2356.000000	9.282695
2357.000000	9.297573
2358.000000	9.316973
2359.000000	9.329962
2360.000000	9.354283
2361.000000	9.371372
2362.000000	9.384015
2363.000000	9.382713
2364.000000	9.383278
2365.000000	9.411645
2366.000000	9.433055
2367.000000	9.430055
2368.000000	9.447365
2369.000000	9.486325
2370.000000	9.505767
2371.000000	9.512013
2372.000000	9.518847
2373.000000	9.538567
2374.000000	9.559725
2375.000000	9.567433
2376.000000	9.579570
2377.000000	9.605980
2378.000000	9.623740
2379.000000	9.627275
2380.000000	9.635118
2381.000000	9.647490
2382.000000	9.665210
2383.000000	9.688485
2384.000000	9.698240
2385.000000	9.708875
2386.000000	9.718115
2387.000000	9.717065
2388.000000	9.718597
2389.000000	9.724863
2390.000000	9.720860
2391.000000	9.719470
2392.000000	9.713000
2393.000000	9.710133
2394.000000	9.717700
2395.000000	9.721145
2396.000000	9.727940
2397.000000	9.728153
2398.000000	9.711160
2399.000000	9.691675
2400.000000	9.685175
2401.000000	9.677820
2402.000000	9.684453
2403.000000	9.683070
2404.000000	9.677283
2405.000000	9.682577
2406.000000	9.683845
2407.000000	9.691163
2408.000000	9.710395
2409.000000	9.714600
2410.000000	9.711145
2411.000000	9.708728
2412.000000	9.682773
2413.000000	9.643835
2414.000000	9.614513
2415.000000	9.578622
2416.000000	9.548180
2417.000000	9.531975
2418.000000	9.534402
2419.000000	9.528595
2420.000000	9.530550
2421.000000	9.530917
2422.000000	9.550025
2423.000000	9.573042
2424.000000	9.586660
2425.000000	9.593525
2426.000000	9.596335
2427.000000	9.597415
2428.000000	9.572535
2429.000000	9.551013
2430.000000	9.494293
2431.000000	9.450078
2432.000000	9.405188
2433.000000	9.394752
2434.000000	9.408170
2435.000000	9.409590
2436.000000	9.398810
2437.000000	9.368123
2438.000000	9.344395
2439.000000	9.364867
2440.000000	9.410820
2441.000000	9.432170
2442.000000	9.458018
2443.000000	9.440142
2444.000000	9.400227
2445.000000	9.369072
2446.000000	9.314927
2447.000000	9.285330
2448.000000	9.278087
2449.000000	9.243970
2450.000000	9.232958
2451.000000	9.263140
2452.000000	9.248855
2453.000000	9.248795
2454.000000	9.251670
2455.000000	9.272842
2456.000000	9.331907
2457.000000	9.402210
2458.000000	9.445720
2459.000000	9.475577
2460.000000	9.480995
2461.000000	9.485795
2462.000000	9.523730
2463.000000	9.598890
2464.000000	9.670170
2465.000000	9.693637
2466.000000	9.668923
2467.000000	9.689698
2468.000000	9.824615
2469.000000	9.942373
2470.000000	10.044093
2471.000000	10.048335
2472.000000	10.100940
2473.000000	10.168725
2474.000000	10.240938
2475.000000	10.409603
2476.000000	10.559880
2477.000000	10.730415
2478.000000	10.833502
2479.000000	10.934482
2480.000000	11.092160
2481.000000	11.346232
2482.000000	11.524497
2483.000000	11.661882
2484.000000	11.844720
2485.000000	11.982175
2486.000000	12.147268
2487.000000	12.204778
2488.000000	12.323443
2489.000000	12.475938
2490.000000	12.590780
2491.000000	12.659965
2492.000000	12.876600
2493.000000	13.002560
2494.000000	13.114542
2495.000000	13.267712
2496.000000	13.455410
2497.000000	13.682990
2498.000000	13.868565
2499.000000	13.996062
2500.000000	14.172863
