PE UV       SUBTECH     SPECTRUM    ASCII       PEDS        4.00        
   -1
INBUCR0232-4.Sample.ASC
24/02/08
11:59:15.00
24/02/08
11:59:15.00
Vinicio Soto Monge
Plateado. Extremos de las patas morados.
250,000000
1
Lambda 1050
1050L1511233
PerkinElmer UV WinLab 6.3.2.0749 / 2.02.05 Lambda 900 UV/VIS/NIR, Aug  7 2015 09:38:08

0
0
3350/servo 860,8/2
0
0
UV/VIS
1
1
1
DoubleDePol,CommonBeamDepol,RBeamAtt,SBeamAtt,60mm sphere, WB InGaAs Detector
0
0
0
0
Program
Program
3350/servo 860,8/2
3350/0,2 860,8/0,2
3350/0,2 860,8/0,2
0
15.00
 
 
 
0
 
860,8
319,2
860,8
Front
100
on
S:100 R:100
0
0
0
0
 
0
 
 
 
0
 
 
0
0
0
0
0
 
 
 
 
0
0


0
0
#HDR
-1
-1
#GR
nm
%R
1.0
0.0
2500,000000
-1,000000
2251
8
15,638800
1,495600
#DATA

250.000000	nan
251.000000	nan
252.000000	nan
253.000000	nan
254.000000	nan
255.000000	nan
256.000000	nan
257.000000	nan
258.000000	nan
259.000000	4.211352
260.000000	4.198303
261.000000	4.185300
262.000000	4.168917
263.000000	4.154293
264.000000	4.138238
265.000000	4.120032
266.000000	4.102231
267.000000	4.083169
268.000000	4.065389
269.000000	4.046720
270.000000	4.029464
271.000000	4.013165
272.000000	3.998658
273.000000	3.984412
274.000000	3.968939
275.000000	3.956424
276.000000	3.945195
277.000000	3.935376
278.000000	3.925478
279.000000	3.916038
280.000000	3.908103
281.000000	3.899464
282.000000	3.891723
283.000000	3.884483
284.000000	3.880893
285.000000	3.876044
286.000000	3.871284
287.000000	3.866091
288.000000	3.861558
289.000000	3.860159
290.000000	3.855893
291.000000	3.854884
292.000000	3.852617
293.000000	3.851008
294.000000	3.847111
295.000000	3.845429
296.000000	3.841376
297.000000	3.838812
298.000000	3.835745
299.000000	3.830424
300.000000	3.826053
301.000000	3.821080
302.000000	3.817614
303.000000	3.811104
304.000000	3.808929
305.000000	3.805678
306.000000	3.798352
307.000000	3.791541
308.000000	3.786093
309.000000	3.780487
310.000000	3.776484
311.000000	3.772327
312.000000	3.767991
313.000000	3.765511
314.000000	3.762737
315.000000	3.758588
316.000000	3.762661
317.000000	3.776976
318.000000	3.798729
319.000000	3.821160
320.000000	3.834238
321.000000	3.849423
322.000000	3.861513
323.000000	3.884753
324.000000	3.901386
325.000000	3.922941
326.000000	3.939644
327.000000	3.945471
328.000000	3.944272
329.000000	3.939339
330.000000	3.942141
331.000000	3.946519
332.000000	3.958121
333.000000	3.961052
334.000000	3.971549
335.000000	3.982838
336.000000	3.994293
337.000000	4.009796
338.000000	4.032115
339.000000	4.059723
340.000000	4.092977
341.000000	4.127644
342.000000	4.162269
343.000000	4.204366
344.000000	4.253633
345.000000	4.306475
346.000000	4.374278
347.000000	4.447941
348.000000	4.524469
349.000000	4.616591
350.000000	4.715514
351.000000	4.828668
352.000000	4.959837
353.000000	5.103067
354.000000	5.258599
355.000000	5.432633
356.000000	5.620455
357.000000	5.827848
358.000000	6.055250
359.000000	6.298445
360.000000	6.564762
361.000000	6.851437
362.000000	7.155537
363.000000	7.478832
364.000000	7.826151
365.000000	8.189835
366.000000	8.570118
367.000000	8.965050
368.000000	9.378769
369.000000	9.811376
370.000000	10.253578
371.000000	10.703527
372.000000	11.156707
373.000000	11.614981
374.000000	12.071550
375.000000	12.531156
376.000000	12.996751
377.000000	13.470066
378.000000	13.934461
379.000000	14.384324
380.000000	14.827297
381.000000	15.257498
382.000000	15.679342
383.000000	16.087149
384.000000	16.479405
385.000000	16.852833
386.000000	17.202308
387.000000	17.521401
388.000000	17.821866
389.000000	18.106282
390.000000	18.371221
391.000000	18.616200
392.000000	18.841070
393.000000	19.049117
394.000000	19.239630
395.000000	19.412138
396.000000	19.567055
397.000000	19.706454
398.000000	19.827628
399.000000	19.930767
400.000000	20.018895
401.000000	20.091209
402.000000	20.149493
403.000000	20.191099
404.000000	20.216594
405.000000	20.228810
406.000000	20.226950
407.000000	20.211358
408.000000	20.184688
409.000000	20.146155
410.000000	20.095458
411.000000	20.033969
412.000000	19.961789
413.000000	19.882573
414.000000	19.798058
415.000000	19.709859
416.000000	19.619661
417.000000	19.530547
418.000000	19.445413
419.000000	19.366739
420.000000	19.297764
421.000000	19.241057
422.000000	19.200760
423.000000	19.178661
424.000000	19.176027
425.000000	19.194986
426.000000	19.236133
427.000000	19.297221
428.000000	19.377431
429.000000	19.475308
430.000000	19.587165
431.000000	19.709952
432.000000	19.837986
433.000000	19.966164
434.000000	20.089334
435.000000	20.201503
436.000000	20.300134
437.000000	20.382631
438.000000	20.444579
439.000000	20.484285
440.000000	20.500839
441.000000	20.493008
442.000000	20.461795
443.000000	20.407603
444.000000	20.332343
445.000000	20.239392
446.000000	20.130198
447.000000	20.007338
448.000000	19.874506
449.000000	19.736076
450.000000	19.595681
451.000000	19.456316
452.000000	19.322402
453.000000	19.198871
454.000000	19.090757
455.000000	19.001750
456.000000	18.934272
457.000000	18.889460
458.000000	18.867189
459.000000	18.866029
460.000000	18.883858
461.000000	18.919070
462.000000	18.967941
463.000000	19.025122
464.000000	19.083718
465.000000	19.137929
466.000000	19.183450
467.000000	19.215683
468.000000	19.231264
469.000000	19.227560
470.000000	19.203567
471.000000	19.158794
472.000000	19.093372
473.000000	19.009557
474.000000	18.911557
475.000000	18.803667
476.000000	18.689735
477.000000	18.575359
478.000000	18.466830
479.000000	18.369306
480.000000	18.287127
481.000000	18.224043
482.000000	18.183014
483.000000	18.166260
484.000000	18.175134
485.000000	18.207714
486.000000	18.261901
487.000000	18.334549
488.000000	18.420884
489.000000	18.515704
490.000000	18.614691
491.000000	18.712923
492.000000	18.805984
493.000000	18.889927
494.000000	18.962105
495.000000	19.020561
496.000000	19.065756
497.000000	19.098595
498.000000	19.120023
499.000000	19.133223
500.000000	19.142277
501.000000	19.151244
502.000000	19.165444
503.000000	19.188259
504.000000	19.223957
505.000000	19.277429
506.000000	19.353417
507.000000	19.456285
508.000000	19.592086
509.000000	19.764487
510.000000	19.975351
511.000000	20.228338
512.000000	20.523376
513.000000	20.860399
514.000000	21.235691
515.000000	21.643266
516.000000	22.074682
517.000000	22.520365
518.000000	22.969082
519.000000	23.410431
520.000000	23.835399
521.000000	24.234288
522.000000	24.600967
523.000000	24.930177
524.000000	25.219730
525.000000	25.471493
526.000000	25.688577
527.000000	25.875850
528.000000	26.038474
529.000000	26.181606
530.000000	26.307923
531.000000	26.422316
532.000000	26.526579
533.000000	26.622720
534.000000	26.712968
535.000000	26.797478
536.000000	26.875473
537.000000	26.947243
538.000000	27.012688
539.000000	27.069805
540.000000	27.120909
541.000000	27.165326
542.000000	27.204030
543.000000	27.237585
544.000000	27.265860
545.000000	27.289342
546.000000	27.309690
547.000000	27.326772
548.000000	27.340037
549.000000	27.353209
550.000000	27.364538
551.000000	27.374565
552.000000	27.382622
553.000000	27.389922
554.000000	27.396554
555.000000	27.401518
556.000000	27.404820
557.000000	27.406172
558.000000	27.405377
559.000000	27.401680
560.000000	27.387255
561.000000	27.369006
562.000000	27.347693
563.000000	27.323976
564.000000	27.297159
565.000000	27.268297
566.000000	27.235791
567.000000	27.201338
568.000000	27.164617
569.000000	27.124703
570.000000	27.089142
571.000000	27.050795
572.000000	27.008108
573.000000	26.959363
574.000000	26.903362
575.000000	26.838845
576.000000	26.766086
577.000000	26.681709
578.000000	26.585040
579.000000	26.474485
580.000000	26.347806
581.000000	26.203987
582.000000	26.041652
583.000000	25.860861
584.000000	25.661632
585.000000	25.445385
586.000000	25.214981
587.000000	24.974694
588.000000	24.732948
589.000000	24.496441
590.000000	24.278139
591.000000	24.084378
592.000000	23.921814
593.000000	23.795208
594.000000	23.702773
595.000000	23.642171
596.000000	23.606509
597.000000	23.589176
598.000000	23.577651
599.000000	23.564089
600.000000	23.536753
601.000000	23.488785
602.000000	23.417410
603.000000	23.321000
604.000000	23.203926
605.000000	23.071301
606.000000	22.930153
607.000000	22.786646
608.000000	22.648940
609.000000	22.517495
610.000000	22.397105
611.000000	22.290751
612.000000	22.197278
613.000000	22.115734
614.000000	22.049172
615.000000	21.996053
616.000000	21.955827
617.000000	21.929078
618.000000	21.913290
619.000000	21.909831
620.000000	21.915558
621.000000	21.924772
622.000000	21.936396
623.000000	21.946052
624.000000	21.947490
625.000000	21.938403
626.000000	21.919630
627.000000	21.890888
628.000000	21.854717
629.000000	21.814651
630.000000	21.775004
631.000000	21.743805
632.000000	21.721468
633.000000	21.713544
634.000000	21.719950
635.000000	21.740057
636.000000	21.771310
637.000000	21.809560
638.000000	21.851998
639.000000	21.896503
640.000000	21.938819
641.000000	21.976074
642.000000	22.012015
643.000000	22.046674
644.000000	22.083743
645.000000	22.123892
646.000000	22.169874
647.000000	22.223177
648.000000	22.285110
649.000000	22.352903
650.000000	22.427098
651.000000	22.503641
652.000000	22.580786
653.000000	22.655765
654.000000	22.725491
655.000000	22.792643
656.000000	22.855586
657.000000	22.917150
658.000000	22.978240
659.000000	23.042708
660.000000	23.110789
661.000000	23.187197
662.000000	23.270151
663.000000	23.357912
664.000000	23.453228
665.000000	23.552901
666.000000	23.656087
667.000000	23.758403
668.000000	23.860175
669.000000	23.959008
670.000000	24.054873
671.000000	24.147244
672.000000	24.237797
673.000000	24.327994
674.000000	24.418305
675.000000	24.511578
676.000000	24.606516
677.000000	24.706533
678.000000	24.810367
679.000000	24.916631
680.000000	25.026490
681.000000	25.138778
682.000000	25.250977
683.000000	25.363149
684.000000	25.472593
685.000000	25.578954
686.000000	25.684166
687.000000	25.788836
688.000000	25.891796
689.000000	25.994064
690.000000	26.096116
691.000000	26.198516
692.000000	26.303346
693.000000	26.409609
694.000000	26.518831
695.000000	26.630317
696.000000	26.742546
697.000000	26.851591
698.000000	26.959342
699.000000	27.068604
700.000000	27.175743
701.000000	27.279680
702.000000	27.382399
703.000000	27.483985
704.000000	27.584717
705.000000	27.685576
706.000000	27.786383
707.000000	27.889033
708.000000	27.994887
709.000000	28.099207
710.000000	28.203916
711.000000	28.312517
712.000000	28.419721
713.000000	28.526466
714.000000	28.631634
715.000000	28.731610
716.000000	28.829145
717.000000	28.924843
718.000000	29.015950
719.000000	29.105171
720.000000	29.192410
721.000000	29.275177
722.000000	29.356768
723.000000	29.437564
724.000000	29.518756
725.000000	29.600960
726.000000	29.683840
727.000000	29.766634
728.000000	29.849503
729.000000	29.932067
730.000000	30.016159
731.000000	30.101909
732.000000	30.188454
733.000000	30.276270
734.000000	30.362306
735.000000	30.447846
736.000000	30.532312
737.000000	30.617794
738.000000	30.704267
739.000000	30.791713
740.000000	30.878371
741.000000	30.964300
742.000000	31.050100
743.000000	31.133158
744.000000	31.215070
745.000000	31.298023
746.000000	31.379739
747.000000	31.457763
748.000000	31.534213
749.000000	31.607490
750.000000	31.676908
751.000000	31.743453
752.000000	31.810148
753.000000	31.878677
754.000000	31.944842
755.000000	32.006994
756.000000	32.069995
757.000000	32.134487
758.000000	32.199817
759.000000	32.267069
760.000000	32.338024
761.000000	32.409307
762.000000	32.476811
763.000000	32.544335
764.000000	32.618817
765.000000	32.693459
766.000000	32.767616
767.000000	32.843177
768.000000	32.917046
769.000000	32.994426
770.000000	33.070730
771.000000	33.146108
772.000000	33.223681
773.000000	33.300652
774.000000	33.375745
775.000000	33.453881
776.000000	33.534567
777.000000	33.613358
778.000000	33.693857
779.000000	33.772924
780.000000	33.852143
781.000000	33.933775
782.000000	34.017997
783.000000	34.101212
784.000000	34.183114
785.000000	34.264355
786.000000	34.343580
787.000000	34.424378
788.000000	34.500443
789.000000	34.577945
790.000000	34.656927
791.000000	34.730380
792.000000	34.803321
793.000000	34.879268
794.000000	34.957104
795.000000	35.034040
796.000000	35.114480
797.000000	35.193402
798.000000	35.274444
799.000000	35.356074
800.000000	35.436215
801.000000	35.520349
802.000000	35.605971
803.000000	35.689249
804.000000	35.769751
805.000000	35.851452
806.000000	35.932360
807.000000	36.016682
808.000000	36.099925
809.000000	36.181394
810.000000	36.263800
811.000000	36.347658
812.000000	36.431310
813.000000	36.515572
814.000000	36.602990
815.000000	36.686522
816.000000	36.774593
817.000000	36.865873
818.000000	36.960022
819.000000	37.054529
820.000000	37.150874
821.000000	37.245295
822.000000	37.338574
823.000000	37.435733
824.000000	37.526935
825.000000	37.617860
826.000000	37.704948
827.000000	37.787059
828.000000	37.869160
829.000000	37.949202
830.000000	38.024766
831.000000	38.102702
832.000000	38.179297
833.000000	38.250140
834.000000	38.323443
835.000000	38.404038
836.000000	38.477252
837.000000	38.541315
838.000000	38.609195
839.000000	38.681600
840.000000	38.747729
841.000000	38.816180
842.000000	38.880589
843.000000	38.947511
844.000000	38.996070
845.000000	39.043417
846.000000	39.098407
847.000000	39.153866
848.000000	39.203018
849.000000	39.234684
850.000000	39.267507
851.000000	39.299496
852.000000	39.325551
853.000000	39.362849
854.000000	39.406168
855.000000	39.442540
856.000000	39.465820
857.000000	39.503007
858.000000	39.582522
859.000000	39.710821
860.000000	39.834057
861.000000	39.938958
862.000000	40.050087
863.000000	40.132946
864.000000	40.224278
865.000000	40.313261
866.000000	40.406596
867.000000	40.484429
868.000000	40.505393
869.000000	40.462575
870.000000	40.441505
871.000000	40.419805
872.000000	40.386140
873.000000	40.366692
874.000000	40.343853
875.000000	40.321455
876.000000	40.296262
877.000000	40.267610
878.000000	40.252290
879.000000	40.253460
880.000000	40.233873
881.000000	40.214485
882.000000	40.207230
883.000000	40.191543
884.000000	40.171837
885.000000	40.144738
886.000000	40.124952
887.000000	40.099985
888.000000	40.064855
889.000000	40.034923
890.000000	39.999055
891.000000	39.981053
892.000000	39.958165
893.000000	39.928038
894.000000	39.898365
895.000000	39.875755
896.000000	39.841850
897.000000	39.819383
898.000000	39.803573
899.000000	39.778545
900.000000	39.754812
901.000000	39.723788
902.000000	39.686905
903.000000	39.662090
904.000000	39.641072
905.000000	39.617402
906.000000	39.591527
907.000000	39.563578
908.000000	39.530183
909.000000	39.500775
910.000000	39.480987
911.000000	39.460255
912.000000	39.442530
913.000000	39.415590
914.000000	39.385827
915.000000	39.357520
916.000000	39.335600
917.000000	39.311182
918.000000	39.290520
919.000000	39.271615
920.000000	39.247228
921.000000	39.223843
922.000000	39.202177
923.000000	39.183837
924.000000	39.168520
925.000000	39.150275
926.000000	39.131318
927.000000	39.116188
928.000000	39.094830
929.000000	39.072433
930.000000	39.054147
931.000000	39.031780
932.000000	39.008235
933.000000	38.987080
934.000000	38.962742
935.000000	38.940735
936.000000	38.919410
937.000000	38.893095
938.000000	38.871850
939.000000	38.852425
940.000000	38.828905
941.000000	38.807690
942.000000	38.787545
943.000000	38.761537
944.000000	38.736795
945.000000	38.715362
946.000000	38.691437
947.000000	38.672318
948.000000	38.653220
949.000000	38.634177
950.000000	38.619100
951.000000	38.600760
952.000000	38.583430
953.000000	38.571027
954.000000	38.562877
955.000000	38.551605
956.000000	38.541255
957.000000	38.528903
958.000000	38.519847
959.000000	38.513343
960.000000	38.506665
961.000000	38.500875
962.000000	38.495590
963.000000	38.491087
964.000000	38.484092
965.000000	38.478797
966.000000	38.476630
967.000000	38.476188
968.000000	38.474400
969.000000	38.473130
970.000000	38.471350
971.000000	38.471193
972.000000	38.471865
973.000000	38.475088
974.000000	38.477702
975.000000	38.481112
976.000000	38.485348
977.000000	38.490890
978.000000	38.497312
979.000000	38.503245
980.000000	38.509743
981.000000	38.518023
982.000000	38.527207
983.000000	38.534805
984.000000	38.544597
985.000000	38.555685
986.000000	38.565718
987.000000	38.576273
988.000000	38.586775
989.000000	38.597025
990.000000	38.610508
991.000000	38.625705
992.000000	38.640873
993.000000	38.657370
994.000000	38.674357
995.000000	38.690727
996.000000	38.707637
997.000000	38.725735
998.000000	38.744523
999.000000	38.763675
1000.000000	38.783442
1001.000000	38.803863
1002.000000	38.824355
1003.000000	38.844135
1004.000000	38.864477
1005.000000	38.886205
1006.000000	38.907632
1007.000000	38.927900
1008.000000	38.949140
1009.000000	38.970700
1010.000000	38.991960
1011.000000	39.013892
1012.000000	39.036325
1013.000000	39.059578
1014.000000	39.083622
1015.000000	39.107950
1016.000000	39.132337
1017.000000	39.157050
1018.000000	39.183932
1019.000000	39.213152
1020.000000	39.242648
1021.000000	39.270938
1022.000000	39.299150
1023.000000	39.328595
1024.000000	39.359198
1025.000000	39.390910
1026.000000	39.424883
1027.000000	39.461082
1028.000000	39.496323
1029.000000	39.529958
1030.000000	39.563172
1031.000000	39.597305
1032.000000	39.630950
1033.000000	39.665147
1034.000000	39.699485
1035.000000	39.733550
1036.000000	39.767765
1037.000000	39.801513
1038.000000	39.834600
1039.000000	39.867430
1040.000000	39.900967
1041.000000	39.933995
1042.000000	39.969078
1043.000000	40.003843
1044.000000	40.037115
1045.000000	40.070608
1046.000000	40.103655
1047.000000	40.136713
1048.000000	40.170542
1049.000000	40.204640
1050.000000	40.237913
1051.000000	40.271835
1052.000000	40.305342
1053.000000	40.338885
1054.000000	40.373148
1055.000000	40.407742
1056.000000	40.441850
1057.000000	40.475522
1058.000000	40.509735
1059.000000	40.545243
1060.000000	40.581538
1061.000000	40.616532
1062.000000	40.650050
1063.000000	40.684550
1064.000000	40.719647
1065.000000	40.752800
1066.000000	40.786710
1067.000000	40.821598
1068.000000	40.856633
1069.000000	40.890340
1070.000000	40.923243
1071.000000	40.956868
1072.000000	40.991845
1073.000000	41.026272
1074.000000	41.060987
1075.000000	41.096930
1076.000000	41.132352
1077.000000	41.165567
1078.000000	41.197383
1079.000000	41.229808
1080.000000	41.262040
1081.000000	41.293390
1082.000000	41.325040
1083.000000	41.356280
1084.000000	41.386328
1085.000000	41.413953
1086.000000	41.441580
1087.000000	41.471375
1088.000000	41.501690
1089.000000	41.530688
1090.000000	41.559720
1091.000000	41.588610
1092.000000	41.616573
1093.000000	41.643690
1094.000000	41.671055
1095.000000	41.699850
1096.000000	41.727055
1097.000000	41.753042
1098.000000	41.777165
1099.000000	41.802675
1100.000000	41.827320
1101.000000	41.852073
1102.000000	41.875903
1103.000000	41.899197
1104.000000	41.920753
1105.000000	41.942498
1106.000000	41.965055
1107.000000	41.985960
1108.000000	42.007777
1109.000000	42.027110
1110.000000	42.045935
1111.000000	42.064190
1112.000000	42.081778
1113.000000	42.099460
1114.000000	42.117270
1115.000000	42.132758
1116.000000	42.148595
1117.000000	42.164497
1118.000000	42.177725
1119.000000	42.188992
1120.000000	42.199303
1121.000000	42.208845
1122.000000	42.216757
1123.000000	42.221787
1124.000000	42.222515
1125.000000	42.221285
1126.000000	42.214633
1127.000000	42.204525
1128.000000	42.191910
1129.000000	42.177180
1130.000000	42.158442
1131.000000	42.133210
1132.000000	42.103713
1133.000000	42.073250
1134.000000	42.042793
1135.000000	42.007980
1136.000000	41.970795
1137.000000	41.930100
1138.000000	41.886142
1139.000000	41.842168
1140.000000	41.798307
1141.000000	41.756107
1142.000000	41.714910
1143.000000	41.672612
1144.000000	41.630420
1145.000000	41.591657
1146.000000	41.555995
1147.000000	41.522897
1148.000000	41.492345
1149.000000	41.461448
1150.000000	41.430188
1151.000000	41.397982
1152.000000	41.366600
1153.000000	41.333402
1154.000000	41.298070
1155.000000	41.259990
1156.000000	41.217470
1157.000000	41.170408
1158.000000	41.119895
1159.000000	41.065480
1160.000000	41.006448
1161.000000	40.944805
1162.000000	40.877792
1163.000000	40.807457
1164.000000	40.735210
1165.000000	40.660412
1166.000000	40.584697
1167.000000	40.509685
1168.000000	40.435210
1169.000000	40.363060
1170.000000	40.293127
1171.000000	40.226215
1172.000000	40.163213
1173.000000	40.104340
1174.000000	40.048048
1175.000000	39.996270
1176.000000	39.949037
1177.000000	39.905840
1178.000000	39.865710
1179.000000	39.828772
1180.000000	39.795365
1181.000000	39.765972
1182.000000	39.739553
1183.000000	39.715892
1184.000000	39.696652
1185.000000	39.681930
1186.000000	39.671490
1187.000000	39.665490
1188.000000	39.664990
1189.000000	39.669945
1190.000000	39.681863
1191.000000	39.699295
1192.000000	39.722272
1193.000000	39.751820
1194.000000	39.784785
1195.000000	39.822300
1196.000000	39.863163
1197.000000	39.907263
1198.000000	39.952910
1199.000000	39.999215
1200.000000	40.045080
1201.000000	40.090835
1202.000000	40.137188
1203.000000	40.182920
1204.000000	40.228285
1205.000000	40.271995
1206.000000	40.314168
1207.000000	40.355418
1208.000000	40.396150
1209.000000	40.435833
1210.000000	40.475825
1211.000000	40.515172
1212.000000	40.552875
1213.000000	40.589163
1214.000000	40.625318
1215.000000	40.659687
1216.000000	40.693838
1217.000000	40.726568
1218.000000	40.758735
1219.000000	40.790502
1220.000000	40.820965
1221.000000	40.849665
1222.000000	40.876947
1223.000000	40.904103
1224.000000	40.930355
1225.000000	40.957268
1226.000000	40.983700
1227.000000	41.009730
1228.000000	41.034745
1229.000000	41.059233
1230.000000	41.083965
1231.000000	41.109305
1232.000000	41.135210
1233.000000	41.160977
1234.000000	41.185950
1235.000000	41.209663
1236.000000	41.233437
1237.000000	41.256963
1238.000000	41.281732
1239.000000	41.306165
1240.000000	41.330282
1241.000000	41.354112
1242.000000	41.379162
1243.000000	41.405338
1244.000000	41.433743
1245.000000	41.464120
1246.000000	41.494733
1247.000000	41.526895
1248.000000	41.559287
1249.000000	41.593497
1250.000000	41.628375
1251.000000	41.662903
1252.000000	41.696083
1253.000000	41.727427
1254.000000	41.756870
1255.000000	41.783887
1256.000000	41.809872
1257.000000	41.833997
1258.000000	41.856155
1259.000000	41.875970
1260.000000	41.894710
1261.000000	41.912172
1262.000000	41.928295
1263.000000	41.943443
1264.000000	41.956785
1265.000000	41.970120
1266.000000	41.983407
1267.000000	41.995845
1268.000000	42.008735
1269.000000	42.021610
1270.000000	42.033035
1271.000000	42.043433
1272.000000	42.054148
1273.000000	42.065230
1274.000000	42.077315
1275.000000	42.089278
1276.000000	42.101555
1277.000000	42.114425
1278.000000	42.127027
1279.000000	42.139900
1280.000000	42.154062
1281.000000	42.170667
1282.000000	42.188712
1283.000000	42.207467
1284.000000	42.226920
1285.000000	42.246830
1286.000000	42.266427
1287.000000	42.286738
1288.000000	42.308727
1289.000000	42.331848
1290.000000	42.354898
1291.000000	42.376650
1292.000000	42.397143
1293.000000	42.417075
1294.000000	42.436617
1295.000000	42.455943
1296.000000	42.474640
1297.000000	42.491980
1298.000000	42.507135
1299.000000	42.520022
1300.000000	42.531607
1301.000000	42.541897
1302.000000	42.550863
1303.000000	42.558420
1304.000000	42.564898
1305.000000	42.569170
1306.000000	42.571322
1307.000000	42.573005
1308.000000	42.572570
1309.000000	42.569847
1310.000000	42.565528
1311.000000	42.559840
1312.000000	42.552477
1313.000000	42.543087
1314.000000	42.530128
1315.000000	42.515195
1316.000000	42.499110
1317.000000	42.480992
1318.000000	42.461020
1319.000000	42.438772
1320.000000	42.414297
1321.000000	42.387957
1322.000000	42.359977
1323.000000	42.330042
1324.000000	42.298473
1325.000000	42.264700
1326.000000	42.227960
1327.000000	42.188915
1328.000000	42.147047
1329.000000	42.102683
1330.000000	42.055782
1331.000000	42.006090
1332.000000	41.951960
1333.000000	41.893595
1334.000000	41.832347
1335.000000	41.768262
1336.000000	41.701512
1337.000000	41.630340
1338.000000	41.554887
1339.000000	41.476585
1340.000000	41.393628
1341.000000	41.306737
1342.000000	41.217492
1343.000000	41.125240
1344.000000	41.027552
1345.000000	40.924500
1346.000000	40.817805
1347.000000	40.708727
1348.000000	40.597100
1349.000000	40.481032
1350.000000	40.361795
1351.000000	40.240423
1352.000000	40.116505
1353.000000	39.995515
1354.000000	39.880705
1355.000000	39.769515
1356.000000	39.659948
1357.000000	39.553125
1358.000000	39.450515
1359.000000	39.352198
1360.000000	39.264738
1361.000000	39.186995
1362.000000	39.110740
1363.000000	39.032695
1364.000000	38.955640
1365.000000	38.876758
1366.000000	38.794430
1367.000000	38.711543
1368.000000	38.623843
1369.000000	38.529618
1370.000000	38.422830
1371.000000	38.301597
1372.000000	38.167625
1373.000000	38.018445
1374.000000	37.850747
1375.000000	37.668087
1376.000000	37.471960
1377.000000	37.259682
1378.000000	37.034465
1379.000000	36.801700
1380.000000	36.568237
1381.000000	36.339110
1382.000000	36.119030
1383.000000	35.910993
1384.000000	35.710313
1385.000000	35.520505
1386.000000	35.344555
1387.000000	35.185322
1388.000000	35.038810
1389.000000	34.900070
1390.000000	34.764060
1391.000000	34.631290
1392.000000	34.499882
1393.000000	34.367415
1394.000000	34.240515
1395.000000	34.119152
1396.000000	33.992505
1397.000000	33.851895
1398.000000	33.707420
1399.000000	33.565332
1400.000000	33.423510
1401.000000	33.265055
1402.000000	33.094107
1403.000000	32.915190
1404.000000	32.725925
1405.000000	32.523285
1406.000000	32.314072
1407.000000	32.103628
1408.000000	31.886992
1409.000000	31.659413
1410.000000	31.420178
1411.000000	31.180740
1412.000000	30.944318
1413.000000	30.710213
1414.000000	30.477300
1415.000000	30.243277
1416.000000	30.011138
1417.000000	29.784170
1418.000000	29.564878
1419.000000	29.352605
1420.000000	29.145415
1421.000000	28.945205
1422.000000	28.753460
1423.000000	28.564778
1424.000000	28.381710
1425.000000	28.207070
1426.000000	28.042087
1427.000000	27.883535
1428.000000	27.727058
1429.000000	27.576238
1430.000000	27.432975
1431.000000	27.299073
1432.000000	27.166855
1433.000000	27.041823
1434.000000	26.921180
1435.000000	26.806510
1436.000000	26.695297
1437.000000	26.588450
1438.000000	26.486172
1439.000000	26.386590
1440.000000	26.290342
1441.000000	26.196335
1442.000000	26.106813
1443.000000	26.018710
1444.000000	25.934615
1445.000000	25.855550
1446.000000	25.776022
1447.000000	25.696148
1448.000000	25.617743
1449.000000	25.542555
1450.000000	25.469902
1451.000000	25.399120
1452.000000	25.327285
1453.000000	25.256930
1454.000000	25.185570
1455.000000	25.110940
1456.000000	25.039450
1457.000000	24.968405
1458.000000	24.898877
1459.000000	24.827940
1460.000000	24.756382
1461.000000	24.683118
1462.000000	24.612343
1463.000000	24.541610
1464.000000	24.470785
1465.000000	24.402643
1466.000000	24.334848
1467.000000	24.267470
1468.000000	24.200423
1469.000000	24.135440
1470.000000	24.071215
1471.000000	24.007962
1472.000000	23.945653
1473.000000	23.884295
1474.000000	23.825265
1475.000000	23.766303
1476.000000	23.710387
1477.000000	23.657303
1478.000000	23.606552
1479.000000	23.557545
1480.000000	23.511940
1481.000000	23.470038
1482.000000	23.430765
1483.000000	23.394588
1484.000000	23.360875
1485.000000	23.331150
1486.000000	23.303878
1487.000000	23.279310
1488.000000	23.256150
1489.000000	23.235810
1490.000000	23.217390
1491.000000	23.201747
1492.000000	23.188908
1493.000000	23.178105
1494.000000	23.171540
1495.000000	23.167220
1496.000000	23.166290
1497.000000	23.168815
1498.000000	23.176657
1499.000000	23.187993
1500.000000	23.203793
1501.000000	23.223835
1502.000000	23.248708
1503.000000	23.278933
1504.000000	23.312537
1505.000000	23.351237
1506.000000	23.393445
1507.000000	23.439682
1508.000000	23.489562
1509.000000	23.542533
1510.000000	23.598375
1511.000000	23.655967
1512.000000	23.715170
1513.000000	23.775875
1514.000000	23.838380
1515.000000	23.900858
1516.000000	23.964882
1517.000000	24.027217
1518.000000	24.088280
1519.000000	24.149757
1520.000000	24.210945
1521.000000	24.272000
1522.000000	24.332043
1523.000000	24.390705
1524.000000	24.447685
1525.000000	24.503588
1526.000000	24.558200
1527.000000	24.614213
1528.000000	24.669553
1529.000000	24.722907
1530.000000	24.775330
1531.000000	24.826245
1532.000000	24.875865
1533.000000	24.924658
1534.000000	24.973717
1535.000000	25.022073
1536.000000	25.067835
1537.000000	25.110993
1538.000000	25.152553
1539.000000	25.193542
1540.000000	25.232870
1541.000000	25.271015
1542.000000	25.308970
1543.000000	25.346847
1544.000000	25.384303
1545.000000	25.422670
1546.000000	25.462410
1547.000000	25.503733
1548.000000	25.547117
1549.000000	25.591638
1550.000000	25.636910
1551.000000	25.684202
1552.000000	25.732988
1553.000000	25.781848
1554.000000	25.829470
1555.000000	25.874757
1556.000000	25.918430
1557.000000	25.960290
1558.000000	25.998987
1559.000000	26.034093
1560.000000	26.065160
1561.000000	26.091498
1562.000000	26.112910
1563.000000	26.129560
1564.000000	26.143088
1565.000000	26.153030
1566.000000	26.158515
1567.000000	26.160140
1568.000000	26.159218
1569.000000	26.156918
1570.000000	26.153303
1571.000000	26.148277
1572.000000	26.142270
1573.000000	26.136073
1574.000000	26.131158
1575.000000	26.128352
1576.000000	26.127620
1577.000000	26.129205
1578.000000	26.132260
1579.000000	26.136495
1580.000000	26.144220
1581.000000	26.155295
1582.000000	26.169572
1583.000000	26.188283
1584.000000	26.209075
1585.000000	26.231330
1586.000000	26.256875
1587.000000	26.284820
1588.000000	26.315897
1589.000000	26.349275
1590.000000	26.383938
1591.000000	26.420002
1592.000000	26.458103
1593.000000	26.497035
1594.000000	26.536765
1595.000000	26.578862
1596.000000	26.621852
1597.000000	26.666840
1598.000000	26.713178
1599.000000	26.762315
1600.000000	26.813115
1601.000000	26.866207
1602.000000	26.920597
1603.000000	26.976858
1604.000000	27.034315
1605.000000	27.092008
1606.000000	27.150112
1607.000000	27.208423
1608.000000	27.266488
1609.000000	27.323505
1610.000000	27.379072
1611.000000	27.432652
1612.000000	27.484727
1613.000000	27.534778
1614.000000	27.582772
1615.000000	27.629105
1616.000000	27.674070
1617.000000	27.716408
1618.000000	27.756355
1619.000000	27.794667
1620.000000	27.831142
1621.000000	27.867805
1622.000000	27.903022
1623.000000	27.937447
1624.000000	27.972235
1625.000000	28.006352
1626.000000	28.038777
1627.000000	28.070862
1628.000000	28.103293
1629.000000	28.135478
1630.000000	28.166902
1631.000000	28.196475
1632.000000	28.225405
1633.000000	28.252972
1634.000000	28.278835
1635.000000	28.303360
1636.000000	28.326310
1637.000000	28.347918
1638.000000	28.366658
1639.000000	28.382893
1640.000000	28.397570
1641.000000	28.411225
1642.000000	28.422575
1643.000000	28.431500
1644.000000	28.438628
1645.000000	28.443002
1646.000000	28.446303
1647.000000	28.446030
1648.000000	28.444993
1649.000000	28.441740
1650.000000	28.436445
1651.000000	28.426660
1652.000000	28.412608
1653.000000	28.394782
1654.000000	28.370642
1655.000000	28.341790
1656.000000	28.306825
1657.000000	28.267163
1658.000000	28.219268
1659.000000	28.163677
1660.000000	28.100483
1661.000000	28.030485
1662.000000	27.953668
1663.000000	27.870098
1664.000000	27.778133
1665.000000	27.679950
1666.000000	27.575065
1667.000000	27.464623
1668.000000	27.346685
1669.000000	27.223622
1670.000000	27.096160
1671.000000	26.965310
1672.000000	26.832358
1673.000000	26.698435
1674.000000	26.565967
1675.000000	26.433718
1676.000000	26.301010
1677.000000	26.167725
1678.000000	26.036932
1679.000000	25.906460
1680.000000	25.776010
1681.000000	25.642580
1682.000000	25.509307
1683.000000	25.375175
1684.000000	25.245030
1685.000000	25.115942
1686.000000	24.995355
1687.000000	24.885198
1688.000000	24.786980
1689.000000	24.705695
1690.000000	24.642402
1691.000000	24.603438
1692.000000	24.583765
1693.000000	24.581562
1694.000000	24.592638
1695.000000	24.617877
1696.000000	24.649818
1697.000000	24.685990
1698.000000	24.725995
1699.000000	24.762963
1700.000000	24.795862
1701.000000	24.818802
1702.000000	24.832535
1703.000000	24.838775
1704.000000	24.836098
1705.000000	24.824158
1706.000000	24.804200
1707.000000	24.773998
1708.000000	24.732968
1709.000000	24.683833
1710.000000	24.623110
1711.000000	24.552730
1712.000000	24.470685
1713.000000	24.376478
1714.000000	24.271720
1715.000000	24.157305
1716.000000	24.032942
1717.000000	23.904030
1718.000000	23.768282
1719.000000	23.626780
1720.000000	23.485052
1721.000000	23.345335
1722.000000	23.215162
1723.000000	23.095778
1724.000000	22.990450
1725.000000	22.901130
1726.000000	22.829920
1727.000000	22.775585
1728.000000	22.739517
1729.000000	22.721162
1730.000000	22.717480
1731.000000	22.729650
1732.000000	22.751947
1733.000000	22.783395
1734.000000	22.820873
1735.000000	22.863210
1736.000000	22.909517
1737.000000	22.958700
1738.000000	23.013693
1739.000000	23.071372
1740.000000	23.132480
1741.000000	23.193867
1742.000000	23.258050
1743.000000	23.324470
1744.000000	23.391403
1745.000000	23.459688
1746.000000	23.526958
1747.000000	23.591515
1748.000000	23.652005
1749.000000	23.709295
1750.000000	23.762575
1751.000000	23.812213
1752.000000	23.854863
1753.000000	23.890885
1754.000000	23.923313
1755.000000	23.949452
1756.000000	23.970935
1757.000000	23.989252
1758.000000	24.003082
1759.000000	24.013990
1760.000000	24.023460
1761.000000	24.030917
1762.000000	24.038990
1763.000000	24.047958
1764.000000	24.057633
1765.000000	24.069580
1766.000000	24.083355
1767.000000	24.099072
1768.000000	24.117665
1769.000000	24.139090
1770.000000	24.163340
1771.000000	24.188638
1772.000000	24.216385
1773.000000	24.246810
1774.000000	24.277145
1775.000000	24.308240
1776.000000	24.341400
1777.000000	24.374762
1778.000000	24.408260
1779.000000	24.440748
1780.000000	24.471348
1781.000000	24.501817
1782.000000	24.529035
1783.000000	24.553320
1784.000000	24.576788
1785.000000	24.597340
1786.000000	24.614670
1787.000000	24.630133
1788.000000	24.642440
1789.000000	24.652107
1790.000000	24.660610
1791.000000	24.668237
1792.000000	24.677925
1793.000000	24.688045
1794.000000	24.698293
1795.000000	24.710037
1796.000000	24.721943
1797.000000	24.733287
1798.000000	24.746787
1799.000000	24.763310
1800.000000	24.783240
1801.000000	24.804628
1802.000000	24.822855
1803.000000	24.839352
1804.000000	24.856120
1805.000000	24.873897
1806.000000	24.894142
1807.000000	24.915218
1808.000000	24.934140
1809.000000	24.950747
1810.000000	24.966447
1811.000000	24.984140
1812.000000	25.003245
1813.000000	25.022073
1814.000000	25.040185
1815.000000	25.056585
1816.000000	25.069255
1817.000000	25.077905
1818.000000	25.086500
1819.000000	25.098202
1820.000000	25.111085
1821.000000	25.122992
1822.000000	25.132252
1823.000000	25.137425
1824.000000	25.139545
1825.000000	25.139990
1826.000000	25.142950
1827.000000	25.152098
1828.000000	25.164030
1829.000000	25.175630
1830.000000	25.186625
1831.000000	25.195583
1832.000000	25.206138
1833.000000	25.220060
1834.000000	25.237880
1835.000000	25.261540
1836.000000	25.287465
1837.000000	25.313020
1838.000000	25.337742
1839.000000	25.362293
1840.000000	25.390265
1841.000000	25.422050
1842.000000	25.454835
1843.000000	25.482733
1844.000000	25.503020
1845.000000	25.517450
1846.000000	25.532217
1847.000000	25.552395
1848.000000	25.576685
1849.000000	25.594400
1850.000000	25.598397
1851.000000	25.593005
1852.000000	25.585057
1853.000000	25.582883
1854.000000	25.585940
1855.000000	25.587327
1856.000000	25.580122
1857.000000	25.560353
1858.000000	25.531862
1859.000000	25.506445
1860.000000	25.482648
1861.000000	25.455997
1862.000000	25.423875
1863.000000	25.381217
1864.000000	25.328548
1865.000000	25.267823
1866.000000	25.200457
1867.000000	25.126480
1868.000000	25.045983
1869.000000	24.956915
1870.000000	24.864852
1871.000000	24.766352
1872.000000	24.660038
1873.000000	24.547173
1874.000000	24.424622
1875.000000	24.292743
1876.000000	24.150602
1877.000000	23.995128
1878.000000	23.824513
1879.000000	23.636850
1880.000000	23.427365
1881.000000	23.203985
1882.000000	22.970162
1883.000000	22.723467
1884.000000	22.465475
1885.000000	22.194550
1886.000000	21.910222
1887.000000	21.616345
1888.000000	21.311418
1889.000000	20.994158
1890.000000	20.672870
1891.000000	20.340657
1892.000000	19.996275
1893.000000	19.642175
1894.000000	19.280787
1895.000000	18.911075
1896.000000	18.536478
1897.000000	18.155800
1898.000000	17.771593
1899.000000	17.386455
1900.000000	17.001070
1901.000000	16.616868
1902.000000	16.237717
1903.000000	15.866710
1904.000000	15.501558
1905.000000	15.150440
1906.000000	14.811305
1907.000000	14.483230
1908.000000	14.170202
1909.000000	13.869565
1910.000000	13.580945
1911.000000	13.310243
1912.000000	13.054267
1913.000000	12.813618
1914.000000	12.585337
1915.000000	12.370140
1916.000000	12.167803
1917.000000	11.978447
1918.000000	11.802128
1919.000000	11.646012
1920.000000	11.499310
1921.000000	11.362153
1922.000000	11.234753
1923.000000	11.114205
1924.000000	11.007072
1925.000000	10.907253
1926.000000	10.816928
1927.000000	10.738722
1928.000000	10.666892
1929.000000	10.598045
1930.000000	10.537603
1931.000000	10.482917
1932.000000	10.436657
1933.000000	10.400405
1934.000000	10.369530
1935.000000	10.344473
1936.000000	10.325230
1937.000000	10.308367
1938.000000	10.302013
1939.000000	10.300375
1940.000000	10.304998
1941.000000	10.316300
1942.000000	10.330877
1943.000000	10.345417
1944.000000	10.365932
1945.000000	10.394752
1946.000000	10.422277
1947.000000	10.459325
1948.000000	10.494558
1949.000000	10.533670
1950.000000	10.573733
1951.000000	10.617482
1952.000000	10.664460
1953.000000	10.715605
1954.000000	10.770640
1955.000000	10.823095
1956.000000	10.881807
1957.000000	10.936685
1958.000000	10.992895
1959.000000	11.047448
1960.000000	11.107230
1961.000000	11.165145
1962.000000	11.222760
1963.000000	11.280573
1964.000000	11.338838
1965.000000	11.395680
1966.000000	11.450863
1967.000000	11.510642
1968.000000	11.570355
1969.000000	11.631222
1970.000000	11.689740
1971.000000	11.750830
1972.000000	11.809977
1973.000000	11.870423
1974.000000	11.928783
1975.000000	11.990333
1976.000000	12.051802
1977.000000	12.111583
1978.000000	12.171747
1979.000000	12.232965
1980.000000	12.298697
1981.000000	12.359010
1982.000000	12.421925
1983.000000	12.487038
1984.000000	12.551635
1985.000000	12.615180
1986.000000	12.681213
1987.000000	12.747040
1988.000000	12.811460
1989.000000	12.876395
1990.000000	12.938325
1991.000000	13.003720
1992.000000	13.067378
1993.000000	13.128615
1994.000000	13.186250
1995.000000	13.245005
1996.000000	13.300392
1997.000000	13.352557
1998.000000	13.405170
1999.000000	13.454857
2000.000000	13.501088
2001.000000	13.543540
2002.000000	13.585905
2003.000000	13.623017
2004.000000	13.661190
2005.000000	13.693760
2006.000000	13.724690
2007.000000	13.750085
2008.000000	13.772727
2009.000000	13.792022
2010.000000	13.805023
2011.000000	13.817003
2012.000000	13.821005
2013.000000	13.820880
2014.000000	13.816140
2015.000000	13.806243
2016.000000	13.788137
2017.000000	13.770030
2018.000000	13.746895
2019.000000	13.717842
2020.000000	13.688522
2021.000000	13.656123
2022.000000	13.618338
2023.000000	13.577250
2024.000000	13.531335
2025.000000	13.480548
2026.000000	13.428958
2027.000000	13.372515
2028.000000	13.314160
2029.000000	13.258040
2030.000000	13.195462
2031.000000	13.125463
2032.000000	13.055568
2033.000000	12.984185
2034.000000	12.907930
2035.000000	12.828780
2036.000000	12.747737
2037.000000	12.664087
2038.000000	12.576145
2039.000000	12.482398
2040.000000	12.390125
2041.000000	12.300935
2042.000000	12.209720
2043.000000	12.115180
2044.000000	12.023180
2045.000000	11.930808
2046.000000	11.838165
2047.000000	11.750308
2048.000000	11.666218
2049.000000	11.583505
2050.000000	11.506987
2051.000000	11.440873
2052.000000	11.379665
2053.000000	11.321713
2054.000000	11.272625
2055.000000	11.240022
2056.000000	11.221050
2057.000000	11.211180
2058.000000	11.207308
2059.000000	11.215692
2060.000000	11.233730
2061.000000	11.252598
2062.000000	11.281925
2063.000000	11.325777
2064.000000	11.377343
2065.000000	11.430455
2066.000000	11.488175
2067.000000	11.547825
2068.000000	11.613255
2069.000000	11.687225
2070.000000	11.759778
2071.000000	11.830898
2072.000000	11.904950
2073.000000	11.980690
2074.000000	12.047462
2075.000000	12.110955
2076.000000	12.172910
2077.000000	12.231332
2078.000000	12.286787
2079.000000	12.334200
2080.000000	12.377057
2081.000000	12.417165
2082.000000	12.449845
2083.000000	12.477020
2084.000000	12.504172
2085.000000	12.524207
2086.000000	12.537028
2087.000000	12.549003
2088.000000	12.553413
2089.000000	12.553332
2090.000000	12.553905
2091.000000	12.554570
2092.000000	12.549245
2093.000000	12.539390
2094.000000	12.533425
2095.000000	12.531775
2096.000000	12.534192
2097.000000	12.532595
2098.000000	12.533413
2099.000000	12.534530
2100.000000	12.527013
2101.000000	12.519172
2102.000000	12.517642
2103.000000	12.522388
2104.000000	12.520205
2105.000000	12.513832
2106.000000	12.502273
2107.000000	12.492757
2108.000000	12.494575
2109.000000	12.498375
2110.000000	12.504630
2111.000000	12.508843
2112.000000	12.514265
2113.000000	12.516153
2114.000000	12.519925
2115.000000	12.523222
2116.000000	12.529765
2117.000000	12.534547
2118.000000	12.528685
2119.000000	12.523595
2120.000000	12.514078
2121.000000	12.499270
2122.000000	12.480525
2123.000000	12.461337
2124.000000	12.437053
2125.000000	12.414013
2126.000000	12.389498
2127.000000	12.363153
2128.000000	12.332467
2129.000000	12.298897
2130.000000	12.272435
2131.000000	12.240848
2132.000000	12.205248
2133.000000	12.163312
2134.000000	12.127917
2135.000000	12.084478
2136.000000	12.033072
2137.000000	11.980272
2138.000000	11.930735
2139.000000	11.879015
2140.000000	11.818033
2141.000000	11.765022
2142.000000	11.708275
2143.000000	11.649165
2144.000000	11.583765
2145.000000	11.519550
2146.000000	11.455310
2147.000000	11.386067
2148.000000	11.304832
2149.000000	11.223780
2150.000000	11.152360
2151.000000	11.086108
2152.000000	11.016483
2153.000000	10.946955
2154.000000	10.876442
2155.000000	10.815870
2156.000000	10.747977
2157.000000	10.686295
2158.000000	10.636357
2159.000000	10.580930
2160.000000	10.524430
2161.000000	10.456322
2162.000000	10.406027
2163.000000	10.356435
2164.000000	10.312060
2165.000000	10.264305
2166.000000	10.218005
2167.000000	10.177565
2168.000000	10.148608
2169.000000	10.123568
2170.000000	10.095928
2171.000000	10.080000
2172.000000	10.056583
2173.000000	10.034688
2174.000000	10.006190
2175.000000	9.988165
2176.000000	9.986240
2177.000000	9.976267
2178.000000	9.956930
2179.000000	9.947468
2180.000000	9.939325
2181.000000	9.928923
2182.000000	9.918655
2183.000000	9.915685
2184.000000	9.913853
2185.000000	9.908915
2186.000000	9.898695
2187.000000	9.888858
2188.000000	9.870220
2189.000000	9.844587
2190.000000	9.814895
2191.000000	9.787085
2192.000000	9.770370
2193.000000	9.749595
2194.000000	9.730453
2195.000000	9.685073
2196.000000	9.644445
2197.000000	9.601290
2198.000000	9.569625
2199.000000	9.544422
2200.000000	9.506755
2201.000000	9.474190
2202.000000	9.435445
2203.000000	9.396432
2204.000000	9.358270
2205.000000	9.340510
2206.000000	9.315098
2207.000000	9.309505
2208.000000	9.295047
2209.000000	9.274692
2210.000000	9.275880
2211.000000	9.281033
2212.000000	9.286485
2213.000000	9.298888
2214.000000	9.322560
2215.000000	9.361567
2216.000000	9.407575
2217.000000	9.438760
2218.000000	9.475685
2219.000000	9.520672
2220.000000	9.580290
2221.000000	9.632520
2222.000000	9.691685
2223.000000	9.752422
2224.000000	9.802320
2225.000000	9.840827
2226.000000	9.888285
2227.000000	9.947235
2228.000000	10.003380
2229.000000	10.054370
2230.000000	10.095028
2231.000000	10.137252
2232.000000	10.171738
2233.000000	10.193080
2234.000000	10.228070
2235.000000	10.262258
2236.000000	10.281875
2237.000000	10.292613
2238.000000	10.299492
2239.000000	10.294417
2240.000000	10.283177
2241.000000	10.262720
2242.000000	10.232532
2243.000000	10.210608
2244.000000	10.181815
2245.000000	10.149405
2246.000000	10.109327
2247.000000	10.059740
2248.000000	10.009258
2249.000000	9.960250
2250.000000	9.907858
2251.000000	9.854920
2252.000000	9.808407
2253.000000	9.750690
2254.000000	9.684373
2255.000000	9.609002
2256.000000	9.534575
2257.000000	9.467108
2258.000000	9.396978
2259.000000	9.344033
2260.000000	9.287505
2261.000000	9.232235
2262.000000	9.172360
2263.000000	9.115050
2264.000000	9.066275
2265.000000	9.019320
2266.000000	8.981742
2267.000000	8.946138
2268.000000	8.932360
2269.000000	8.899587
2270.000000	8.874225
2271.000000	8.863095
2272.000000	8.856265
2273.000000	8.851080
2274.000000	8.845805
2275.000000	8.839533
2276.000000	8.833087
2277.000000	8.829715
2278.000000	8.815207
2279.000000	8.814350
2280.000000	8.814232
2281.000000	8.803895
2282.000000	8.796582
2283.000000	8.795225
2284.000000	8.797258
2285.000000	8.807800
2286.000000	8.822667
2287.000000	8.826545
2288.000000	8.836218
2289.000000	8.842655
2290.000000	8.844195
2291.000000	8.843600
2292.000000	8.844973
2293.000000	8.846385
2294.000000	8.850182
2295.000000	8.852505
2296.000000	8.860405
2297.000000	8.883470
2298.000000	8.894013
2299.000000	8.903445
2300.000000	8.919480
2301.000000	8.945870
2302.000000	8.971580
2303.000000	9.000230
2304.000000	9.014755
2305.000000	9.028915
2306.000000	9.053393
2307.000000	9.080195
2308.000000	9.109115
2309.000000	9.139460
2310.000000	9.169797
2311.000000	9.191667
2312.000000	9.207350
2313.000000	9.221115
2314.000000	9.248893
2315.000000	9.278108
2316.000000	9.284695
2317.000000	9.288372
2318.000000	9.302478
2319.000000	9.312995
2320.000000	9.320398
2321.000000	9.334193
2322.000000	9.352050
2323.000000	9.362840
2324.000000	9.366240
2325.000000	9.380902
2326.000000	9.401357
2327.000000	9.402045
2328.000000	9.400287
2329.000000	9.414795
2330.000000	9.426517
2331.000000	9.432173
2332.000000	9.441638
2333.000000	9.457472
2334.000000	9.488995
2335.000000	9.514160
2336.000000	9.528037
2337.000000	9.556262
2338.000000	9.567733
2339.000000	9.559527
2340.000000	9.561015
2341.000000	9.574207
2342.000000	9.596275
2343.000000	9.624858
2344.000000	9.624455
2345.000000	9.620960
2346.000000	9.639412
2347.000000	9.657445
2348.000000	9.688312
2349.000000	9.741005
2350.000000	9.792425
2351.000000	9.823950
2352.000000	9.841210
2353.000000	9.859520
2354.000000	9.891945
2355.000000	9.929810
2356.000000	9.955405
2357.000000	9.969090
2358.000000	9.987425
2359.000000	9.998180
2360.000000	10.010397
2361.000000	10.042953
2362.000000	10.082638
2363.000000	10.110335
2364.000000	10.124125
2365.000000	10.140713
2366.000000	10.162655
2367.000000	10.186737
2368.000000	10.212505
2369.000000	10.225067
2370.000000	10.227100
2371.000000	10.238180
2372.000000	10.243802
2373.000000	10.256525
2374.000000	10.283407
2375.000000	10.294785
2376.000000	10.304750
2377.000000	10.307602
2378.000000	10.308068
2379.000000	10.318930
2380.000000	10.343655
2381.000000	10.371548
2382.000000	10.390805
2383.000000	10.409682
2384.000000	10.434355
2385.000000	10.471400
2386.000000	10.494020
2387.000000	10.525913
2388.000000	10.567868
2389.000000	10.605923
2390.000000	10.631180
2391.000000	10.634400
2392.000000	10.638635
2393.000000	10.625905
2394.000000	10.605142
2395.000000	10.587787
2396.000000	10.592250
2397.000000	10.600935
2398.000000	10.588437
2399.000000	10.568912
2400.000000	10.557972
2401.000000	10.533022
2402.000000	10.506423
2403.000000	10.522002
2404.000000	10.543215
2405.000000	10.555122
2406.000000	10.540978
2407.000000	10.532830
2408.000000	10.520790
2409.000000	10.516825
2410.000000	10.517515
2411.000000	10.542235
2412.000000	10.558463
2413.000000	10.554785
2414.000000	10.547300
2415.000000	10.533390
2416.000000	10.522205
2417.000000	10.515035
2418.000000	10.500298
2419.000000	10.485872
2420.000000	10.457057
2421.000000	10.405357
2422.000000	10.363317
2423.000000	10.308920
2424.000000	10.293560
2425.000000	10.270127
2426.000000	10.262387
2427.000000	10.233445
2428.000000	10.211655
2429.000000	10.172178
2430.000000	10.139000
2431.000000	10.095740
2432.000000	10.079058
2433.000000	10.059518
2434.000000	9.994468
2435.000000	9.935940
2436.000000	9.859915
2437.000000	9.820032
2438.000000	9.792855
2439.000000	9.753127
2440.000000	9.703553
2441.000000	9.673353
2442.000000	9.630540
2443.000000	9.595108
2444.000000	9.569192
2445.000000	9.555472
2446.000000	9.517003
2447.000000	9.457617
2448.000000	9.437167
2449.000000	9.433445
2450.000000	9.410180
2451.000000	9.437123
2452.000000	9.449707
2453.000000	9.469530
2454.000000	9.488630
2455.000000	9.472940
2456.000000	9.476097
2457.000000	9.504853
2458.000000	9.533425
2459.000000	9.531462
2460.000000	9.556538
2461.000000	9.549868
2462.000000	9.537882
2463.000000	9.526940
2464.000000	9.546240
2465.000000	9.590370
2466.000000	9.685492
2467.000000	9.751003
2468.000000	9.799967
2469.000000	9.899573
2470.000000	9.991480
2471.000000	10.064210
2472.000000	10.150690
2473.000000	10.248072
2474.000000	10.317340
2475.000000	10.423470
2476.000000	10.521888
2477.000000	10.680305
2478.000000	10.759145
2479.000000	10.804015
2480.000000	10.935543
2481.000000	11.030812
2482.000000	11.177865
2483.000000	11.344067
2484.000000	11.410125
2485.000000	11.508447
2486.000000	11.622462
2487.000000	11.742330
2488.000000	11.903630
2489.000000	12.087670
2490.000000	12.280135
2491.000000	12.518215
2492.000000	12.673325
2493.000000	12.906387
2494.000000	13.203682
2495.000000	13.492852
2496.000000	13.663330
2497.000000	13.784965
2498.000000	13.958855
2499.000000	14.102828
2500.000000	14.224295
2501.000000	17.900905
2502.000000	21.303270
2503.000000	24.996530
2504.000000	28.665958
2505.000000	32.432775
2506.000000	36.256752
2507.000000	40.066380
2508.000000	44.464443
2509.000000	48.700798
2510.000000	52.970170
2511.000000	54.021640
2512.000000	55.222530
2513.000000	55.975650
2514.000000	56.912810
2515.000000	57.767580
2516.000000	58.669240
2517.000000	59.695550
2518.000000	60.338370
2519.000000	61.373490
2520.000000	62.175430
2521.000000	62.846610
2522.000000	63.812610
2523.000000	64.726890
2524.000000	65.837660
2525.000000	67.376530
2526.000000	68.842570
2527.000000	69.707070
2528.000000	71.005950
2529.000000	71.919100
2530.000000	72.770240
2531.000000	73.862780
2532.000000	74.562860
2533.000000	75.508720
2534.000000	76.484100
2535.000000	76.561260
2536.000000	76.764610
2537.000000	77.659590
2538.000000	77.771010
2539.000000	77.984210
2540.000000	78.382470
2541.000000	78.743980
2542.000000	79.147280
2543.000000	79.368020
2544.000000	79.724530
2545.000000	80.576280
2546.000000	81.327350
2547.000000	81.955170
2548.000000	82.945030
2549.000000	84.193790
2550.000000	85.853540
2551.000000	86.764130
2552.000000	88.023640
2553.000000	89.510840
2554.000000	90.173300
2555.000000	90.898880
2556.000000	91.346050
2557.000000	91.896710
2558.000000	92.390120
2559.000000	92.237160
2560.000000	92.305120
2561.000000	92.856050
2562.000000	92.795440
2563.000000	92.644730
2564.000000	92.755010
2565.000000	93.185140
2566.000000	94.243500
2567.000000	94.564380
2568.000000	94.391100
2569.000000	95.255170
2570.000000	95.340300
2571.000000	94.855550
2572.000000	94.890500
2573.000000	94.897230
2574.000000	94.839270
2575.000000	94.390520
2576.000000	93.534800
2577.000000	93.227500
2578.000000	94.524060
2579.000000	95.467820
2580.000000	95.792650
2581.000000	96.215900
2582.000000	96.394520
2583.000000	96.780830
2584.000000	97.388980
2585.000000	97.777000
2586.000000	98.426220
2587.000000	99.306370
2588.000000	98.957060
2589.000000	98.623950
2590.000000	98.796330
2591.000000	98.621850
2592.000000	98.786110
2593.000000	99.084400
2594.000000	99.084530
2595.000000	99.281000
2596.000000	99.437280
2597.000000	99.356930
2598.000000	99.273000
2599.000000	98.964090
2600.000000	98.780360
2601.000000	99.262260
2602.000000	99.674700
2603.000000	99.309440
2604.000000	98.899860
2605.000000	98.714030
2606.000000	98.960100
2607.000000	99.021090
2608.000000	98.737430
2609.000000	98.970820
2610.000000	99.543790
2611.000000	99.664840
2612.000000	99.690890
2613.000000	100.091300
2614.000000	100.487200
2615.000000	100.694890
2616.000000	100.184920
2617.000000	100.610860
2618.000000	101.520500
2619.000000	101.176580
2620.000000	100.976840
2621.000000	101.074480
2622.000000	101.442130
2623.000000	102.241590
2624.000000	102.966550
2625.000000	103.207670
2626.000000	103.558590
2627.000000	103.049610
2628.000000	102.034460
2629.000000	101.895110
2630.000000	101.684820
2631.000000	102.325580
2632.000000	102.046700
2633.000000	100.714930
2634.000000	100.137890
2635.000000	99.987130
2636.000000	99.947730
2637.000000	100.028070
2638.000000	100.343480
2639.000000	100.425970
2640.000000	100.667020
2641.000000	100.088570
2642.000000	100.168240
2643.000000	101.383150
2644.000000	101.365850
2645.000000	101.003010
2646.000000	101.320540
2647.000000	100.937200
2648.000000	100.669240
2649.000000	100.451360
2650.000000	100.419100
2651.000000	99.945880
2652.000000	99.729720
2653.000000	99.372750
2654.000000	99.584620
2655.000000	99.771040
2656.000000	99.128550
2657.000000	99.494560
2658.000000	99.488050
2659.000000	99.870990
2660.000000	99.327270
2661.000000	98.942320
2662.000000	98.254140
2663.000000	98.264520
2664.000000	98.626380
2665.000000	99.145780
2666.000000	99.845630
2667.000000	99.809520
2668.000000	99.931890
2669.000000	99.601380
2670.000000	99.772360
2671.000000	100.103510
2672.000000	100.714960
2673.000000	100.645730
2674.000000	100.251840
2675.000000	99.826060
2676.000000	99.027880
2677.000000	98.718400
2678.000000	99.182120
2679.000000	99.322640
2680.000000	99.574490
2681.000000	99.709960
2682.000000	100.212660
2683.000000	100.923460
2684.000000	101.577050
2685.000000	101.694570
2686.000000	102.403740
2687.000000	103.631940
2688.000000	103.876210
2689.000000	103.833310
2690.000000	104.712250
2691.000000	105.872650
2692.000000	106.333890
2693.000000	105.928360
2694.000000	105.538600
2695.000000	105.697480
2696.000000	105.614750
2697.000000	105.317010
2698.000000	103.984080
2699.000000	103.743210
2700.000000	102.906500
2701.000000	101.543860
2702.000000	100.618400
2703.000000	99.619360
2704.000000	98.475830
2705.000000	98.217920
2706.000000	98.092670
2707.000000	97.613250
2708.000000	98.648070
2709.000000	99.073350
2710.000000	98.587240
2711.000000	99.346030
2712.000000	99.734120
2713.000000	100.142940
2714.000000	101.236990
2715.000000	101.091640
2716.000000	100.821890
2717.000000	100.414460
2718.000000	99.754700
2719.000000	100.486810
2720.000000	101.335700
2721.000000	100.699030
2722.000000	100.979470
2723.000000	101.452490
2724.000000	101.903200
2725.000000	102.583830
2726.000000	103.175190
2727.000000	103.449750
2728.000000	104.736780
2729.000000	104.144830
2730.000000	104.914620
2731.000000	105.803070
2732.000000	105.687720
2733.000000	104.924100
2734.000000	104.931410
2735.000000	104.651460
2736.000000	104.709940
2737.000000	104.369190
2738.000000	103.989240
2739.000000	103.247990
2740.000000	102.806850
2741.000000	102.669320
2742.000000	103.232020
2743.000000	103.755140
2744.000000	102.979770
2745.000000	102.489230
2746.000000	101.143710
2747.000000	101.606470
2748.000000	100.787520
2749.000000	100.957750
2750.000000	100.181710
2751.000000	99.719670
2752.000000	99.105480
2753.000000	98.995840
2754.000000	99.142780
2755.000000	99.438930
2756.000000	99.927190
2757.000000	100.357140
2758.000000	99.807550
2759.000000	100.380540
2760.000000	100.529550
2761.000000	100.488930
2762.000000	99.897230
2763.000000	99.446070
2764.000000	98.800400
2765.000000	98.262010
2766.000000	99.599510
2767.000000	99.271660
2768.000000	99.969370
2769.000000	99.597120
2770.000000	99.647550
2771.000000	99.323430
2772.000000	99.497190
2773.000000	100.008930
2774.000000	100.867310
2775.000000	101.309730
2776.000000	100.367670
2777.000000	100.509400
2778.000000	101.415720
2779.000000	101.571090
2780.000000	101.061270
2781.000000	101.784210
2782.000000	102.125750
2783.000000	103.123770
2784.000000	103.145730
2785.000000	103.283950
2786.000000	102.803080
2787.000000	102.747120
2788.000000	103.077680
2789.000000	103.818020
2790.000000	103.947890
2791.000000	104.000740
2792.000000	103.910830
2793.000000	102.441680
2794.000000	102.018990
2795.000000	102.417650
2796.000000	103.419090
2797.000000	103.284920
2798.000000	102.478210
2799.000000	102.004400
2800.000000	102.365900
2801.000000	101.863240
2802.000000	101.393100
2803.000000	101.853210
2804.000000	102.309900
2805.000000	101.251310
2806.000000	100.419690
2807.000000	100.629820
2808.000000	100.150420
2809.000000	99.626650
2810.000000	99.397310
2811.000000	99.692320
2812.000000	100.035970
2813.000000	99.941830
2814.000000	98.945270
2815.000000	99.644920
2816.000000	99.975400
2817.000000	100.072320
2818.000000	100.449390
2819.000000	100.693480
2820.000000	100.530430
2821.000000	99.728120
2822.000000	99.128980
2823.000000	99.059710
2824.000000	100.467550
2825.000000	101.614500
2826.000000	101.752560
2827.000000	100.907880
2828.000000	100.412540
2829.000000	100.674490
2830.000000	101.338940
2831.000000	101.791280
2832.000000	101.907890
2833.000000	101.851610
2834.000000	100.461390
2835.000000	98.511730
2836.000000	97.905680
2837.000000	97.634170
2838.000000	97.791060
2839.000000	97.806870
2840.000000	96.895400
2841.000000	96.875860
2842.000000	97.005520
2843.000000	96.856260
2844.000000	97.666300
2845.000000	99.204310
2846.000000	100.178610
2847.000000	100.714300
2848.000000	101.077170
2849.000000	101.368590
2850.000000	102.162780
2851.000000	102.547160
2852.000000	103.122750
2853.000000	103.774330
2854.000000	103.636250
2855.000000	103.309340
2856.000000	103.072420
2857.000000	102.929820
2858.000000	102.986100
2859.000000	102.360030
2860.000000	101.509500
2861.000000	101.174660
2862.000000	100.876880
2863.000000	100.395570
2864.000000	100.297240
2865.000000	99.839790
2866.000000	99.157050
2867.000000	99.103330
2868.000000	98.867480
2869.000000	99.134860
2870.000000	100.033950
2871.000000	100.217940
2872.000000	100.325620
2873.000000	100.594120
2874.000000	100.291790
2875.000000	100.392930
2876.000000	101.774740
2877.000000	102.402760
2878.000000	101.720560
2879.000000	101.088780
2880.000000	100.298920
2881.000000	100.168380
2882.000000	99.803200
2883.000000	99.328770
2884.000000	99.808110
2885.000000	99.766050
2886.000000	98.672230
2887.000000	98.173040
2888.000000	98.905200
2889.000000	99.280850
2890.000000	99.770540
2891.000000	100.192630
2892.000000	101.090870
2893.000000	102.235490
2894.000000	102.891870
2895.000000	102.993630
2896.000000	103.323110
2897.000000	103.818100
2898.000000	103.821200
2899.000000	103.587390
2900.000000	103.409140
2901.000000	103.262230
2902.000000	102.249700
2903.000000	100.994430
2904.000000	99.735140
2905.000000	99.366410
2906.000000	99.302250
2907.000000	99.072080
2908.000000	98.696230
2909.000000	99.450170
2910.000000	99.714460
2911.000000	99.851280
2912.000000	100.342080
2913.000000	100.473620
2914.000000	101.142780
2915.000000	101.513880
2916.000000	100.906290
2917.000000	100.602780
2918.000000	100.918610
2919.000000	100.197290
2920.000000	99.139560
2921.000000	98.785050
2922.000000	98.815760
2923.000000	98.662220
2924.000000	98.369570
2925.000000	98.250810
2926.000000	98.776400
2927.000000	99.123370
2928.000000	99.165460
2929.000000	100.293580
2930.000000	101.227730
2931.000000	101.744370
2932.000000	101.430350
2933.000000	101.449140
2934.000000	101.753120
2935.000000	101.926550
2936.000000	101.625830
2937.000000	101.521470
2938.000000	101.993000
2939.000000	101.321050
2940.000000	101.242140
2941.000000	100.616820
2942.000000	100.555160
2943.000000	100.841380
2944.000000	100.251540
2945.000000	99.346470
2946.000000	99.490080
2947.000000	99.353450
2948.000000	98.928990
2949.000000	98.452240
2950.000000	97.712660
2951.000000	97.997300
2952.000000	98.106060
2953.000000	97.897830
2954.000000	98.966260
2955.000000	99.944560
2956.000000	99.512470
2957.000000	99.755560
2958.000000	99.468940
2959.000000	100.612660
2960.000000	100.920030
2961.000000	100.511980
2962.000000	100.666540
2963.000000	100.457160
2964.000000	99.782820
2965.000000	99.373040
2966.000000	100.080870
2967.000000	100.802440
2968.000000	100.991590
2969.000000	99.373640
2970.000000	100.158900
2971.000000	100.708100
2972.000000	100.214740
2973.000000	100.614710
2974.000000	100.555860
2975.000000	101.082840
2976.000000	101.274160
2977.000000	100.717360
2978.000000	100.609590
2979.000000	101.130360
2980.000000	100.509470
2981.000000	100.590270
2982.000000	101.594760
2983.000000	101.691550
2984.000000	102.761080
2985.000000	102.273160
2986.000000	101.195170
2987.000000	100.685820
2988.000000	100.409700
2989.000000	100.939890
2990.000000	100.981440
2991.000000	100.846210
2992.000000	100.235350
2993.000000	100.635480
2994.000000	99.580060
2995.000000	99.406880
2996.000000	100.207910
2997.000000	100.135460
2998.000000	100.095490
2999.000000	100.161290
3000.000000	100.283650
