PE UV       SUBTECH     SPECTRUM    ASCII       PEDS        4.00        
   -1
INBUCR0226-4.Sample.ASC
24/02/08
11:26:34.00
24/02/08
11:26:34.00
Vinicio Soto Monge
Parace ser C. aurigans. Dorado
250,000000
1
Lambda 1050
1050L1511233
PerkinElmer UV WinLab 6.3.2.0749 / 2.02.05 Lambda 900 UV/VIS/NIR, Aug  7 2015 09:38:08

0
0
3350/servo 860,8/2
0
0
UV/VIS
1
1
1
DoubleDePol,CommonBeamDepol,RBeamAtt,SBeamAtt,60mm sphere, WB InGaAs Detector
0
0
0
0
Program
Program
3350/servo 860,8/2
3350/0,2 860,8/0,2
3350/0,2 860,8/0,2
0
15.00
 
 
 
0
 
860,8
319,2
860,8
Front
100
on
S:100 R:100
0
0
0
0
 
0
 
 
 
0
 
 
0
0
0
0
0
 
 
 
 
0
0


0
0
#HDR
-1
-1
#GR
nm
%R
1.0
0.0
2500,000000
-1,000000
2251
8
16,068400
1,228800
#DATA

250.000000	nan
251.000000	nan
252.000000	nan
253.000000	nan
254.000000	nan
255.000000	nan
256.000000	nan
257.000000	nan
258.000000	nan
259.000000	4.000677
260.000000	3.992977
261.000000	3.983178
262.000000	3.973073
263.000000	3.963475
264.000000	3.953943
265.000000	3.941996
266.000000	3.931837
267.000000	3.921402
268.000000	3.908075
269.000000	3.894919
270.000000	3.880926
271.000000	3.871264
272.000000	3.861059
273.000000	3.851226
274.000000	3.840837
275.000000	3.836004
276.000000	3.828597
277.000000	3.822366
278.000000	3.816799
279.000000	3.811295
280.000000	3.808961
281.000000	3.803176
282.000000	3.799973
283.000000	3.795334
284.000000	3.791833
285.000000	3.788888
286.000000	3.786587
287.000000	3.783496
288.000000	3.782559
289.000000	3.779762
290.000000	3.777219
291.000000	3.774314
292.000000	3.771236
293.000000	3.769303
294.000000	3.766799
295.000000	3.759633
296.000000	3.756508
297.000000	3.752917
298.000000	3.748777
299.000000	3.746005
300.000000	3.742674
301.000000	3.739200
302.000000	3.736249
303.000000	3.732943
304.000000	3.729427
305.000000	3.726845
306.000000	3.721257
307.000000	3.720808
308.000000	3.716129
309.000000	3.714328
310.000000	3.709687
311.000000	3.705752
312.000000	3.700236
313.000000	3.696542
314.000000	3.693421
315.000000	3.693228
316.000000	3.693847
317.000000	3.705106
318.000000	3.719451
319.000000	3.741409
320.000000	3.757342
321.000000	3.775816
322.000000	3.785134
323.000000	3.792278
324.000000	3.805079
325.000000	3.809945
326.000000	3.816464
327.000000	3.803594
328.000000	3.796640
329.000000	3.779998
330.000000	3.769873
331.000000	3.752381
332.000000	3.747118
333.000000	3.745508
334.000000	3.740593
335.000000	3.744407
336.000000	3.741677
337.000000	3.743820
338.000000	3.737820
339.000000	3.735091
340.000000	3.731283
341.000000	3.738718
342.000000	3.738527
343.000000	3.737154
344.000000	3.735119
345.000000	3.733214
346.000000	3.732912
347.000000	3.738245
348.000000	3.743576
349.000000	3.747126
350.000000	3.749320
351.000000	3.747903
352.000000	3.753748
353.000000	3.756776
354.000000	3.758581
355.000000	3.761854
356.000000	3.764871
357.000000	3.765317
358.000000	3.765408
359.000000	3.768101
360.000000	3.774598
361.000000	3.779652
362.000000	3.780453
363.000000	3.785666
364.000000	3.792641
365.000000	3.795205
366.000000	3.798838
367.000000	3.799353
368.000000	3.804176
369.000000	3.807078
370.000000	3.806378
371.000000	3.805874
372.000000	3.808148
373.000000	3.805333
374.000000	3.797962
375.000000	3.794961
376.000000	3.796043
377.000000	3.790827
378.000000	3.784710
379.000000	3.777285
380.000000	3.774270
381.000000	3.771387
382.000000	3.768503
383.000000	3.768485
384.000000	3.770978
385.000000	3.769852
386.000000	3.765666
387.000000	3.769722
388.000000	3.772936
389.000000	3.776677
390.000000	3.780609
391.000000	3.784520
392.000000	3.788182
393.000000	3.791570
394.000000	3.795781
395.000000	3.800416
396.000000	3.804989
397.000000	3.808853
398.000000	3.813482
399.000000	3.818423
400.000000	3.823094
401.000000	3.827036
402.000000	3.830367
403.000000	3.834606
404.000000	3.839635
405.000000	3.844574
406.000000	3.849745
407.000000	3.855519
408.000000	3.861024
409.000000	3.865944
410.000000	3.871585
411.000000	3.878311
412.000000	3.885488
413.000000	3.892242
414.000000	3.898820
415.000000	3.905811
416.000000	3.912649
417.000000	3.919731
418.000000	3.927550
419.000000	3.935805
420.000000	3.943911
421.000000	3.951873
422.000000	3.960150
423.000000	3.968341
424.000000	3.976621
425.000000	3.984935
426.000000	3.993772
427.000000	4.002553
428.000000	4.011275
429.000000	4.020107
430.000000	4.028822
431.000000	4.037546
432.000000	4.046601
433.000000	4.055981
434.000000	4.065649
435.000000	4.075319
436.000000	4.084569
437.000000	4.094210
438.000000	4.104335
439.000000	4.114639
440.000000	4.125204
441.000000	4.136093
442.000000	4.147195
443.000000	4.158261
444.000000	4.169187
445.000000	4.180367
446.000000	4.192057
447.000000	4.203918
448.000000	4.215582
449.000000	4.226890
450.000000	4.238596
451.000000	4.250600
452.000000	4.262643
453.000000	4.275130
454.000000	4.288478
455.000000	4.302166
456.000000	4.315948
457.000000	4.329964
458.000000	4.344129
459.000000	4.359206
460.000000	4.374693
461.000000	4.389978
462.000000	4.405820
463.000000	4.422167
464.000000	4.438438
465.000000	4.454916
466.000000	4.471939
467.000000	4.489492
468.000000	4.507895
469.000000	4.526446
470.000000	4.545109
471.000000	4.564792
472.000000	4.584703
473.000000	4.604922
474.000000	4.625960
475.000000	4.647606
476.000000	4.669544
477.000000	4.691943
478.000000	4.714895
479.000000	4.738735
480.000000	4.763697
481.000000	4.789149
482.000000	4.815625
483.000000	4.843416
484.000000	4.872465
485.000000	4.903320
486.000000	4.936492
487.000000	4.971564
488.000000	5.008816
489.000000	5.048354
490.000000	5.090615
491.000000	5.136429
492.000000	5.186059
493.000000	5.239872
494.000000	5.298089
495.000000	5.361546
496.000000	5.430402
497.000000	5.505825
498.000000	5.589037
499.000000	5.680952
500.000000	5.782075
501.000000	5.893658
502.000000	6.016736
503.000000	6.152567
504.000000	6.302646
505.000000	6.467517
506.000000	6.649428
507.000000	6.849845
508.000000	7.069765
509.000000	7.313463
510.000000	7.584119
511.000000	7.885619
512.000000	8.222440
513.000000	8.600555
514.000000	9.025500
515.000000	9.503067
516.000000	10.038110
517.000000	10.634222
518.000000	11.294378
519.000000	12.018884
520.000000	12.806355
521.000000	13.652937
522.000000	14.551949
523.000000	15.494529
524.000000	16.470070
525.000000	17.465392
526.000000	18.465032
527.000000	19.452351
528.000000	20.411989
529.000000	21.327543
530.000000	22.183849
531.000000	22.970747
532.000000	23.680381
533.000000	24.308887
534.000000	24.854723
535.000000	25.320151
536.000000	25.712097
537.000000	26.039495
538.000000	26.310212
539.000000	26.533993
540.000000	26.722760
541.000000	26.884096
542.000000	27.025635
543.000000	27.151858
544.000000	27.266669
545.000000	27.371548
546.000000	27.468477
547.000000	27.558028
548.000000	27.641781
549.000000	27.720325
550.000000	27.794206
551.000000	27.865188
552.000000	27.933933
553.000000	27.999178
554.000000	28.062937
555.000000	28.126015
556.000000	28.188197
557.000000	28.249936
558.000000	28.311153
559.000000	28.371514
560.000000	28.420667
561.000000	28.466077
562.000000	28.508764
563.000000	28.548539
564.000000	28.585438
565.000000	28.618269
566.000000	28.647787
567.000000	28.672692
568.000000	28.694310
569.000000	28.711352
570.000000	28.736010
571.000000	28.759363
572.000000	28.779108
573.000000	28.794951
574.000000	28.808164
575.000000	28.818830
576.000000	28.825024
577.000000	28.828347
578.000000	28.827485
579.000000	28.823958
580.000000	28.817533
581.000000	28.806847
582.000000	28.795275
583.000000	28.783894
584.000000	28.771262
585.000000	28.757846
586.000000	28.743873
587.000000	28.728571
588.000000	28.712357
589.000000	28.696531
590.000000	28.677868
591.000000	28.659935
592.000000	28.640074
593.000000	28.618950
594.000000	28.594245
595.000000	28.568881
596.000000	28.541962
597.000000	28.515052
598.000000	28.486051
599.000000	28.453823
600.000000	28.421699
601.000000	28.387576
602.000000	28.354985
603.000000	28.326440
604.000000	28.304193
605.000000	28.285062
606.000000	28.267317
607.000000	28.250919
608.000000	28.235063
609.000000	28.222098
610.000000	28.207896
611.000000	28.192084
612.000000	28.170707
613.000000	28.141764
614.000000	28.102272
615.000000	28.058597
616.000000	28.017210
617.000000	27.979168
618.000000	27.948924
619.000000	27.922346
620.000000	27.898735
621.000000	27.876559
622.000000	27.857164
623.000000	27.839488
624.000000	27.824282
625.000000	27.806161
626.000000	27.779171
627.000000	27.741171
628.000000	27.691168
629.000000	27.634676
630.000000	27.579372
631.000000	27.532365
632.000000	27.492031
633.000000	27.458110
634.000000	27.428667
635.000000	27.402286
636.000000	27.381959
637.000000	27.366341
638.000000	27.354564
639.000000	27.341236
640.000000	27.321354
641.000000	27.288291
642.000000	27.245087
643.000000	27.197779
644.000000	27.157176
645.000000	27.127860
646.000000	27.110495
647.000000	27.105180
648.000000	27.108045
649.000000	27.118248
650.000000	27.133659
651.000000	27.155125
652.000000	27.180643
653.000000	27.200831
654.000000	27.209249
655.000000	27.202954
656.000000	27.183333
657.000000	27.156942
658.000000	27.134272
659.000000	27.125043
660.000000	27.129601
661.000000	27.148205
662.000000	27.177694
663.000000	27.220703
664.000000	27.272798
665.000000	27.332626
666.000000	27.395068
667.000000	27.453025
668.000000	27.497096
669.000000	27.521093
670.000000	27.528769
671.000000	27.525579
672.000000	27.518814
673.000000	27.515881
674.000000	27.523111
675.000000	27.542571
676.000000	27.574443
677.000000	27.620306
678.000000	27.676197
679.000000	27.740185
680.000000	27.806582
681.000000	27.867725
682.000000	27.919384
683.000000	27.955361
684.000000	27.972556
685.000000	27.975688
686.000000	27.971091
687.000000	27.963481
688.000000	27.961508
689.000000	27.968319
690.000000	27.990064
691.000000	28.025770
692.000000	28.073100
693.000000	28.129968
694.000000	28.191880
695.000000	28.251506
696.000000	28.303130
697.000000	28.341834
698.000000	28.366215
699.000000	28.378141
700.000000	28.378563
701.000000	28.375436
702.000000	28.375331
703.000000	28.383108
704.000000	28.404926
705.000000	28.442228
706.000000	28.493572
707.000000	28.556757
708.000000	28.628765
709.000000	28.702321
710.000000	28.771200
711.000000	28.830688
712.000000	28.877662
713.000000	28.912627
714.000000	28.935743
715.000000	28.952039
716.000000	28.968545
717.000000	28.991660
718.000000	29.024430
719.000000	29.069625
720.000000	29.132112
721.000000	29.211037
722.000000	29.299589
723.000000	29.389548
724.000000	29.479083
725.000000	29.563530
726.000000	29.637798
727.000000	29.700923
728.000000	29.753725
729.000000	29.797390
730.000000	29.836548
731.000000	29.875400
732.000000	29.920856
733.000000	29.979703
734.000000	30.051672
735.000000	30.136551
736.000000	30.234079
737.000000	30.337716
738.000000	30.445252
739.000000	30.553244
740.000000	30.652781
741.000000	30.744388
742.000000	30.824293
743.000000	30.892542
744.000000	30.954222
745.000000	31.008791
746.000000	31.061453
747.000000	31.117038
748.000000	31.176612
749.000000	31.247459
750.000000	31.331564
751.000000	31.424442
752.000000	31.527390
753.000000	31.637348
754.000000	31.748831
755.000000	31.858961
756.000000	31.962862
757.000000	32.058364
758.000000	32.148002
759.000000	32.226686
760.000000	32.296534
761.000000	32.360585
762.000000	32.420189
763.000000	32.477391
764.000000	32.537733
765.000000	32.608420
766.000000	32.689628
767.000000	32.780444
768.000000	32.880928
769.000000	32.989488
770.000000	33.100945
771.000000	33.210602
772.000000	33.317070
773.000000	33.419353
774.000000	33.511438
775.000000	33.592474
776.000000	33.663190
777.000000	33.728837
778.000000	33.787017
779.000000	33.845269
780.000000	33.907822
781.000000	33.980607
782.000000	34.065512
783.000000	34.162006
784.000000	34.266845
785.000000	34.382347
786.000000	34.503334
787.000000	34.623808
788.000000	34.741026
789.000000	34.848800
790.000000	34.945762
791.000000	35.033083
792.000000	35.108800
793.000000	35.177224
794.000000	35.244058
795.000000	35.306336
796.000000	35.370853
797.000000	35.443308
798.000000	35.524188
799.000000	35.618238
800.000000	35.723710
801.000000	35.833432
802.000000	35.949990
803.000000	36.065866
804.000000	36.175290
805.000000	36.280546
806.000000	36.377921
807.000000	36.468122
808.000000	36.547895
809.000000	36.614274
810.000000	36.677181
811.000000	36.746032
812.000000	36.812483
813.000000	36.885265
814.000000	36.965366
815.000000	37.045581
816.000000	37.137119
817.000000	37.238829
818.000000	37.345492
819.000000	37.456257
820.000000	37.557998
821.000000	37.650542
822.000000	37.738511
823.000000	37.820592
824.000000	37.896226
825.000000	37.967080
826.000000	38.029188
827.000000	38.083531
828.000000	38.138980
829.000000	38.196212
830.000000	38.262661
831.000000	38.330057
832.000000	38.409485
833.000000	38.487883
834.000000	38.569846
835.000000	38.658887
836.000000	38.747770
837.000000	38.836598
838.000000	38.914529
839.000000	38.994026
840.000000	39.058861
841.000000	39.115377
842.000000	39.160067
843.000000	39.207203
844.000000	39.254327
845.000000	39.300861
846.000000	39.342733
847.000000	39.389419
848.000000	39.452049
849.000000	39.514246
850.000000	39.574289
851.000000	39.643251
852.000000	39.716978
853.000000	39.789121
854.000000	39.859695
855.000000	39.920527
856.000000	39.995427
857.000000	40.049292
858.000000	40.176882
859.000000	40.271635
860.000000	40.404410
861.000000	40.530753
862.000000	40.649249
863.000000	40.766109
864.000000	40.866091
865.000000	40.964530
866.000000	41.075292
867.000000	41.187643
868.000000	41.205022
869.000000	41.285135
870.000000	41.305475
871.000000	41.344327
872.000000	41.386395
873.000000	41.427140
874.000000	41.467447
875.000000	41.523395
876.000000	41.562195
877.000000	41.593855
878.000000	41.634622
879.000000	41.642605
880.000000	41.689898
881.000000	41.719420
882.000000	41.746270
883.000000	41.771640
884.000000	41.804820
885.000000	41.835185
886.000000	41.849985
887.000000	41.893213
888.000000	41.929108
889.000000	41.955685
890.000000	41.971032
891.000000	41.994633
892.000000	42.012005
893.000000	42.029903
894.000000	42.044452
895.000000	42.054160
896.000000	42.069355
897.000000	42.071080
898.000000	42.090370
899.000000	42.110898
900.000000	42.127907
901.000000	42.140140
902.000000	42.164005
903.000000	42.182215
904.000000	42.205565
905.000000	42.224875
906.000000	42.243270
907.000000	42.257425
908.000000	42.265490
909.000000	42.273753
910.000000	42.283043
911.000000	42.291202
912.000000	42.295715
913.000000	42.303438
914.000000	42.313105
915.000000	42.325873
916.000000	42.337265
917.000000	42.353480
918.000000	42.365237
919.000000	42.379480
920.000000	42.400087
921.000000	42.418275
922.000000	42.433078
923.000000	42.447110
924.000000	42.463162
925.000000	42.476400
926.000000	42.491015
927.000000	42.499850
928.000000	42.507130
929.000000	42.514053
930.000000	42.512485
931.000000	42.509690
932.000000	42.505330
933.000000	42.502775
934.000000	42.497123
935.000000	42.491682
936.000000	42.487217
937.000000	42.489285
938.000000	42.494273
939.000000	42.496905
940.000000	42.502645
941.000000	42.504222
942.000000	42.503078
943.000000	42.500628
944.000000	42.499508
945.000000	42.496578
946.000000	42.491930
947.000000	42.483205
948.000000	42.471068
949.000000	42.456860
950.000000	42.441040
951.000000	42.426450
952.000000	42.416755
953.000000	42.405830
954.000000	42.393840
955.000000	42.384115
956.000000	42.376582
957.000000	42.367383
958.000000	42.358565
959.000000	42.354717
960.000000	42.351950
961.000000	42.349805
962.000000	42.345022
963.000000	42.337628
964.000000	42.327157
965.000000	42.312375
966.000000	42.294967
967.000000	42.278075
968.000000	42.258825
969.000000	42.236908
970.000000	42.214350
971.000000	42.189273
972.000000	42.163470
973.000000	42.139182
974.000000	42.116298
975.000000	42.094893
976.000000	42.073405
977.000000	42.051955
978.000000	42.033935
979.000000	42.014910
980.000000	41.996320
981.000000	41.979912
982.000000	41.963010
983.000000	41.943127
984.000000	41.922910
985.000000	41.901353
986.000000	41.877533
987.000000	41.852902
988.000000	41.825972
989.000000	41.798680
990.000000	41.771138
991.000000	41.740970
992.000000	41.711655
993.000000	41.686858
994.000000	41.664313
995.000000	41.641168
996.000000	41.618145
997.000000	41.596258
998.000000	41.575622
999.000000	41.554570
1000.000000	41.535052
1001.000000	41.516865
1002.000000	41.497447
1003.000000	41.476232
1004.000000	41.453373
1005.000000	41.431863
1006.000000	41.411365
1007.000000	41.388625
1008.000000	41.364175
1009.000000	41.340488
1010.000000	41.314955
1011.000000	41.288397
1012.000000	41.262738
1013.000000	41.238492
1014.000000	41.215992
1015.000000	41.193730
1016.000000	41.172477
1017.000000	41.152875
1018.000000	41.135200
1019.000000	41.119455
1020.000000	41.105600
1021.000000	41.094513
1022.000000	41.085065
1023.000000	41.075113
1024.000000	41.065555
1025.000000	41.057288
1026.000000	41.048942
1027.000000	41.040543
1028.000000	41.032005
1029.000000	41.023440
1030.000000	41.015105
1031.000000	41.006068
1032.000000	40.997147
1033.000000	40.988847
1034.000000	40.981710
1035.000000	40.975677
1036.000000	40.969695
1037.000000	40.965212
1038.000000	40.961930
1039.000000	40.958337
1040.000000	40.955640
1041.000000	40.953280
1042.000000	40.951930
1043.000000	40.950747
1044.000000	40.948927
1045.000000	40.945855
1046.000000	40.944968
1047.000000	40.944358
1048.000000	40.943602
1049.000000	40.942697
1050.000000	40.942405
1051.000000	40.942993
1052.000000	40.942690
1053.000000	40.943562
1054.000000	40.945588
1055.000000	40.947575
1056.000000	40.949225
1057.000000	40.952210
1058.000000	40.955745
1059.000000	40.960008
1060.000000	40.964092
1061.000000	40.969060
1062.000000	40.975515
1063.000000	40.983177
1064.000000	40.989455
1065.000000	40.996945
1066.000000	41.004705
1067.000000	41.011435
1068.000000	41.020150
1069.000000	41.030310
1070.000000	41.040357
1071.000000	41.049050
1072.000000	41.057750
1073.000000	41.065807
1074.000000	41.074372
1075.000000	41.082890
1076.000000	41.091685
1077.000000	41.101730
1078.000000	41.109995
1079.000000	41.118717
1080.000000	41.128085
1081.000000	41.138090
1082.000000	41.147712
1083.000000	41.156022
1084.000000	41.165067
1085.000000	41.174655
1086.000000	41.184715
1087.000000	41.193497
1088.000000	41.202932
1089.000000	41.211600
1090.000000	41.220675
1091.000000	41.230425
1092.000000	41.240520
1093.000000	41.249923
1094.000000	41.258868
1095.000000	41.267110
1096.000000	41.274295
1097.000000	41.280698
1098.000000	41.286995
1099.000000	41.291615
1100.000000	41.295803
1101.000000	41.300875
1102.000000	41.304568
1103.000000	41.309745
1104.000000	41.314460
1105.000000	41.317982
1106.000000	41.321983
1107.000000	41.326740
1108.000000	41.329397
1109.000000	41.333338
1110.000000	41.336018
1111.000000	41.336900
1112.000000	41.336975
1113.000000	41.335812
1114.000000	41.334912
1115.000000	41.333495
1116.000000	41.331980
1117.000000	41.329595
1118.000000	41.328180
1119.000000	41.324505
1120.000000	41.318337
1121.000000	41.311593
1122.000000	41.304560
1123.000000	41.295610
1124.000000	41.282125
1125.000000	41.266738
1126.000000	41.248985
1127.000000	41.225233
1128.000000	41.197387
1129.000000	41.166598
1130.000000	41.132198
1131.000000	41.090165
1132.000000	41.042038
1133.000000	40.992930
1134.000000	40.944128
1135.000000	40.893115
1136.000000	40.837612
1137.000000	40.780568
1138.000000	40.721038
1139.000000	40.661062
1140.000000	40.602243
1141.000000	40.545473
1142.000000	40.491220
1143.000000	40.434745
1144.000000	40.378545
1145.000000	40.323427
1146.000000	40.270577
1147.000000	40.219328
1148.000000	40.170135
1149.000000	40.120610
1150.000000	40.071990
1151.000000	40.023032
1152.000000	39.975355
1153.000000	39.926120
1154.000000	39.873150
1155.000000	39.817495
1156.000000	39.760227
1157.000000	39.701490
1158.000000	39.639342
1159.000000	39.572942
1160.000000	39.503102
1161.000000	39.429963
1162.000000	39.351220
1163.000000	39.270700
1164.000000	39.189193
1165.000000	39.107087
1166.000000	39.021165
1167.000000	38.936163
1168.000000	38.850577
1169.000000	38.766858
1170.000000	38.684578
1171.000000	38.607225
1172.000000	38.532960
1173.000000	38.463127
1174.000000	38.397295
1175.000000	38.334095
1176.000000	38.275707
1177.000000	38.221198
1178.000000	38.170560
1179.000000	38.125780
1180.000000	38.084338
1181.000000	38.045700
1182.000000	38.012065
1183.000000	37.981725
1184.000000	37.955520
1185.000000	37.933543
1186.000000	37.917702
1187.000000	37.905382
1188.000000	37.898043
1189.000000	37.895658
1190.000000	37.900650
1191.000000	37.911370
1192.000000	37.926535
1193.000000	37.945498
1194.000000	37.968875
1195.000000	37.996612
1196.000000	38.025272
1197.000000	38.057158
1198.000000	38.092593
1199.000000	38.128663
1200.000000	38.164338
1201.000000	38.199075
1202.000000	38.233580
1203.000000	38.268455
1204.000000	38.301772
1205.000000	38.334488
1206.000000	38.368190
1207.000000	38.400750
1208.000000	38.433077
1209.000000	38.464562
1210.000000	38.493123
1211.000000	38.521265
1212.000000	38.548595
1213.000000	38.573867
1214.000000	38.598355
1215.000000	38.622097
1216.000000	38.644357
1217.000000	38.664905
1218.000000	38.682340
1219.000000	38.697862
1220.000000	38.713375
1221.000000	38.728355
1222.000000	38.742072
1223.000000	38.756322
1224.000000	38.769385
1225.000000	38.781018
1226.000000	38.792228
1227.000000	38.803612
1228.000000	38.816358
1229.000000	38.829677
1230.000000	38.843972
1231.000000	38.857865
1232.000000	38.872777
1233.000000	38.886827
1234.000000	38.902633
1235.000000	38.919472
1236.000000	38.934780
1237.000000	38.950982
1238.000000	38.966820
1239.000000	38.982595
1240.000000	38.999855
1241.000000	39.017602
1242.000000	39.035625
1243.000000	39.055323
1244.000000	39.074192
1245.000000	39.093655
1246.000000	39.115795
1247.000000	39.138805
1248.000000	39.162350
1249.000000	39.186845
1250.000000	39.210768
1251.000000	39.233990
1252.000000	39.256377
1253.000000	39.277368
1254.000000	39.297877
1255.000000	39.316378
1256.000000	39.333267
1257.000000	39.349200
1258.000000	39.363205
1259.000000	39.375487
1260.000000	39.385325
1261.000000	39.394753
1262.000000	39.403382
1263.000000	39.411205
1264.000000	39.418202
1265.000000	39.425915
1266.000000	39.433340
1267.000000	39.439245
1268.000000	39.444865
1269.000000	39.450153
1270.000000	39.455422
1271.000000	39.460035
1272.000000	39.464573
1273.000000	39.468787
1274.000000	39.473380
1275.000000	39.477450
1276.000000	39.481040
1277.000000	39.485337
1278.000000	39.490360
1279.000000	39.497055
1280.000000	39.504815
1281.000000	39.513380
1282.000000	39.523200
1283.000000	39.535385
1284.000000	39.548610
1285.000000	39.562395
1286.000000	39.577195
1287.000000	39.592552
1288.000000	39.608933
1289.000000	39.624403
1290.000000	39.639083
1291.000000	39.653980
1292.000000	39.667968
1293.000000	39.680447
1294.000000	39.692848
1295.000000	39.705047
1296.000000	39.716012
1297.000000	39.725783
1298.000000	39.733630
1299.000000	39.739752
1300.000000	39.745083
1301.000000	39.748950
1302.000000	39.752445
1303.000000	39.754747
1304.000000	39.754177
1305.000000	39.751800
1306.000000	39.747542
1307.000000	39.741767
1308.000000	39.735215
1309.000000	39.726825
1310.000000	39.716245
1311.000000	39.704330
1312.000000	39.689338
1313.000000	39.672395
1314.000000	39.653995
1315.000000	39.633880
1316.000000	39.612117
1317.000000	39.588438
1318.000000	39.562058
1319.000000	39.534485
1320.000000	39.505522
1321.000000	39.473667
1322.000000	39.440885
1323.000000	39.406370
1324.000000	39.370073
1325.000000	39.331160
1326.000000	39.290112
1327.000000	39.246693
1328.000000	39.200997
1329.000000	39.152773
1330.000000	39.101665
1331.000000	39.048750
1332.000000	38.992393
1333.000000	38.932367
1334.000000	38.868237
1335.000000	38.800875
1336.000000	38.730198
1337.000000	38.655680
1338.000000	38.578273
1339.000000	38.497210
1340.000000	38.412365
1341.000000	38.322763
1342.000000	38.229337
1343.000000	38.132890
1344.000000	38.032480
1345.000000	37.927563
1346.000000	37.820285
1347.000000	37.711562
1348.000000	37.599332
1349.000000	37.483260
1350.000000	37.365090
1351.000000	37.247030
1352.000000	37.129398
1353.000000	37.013278
1354.000000	36.902005
1355.000000	36.796232
1356.000000	36.691820
1357.000000	36.588805
1358.000000	36.490220
1359.000000	36.396258
1360.000000	36.311105
1361.000000	36.236022
1362.000000	36.162947
1363.000000	36.088555
1364.000000	36.015180
1365.000000	35.938885
1366.000000	35.859835
1367.000000	35.783220
1368.000000	35.701283
1369.000000	35.612765
1370.000000	35.515572
1371.000000	35.403970
1372.000000	35.278858
1373.000000	35.139215
1374.000000	34.982357
1375.000000	34.812863
1376.000000	34.630885
1377.000000	34.431612
1378.000000	34.220325
1379.000000	34.001993
1380.000000	33.781025
1381.000000	33.563887
1382.000000	33.355805
1383.000000	33.160455
1384.000000	32.971825
1385.000000	32.792855
1386.000000	32.626525
1387.000000	32.475498
1388.000000	32.339742
1389.000000	32.211443
1390.000000	32.083257
1391.000000	31.958033
1392.000000	31.833405
1393.000000	31.708018
1394.000000	31.589033
1395.000000	31.476225
1396.000000	31.358925
1397.000000	31.228742
1398.000000	31.091192
1399.000000	30.958012
1400.000000	30.826632
1401.000000	30.680907
1402.000000	30.523175
1403.000000	30.354607
1404.000000	30.180210
1405.000000	29.992897
1406.000000	29.799945
1407.000000	29.605760
1408.000000	29.407710
1409.000000	29.198285
1410.000000	28.977115
1411.000000	28.755078
1412.000000	28.536863
1413.000000	28.324050
1414.000000	28.109630
1415.000000	27.893697
1416.000000	27.678650
1417.000000	27.470250
1418.000000	27.268485
1419.000000	27.072008
1420.000000	26.882403
1421.000000	26.699460
1422.000000	26.522460
1423.000000	26.350802
1424.000000	26.183530
1425.000000	26.021787
1426.000000	25.869402
1427.000000	25.722343
1428.000000	25.577837
1429.000000	25.438430
1430.000000	25.306167
1431.000000	25.180970
1432.000000	25.061740
1433.000000	24.946045
1434.000000	24.833783
1435.000000	24.728628
1436.000000	24.627380
1437.000000	24.529648
1438.000000	24.436485
1439.000000	24.345357
1440.000000	24.257578
1441.000000	24.172023
1442.000000	24.087633
1443.000000	24.005815
1444.000000	23.927380
1445.000000	23.854307
1446.000000	23.781635
1447.000000	23.708002
1448.000000	23.634532
1449.000000	23.564560
1450.000000	23.496797
1451.000000	23.429702
1452.000000	23.362947
1453.000000	23.295595
1454.000000	23.228772
1455.000000	23.158532
1456.000000	23.089887
1457.000000	23.021835
1458.000000	22.953912
1459.000000	22.886572
1460.000000	22.815985
1461.000000	22.746558
1462.000000	22.676907
1463.000000	22.608610
1464.000000	22.541060
1465.000000	22.472327
1466.000000	22.403745
1467.000000	22.336298
1468.000000	22.269830
1469.000000	22.203955
1470.000000	22.141000
1471.000000	22.076635
1472.000000	22.013877
1473.000000	21.952248
1474.000000	21.890445
1475.000000	21.831960
1476.000000	21.775987
1477.000000	21.723810
1478.000000	21.673403
1479.000000	21.624817
1480.000000	21.579075
1481.000000	21.539138
1482.000000	21.502900
1483.000000	21.469028
1484.000000	21.439642
1485.000000	21.413955
1486.000000	21.390670
1487.000000	21.369400
1488.000000	21.351845
1489.000000	21.337115
1490.000000	21.324908
1491.000000	21.313313
1492.000000	21.304453
1493.000000	21.298750
1494.000000	21.296398
1495.000000	21.296618
1496.000000	21.300688
1497.000000	21.308118
1498.000000	21.318742
1499.000000	21.333492
1500.000000	21.351885
1501.000000	21.375823
1502.000000	21.403447
1503.000000	21.436100
1504.000000	21.471990
1505.000000	21.512150
1506.000000	21.555200
1507.000000	21.601292
1508.000000	21.650880
1509.000000	21.703323
1510.000000	21.758480
1511.000000	21.815938
1512.000000	21.874623
1513.000000	21.934062
1514.000000	21.994447
1515.000000	22.054875
1516.000000	22.115263
1517.000000	22.175795
1518.000000	22.236957
1519.000000	22.297063
1520.000000	22.356303
1521.000000	22.413387
1522.000000	22.470000
1523.000000	22.525793
1524.000000	22.580840
1525.000000	22.635260
1526.000000	22.689377
1527.000000	22.742097
1528.000000	22.793298
1529.000000	22.843925
1530.000000	22.893310
1531.000000	22.942150
1532.000000	22.989295
1533.000000	23.035478
1534.000000	23.079738
1535.000000	23.122615
1536.000000	23.163980
1537.000000	23.204068
1538.000000	23.242680
1539.000000	23.279650
1540.000000	23.315833
1541.000000	23.351042
1542.000000	23.386200
1543.000000	23.421360
1544.000000	23.456540
1545.000000	23.491453
1546.000000	23.526913
1547.000000	23.564222
1548.000000	23.603095
1549.000000	23.643970
1550.000000	23.685952
1551.000000	23.728742
1552.000000	23.771805
1553.000000	23.813752
1554.000000	23.856060
1555.000000	23.898257
1556.000000	23.938565
1557.000000	23.976605
1558.000000	24.011180
1559.000000	24.041590
1560.000000	24.068055
1561.000000	24.090428
1562.000000	24.109355
1563.000000	24.124605
1564.000000	24.135047
1565.000000	24.140883
1566.000000	24.143603
1567.000000	24.142905
1568.000000	24.139102
1569.000000	24.133547
1570.000000	24.127200
1571.000000	24.121005
1572.000000	24.114307
1573.000000	24.107795
1574.000000	24.102268
1575.000000	24.097957
1576.000000	24.094950
1577.000000	24.094098
1578.000000	24.095540
1579.000000	24.099753
1580.000000	24.106748
1581.000000	24.116087
1582.000000	24.127928
1583.000000	24.142253
1584.000000	24.159523
1585.000000	24.180800
1586.000000	24.205055
1587.000000	24.231605
1588.000000	24.261093
1589.000000	24.292445
1590.000000	24.325060
1591.000000	24.359195
1592.000000	24.394285
1593.000000	24.431830
1594.000000	24.470837
1595.000000	24.510082
1596.000000	24.550370
1597.000000	24.592437
1598.000000	24.635575
1599.000000	24.680680
1600.000000	24.727385
1601.000000	24.776355
1602.000000	24.827822
1603.000000	24.879713
1604.000000	24.932795
1605.000000	24.987447
1606.000000	25.042675
1607.000000	25.098435
1608.000000	25.154420
1609.000000	25.209775
1610.000000	25.263805
1611.000000	25.315340
1612.000000	25.364817
1613.000000	25.413965
1614.000000	25.461000
1615.000000	25.505218
1616.000000	25.548880
1617.000000	25.590415
1618.000000	25.629192
1619.000000	25.666238
1620.000000	25.702360
1621.000000	25.737775
1622.000000	25.772102
1623.000000	25.804725
1624.000000	25.837858
1625.000000	25.870393
1626.000000	25.901038
1627.000000	25.930875
1628.000000	25.960900
1629.000000	25.989448
1630.000000	26.018237
1631.000000	26.045262
1632.000000	26.071328
1633.000000	26.095783
1634.000000	26.118200
1635.000000	26.139110
1636.000000	26.159110
1637.000000	26.177242
1638.000000	26.193718
1639.000000	26.208882
1640.000000	26.221132
1641.000000	26.232003
1642.000000	26.241005
1643.000000	26.247580
1644.000000	26.252747
1645.000000	26.255970
1646.000000	26.257405
1647.000000	26.257403
1648.000000	26.255460
1649.000000	26.250140
1650.000000	26.241613
1651.000000	26.230457
1652.000000	26.216073
1653.000000	26.197525
1654.000000	26.173620
1655.000000	26.145765
1656.000000	26.111548
1657.000000	26.070443
1658.000000	26.021888
1659.000000	25.967768
1660.000000	25.906835
1661.000000	25.839320
1662.000000	25.764370
1663.000000	25.684312
1664.000000	25.597720
1665.000000	25.502978
1666.000000	25.402255
1667.000000	25.297103
1668.000000	25.184985
1669.000000	25.067982
1670.000000	24.947098
1671.000000	24.824720
1672.000000	24.699930
1673.000000	24.573535
1674.000000	24.447377
1675.000000	24.322480
1676.000000	24.198445
1677.000000	24.074973
1678.000000	23.954493
1679.000000	23.833255
1680.000000	23.711368
1681.000000	23.589188
1682.000000	23.465653
1683.000000	23.341783
1684.000000	23.221560
1685.000000	23.103445
1686.000000	22.992115
1687.000000	22.890450
1688.000000	22.801760
1689.000000	22.730865
1690.000000	22.678722
1691.000000	22.643238
1692.000000	22.629213
1693.000000	22.632758
1694.000000	22.648047
1695.000000	22.676995
1696.000000	22.712995
1697.000000	22.753222
1698.000000	22.792987
1699.000000	22.829875
1700.000000	22.861078
1701.000000	22.887210
1702.000000	22.902075
1703.000000	22.908030
1704.000000	22.907105
1705.000000	22.895808
1706.000000	22.874785
1707.000000	22.843488
1708.000000	22.803807
1709.000000	22.752625
1710.000000	22.691135
1711.000000	22.618247
1712.000000	22.535722
1713.000000	22.442477
1714.000000	22.336380
1715.000000	22.221495
1716.000000	22.098990
1717.000000	21.967167
1718.000000	21.828210
1719.000000	21.687060
1720.000000	21.546945
1721.000000	21.409033
1722.000000	21.279377
1723.000000	21.161180
1724.000000	21.057582
1725.000000	20.969207
1726.000000	20.898315
1727.000000	20.847932
1728.000000	20.816690
1729.000000	20.800100
1730.000000	20.799225
1731.000000	20.812075
1732.000000	20.835487
1733.000000	20.867790
1734.000000	20.906350
1735.000000	20.950638
1736.000000	20.998485
1737.000000	21.050608
1738.000000	21.105777
1739.000000	21.166885
1740.000000	21.231075
1741.000000	21.296793
1742.000000	21.364348
1743.000000	21.433037
1744.000000	21.501632
1745.000000	21.570200
1746.000000	21.638957
1747.000000	21.704480
1748.000000	21.766752
1749.000000	21.825005
1750.000000	21.876387
1751.000000	21.921602
1752.000000	21.961557
1753.000000	21.995853
1754.000000	22.024870
1755.000000	22.047823
1756.000000	22.065362
1757.000000	22.078893
1758.000000	22.089030
1759.000000	22.096180
1760.000000	22.101582
1761.000000	22.107780
1762.000000	22.113312
1763.000000	22.117983
1764.000000	22.124412
1765.000000	22.132848
1766.000000	22.142615
1767.000000	22.153523
1768.000000	22.166062
1769.000000	22.181400
1770.000000	22.200875
1771.000000	22.221417
1772.000000	22.243835
1773.000000	22.268813
1774.000000	22.294975
1775.000000	22.323677
1776.000000	22.353043
1777.000000	22.382888
1778.000000	22.413283
1779.000000	22.443350
1780.000000	22.471988
1781.000000	22.499018
1782.000000	22.525187
1783.000000	22.549327
1784.000000	22.571625
1785.000000	22.590540
1786.000000	22.606425
1787.000000	22.619932
1788.000000	22.631300
1789.000000	22.640220
1790.000000	22.647585
1791.000000	22.654772
1792.000000	22.661415
1793.000000	22.668625
1794.000000	22.676398
1795.000000	22.685860
1796.000000	22.696450
1797.000000	22.707665
1798.000000	22.720440
1799.000000	22.733202
1800.000000	22.747373
1801.000000	22.763930
1802.000000	22.779953
1803.000000	22.794250
1804.000000	22.808073
1805.000000	22.822553
1806.000000	22.839830
1807.000000	22.858007
1808.000000	22.874680
1809.000000	22.890790
1810.000000	22.907052
1811.000000	22.922520
1812.000000	22.938697
1813.000000	22.955305
1814.000000	22.972207
1815.000000	22.988442
1816.000000	23.000860
1817.000000	23.008613
1818.000000	23.014508
1819.000000	23.023577
1820.000000	23.035428
1821.000000	23.047933
1822.000000	23.056653
1823.000000	23.060223
1824.000000	23.060555
1825.000000	23.059923
1826.000000	23.061895
1827.000000	23.068775
1828.000000	23.079080
1829.000000	23.088610
1830.000000	23.096595
1831.000000	23.102395
1832.000000	23.109850
1833.000000	23.120155
1834.000000	23.133905
1835.000000	23.151148
1836.000000	23.170430
1837.000000	23.192553
1838.000000	23.214578
1839.000000	23.236405
1840.000000	23.261180
1841.000000	23.292190
1842.000000	23.324117
1843.000000	23.352405
1844.000000	23.372800
1845.000000	23.384832
1846.000000	23.396178
1847.000000	23.413767
1848.000000	23.436125
1849.000000	23.453725
1850.000000	23.458110
1851.000000	23.450518
1852.000000	23.440948
1853.000000	23.437470
1854.000000	23.441130
1855.000000	23.445650
1856.000000	23.442475
1857.000000	23.422515
1858.000000	23.396335
1859.000000	23.371873
1860.000000	23.351192
1861.000000	23.328760
1862.000000	23.300317
1863.000000	23.263235
1864.000000	23.213930
1865.000000	23.156348
1866.000000	23.092807
1867.000000	23.025157
1868.000000	22.946910
1869.000000	22.860332
1870.000000	22.769078
1871.000000	22.671758
1872.000000	22.569553
1873.000000	22.460568
1874.000000	22.344420
1875.000000	22.221483
1876.000000	22.087988
1877.000000	21.943260
1878.000000	21.787668
1879.000000	21.616488
1880.000000	21.423735
1881.000000	21.219677
1882.000000	21.001418
1883.000000	20.773888
1884.000000	20.538188
1885.000000	20.288992
1886.000000	20.030992
1887.000000	19.760573
1888.000000	19.476662
1889.000000	19.183505
1890.000000	18.887322
1891.000000	18.581117
1892.000000	18.267127
1893.000000	17.939690
1894.000000	17.606100
1895.000000	17.264627
1896.000000	16.916788
1897.000000	16.566472
1898.000000	16.214325
1899.000000	15.858990
1900.000000	15.503605
1901.000000	15.148655
1902.000000	14.798005
1903.000000	14.455675
1904.000000	14.116285
1905.000000	13.788502
1906.000000	13.467325
1907.000000	13.162950
1908.000000	12.869885
1909.000000	12.592065
1910.000000	12.324612
1911.000000	12.072453
1912.000000	11.833370
1913.000000	11.609145
1914.000000	11.396522
1915.000000	11.199845
1916.000000	11.018185
1917.000000	10.841780
1918.000000	10.679140
1919.000000	10.529018
1920.000000	10.394020
1921.000000	10.269558
1922.000000	10.155173
1923.000000	10.047158
1924.000000	9.949067
1925.000000	9.857128
1926.000000	9.772138
1927.000000	9.699810
1928.000000	9.636870
1929.000000	9.578618
1930.000000	9.525787
1931.000000	9.476673
1932.000000	9.433545
1933.000000	9.398932
1934.000000	9.370687
1935.000000	9.348273
1936.000000	9.332797
1937.000000	9.319858
1938.000000	9.311145
1939.000000	9.312655
1940.000000	9.314163
1941.000000	9.323740
1942.000000	9.339225
1943.000000	9.355143
1944.000000	9.376935
1945.000000	9.403652
1946.000000	9.432543
1947.000000	9.464932
1948.000000	9.498788
1949.000000	9.532573
1950.000000	9.571597
1951.000000	9.610173
1952.000000	9.651943
1953.000000	9.696477
1954.000000	9.743470
1955.000000	9.790862
1956.000000	9.841213
1957.000000	9.893622
1958.000000	9.947350
1959.000000	10.000623
1960.000000	10.059537
1961.000000	10.116320
1962.000000	10.171530
1963.000000	10.228560
1964.000000	10.284345
1965.000000	10.342405
1966.000000	10.397675
1967.000000	10.450900
1968.000000	10.506987
1969.000000	10.565795
1970.000000	10.618908
1971.000000	10.675673
1972.000000	10.731713
1973.000000	10.787690
1974.000000	10.844255
1975.000000	10.899830
1976.000000	10.962855
1977.000000	11.024823
1978.000000	11.084980
1979.000000	11.142083
1980.000000	11.201455
1981.000000	11.262848
1982.000000	11.324903
1983.000000	11.385925
1984.000000	11.448575
1985.000000	11.510330
1986.000000	11.567412
1987.000000	11.625750
1988.000000	11.683650
1989.000000	11.742775
1990.000000	11.801250
1991.000000	11.859908
1992.000000	11.916842
1993.000000	11.972985
1994.000000	12.025657
1995.000000	12.078073
1996.000000	12.130005
1997.000000	12.178663
1998.000000	12.225770
1999.000000	12.270043
2000.000000	12.312360
2001.000000	12.351888
2002.000000	12.389478
2003.000000	12.422490
2004.000000	12.455645
2005.000000	12.484240
2006.000000	12.505733
2007.000000	12.526240
2008.000000	12.543392
2009.000000	12.556572
2010.000000	12.565035
2011.000000	12.568220
2012.000000	12.568490
2013.000000	12.565665
2014.000000	12.555705
2015.000000	12.540885
2016.000000	12.527115
2017.000000	12.511347
2018.000000	12.489535
2019.000000	12.463748
2020.000000	12.432357
2021.000000	12.396928
2022.000000	12.353397
2023.000000	12.307285
2024.000000	12.262270
2025.000000	12.212368
2026.000000	12.157445
2027.000000	12.096890
2028.000000	12.034533
2029.000000	11.969495
2030.000000	11.904610
2031.000000	11.833783
2032.000000	11.762562
2033.000000	11.688788
2034.000000	11.610465
2035.000000	11.531752
2036.000000	11.446140
2037.000000	11.360762
2038.000000	11.273183
2039.000000	11.182053
2040.000000	11.086385
2041.000000	10.994305
2042.000000	10.905143
2043.000000	10.811738
2044.000000	10.710123
2045.000000	10.610648
2046.000000	10.522657
2047.000000	10.434525
2048.000000	10.349467
2049.000000	10.267988
2050.000000	10.191002
2051.000000	10.119333
2052.000000	10.053035
2053.000000	10.003945
2054.000000	9.971200
2055.000000	9.943883
2056.000000	9.920555
2057.000000	9.905730
2058.000000	9.903527
2059.000000	9.914065
2060.000000	9.935940
2061.000000	9.966737
2062.000000	10.006670
2063.000000	10.050662
2064.000000	10.097092
2065.000000	10.149430
2066.000000	10.212030
2067.000000	10.283200
2068.000000	10.350692
2069.000000	10.421815
2070.000000	10.492355
2071.000000	10.557153
2072.000000	10.620495
2073.000000	10.683460
2074.000000	10.748285
2075.000000	10.811927
2076.000000	10.866218
2077.000000	10.915755
2078.000000	10.967387
2079.000000	11.012590
2080.000000	11.054968
2081.000000	11.099417
2082.000000	11.138665
2083.000000	11.166840
2084.000000	11.188602
2085.000000	11.207225
2086.000000	11.222060
2087.000000	11.230453
2088.000000	11.236158
2089.000000	11.237645
2090.000000	11.235362
2091.000000	11.231047
2092.000000	11.222910
2093.000000	11.216065
2094.000000	11.213395
2095.000000	11.214495
2096.000000	11.217028
2097.000000	11.215953
2098.000000	11.209945
2099.000000	11.203000
2100.000000	11.196595
2101.000000	11.191957
2102.000000	11.190950
2103.000000	11.193478
2104.000000	11.192675
2105.000000	11.190265
2106.000000	11.179830
2107.000000	11.173955
2108.000000	11.169385
2109.000000	11.169545
2110.000000	11.170852
2111.000000	11.167690
2112.000000	11.168423
2113.000000	11.169540
2114.000000	11.168273
2115.000000	11.164560
2116.000000	11.165685
2117.000000	11.161428
2118.000000	11.158875
2119.000000	11.151422
2120.000000	11.141088
2121.000000	11.136870
2122.000000	11.128870
2123.000000	11.116425
2124.000000	11.094093
2125.000000	11.074027
2126.000000	11.066942
2127.000000	11.052817
2128.000000	11.029797
2129.000000	11.000898
2130.000000	10.977320
2131.000000	10.954990
2132.000000	10.923748
2133.000000	10.881657
2134.000000	10.847513
2135.000000	10.821347
2136.000000	10.776930
2137.000000	10.726240
2138.000000	10.682148
2139.000000	10.640585
2140.000000	10.593552
2141.000000	10.541878
2142.000000	10.481125
2143.000000	10.435530
2144.000000	10.386197
2145.000000	10.310395
2146.000000	10.233042
2147.000000	10.169865
2148.000000	10.104612
2149.000000	10.039960
2150.000000	9.983253
2151.000000	9.915825
2152.000000	9.845422
2153.000000	9.763513
2154.000000	9.687750
2155.000000	9.631103
2156.000000	9.579255
2157.000000	9.525140
2158.000000	9.471195
2159.000000	9.412097
2160.000000	9.344235
2161.000000	9.290215
2162.000000	9.253133
2163.000000	9.211282
2164.000000	9.168490
2165.000000	9.120615
2166.000000	9.071870
2167.000000	9.031195
2168.000000	8.992477
2169.000000	8.959430
2170.000000	8.924473
2171.000000	8.884650
2172.000000	8.854680
2173.000000	8.838027
2174.000000	8.829170
2175.000000	8.811065
2176.000000	8.794255
2177.000000	8.778747
2178.000000	8.767495
2179.000000	8.764608
2180.000000	8.770867
2181.000000	8.759853
2182.000000	8.747365
2183.000000	8.732488
2184.000000	8.717800
2185.000000	8.709952
2186.000000	8.703417
2187.000000	8.690103
2188.000000	8.679195
2189.000000	8.657975
2190.000000	8.634640
2191.000000	8.621130
2192.000000	8.594283
2193.000000	8.570055
2194.000000	8.533915
2195.000000	8.505933
2196.000000	8.477953
2197.000000	8.452492
2198.000000	8.416110
2199.000000	8.394462
2200.000000	8.364395
2201.000000	8.325983
2202.000000	8.299677
2203.000000	8.267107
2204.000000	8.241085
2205.000000	8.206705
2206.000000	8.183135
2207.000000	8.162040
2208.000000	8.144163
2209.000000	8.121720
2210.000000	8.106300
2211.000000	8.115460
2212.000000	8.121833
2213.000000	8.149100
2214.000000	8.170405
2215.000000	8.211277
2216.000000	8.240870
2217.000000	8.276105
2218.000000	8.325930
2219.000000	8.372205
2220.000000	8.433010
2221.000000	8.479378
2222.000000	8.528902
2223.000000	8.579788
2224.000000	8.628742
2225.000000	8.674827
2226.000000	8.729852
2227.000000	8.775375
2228.000000	8.802222
2229.000000	8.847165
2230.000000	8.875355
2231.000000	8.911210
2232.000000	8.939870
2233.000000	8.957662
2234.000000	8.992743
2235.000000	9.011777
2236.000000	9.022938
2237.000000	9.035940
2238.000000	9.054907
2239.000000	9.057127
2240.000000	9.054272
2241.000000	9.051765
2242.000000	9.045818
2243.000000	9.026185
2244.000000	8.996275
2245.000000	8.962833
2246.000000	8.924397
2247.000000	8.880193
2248.000000	8.834188
2249.000000	8.779312
2250.000000	8.731782
2251.000000	8.675575
2252.000000	8.612282
2253.000000	8.551310
2254.000000	8.479662
2255.000000	8.413865
2256.000000	8.349158
2257.000000	8.287125
2258.000000	8.230147
2259.000000	8.170792
2260.000000	8.099018
2261.000000	8.037538
2262.000000	7.993160
2263.000000	7.940565
2264.000000	7.898485
2265.000000	7.857690
2266.000000	7.829225
2267.000000	7.804515
2268.000000	7.772075
2269.000000	7.756885
2270.000000	7.746177
2271.000000	7.734090
2272.000000	7.714867
2273.000000	7.717125
2274.000000	7.724265
2275.000000	7.729400
2276.000000	7.730297
2277.000000	7.730862
2278.000000	7.729352
2279.000000	7.725735
2280.000000	7.727420
2281.000000	7.727983
2282.000000	7.733683
2283.000000	7.725788
2284.000000	7.725543
2285.000000	7.737170
2286.000000	7.731650
2287.000000	7.728373
2288.000000	7.736388
2289.000000	7.746847
2290.000000	7.759955
2291.000000	7.767307
2292.000000	7.779202
2293.000000	7.788873
2294.000000	7.785292
2295.000000	7.784383
2296.000000	7.794333
2297.000000	7.799962
2298.000000	7.800725
2299.000000	7.797053
2300.000000	7.786853
2301.000000	7.787675
2302.000000	7.779585
2303.000000	7.779850
2304.000000	7.785547
2305.000000	7.787800
2306.000000	7.804040
2307.000000	7.832475
2308.000000	7.867110
2309.000000	7.898855
2310.000000	7.935412
2311.000000	7.959630
2312.000000	7.991263
2313.000000	8.025955
2314.000000	8.051410
2315.000000	8.063470
2316.000000	8.072028
2317.000000	8.082933
2318.000000	8.094375
2319.000000	8.106858
2320.000000	8.122502
2321.000000	8.143218
2322.000000	8.151388
2323.000000	8.154433
2324.000000	8.156255
2325.000000	8.163462
2326.000000	8.172040
2327.000000	8.171852
2328.000000	8.167520
2329.000000	8.160323
2330.000000	8.159970
2331.000000	8.163798
2332.000000	8.176213
2333.000000	8.190950
2334.000000	8.213265
2335.000000	8.240905
2336.000000	8.250447
2337.000000	8.263192
2338.000000	8.284228
2339.000000	8.296722
2340.000000	8.306540
2341.000000	8.314005
2342.000000	8.323260
2343.000000	8.336992
2344.000000	8.352937
2345.000000	8.374208
2346.000000	8.403940
2347.000000	8.420447
2348.000000	8.446185
2349.000000	8.496965
2350.000000	8.533850
2351.000000	8.558545
2352.000000	8.582915
2353.000000	8.609613
2354.000000	8.629437
2355.000000	8.641297
2356.000000	8.660547
2357.000000	8.689272
2358.000000	8.703943
2359.000000	8.698548
2360.000000	8.717055
2361.000000	8.758850
2362.000000	8.783527
2363.000000	8.804253
2364.000000	8.823605
2365.000000	8.832535
2366.000000	8.835785
2367.000000	8.852093
2368.000000	8.861422
2369.000000	8.870800
2370.000000	8.865210
2371.000000	8.847975
2372.000000	8.863173
2373.000000	8.877873
2374.000000	8.904348
2375.000000	8.939823
2376.000000	8.978625
2377.000000	9.001068
2378.000000	9.020880
2379.000000	9.041552
2380.000000	9.058700
2381.000000	9.074117
2382.000000	9.086073
2383.000000	9.117155
2384.000000	9.122187
2385.000000	9.128937
2386.000000	9.137315
2387.000000	9.125300
2388.000000	9.124110
2389.000000	9.127402
2390.000000	9.146305
2391.000000	9.170945
2392.000000	9.171810
2393.000000	9.139525
2394.000000	9.131922
2395.000000	9.128103
2396.000000	9.107418
2397.000000	9.108898
2398.000000	9.115335
2399.000000	9.106103
2400.000000	9.087273
2401.000000	9.077747
2402.000000	9.091553
2403.000000	9.126552
2404.000000	9.150080
2405.000000	9.171010
2406.000000	9.194220
2407.000000	9.192028
2408.000000	9.177155
2409.000000	9.189742
2410.000000	9.195675
2411.000000	9.185595
2412.000000	9.161675
2413.000000	9.131925
2414.000000	9.100717
2415.000000	9.077417
2416.000000	9.060960
2417.000000	9.058087
2418.000000	9.053315
2419.000000	9.048580
2420.000000	9.051065
2421.000000	9.043785
2422.000000	9.024748
2423.000000	8.985392
2424.000000	8.963233
2425.000000	8.931723
2426.000000	8.893818
2427.000000	8.865555
2428.000000	8.843502
2429.000000	8.789895
2430.000000	8.737450
2431.000000	8.694730
2432.000000	8.669915
2433.000000	8.645140
2434.000000	8.613103
2435.000000	8.572662
2436.000000	8.560787
2437.000000	8.537340
2438.000000	8.509545
2439.000000	8.517838
2440.000000	8.517990
2441.000000	8.472867
2442.000000	8.449093
2443.000000	8.415030
2444.000000	8.405233
2445.000000	8.391105
2446.000000	8.331125
2447.000000	8.323533
2448.000000	8.310840
2449.000000	8.277075
2450.000000	8.263325
2451.000000	8.296768
2452.000000	8.296765
2453.000000	8.301972
2454.000000	8.290260
2455.000000	8.317170
2456.000000	8.350275
2457.000000	8.323252
2458.000000	8.316930
2459.000000	8.378462
2460.000000	8.427580
2461.000000	8.463020
2462.000000	8.459460
2463.000000	8.544808
2464.000000	8.599130
2465.000000	8.586585
2466.000000	8.678752
2467.000000	8.731630
2468.000000	8.819523
2469.000000	8.885283
2470.000000	8.894745
2471.000000	8.946975
2472.000000	9.106452
2473.000000	9.129243
2474.000000	9.205040
2475.000000	9.373822
2476.000000	9.462515
2477.000000	9.605327
2478.000000	9.699063
2479.000000	9.794673
2480.000000	9.950130
2481.000000	10.148390
2482.000000	10.292615
2483.000000	10.419812
2484.000000	10.624982
2485.000000	10.749625
2486.000000	10.841900
2487.000000	11.005983
2488.000000	11.190813
2489.000000	11.289365
2490.000000	11.457150
2491.000000	11.647725
2492.000000	11.771255
2493.000000	11.993440
2494.000000	12.095828
2495.000000	12.270595
2496.000000	12.585145
2497.000000	12.828387
2498.000000	12.969637
2499.000000	13.195022
2500.000000	13.337258
2501.000000	16.763708
2502.000000	20.300362
2503.000000	24.241055
2504.000000	28.293838
2505.000000	32.177905
2506.000000	35.908045
2507.000000	39.557245
2508.000000	43.463980
2509.000000	47.414635
2510.000000	51.607950
2511.000000	52.766690
2512.000000	53.895620
2513.000000	54.795210
2514.000000	55.401950
2515.000000	56.214610
2516.000000	57.273200
2517.000000	58.862520
2518.000000	60.352980
2519.000000	61.774920
2520.000000	62.934990
2521.000000	63.911870
2522.000000	65.060630
2523.000000	65.809070
2524.000000	66.411240
2525.000000	67.187580
2526.000000	67.632070
2527.000000	67.947950
2528.000000	68.748330
2529.000000	69.741110
2530.000000	70.361770
2531.000000	71.306230
2532.000000	71.644880
2533.000000	72.758300
2534.000000	74.412380
2535.000000	75.771170
2536.000000	77.562860
2537.000000	78.913020
2538.000000	79.153130
2539.000000	79.259470
2540.000000	80.669890
2541.000000	81.490240
2542.000000	82.380040
2543.000000	82.999640
2544.000000	83.073230
2545.000000	83.276270
2546.000000	83.310820
2547.000000	83.465770
2548.000000	84.325260
2549.000000	85.443660
2550.000000	85.189670
2551.000000	85.132420
2552.000000	85.952470
2553.000000	86.243350
2554.000000	86.854160
2555.000000	87.784590
2556.000000	88.127390
2557.000000	88.785090
2558.000000	89.252610
2559.000000	89.670220
2560.000000	90.745420
2561.000000	91.387010
2562.000000	91.621050
2563.000000	92.543860
2564.000000	93.255180
2565.000000	93.482160
2566.000000	94.317510
2567.000000	94.507370
2568.000000	94.894460
2569.000000	95.332050
2570.000000	95.448880
2571.000000	95.444500
2572.000000	95.594380
2573.000000	95.993440
2574.000000	96.552240
2575.000000	96.451360
2576.000000	96.377250
2577.000000	97.058750
2578.000000	97.957550
2579.000000	97.963360
2580.000000	98.336630
2581.000000	99.259880
2582.000000	99.774940
2583.000000	99.425330
2584.000000	99.329430
2585.000000	100.143870
2586.000000	100.515980
2587.000000	100.002390
2588.000000	99.246430
2589.000000	99.500130
2590.000000	99.370370
2591.000000	99.025940
2592.000000	98.585600
2593.000000	98.071720
2594.000000	97.967240
2595.000000	98.388470
2596.000000	98.817270
2597.000000	99.623410
2598.000000	100.549980
2599.000000	100.873750
2600.000000	100.804750
2601.000000	101.282460
2602.000000	102.197770
2603.000000	102.701320
2604.000000	102.841910
2605.000000	102.567960
2606.000000	102.400880
2607.000000	102.806020
2608.000000	102.684440
2609.000000	102.077710
2610.000000	102.072070
2611.000000	101.978720
2612.000000	101.627990
2613.000000	102.180400
2614.000000	102.491890
2615.000000	102.051730
2616.000000	101.837560
2617.000000	101.262790
2618.000000	100.575330
2619.000000	100.806840
2620.000000	101.229780
2621.000000	100.804110
2622.000000	100.897140
2623.000000	100.830960
2624.000000	100.775860
2625.000000	101.912310
2626.000000	102.806830
2627.000000	103.427230
2628.000000	103.848120
2629.000000	103.252900
2630.000000	102.990000
2631.000000	103.959680
2632.000000	104.798850
2633.000000	104.508200
2634.000000	104.218540
2635.000000	103.859180
2636.000000	103.269830
2637.000000	102.522770
2638.000000	102.568470
2639.000000	103.689920
2640.000000	103.722650
2641.000000	102.988310
2642.000000	102.547370
2643.000000	103.229780
2644.000000	103.689300
2645.000000	102.725140
2646.000000	102.118820
2647.000000	101.897240
2648.000000	101.599240
2649.000000	100.859500
2650.000000	101.522080
2651.000000	102.631150
2652.000000	102.327330
2653.000000	102.042380
2654.000000	102.151970
2655.000000	102.918740
2656.000000	103.352580
2657.000000	103.366000
2658.000000	103.171990
2659.000000	103.586160
2660.000000	103.562730
2661.000000	102.784050
2662.000000	102.490540
2663.000000	102.271970
2664.000000	101.524980
2665.000000	100.736690
2666.000000	101.515750
2667.000000	102.170200
2668.000000	102.367010
2669.000000	102.342070
2670.000000	101.099280
2671.000000	100.569740
2672.000000	100.528280
2673.000000	100.423310
2674.000000	100.711530
2675.000000	101.143550
2676.000000	100.868380
2677.000000	100.481730
2678.000000	100.651990
2679.000000	101.409300
2680.000000	102.318670
2681.000000	103.171040
2682.000000	103.210150
2683.000000	102.730140
2684.000000	102.614590
2685.000000	101.853600
2686.000000	100.508880
2687.000000	100.065620
2688.000000	99.812550
2689.000000	99.072090
2690.000000	99.300400
2691.000000	98.633400
2692.000000	98.324210
2693.000000	99.289660
2694.000000	99.878960
2695.000000	100.964220
2696.000000	101.733900
2697.000000	101.989530
2698.000000	101.780680
2699.000000	101.637860
2700.000000	100.812790
2701.000000	100.516610
2702.000000	100.975550
2703.000000	100.404980
2704.000000	100.183130
2705.000000	100.817050
2706.000000	101.298460
2707.000000	100.925000
2708.000000	101.694240
2709.000000	102.371330
2710.000000	103.644870
2711.000000	104.785000
2712.000000	105.893090
2713.000000	105.301680
2714.000000	105.001100
2715.000000	103.909980
2716.000000	103.499630
2717.000000	104.428500
2718.000000	104.463720
2719.000000	104.589270
2720.000000	103.883690
2721.000000	103.069790
2722.000000	102.332290
2723.000000	104.112660
2724.000000	104.063390
2725.000000	104.187880
2726.000000	104.464350
2727.000000	103.904950
2728.000000	104.079670
2729.000000	103.943010
2730.000000	103.916890
2731.000000	103.607460
2732.000000	102.145850
2733.000000	101.223970
2734.000000	100.387050
2735.000000	101.235020
2736.000000	100.825560
2737.000000	101.994770
2738.000000	102.793730
2739.000000	103.180930
2740.000000	102.884240
2741.000000	103.513330
2742.000000	105.065870
2743.000000	105.202110
2744.000000	106.000750
2745.000000	105.400350
2746.000000	105.282790
2747.000000	104.763500
2748.000000	102.993060
2749.000000	103.198920
2750.000000	104.097980
2751.000000	103.349550
2752.000000	102.488980
2753.000000	102.637580
2754.000000	102.653980
2755.000000	102.716480
2756.000000	103.650290
2757.000000	104.663210
2758.000000	106.203390
2759.000000	104.728220
2760.000000	103.760790
2761.000000	104.728090
2762.000000	104.737800
2763.000000	104.677820
2764.000000	104.317160
2765.000000	104.450680
2766.000000	104.658640
2767.000000	104.103240
2768.000000	102.727280
2769.000000	102.400230
2770.000000	102.462560
2771.000000	101.871150
2772.000000	101.832230
2773.000000	101.362700
2774.000000	101.995300
2775.000000	101.363430
2776.000000	100.882310
2777.000000	100.835580
2778.000000	101.549440
2779.000000	102.541650
2780.000000	101.676580
2781.000000	101.074020
2782.000000	101.054980
2783.000000	100.951660
2784.000000	101.036430
2785.000000	101.303980
2786.000000	100.656890
2787.000000	99.939210
2788.000000	99.836010
2789.000000	99.473800
2790.000000	100.633910
2791.000000	101.390210
2792.000000	101.142890
2793.000000	101.141430
2794.000000	101.281280
2795.000000	101.020600
2796.000000	101.437580
2797.000000	101.637690
2798.000000	101.451340
2799.000000	101.611490
2800.000000	102.652250
2801.000000	103.494560
2802.000000	104.170200
2803.000000	104.690130
2804.000000	103.958090
2805.000000	103.758560
2806.000000	103.508570
2807.000000	103.035510
2808.000000	103.317190
2809.000000	104.002450
2810.000000	102.842910
2811.000000	102.600020
2812.000000	102.470690
2813.000000	102.101710
2814.000000	102.538110
2815.000000	103.251360
2816.000000	103.135470
2817.000000	103.498800
2818.000000	102.949210
2819.000000	102.027490
2820.000000	102.359530
2821.000000	101.939480
2822.000000	102.094460
2823.000000	102.214180
2824.000000	102.428060
2825.000000	102.165470
2826.000000	102.716610
2827.000000	102.599920
2828.000000	102.870710
2829.000000	103.255900
2830.000000	102.656220
2831.000000	101.969150
2832.000000	101.907430
2833.000000	102.182760
2834.000000	102.113750
2835.000000	102.417060
2836.000000	102.398880
2837.000000	102.736810
2838.000000	103.299770
2839.000000	103.270860
2840.000000	103.382180
2841.000000	103.314790
2842.000000	103.025940
2843.000000	102.999910
2844.000000	103.338750
2845.000000	103.126880
2846.000000	102.171690
2847.000000	101.509340
2848.000000	100.646950
2849.000000	100.361890
2850.000000	100.587830
2851.000000	101.369980
2852.000000	101.278380
2853.000000	100.366960
2854.000000	99.710570
2855.000000	100.015570
2856.000000	100.956310
2857.000000	101.297600
2858.000000	101.520460
2859.000000	101.565860
2860.000000	101.415210
2861.000000	101.350010
2862.000000	102.205950
2863.000000	102.737440
2864.000000	102.748320
2865.000000	102.437350
2866.000000	102.040740
2867.000000	101.835340
2868.000000	102.702110
2869.000000	103.371450
2870.000000	103.130130
2871.000000	103.089410
2872.000000	102.521990
2873.000000	102.434450
2874.000000	103.212830
2875.000000	103.504940
2876.000000	103.432360
2877.000000	103.815690
2878.000000	103.211810
2879.000000	102.323950
2880.000000	102.325370
2881.000000	101.970000
2882.000000	101.945060
2883.000000	103.022890
2884.000000	103.683610
2885.000000	103.972640
2886.000000	104.595350
2887.000000	104.590330
2888.000000	104.516900
2889.000000	104.640690
2890.000000	104.893900
2891.000000	105.532670
2892.000000	105.962640
2893.000000	104.824500
2894.000000	104.077870
2895.000000	104.401770
2896.000000	104.356460
2897.000000	104.207760
2898.000000	104.353650
2899.000000	104.413980
2900.000000	104.337840
2901.000000	103.987410
2902.000000	103.264870
2903.000000	103.125840
2904.000000	103.436310
2905.000000	103.048080
2906.000000	102.846440
2907.000000	102.950400
2908.000000	102.664580
2909.000000	102.449950
2910.000000	102.465280
2911.000000	102.661460
2912.000000	102.615100
2913.000000	102.054210
2914.000000	100.724290
2915.000000	100.115920
2916.000000	99.628050
2917.000000	99.200140
2918.000000	99.115010
2919.000000	99.809200
2920.000000	100.606000
2921.000000	100.872700
2922.000000	100.966470
2923.000000	102.212450
2924.000000	102.336340
2925.000000	102.382360
2926.000000	102.867010
2927.000000	103.141260
2928.000000	102.956070
2929.000000	103.249230
2930.000000	102.867140
2931.000000	101.987380
2932.000000	102.318270
2933.000000	102.126420
2934.000000	102.126830
2935.000000	102.129660
2936.000000	102.649270
2937.000000	103.034570
2938.000000	103.413030
2939.000000	102.990640
2940.000000	103.763270
2941.000000	104.742390
2942.000000	104.221720
2943.000000	103.881400
2944.000000	104.256250
2945.000000	104.489000
2946.000000	104.058940
2947.000000	103.818640
2948.000000	103.802950
2949.000000	103.340030
2950.000000	102.571450
2951.000000	102.306650
2952.000000	103.161230
2953.000000	103.915210
2954.000000	104.870380
2955.000000	105.114630
2956.000000	105.424400
2957.000000	105.759000
2958.000000	105.963750
2959.000000	106.531600
2960.000000	106.405880
2961.000000	105.885510
2962.000000	104.928540
2963.000000	104.810690
2964.000000	103.976160
2965.000000	103.418040
2966.000000	102.549550
2967.000000	101.991800
2968.000000	101.150870
2969.000000	100.358310
2970.000000	100.542980
2971.000000	100.419590
2972.000000	100.782530
2973.000000	99.612530
2974.000000	99.772400
2975.000000	99.530150
2976.000000	99.611490
2977.000000	99.513520
2978.000000	100.870440
2979.000000	101.133840
2980.000000	100.469460
2981.000000	100.920180
2982.000000	101.513480
2983.000000	102.265250
2984.000000	102.470740
2985.000000	103.444300
2986.000000	103.514640
2987.000000	103.514630
2988.000000	102.623880
2989.000000	101.891350
2990.000000	102.560940
2991.000000	102.621040
2992.000000	101.900740
2993.000000	101.586880
2994.000000	101.168240
2995.000000	100.119810
2996.000000	100.836390
2997.000000	100.705400
2998.000000	100.289360
2999.000000	100.372970
3000.000000	100.113320
