PE UV       SUBTECH     SPECTRUM    ASCII       PEDS        4.00        
   -1
INBUCR0311-4.Sample.ASC
24/02/08
15:44:45.00
24/02/08
15:44:45.00
Vinicio Soto Monge
COSTA RICA. Prov. Limón. Veragua Rainforest, carretera. 429 m. 26-28 JUL 2010. R. Villalobos. Colecta Libre. L_N_212301_624710 #101098 INB0004275186 INBIOCRI COSTA RICA
250,000000
1
Lambda 1050
1050L1511233
PerkinElmer UV WinLab 6.3.2.0749 / 2.02.05 Lambda 900 UV/VIS/NIR, Aug  7 2015 09:38:08

0
0
3350/servo 860,8/2
0
0
UV/VIS
1
1
1
DoubleDePol,CommonBeamDepol,RBeamAtt,SBeamAtt,60mm sphere, WB InGaAs Detector
0
0
0
0
Program
Program
3350/servo 860,8/2
3350/0,2 860,8/0,2
3350/0,2 860,8/0,2
0
15.00
 
 
 
0
 
860,8
319,2
860,8
Front
100
on
S:100 R:100
0
0
0
0
 
0
 
 
 
0
 
 
0
0
0
0
0
 
 
 
 
0
0


0
0
#HDR
-1
-1
#GR
nm
%R
1.0
0.0
2500,000000
-1,000000
2251
8
7,048300
0,490200
#DATA

250.000000	nan
251.000000	nan
252.000000	nan
253.000000	nan
254.000000	nan
255.000000	nan
256.000000	nan
257.000000	nan
258.000000	nan
259.000000	4.322409
260.000000	4.322177
261.000000	4.319328
262.000000	4.320602
263.000000	4.317231
264.000000	4.315301
265.000000	4.307820
266.000000	4.304704
267.000000	4.300719
268.000000	4.298062
269.000000	4.289829
270.000000	4.280233
271.000000	4.269515
272.000000	4.260200
273.000000	4.253482
274.000000	4.245831
275.000000	4.241881
276.000000	4.233827
277.000000	4.224838
278.000000	4.216736
279.000000	4.209103
280.000000	4.204183
281.000000	4.201041
282.000000	4.194878
283.000000	4.187595
284.000000	4.185768
285.000000	4.179519
286.000000	4.173714
287.000000	4.175795
288.000000	4.171920
289.000000	4.168913
290.000000	4.167328
291.000000	4.164031
292.000000	4.161137
293.000000	4.162859
294.000000	4.162113
295.000000	4.165172
296.000000	4.170075
297.000000	4.168865
298.000000	4.170018
299.000000	4.174048
300.000000	4.173613
301.000000	4.176463
302.000000	4.180792
303.000000	4.185881
304.000000	4.189949
305.000000	4.193443
306.000000	4.197091
307.000000	4.209631
308.000000	4.224268
309.000000	4.241219
310.000000	4.262122
311.000000	4.285622
312.000000	4.312897
313.000000	4.338625
314.000000	4.367486
315.000000	4.404470
316.000000	4.448169
317.000000	4.539763
318.000000	4.608019
319.000000	4.683055
320.000000	4.756144
321.000000	4.822529
322.000000	4.890010
323.000000	4.937538
324.000000	4.986943
325.000000	5.040283
326.000000	5.074752
327.000000	5.053276
328.000000	5.048787
329.000000	5.039279
330.000000	5.029237
331.000000	5.026435
332.000000	5.003871
333.000000	5.006749
334.000000	5.003299
335.000000	4.987706
336.000000	4.985581
337.000000	4.981149
338.000000	4.974255
339.000000	4.967951
340.000000	4.961986
341.000000	4.952023
342.000000	4.960357
343.000000	4.964561
344.000000	4.963295
345.000000	4.967011
346.000000	4.962446
347.000000	4.966194
348.000000	4.978270
349.000000	4.977214
350.000000	4.974831
351.000000	4.973493
352.000000	4.969400
353.000000	4.957801
354.000000	4.955997
355.000000	4.951475
356.000000	4.948229
357.000000	4.940665
358.000000	4.930558
359.000000	4.925605
360.000000	4.919818
361.000000	4.912473
362.000000	4.904241
363.000000	4.897830
364.000000	4.890042
365.000000	4.883098
366.000000	4.876024
367.000000	4.867888
368.000000	4.858471
369.000000	4.854790
370.000000	4.849830
371.000000	4.840513
372.000000	4.829664
373.000000	4.818146
374.000000	4.799372
375.000000	4.773434
376.000000	4.775274
377.000000	4.778046
378.000000	4.785413
379.000000	4.787913
380.000000	4.794206
381.000000	4.803994
382.000000	4.814748
383.000000	4.828120
384.000000	4.845182
385.000000	4.866234
386.000000	4.864042
387.000000	4.860768
388.000000	4.857191
389.000000	4.854440
390.000000	4.849829
391.000000	4.844952
392.000000	4.840315
393.000000	4.835112
394.000000	4.830205
395.000000	4.825265
396.000000	4.820464
397.000000	4.816199
398.000000	4.811878
399.000000	4.807014
400.000000	4.801617
401.000000	4.796649
402.000000	4.791712
403.000000	4.787128
404.000000	4.782971
405.000000	4.778271
406.000000	4.773658
407.000000	4.768584
408.000000	4.763876
409.000000	4.759291
410.000000	4.755477
411.000000	4.751509
412.000000	4.747890
413.000000	4.744976
414.000000	4.741800
415.000000	4.739262
416.000000	4.737081
417.000000	4.735116
418.000000	4.732713
419.000000	4.730518
420.000000	4.728738
421.000000	4.727389
422.000000	4.725998
423.000000	4.723830
424.000000	4.722036
425.000000	4.720005
426.000000	4.718011
427.000000	4.716405
428.000000	4.715002
429.000000	4.713379
430.000000	4.711561
431.000000	4.709769
432.000000	4.708263
433.000000	4.707263
434.000000	4.706161
435.000000	4.704892
436.000000	4.703785
437.000000	4.702276
438.000000	4.700888
439.000000	4.699713
440.000000	4.698923
441.000000	4.697916
442.000000	4.696531
443.000000	4.695195
444.000000	4.693810
445.000000	4.692010
446.000000	4.690069
447.000000	4.688720
448.000000	4.687450
449.000000	4.686006
450.000000	4.683979
451.000000	4.682102
452.000000	4.680322
453.000000	4.678663
454.000000	4.677267
455.000000	4.676799
456.000000	4.676299
457.000000	4.675218
458.000000	4.674139
459.000000	4.673125
460.000000	4.672402
461.000000	4.671932
462.000000	4.671417
463.000000	4.671030
464.000000	4.670962
465.000000	4.670725
466.000000	4.670398
467.000000	4.670241
468.000000	4.670508
469.000000	4.671365
470.000000	4.672079
471.000000	4.672739
472.000000	4.674346
473.000000	4.675473
474.000000	4.676362
475.000000	4.677637
476.000000	4.679602
477.000000	4.682030
478.000000	4.684023
479.000000	4.685704
480.000000	4.687886
481.000000	4.690520
482.000000	4.692710
483.000000	4.695285
484.000000	4.697510
485.000000	4.699879
486.000000	4.701966
487.000000	4.703578
488.000000	4.705262
489.000000	4.707209
490.000000	4.709002
491.000000	4.710176
492.000000	4.711186
493.000000	4.712202
494.000000	4.713591
495.000000	4.714958
496.000000	4.716715
497.000000	4.719201
498.000000	4.722534
499.000000	4.725639
500.000000	4.729698
501.000000	4.734570
502.000000	4.740181
503.000000	4.746807
504.000000	4.754537
505.000000	4.762895
506.000000	4.771853
507.000000	4.781505
508.000000	4.791892
509.000000	4.803679
510.000000	4.816469
511.000000	4.830156
512.000000	4.844735
513.000000	4.859739
514.000000	4.875596
515.000000	4.892653
516.000000	4.910624
517.000000	4.929776
518.000000	4.950182
519.000000	4.972229
520.000000	4.995224
521.000000	5.019850
522.000000	5.046245
523.000000	5.074779
524.000000	5.105346
525.000000	5.137695
526.000000	5.172265
527.000000	5.208687
528.000000	5.247033
529.000000	5.286638
530.000000	5.328519
531.000000	5.372520
532.000000	5.419144
533.000000	5.468204
534.000000	5.519995
535.000000	5.575702
536.000000	5.636020
537.000000	5.700947
538.000000	5.770684
539.000000	5.846659
540.000000	5.928757
541.000000	6.017880
542.000000	6.113385
543.000000	6.216572
544.000000	6.327271
545.000000	6.445274
546.000000	6.569503
547.000000	6.700064
548.000000	6.835876
549.000000	6.977256
550.000000	7.123281
551.000000	7.273483
552.000000	7.428888
553.000000	7.590021
554.000000	7.758469
555.000000	7.935663
556.000000	8.123953
557.000000	8.323880
558.000000	8.538140
559.000000	8.765371
560.000000	9.003849
561.000000	9.255144
562.000000	9.518779
563.000000	9.794111
564.000000	10.079046
565.000000	10.372314
566.000000	10.672226
567.000000	10.979329
568.000000	11.290255
569.000000	11.604960
570.000000	11.924116
571.000000	12.243164
572.000000	12.559298
573.000000	12.868856
574.000000	13.169767
575.000000	13.459278
576.000000	13.733626
577.000000	13.990355
578.000000	14.227012
579.000000	14.443776
580.000000	14.641270
581.000000	14.819952
582.000000	14.982614
583.000000	15.129851
584.000000	15.264415
585.000000	15.387656
586.000000	15.503231
587.000000	15.611721
588.000000	15.714670
589.000000	15.811438
590.000000	15.901903
591.000000	15.983255
592.000000	16.054764
593.000000	16.114137
594.000000	16.157610
595.000000	16.183044
596.000000	16.185849
597.000000	16.166784
598.000000	16.122565
599.000000	16.053147
600.000000	15.956286
601.000000	15.834792
602.000000	15.686940
603.000000	15.514895
604.000000	15.321276
605.000000	15.107829
606.000000	14.876536
607.000000	14.627709
608.000000	14.365733
609.000000	14.089786
610.000000	13.802452
611.000000	13.504613
612.000000	13.198126
613.000000	12.883892
614.000000	12.563328
615.000000	12.236027
616.000000	11.904803
617.000000	11.569977
618.000000	11.233534
619.000000	10.896980
620.000000	10.561770
621.000000	10.229826
622.000000	9.902412
623.000000	9.583455
624.000000	9.272317
625.000000	8.972434
626.000000	8.685935
627.000000	8.412569
628.000000	8.152934
629.000000	7.908589
630.000000	7.678671
631.000000	7.464005
632.000000	7.264697
633.000000	7.078761
634.000000	6.906853
635.000000	6.747458
636.000000	6.599342
637.000000	6.462168
638.000000	6.336229
639.000000	6.219842
640.000000	6.113021
641.000000	6.015613
642.000000	5.926381
643.000000	5.844563
644.000000	5.769474
645.000000	5.701166
646.000000	5.638298
647.000000	5.580565
648.000000	5.526871
649.000000	5.477367
650.000000	5.431364
651.000000	5.387950
652.000000	5.347310
653.000000	5.309121
654.000000	5.274028
655.000000	5.241273
656.000000	5.210528
657.000000	5.182186
658.000000	5.155300
659.000000	5.130277
660.000000	5.107755
661.000000	5.086844
662.000000	5.067102
663.000000	5.049215
664.000000	5.031686
665.000000	5.015353
666.000000	5.000848
667.000000	4.987055
668.000000	4.974045
669.000000	4.962353
670.000000	4.951789
671.000000	4.941598
672.000000	4.932016
673.000000	4.922847
674.000000	4.915788
675.000000	4.909396
676.000000	4.903268
677.000000	4.898240
678.000000	4.894425
679.000000	4.890716
680.000000	4.887264
681.000000	4.884622
682.000000	4.883348
683.000000	4.883313
684.000000	4.882581
685.000000	4.882329
686.000000	4.882587
687.000000	4.883610
688.000000	4.885066
689.000000	4.886922
690.000000	4.888074
691.000000	4.890452
692.000000	4.892372
693.000000	4.895154
694.000000	4.898848
695.000000	4.902134
696.000000	4.906095
697.000000	4.910101
698.000000	4.914040
699.000000	4.917958
700.000000	4.923795
701.000000	4.929732
702.000000	4.935731
703.000000	4.941088
704.000000	4.946905
705.000000	4.953691
706.000000	4.960296
707.000000	4.966735
708.000000	4.974041
709.000000	4.981921
710.000000	4.989538
711.000000	4.997255
712.000000	5.005554
713.000000	5.013974
714.000000	5.022264
715.000000	5.031101
716.000000	5.039723
717.000000	5.048647
718.000000	5.057936
719.000000	5.067689
720.000000	5.076984
721.000000	5.086159
722.000000	5.097234
723.000000	5.109144
724.000000	5.121174
725.000000	5.132475
726.000000	5.144445
727.000000	5.156876
728.000000	5.169283
729.000000	5.181867
730.000000	5.195273
731.000000	5.208529
732.000000	5.221037
733.000000	5.233138
734.000000	5.245842
735.000000	5.260900
736.000000	5.275310
737.000000	5.289250
738.000000	5.303652
739.000000	5.318371
740.000000	5.333182
741.000000	5.348959
742.000000	5.365366
743.000000	5.382057
744.000000	5.399055
745.000000	5.414929
746.000000	5.431748
747.000000	5.450549
748.000000	5.468937
749.000000	5.487374
750.000000	5.507002
751.000000	5.527907
752.000000	5.548001
753.000000	5.567425
754.000000	5.587548
755.000000	5.608645
756.000000	5.631307
757.000000	5.652476
758.000000	5.673466
759.000000	5.696555
760.000000	5.719995
761.000000	5.741816
762.000000	5.764071
763.000000	5.788416
764.000000	5.813714
765.000000	5.837683
766.000000	5.860474
767.000000	5.884351
768.000000	5.909940
769.000000	5.935060
770.000000	5.960231
771.000000	5.987267
772.000000	6.014872
773.000000	6.043153
774.000000	6.071401
775.000000	6.099068
776.000000	6.128068
777.000000	6.158905
778.000000	6.189729
779.000000	6.220160
780.000000	6.250313
781.000000	6.280082
782.000000	6.309766
783.000000	6.339678
784.000000	6.370597
785.000000	6.404439
786.000000	6.438124
787.000000	6.471748
788.000000	6.506604
789.000000	6.541660
790.000000	6.575628
791.000000	6.611573
792.000000	6.650131
793.000000	6.686731
794.000000	6.722923
795.000000	6.759193
796.000000	6.797233
797.000000	6.834739
798.000000	6.873098
799.000000	6.912326
800.000000	6.952595
801.000000	6.991009
802.000000	7.029970
803.000000	7.071373
804.000000	7.112259
805.000000	7.153120
806.000000	7.196570
807.000000	7.239423
808.000000	7.283115
809.000000	7.326124
810.000000	7.369781
811.000000	7.415446
812.000000	7.462316
813.000000	7.511614
814.000000	7.559033
815.000000	7.606138
816.000000	7.650447
817.000000	7.696128
818.000000	7.739346
819.000000	7.784970
820.000000	7.834766
821.000000	7.882571
822.000000	7.928618
823.000000	7.974532
824.000000	8.020924
825.000000	8.071973
826.000000	8.120028
827.000000	8.169290
828.000000	8.222465
829.000000	8.268457
830.000000	8.318502
831.000000	8.369336
832.000000	8.415361
833.000000	8.457105
834.000000	8.509264
835.000000	8.558931
836.000000	8.608816
837.000000	8.661709
838.000000	8.709843
839.000000	8.761843
840.000000	8.800191
841.000000	8.845556
842.000000	8.897881
843.000000	8.948352
844.000000	8.992530
845.000000	9.033296
846.000000	9.081765
847.000000	9.123367
848.000000	9.165229
849.000000	9.209772
850.000000	9.263278
851.000000	9.307504
852.000000	9.356142
853.000000	9.400226
854.000000	9.439949
855.000000	9.476347
856.000000	9.507024
857.000000	9.572701
858.000000	10.105025
859.000000	10.167915
860.000000	10.250643
861.000000	10.300193
862.000000	10.345894
863.000000	10.384736
864.000000	10.423658
865.000000	10.475248
866.000000	10.515252
867.000000	10.527089
868.000000	10.071100
869.000000	10.059567
870.000000	10.014923
871.000000	9.996035
872.000000	9.978175
873.000000	9.981583
874.000000	9.975623
875.000000	9.954103
876.000000	9.938218
877.000000	9.895560
878.000000	9.857735
879.000000	9.843198
880.000000	9.825473
881.000000	9.838860
882.000000	9.831680
883.000000	9.836578
884.000000	9.837008
885.000000	9.841062
886.000000	9.846478
887.000000	9.887525
888.000000	9.925065
889.000000	9.948045
890.000000	9.983277
891.000000	9.992773
892.000000	10.011543
893.000000	10.007085
894.000000	10.017205
895.000000	10.028380
896.000000	10.046285
897.000000	10.048138
898.000000	10.049913
899.000000	10.064200
900.000000	10.082863
901.000000	10.101345
902.000000	10.122180
903.000000	10.150653
904.000000	10.185175
905.000000	10.211225
906.000000	10.244492
907.000000	10.273730
908.000000	10.307245
909.000000	10.344962
910.000000	10.380405
911.000000	10.409688
912.000000	10.444890
913.000000	10.477392
914.000000	10.499575
915.000000	10.537345
916.000000	10.565115
917.000000	10.599530
918.000000	10.633463
919.000000	10.660380
920.000000	10.693158
921.000000	10.735875
922.000000	10.775662
923.000000	10.812260
924.000000	10.853967
925.000000	10.890642
926.000000	10.926317
927.000000	10.964948
928.000000	11.000390
929.000000	11.037935
930.000000	11.071212
931.000000	11.107732
932.000000	11.149545
933.000000	11.191425
934.000000	11.233425
935.000000	11.274922
936.000000	11.321660
937.000000	11.360105
938.000000	11.404545
939.000000	11.450448
940.000000	11.492927
941.000000	11.534813
942.000000	11.569833
943.000000	11.607975
944.000000	11.648143
945.000000	11.694845
946.000000	11.740953
947.000000	11.789803
948.000000	11.834768
949.000000	11.876803
950.000000	11.923455
951.000000	11.972415
952.000000	12.023098
953.000000	12.074960
954.000000	12.124263
955.000000	12.171542
956.000000	12.216778
957.000000	12.263135
958.000000	12.309990
959.000000	12.361887
960.000000	12.412927
961.000000	12.461040
962.000000	12.508730
963.000000	12.556342
964.000000	12.607765
965.000000	12.657913
966.000000	12.709223
967.000000	12.759627
968.000000	12.809717
969.000000	12.861883
970.000000	12.914515
971.000000	12.968905
972.000000	13.023263
973.000000	13.076292
974.000000	13.126745
975.000000	13.177273
976.000000	13.226387
977.000000	13.279218
978.000000	13.332183
979.000000	13.384252
980.000000	13.436210
981.000000	13.487040
982.000000	13.540128
983.000000	13.593267
984.000000	13.646342
985.000000	13.699187
986.000000	13.753428
987.000000	13.808625
988.000000	13.864408
989.000000	13.919075
990.000000	13.971292
991.000000	14.024687
992.000000	14.078383
993.000000	14.131963
994.000000	14.186735
995.000000	14.240343
996.000000	14.291633
997.000000	14.342082
998.000000	14.391992
999.000000	14.443723
1000.000000	14.496533
1001.000000	14.547178
1002.000000	14.597548
1003.000000	14.649170
1004.000000	14.702110
1005.000000	14.757005
1006.000000	14.813468
1007.000000	14.870255
1008.000000	14.927175
1009.000000	14.983565
1010.000000	15.039433
1011.000000	15.094872
1012.000000	15.150105
1013.000000	15.206780
1014.000000	15.263673
1015.000000	15.320303
1016.000000	15.377605
1017.000000	15.433888
1018.000000	15.490172
1019.000000	15.545515
1020.000000	15.601335
1021.000000	15.658638
1022.000000	15.716945
1023.000000	15.774667
1024.000000	15.830435
1025.000000	15.887492
1026.000000	15.944660
1027.000000	16.001803
1028.000000	16.058240
1029.000000	16.115695
1030.000000	16.173237
1031.000000	16.231035
1032.000000	16.289427
1033.000000	16.348423
1034.000000	16.407863
1035.000000	16.465302
1036.000000	16.522315
1037.000000	16.580530
1038.000000	16.638680
1039.000000	16.697197
1040.000000	16.755715
1041.000000	16.814237
1042.000000	16.872300
1043.000000	16.928082
1044.000000	16.984210
1045.000000	17.041265
1046.000000	17.098847
1047.000000	17.156337
1048.000000	17.215093
1049.000000	17.273640
1050.000000	17.331518
1051.000000	17.388445
1052.000000	17.444848
1053.000000	17.503095
1054.000000	17.560848
1055.000000	17.619545
1056.000000	17.677210
1057.000000	17.736363
1058.000000	17.793730
1059.000000	17.850720
1060.000000	17.909500
1061.000000	17.967655
1062.000000	18.026463
1063.000000	18.086092
1064.000000	18.145577
1065.000000	18.202415
1066.000000	18.260230
1067.000000	18.316490
1068.000000	18.373967
1069.000000	18.431665
1070.000000	18.487677
1071.000000	18.545578
1072.000000	18.604243
1073.000000	18.661932
1074.000000	18.720248
1075.000000	18.780530
1076.000000	18.838710
1077.000000	18.897895
1078.000000	18.958245
1079.000000	19.017965
1080.000000	19.077495
1081.000000	19.136845
1082.000000	19.194778
1083.000000	19.252397
1084.000000	19.309660
1085.000000	19.366627
1086.000000	19.426525
1087.000000	19.484575
1088.000000	19.540952
1089.000000	19.597435
1090.000000	19.653870
1091.000000	19.711143
1092.000000	19.769295
1093.000000	19.827163
1094.000000	19.884967
1095.000000	19.941540
1096.000000	19.996372
1097.000000	20.052712
1098.000000	20.108050
1099.000000	20.163375
1100.000000	20.220692
1101.000000	20.275537
1102.000000	20.330290
1103.000000	20.385308
1104.000000	20.439343
1105.000000	20.493092
1106.000000	20.546880
1107.000000	20.600080
1108.000000	20.653485
1109.000000	20.707320
1110.000000	20.759730
1111.000000	20.810885
1112.000000	20.860993
1113.000000	20.910995
1114.000000	20.961700
1115.000000	21.012535
1116.000000	21.063155
1117.000000	21.113402
1118.000000	21.163197
1119.000000	21.211892
1120.000000	21.259055
1121.000000	21.310015
1122.000000	21.361555
1123.000000	21.411202
1124.000000	21.459418
1125.000000	21.507367
1126.000000	21.554895
1127.000000	21.600997
1128.000000	21.647380
1129.000000	21.691102
1130.000000	21.734810
1131.000000	21.772535
1132.000000	21.808915
1133.000000	21.846160
1134.000000	21.885497
1135.000000	21.924107
1136.000000	21.960203
1137.000000	21.994625
1138.000000	22.026722
1139.000000	22.059600
1140.000000	22.092402
1141.000000	22.128352
1142.000000	22.161560
1143.000000	22.196050
1144.000000	22.228490
1145.000000	22.260683
1146.000000	22.295225
1147.000000	22.330757
1148.000000	22.366217
1149.000000	22.402470
1150.000000	22.438780
1151.000000	22.472225
1152.000000	22.507660
1153.000000	22.541717
1154.000000	22.573208
1155.000000	22.603585
1156.000000	22.633085
1157.000000	22.659220
1158.000000	22.684860
1159.000000	22.708265
1160.000000	22.728827
1161.000000	22.749398
1162.000000	22.767820
1163.000000	22.782132
1164.000000	22.796770
1165.000000	22.810958
1166.000000	22.822050
1167.000000	22.834810
1168.000000	22.846330
1169.000000	22.858450
1170.000000	22.870990
1171.000000	22.884665
1172.000000	22.899673
1173.000000	22.917318
1174.000000	22.936817
1175.000000	22.956740
1176.000000	22.979378
1177.000000	23.002525
1178.000000	23.029238
1179.000000	23.056738
1180.000000	23.085187
1181.000000	23.115005
1182.000000	23.145885
1183.000000	23.176895
1184.000000	23.208977
1185.000000	23.242705
1186.000000	23.277490
1187.000000	23.315345
1188.000000	23.350932
1189.000000	23.390337
1190.000000	23.433353
1191.000000	23.477325
1192.000000	23.523333
1193.000000	23.572038
1194.000000	23.621645
1195.000000	23.673700
1196.000000	23.727998
1197.000000	23.784712
1198.000000	23.843588
1199.000000	23.901817
1200.000000	23.958792
1201.000000	24.016890
1202.000000	24.074257
1203.000000	24.131408
1204.000000	24.188905
1205.000000	24.245488
1206.000000	24.301047
1207.000000	24.353687
1208.000000	24.407833
1209.000000	24.462043
1210.000000	24.515143
1211.000000	24.566662
1212.000000	24.618153
1213.000000	24.667360
1214.000000	24.714533
1215.000000	24.759778
1216.000000	24.802757
1217.000000	24.844178
1218.000000	24.884348
1219.000000	24.922722
1220.000000	24.960985
1221.000000	24.998278
1222.000000	25.034195
1223.000000	25.071040
1224.000000	25.106985
1225.000000	25.143442
1226.000000	25.179773
1227.000000	25.216555
1228.000000	25.253310
1229.000000	25.290108
1230.000000	25.327535
1231.000000	25.365717
1232.000000	25.404825
1233.000000	25.444067
1234.000000	25.484742
1235.000000	25.526170
1236.000000	25.569480
1237.000000	25.614157
1238.000000	25.660360
1239.000000	25.706827
1240.000000	25.754863
1241.000000	25.804305
1242.000000	25.854892
1243.000000	25.905848
1244.000000	25.958850
1245.000000	26.012625
1246.000000	26.066408
1247.000000	26.121705
1248.000000	26.176075
1249.000000	26.230747
1250.000000	26.283918
1251.000000	26.336572
1252.000000	26.388727
1253.000000	26.440170
1254.000000	26.488743
1255.000000	26.535573
1256.000000	26.581302
1257.000000	26.624047
1258.000000	26.664970
1259.000000	26.704350
1260.000000	26.742875
1261.000000	26.780215
1262.000000	26.816150
1263.000000	26.851013
1264.000000	26.885413
1265.000000	26.919567
1266.000000	26.952598
1267.000000	26.985215
1268.000000	27.018728
1269.000000	27.051763
1270.000000	27.084868
1271.000000	27.118302
1272.000000	27.151400
1273.000000	27.184520
1274.000000	27.218055
1275.000000	27.252303
1276.000000	27.287830
1277.000000	27.323692
1278.000000	27.360085
1279.000000	27.398360
1280.000000	27.437233
1281.000000	27.476205
1282.000000	27.516680
1283.000000	27.558332
1284.000000	27.601472
1285.000000	27.645730
1286.000000	27.690693
1287.000000	27.736577
1288.000000	27.782970
1289.000000	27.829097
1290.000000	27.874782
1291.000000	27.920335
1292.000000	27.965585
1293.000000	28.010397
1294.000000	28.053180
1295.000000	28.093763
1296.000000	28.132940
1297.000000	28.171940
1298.000000	28.209292
1299.000000	28.244430
1300.000000	28.279083
1301.000000	28.312537
1302.000000	28.343477
1303.000000	28.372622
1304.000000	28.400817
1305.000000	28.427830
1306.000000	28.453060
1307.000000	28.474942
1308.000000	28.495100
1309.000000	28.515115
1310.000000	28.533640
1311.000000	28.550610
1312.000000	28.566780
1313.000000	28.582560
1314.000000	28.597438
1315.000000	28.610962
1316.000000	28.623940
1317.000000	28.636643
1318.000000	28.648128
1319.000000	28.658458
1320.000000	28.668367
1321.000000	28.677955
1322.000000	28.686377
1323.000000	28.694385
1324.000000	28.701810
1325.000000	28.708687
1326.000000	28.714170
1327.000000	28.718353
1328.000000	28.721630
1329.000000	28.724085
1330.000000	28.724625
1331.000000	28.722642
1332.000000	28.719565
1333.000000	28.712037
1334.000000	28.701170
1335.000000	28.687038
1336.000000	28.670822
1337.000000	28.651487
1338.000000	28.628727
1339.000000	28.600855
1340.000000	28.568510
1341.000000	28.532193
1342.000000	28.491030
1343.000000	28.446460
1344.000000	28.396640
1345.000000	28.341445
1346.000000	28.282902
1347.000000	28.220382
1348.000000	28.151815
1349.000000	28.079765
1350.000000	28.004785
1351.000000	27.926847
1352.000000	27.847293
1353.000000	27.770925
1354.000000	27.702225
1355.000000	27.639520
1356.000000	27.578267
1357.000000	27.521635
1358.000000	27.472530
1359.000000	27.429065
1360.000000	27.398727
1361.000000	27.383222
1362.000000	27.372910
1363.000000	27.363383
1364.000000	27.354753
1365.000000	27.344632
1366.000000	27.332555
1367.000000	27.322288
1368.000000	27.308702
1369.000000	27.288203
1370.000000	27.254085
1371.000000	27.203508
1372.000000	27.138470
1373.000000	27.057603
1374.000000	26.958172
1375.000000	26.844430
1376.000000	26.717622
1377.000000	26.572490
1378.000000	26.415755
1379.000000	26.251652
1380.000000	26.087460
1381.000000	25.929660
1382.000000	25.782792
1383.000000	25.649572
1384.000000	25.524510
1385.000000	25.409263
1386.000000	25.307292
1387.000000	25.223323
1388.000000	25.151897
1389.000000	25.086512
1390.000000	25.022845
1391.000000	24.959135
1392.000000	24.895058
1393.000000	24.826635
1394.000000	24.763670
1395.000000	24.708170
1396.000000	24.647652
1397.000000	24.570952
1398.000000	24.486612
1399.000000	24.410643
1400.000000	24.337293
1401.000000	24.250460
1402.000000	24.150582
1403.000000	24.044553
1404.000000	23.931865
1405.000000	23.805248
1406.000000	23.674628
1407.000000	23.546952
1408.000000	23.417550
1409.000000	23.277360
1410.000000	23.122410
1411.000000	22.965737
1412.000000	22.812583
1413.000000	22.665745
1414.000000	22.517605
1415.000000	22.365960
1416.000000	22.213675
1417.000000	22.066023
1418.000000	21.922555
1419.000000	21.781553
1420.000000	21.645338
1421.000000	21.514850
1422.000000	21.389482
1423.000000	21.265225
1424.000000	21.142988
1425.000000	21.028255
1426.000000	20.920275
1427.000000	20.814365
1428.000000	20.711405
1429.000000	20.609452
1430.000000	20.514475
1431.000000	20.427533
1432.000000	20.344658
1433.000000	20.263148
1434.000000	20.185520
1435.000000	20.113167
1436.000000	20.042262
1437.000000	19.975920
1438.000000	19.910290
1439.000000	19.849580
1440.000000	19.792248
1441.000000	19.734280
1442.000000	19.676590
1443.000000	19.620380
1444.000000	19.566930
1445.000000	19.516663
1446.000000	19.468127
1447.000000	19.415615
1448.000000	19.365525
1449.000000	19.316387
1450.000000	19.267917
1451.000000	19.219780
1452.000000	19.171298
1453.000000	19.123273
1454.000000	19.074413
1455.000000	19.022045
1456.000000	18.971690
1457.000000	18.921735
1458.000000	18.870265
1459.000000	18.817187
1460.000000	18.761852
1461.000000	18.705950
1462.000000	18.651360
1463.000000	18.596512
1464.000000	18.541103
1465.000000	18.486057
1466.000000	18.430512
1467.000000	18.376912
1468.000000	18.323557
1469.000000	18.271460
1470.000000	18.221453
1471.000000	18.172795
1472.000000	18.124727
1473.000000	18.076887
1474.000000	18.031350
1475.000000	17.987907
1476.000000	17.945828
1477.000000	17.907455
1478.000000	17.871878
1479.000000	17.838815
1480.000000	17.808722
1481.000000	17.781335
1482.000000	17.756428
1483.000000	17.734580
1484.000000	17.715130
1485.000000	17.699053
1486.000000	17.685268
1487.000000	17.672645
1488.000000	17.661205
1489.000000	17.652215
1490.000000	17.643370
1491.000000	17.637060
1492.000000	17.633595
1493.000000	17.632190
1494.000000	17.632642
1495.000000	17.634802
1496.000000	17.639740
1497.000000	17.648243
1498.000000	17.660083
1499.000000	17.674527
1500.000000	17.693295
1501.000000	17.715692
1502.000000	17.741242
1503.000000	17.771350
1504.000000	17.805658
1505.000000	17.843605
1506.000000	17.884818
1507.000000	17.927708
1508.000000	17.973678
1509.000000	18.022875
1510.000000	18.072820
1511.000000	18.123723
1512.000000	18.176530
1513.000000	18.229828
1514.000000	18.282373
1515.000000	18.335168
1516.000000	18.388105
1517.000000	18.440850
1518.000000	18.494480
1519.000000	18.546715
1520.000000	18.598572
1521.000000	18.649377
1522.000000	18.698237
1523.000000	18.746465
1524.000000	18.795150
1525.000000	18.843030
1526.000000	18.889815
1527.000000	18.934930
1528.000000	18.977965
1529.000000	19.020835
1530.000000	19.062870
1531.000000	19.104728
1532.000000	19.146607
1533.000000	19.187075
1534.000000	19.225245
1535.000000	19.261933
1536.000000	19.297478
1537.000000	19.332635
1538.000000	19.366543
1539.000000	19.398618
1540.000000	19.430287
1541.000000	19.461110
1542.000000	19.491193
1543.000000	19.521240
1544.000000	19.551150
1545.000000	19.582007
1546.000000	19.614223
1547.000000	19.647793
1548.000000	19.683125
1549.000000	19.720970
1550.000000	19.760440
1551.000000	19.800940
1552.000000	19.843130
1553.000000	19.886260
1554.000000	19.929212
1555.000000	19.970720
1556.000000	20.010770
1557.000000	20.048240
1558.000000	20.083047
1559.000000	20.113753
1560.000000	20.139905
1561.000000	20.162310
1562.000000	20.179440
1563.000000	20.191872
1564.000000	20.202198
1565.000000	20.208733
1566.000000	20.210775
1567.000000	20.210762
1568.000000	20.207738
1569.000000	20.203250
1570.000000	20.198410
1571.000000	20.192795
1572.000000	20.187515
1573.000000	20.183203
1574.000000	20.178695
1575.000000	20.175113
1576.000000	20.174157
1577.000000	20.175625
1578.000000	20.179820
1579.000000	20.186298
1580.000000	20.194915
1581.000000	20.205850
1582.000000	20.219897
1583.000000	20.236065
1584.000000	20.255355
1585.000000	20.277935
1586.000000	20.303390
1587.000000	20.330795
1588.000000	20.360232
1589.000000	20.391570
1590.000000	20.424700
1591.000000	20.459302
1592.000000	20.495030
1593.000000	20.533043
1594.000000	20.572717
1595.000000	20.612597
1596.000000	20.652632
1597.000000	20.693970
1598.000000	20.737768
1599.000000	20.782792
1600.000000	20.829403
1601.000000	20.878143
1602.000000	20.927905
1603.000000	20.977777
1604.000000	21.027148
1605.000000	21.078280
1606.000000	21.130785
1607.000000	21.183802
1608.000000	21.235300
1609.000000	21.287363
1610.000000	21.338047
1611.000000	21.386470
1612.000000	21.434067
1613.000000	21.479565
1614.000000	21.524630
1615.000000	21.568170
1616.000000	21.609685
1617.000000	21.648093
1618.000000	21.684783
1619.000000	21.720245
1620.000000	21.754643
1621.000000	21.787815
1622.000000	21.821040
1623.000000	21.854385
1624.000000	21.886238
1625.000000	21.917470
1626.000000	21.948287
1627.000000	21.979243
1628.000000	22.010282
1629.000000	22.040772
1630.000000	22.069775
1631.000000	22.099385
1632.000000	22.126530
1633.000000	22.153237
1634.000000	22.179315
1635.000000	22.204362
1636.000000	22.227072
1637.000000	22.248465
1638.000000	22.267445
1639.000000	22.282885
1640.000000	22.298485
1641.000000	22.311810
1642.000000	22.322747
1643.000000	22.332197
1644.000000	22.339440
1645.000000	22.344863
1646.000000	22.348842
1647.000000	22.349640
1648.000000	22.350515
1649.000000	22.349140
1650.000000	22.343368
1651.000000	22.337015
1652.000000	22.327310
1653.000000	22.311923
1654.000000	22.292623
1655.000000	22.267915
1656.000000	22.238617
1657.000000	22.205158
1658.000000	22.164120
1659.000000	22.117888
1660.000000	22.066857
1661.000000	22.007292
1662.000000	21.942590
1663.000000	21.872772
1664.000000	21.797342
1665.000000	21.715810
1666.000000	21.627758
1667.000000	21.536125
1668.000000	21.439960
1669.000000	21.337495
1670.000000	21.231472
1671.000000	21.122953
1672.000000	21.011487
1673.000000	20.900422
1674.000000	20.788187
1675.000000	20.676157
1676.000000	20.563530
1677.000000	20.448622
1678.000000	20.335735
1679.000000	20.223313
1680.000000	20.109797
1681.000000	19.994805
1682.000000	19.880070
1683.000000	19.762135
1684.000000	19.646715
1685.000000	19.534903
1686.000000	19.431720
1687.000000	19.338100
1688.000000	19.257060
1689.000000	19.191845
1690.000000	19.145100
1691.000000	19.116298
1692.000000	19.106265
1693.000000	19.116152
1694.000000	19.140297
1695.000000	19.175280
1696.000000	19.215853
1697.000000	19.261207
1698.000000	19.302705
1699.000000	19.343358
1700.000000	19.375915
1701.000000	19.403250
1702.000000	19.419985
1703.000000	19.425065
1704.000000	19.419600
1705.000000	19.405628
1706.000000	19.384287
1707.000000	19.352780
1708.000000	19.313835
1709.000000	19.263850
1710.000000	19.205163
1711.000000	19.134290
1712.000000	19.054315
1713.000000	18.967415
1714.000000	18.870237
1715.000000	18.764365
1716.000000	18.648515
1717.000000	18.527252
1718.000000	18.400903
1719.000000	18.272852
1720.000000	18.146400
1721.000000	18.024738
1722.000000	17.913193
1723.000000	17.813718
1724.000000	17.730100
1725.000000	17.661125
1726.000000	17.611185
1727.000000	17.579802
1728.000000	17.566735
1729.000000	17.569327
1730.000000	17.585880
1731.000000	17.615185
1732.000000	17.654040
1733.000000	17.698743
1734.000000	17.746060
1735.000000	17.798527
1736.000000	17.855342
1737.000000	17.913767
1738.000000	17.974735
1739.000000	18.038927
1740.000000	18.105747
1741.000000	18.174633
1742.000000	18.243300
1743.000000	18.311293
1744.000000	18.382022
1745.000000	18.452993
1746.000000	18.521072
1747.000000	18.585985
1748.000000	18.646450
1749.000000	18.702410
1750.000000	18.752675
1751.000000	18.796507
1752.000000	18.834765
1753.000000	18.867645
1754.000000	18.893588
1755.000000	18.914688
1756.000000	18.931513
1757.000000	18.943910
1758.000000	18.953627
1759.000000	18.961205
1760.000000	18.967165
1761.000000	18.972465
1762.000000	18.978483
1763.000000	18.985580
1764.000000	18.995428
1765.000000	19.007435
1766.000000	19.021197
1767.000000	19.037907
1768.000000	19.057220
1769.000000	19.078663
1770.000000	19.103597
1771.000000	19.131055
1772.000000	19.160795
1773.000000	19.191535
1774.000000	19.223480
1775.000000	19.256557
1776.000000	19.290560
1777.000000	19.326602
1778.000000	19.362308
1779.000000	19.396405
1780.000000	19.428760
1781.000000	19.459275
1782.000000	19.487547
1783.000000	19.514608
1784.000000	19.539285
1785.000000	19.560100
1786.000000	19.578120
1787.000000	19.592130
1788.000000	19.604252
1789.000000	19.615000
1790.000000	19.624122
1791.000000	19.632195
1792.000000	19.639740
1793.000000	19.647520
1794.000000	19.655387
1795.000000	19.664188
1796.000000	19.673583
1797.000000	19.683253
1798.000000	19.690852
1799.000000	19.699275
1800.000000	19.711240
1801.000000	19.724742
1802.000000	19.737237
1803.000000	19.747712
1804.000000	19.758788
1805.000000	19.769600
1806.000000	19.781405
1807.000000	19.793740
1808.000000	19.806670
1809.000000	19.819568
1810.000000	19.831320
1811.000000	19.843005
1812.000000	19.855315
1813.000000	19.868438
1814.000000	19.880775
1815.000000	19.892478
1816.000000	19.900287
1817.000000	19.902648
1818.000000	19.903722
1819.000000	19.908803
1820.000000	19.918792
1821.000000	19.931415
1822.000000	19.938378
1823.000000	19.937413
1824.000000	19.933690
1825.000000	19.929713
1826.000000	19.929838
1827.000000	19.937655
1828.000000	19.950408
1829.000000	19.959672
1830.000000	19.965118
1831.000000	19.967237
1832.000000	19.971695
1833.000000	19.981370
1834.000000	19.994770
1835.000000	20.015125
1836.000000	20.041482
1837.000000	20.068255
1838.000000	20.094995
1839.000000	20.125278
1840.000000	20.160410
1841.000000	20.203202
1842.000000	20.250808
1843.000000	20.292392
1844.000000	20.323632
1845.000000	20.347338
1846.000000	20.372177
1847.000000	20.406073
1848.000000	20.442915
1849.000000	20.469358
1850.000000	20.480810
1851.000000	20.478895
1852.000000	20.473273
1853.000000	20.478587
1854.000000	20.491167
1855.000000	20.501200
1856.000000	20.494445
1857.000000	20.470733
1858.000000	20.441848
1859.000000	20.415447
1860.000000	20.392850
1861.000000	20.367535
1862.000000	20.334125
1863.000000	20.285477
1864.000000	20.228378
1865.000000	20.164365
1866.000000	20.098177
1867.000000	20.029298
1868.000000	19.953430
1869.000000	19.877410
1870.000000	19.799775
1871.000000	19.721667
1872.000000	19.642540
1873.000000	19.564690
1874.000000	19.482335
1875.000000	19.395865
1876.000000	19.299557
1877.000000	19.191157
1878.000000	19.069700
1879.000000	18.928748
1880.000000	18.764605
1881.000000	18.583755
1882.000000	18.391542
1883.000000	18.184883
1884.000000	17.967212
1885.000000	17.733855
1886.000000	17.489215
1887.000000	17.228940
1888.000000	16.957245
1889.000000	16.677815
1890.000000	16.395263
1891.000000	16.104730
1892.000000	15.804723
1893.000000	15.499105
1894.000000	15.183790
1895.000000	14.865020
1896.000000	14.543855
1897.000000	14.226447
1898.000000	13.913250
1899.000000	13.601998
1900.000000	13.294778
1901.000000	12.992875
1902.000000	12.697617
1903.000000	12.406240
1904.000000	12.129468
1905.000000	11.866003
1906.000000	11.613898
1907.000000	11.373923
1908.000000	11.138110
1909.000000	10.912455
1910.000000	10.697093
1911.000000	10.497447
1912.000000	10.309687
1913.000000	10.141210
1914.000000	9.980943
1915.000000	9.829665
1916.000000	9.688450
1917.000000	9.556133
1918.000000	9.435150
1919.000000	9.325497
1920.000000	9.227633
1921.000000	9.135018
1922.000000	9.047225
1923.000000	8.965935
1924.000000	8.892032
1925.000000	8.821295
1926.000000	8.760090
1927.000000	8.707962
1928.000000	8.663160
1929.000000	8.622190
1930.000000	8.582735
1931.000000	8.548940
1932.000000	8.525175
1933.000000	8.499590
1934.000000	8.478632
1935.000000	8.465298
1936.000000	8.455483
1937.000000	8.446950
1938.000000	8.446375
1939.000000	8.453350
1940.000000	8.464795
1941.000000	8.479475
1942.000000	8.491500
1943.000000	8.513440
1944.000000	8.536595
1945.000000	8.561980
1946.000000	8.588922
1947.000000	8.623357
1948.000000	8.655545
1949.000000	8.686760
1950.000000	8.721462
1951.000000	8.755732
1952.000000	8.795082
1953.000000	8.832738
1954.000000	8.875623
1955.000000	8.918790
1956.000000	8.963585
1957.000000	9.005780
1958.000000	9.050480
1959.000000	9.097767
1960.000000	9.144842
1961.000000	9.193945
1962.000000	9.244030
1963.000000	9.295850
1964.000000	9.346265
1965.000000	9.398425
1966.000000	9.449973
1967.000000	9.499755
1968.000000	9.549320
1969.000000	9.597233
1970.000000	9.647610
1971.000000	9.698483
1972.000000	9.748403
1973.000000	9.796308
1974.000000	9.845475
1975.000000	9.892543
1976.000000	9.939592
1977.000000	9.990885
1978.000000	10.044990
1979.000000	10.099240
1980.000000	10.150065
1981.000000	10.199985
1982.000000	10.249292
1983.000000	10.301240
1984.000000	10.351615
1985.000000	10.403638
1986.000000	10.456423
1987.000000	10.507465
1988.000000	10.555330
1989.000000	10.604090
1990.000000	10.653445
1991.000000	10.702000
1992.000000	10.749425
1993.000000	10.793747
1994.000000	10.835953
1995.000000	10.878642
1996.000000	10.919453
1997.000000	10.958747
1998.000000	10.996548
1999.000000	11.030157
2000.000000	11.060152
2001.000000	11.087870
2002.000000	11.117770
2003.000000	11.144100
2004.000000	11.169197
2005.000000	11.189182
2006.000000	11.208707
2007.000000	11.221347
2008.000000	11.232520
2009.000000	11.240095
2010.000000	11.243942
2011.000000	11.246258
2012.000000	11.240410
2013.000000	11.231537
2014.000000	11.215408
2015.000000	11.198317
2016.000000	11.174142
2017.000000	11.148910
2018.000000	11.118787
2019.000000	11.086228
2020.000000	11.050230
2021.000000	11.012137
2022.000000	10.970347
2023.000000	10.923327
2024.000000	10.875980
2025.000000	10.825600
2026.000000	10.772430
2027.000000	10.714852
2028.000000	10.655465
2029.000000	10.590960
2030.000000	10.523310
2031.000000	10.453960
2032.000000	10.389217
2033.000000	10.325740
2034.000000	10.258430
2035.000000	10.187250
2036.000000	10.116563
2037.000000	10.041557
2038.000000	9.962652
2039.000000	9.885475
2040.000000	9.806127
2041.000000	9.722272
2042.000000	9.633318
2043.000000	9.546120
2044.000000	9.461728
2045.000000	9.377743
2046.000000	9.292200
2047.000000	9.214778
2048.000000	9.145003
2049.000000	9.077082
2050.000000	9.015845
2051.000000	8.958295
2052.000000	8.906940
2053.000000	8.862663
2054.000000	8.828342
2055.000000	8.803738
2056.000000	8.788017
2057.000000	8.780495
2058.000000	8.782150
2059.000000	8.793607
2060.000000	8.813292
2061.000000	8.843800
2062.000000	8.878668
2063.000000	8.919015
2064.000000	8.966152
2065.000000	9.019127
2066.000000	9.073835
2067.000000	9.127675
2068.000000	9.183277
2069.000000	9.241035
2070.000000	9.302013
2071.000000	9.361340
2072.000000	9.418250
2073.000000	9.473022
2074.000000	9.523872
2075.000000	9.572467
2076.000000	9.620915
2077.000000	9.672085
2078.000000	9.721958
2079.000000	9.768922
2080.000000	9.810038
2081.000000	9.846735
2082.000000	9.885685
2083.000000	9.919600
2084.000000	9.944165
2085.000000	9.962575
2086.000000	9.978127
2087.000000	9.984013
2088.000000	9.982453
2089.000000	9.977892
2090.000000	9.977708
2091.000000	9.975050
2092.000000	9.962748
2093.000000	9.949790
2094.000000	9.942868
2095.000000	9.936393
2096.000000	9.928460
2097.000000	9.925195
2098.000000	9.922677
2099.000000	9.924972
2100.000000	9.924795
2101.000000	9.923205
2102.000000	9.926465
2103.000000	9.934822
2104.000000	9.942232
2105.000000	9.947762
2106.000000	9.955488
2107.000000	9.962608
2108.000000	9.965120
2109.000000	9.960615
2110.000000	9.957345
2111.000000	9.957850
2112.000000	9.954785
2113.000000	9.939585
2114.000000	9.933220
2115.000000	9.936373
2116.000000	9.943317
2117.000000	9.944307
2118.000000	9.943290
2119.000000	9.937178
2120.000000	9.925535
2121.000000	9.912200
2122.000000	9.898978
2123.000000	9.893638
2124.000000	9.881950
2125.000000	9.856670
2126.000000	9.821298
2127.000000	9.787558
2128.000000	9.758852
2129.000000	9.728288
2130.000000	9.695958
2131.000000	9.677200
2132.000000	9.653277
2133.000000	9.614957
2134.000000	9.577523
2135.000000	9.550273
2136.000000	9.512815
2137.000000	9.481650
2138.000000	9.442568
2139.000000	9.412292
2140.000000	9.381185
2141.000000	9.334810
2142.000000	9.279253
2143.000000	9.229120
2144.000000	9.175968
2145.000000	9.120702
2146.000000	9.071842
2147.000000	9.007165
2148.000000	8.954655
2149.000000	8.893187
2150.000000	8.835118
2151.000000	8.779383
2152.000000	8.729855
2153.000000	8.684810
2154.000000	8.628457
2155.000000	8.566225
2156.000000	8.510872
2157.000000	8.465898
2158.000000	8.421095
2159.000000	8.377717
2160.000000	8.333122
2161.000000	8.287527
2162.000000	8.252960
2163.000000	8.211385
2164.000000	8.190103
2165.000000	8.160742
2166.000000	8.133150
2167.000000	8.109982
2168.000000	8.084827
2169.000000	8.058428
2170.000000	8.028162
2171.000000	8.007122
2172.000000	7.995033
2173.000000	7.996168
2174.000000	7.968630
2175.000000	7.945378
2176.000000	7.921770
2177.000000	7.910672
2178.000000	7.899773
2179.000000	7.895995
2180.000000	7.894053
2181.000000	7.891088
2182.000000	7.862847
2183.000000	7.834143
2184.000000	7.819983
2185.000000	7.818257
2186.000000	7.815965
2187.000000	7.801023
2188.000000	7.773890
2189.000000	7.748208
2190.000000	7.714952
2191.000000	7.673612
2192.000000	7.650303
2193.000000	7.631482
2194.000000	7.612563
2195.000000	7.583095
2196.000000	7.544707
2197.000000	7.513570
2198.000000	7.485630
2199.000000	7.458097
2200.000000	7.440943
2201.000000	7.422938
2202.000000	7.390008
2203.000000	7.364135
2204.000000	7.340095
2205.000000	7.319880
2206.000000	7.305368
2207.000000	7.291657
2208.000000	7.294313
2209.000000	7.284130
2210.000000	7.278208
2211.000000	7.282895
2212.000000	7.310250
2213.000000	7.325010
2214.000000	7.344657
2215.000000	7.364840
2216.000000	7.399395
2217.000000	7.425090
2218.000000	7.443750
2219.000000	7.473313
2220.000000	7.514555
2221.000000	7.548230
2222.000000	7.579068
2223.000000	7.626073
2224.000000	7.667747
2225.000000	7.711570
2226.000000	7.746722
2227.000000	7.791492
2228.000000	7.839425
2229.000000	7.879590
2230.000000	7.909133
2231.000000	7.945713
2232.000000	7.974905
2233.000000	7.987390
2234.000000	8.003010
2235.000000	8.015618
2236.000000	8.028280
2237.000000	8.021970
2238.000000	8.017005
2239.000000	8.010203
2240.000000	8.000322
2241.000000	7.982693
2242.000000	7.962540
2243.000000	7.947422
2244.000000	7.912587
2245.000000	7.875195
2246.000000	7.830035
2247.000000	7.791870
2248.000000	7.742578
2249.000000	7.692627
2250.000000	7.647065
2251.000000	7.588645
2252.000000	7.537205
2253.000000	7.473080
2254.000000	7.424565
2255.000000	7.369325
2256.000000	7.307833
2257.000000	7.254792
2258.000000	7.206675
2259.000000	7.164940
2260.000000	7.114623
2261.000000	7.072075
2262.000000	7.029820
2263.000000	6.995475
2264.000000	6.966635
2265.000000	6.942295
2266.000000	6.925145
2267.000000	6.903295
2268.000000	6.884025
2269.000000	6.870590
2270.000000	6.862198
2271.000000	6.860767
2272.000000	6.855768
2273.000000	6.845073
2274.000000	6.843018
2275.000000	6.845410
2276.000000	6.862963
2277.000000	6.873798
2278.000000	6.883345
2279.000000	6.890058
2280.000000	6.895800
2281.000000	6.897808
2282.000000	6.907513
2283.000000	6.931907
2284.000000	6.925533
2285.000000	6.932082
2286.000000	6.938117
2287.000000	6.946958
2288.000000	6.945347
2289.000000	6.952160
2290.000000	6.956517
2291.000000	6.957693
2292.000000	6.959830
2293.000000	6.949340
2294.000000	6.963150
2295.000000	6.966505
2296.000000	6.964878
2297.000000	6.969803
2298.000000	6.978938
2299.000000	6.984905
2300.000000	6.993313
2301.000000	7.015053
2302.000000	7.034642
2303.000000	7.052868
2304.000000	7.068240
2305.000000	7.088815
2306.000000	7.115460
2307.000000	7.132648
2308.000000	7.148550
2309.000000	7.162033
2310.000000	7.185560
2311.000000	7.198578
2312.000000	7.215110
2313.000000	7.237600
2314.000000	7.251257
2315.000000	7.266372
2316.000000	7.278828
2317.000000	7.300475
2318.000000	7.333207
2319.000000	7.362937
2320.000000	7.377093
2321.000000	7.400895
2322.000000	7.421385
2323.000000	7.432180
2324.000000	7.458978
2325.000000	7.478950
2326.000000	7.490838
2327.000000	7.501640
2328.000000	7.507230
2329.000000	7.516865
2330.000000	7.519220
2331.000000	7.514605
2332.000000	7.517753
2333.000000	7.519045
2334.000000	7.505982
2335.000000	7.504188
2336.000000	7.507995
2337.000000	7.512482
2338.000000	7.519250
2339.000000	7.531898
2340.000000	7.559465
2341.000000	7.582905
2342.000000	7.601350
2343.000000	7.638460
2344.000000	7.678693
2345.000000	7.707852
2346.000000	7.726838
2347.000000	7.749800
2348.000000	7.772088
2349.000000	7.790180
2350.000000	7.816800
2351.000000	7.862207
2352.000000	7.901020
2353.000000	7.926690
2354.000000	7.949890
2355.000000	7.969253
2356.000000	7.994067
2357.000000	8.010700
2358.000000	8.033772
2359.000000	8.048935
2360.000000	8.060498
2361.000000	8.079007
2362.000000	8.085815
2363.000000	8.090225
2364.000000	8.107077
2365.000000	8.147127
2366.000000	8.198492
2367.000000	8.224082
2368.000000	8.227303
2369.000000	8.227182
2370.000000	8.223660
2371.000000	8.220160
2372.000000	8.226875
2373.000000	8.249770
2374.000000	8.271868
2375.000000	8.273933
2376.000000	8.270907
2377.000000	8.298910
2378.000000	8.334460
2379.000000	8.374453
2380.000000	8.414735
2381.000000	8.432033
2382.000000	8.454688
2383.000000	8.467200
2384.000000	8.480837
2385.000000	8.496275
2386.000000	8.505100
2387.000000	8.497452
2388.000000	8.494115
2389.000000	8.490643
2390.000000	8.499680
2391.000000	8.507633
2392.000000	8.505743
2393.000000	8.505698
2394.000000	8.518603
2395.000000	8.540470
2396.000000	8.565988
2397.000000	8.583362
2398.000000	8.598153
2399.000000	8.617590
2400.000000	8.621168
2401.000000	8.621322
2402.000000	8.626175
2403.000000	8.623290
2404.000000	8.610985
2405.000000	8.596353
2406.000000	8.582007
2407.000000	8.591680
2408.000000	8.625120
2409.000000	8.622750
2410.000000	8.626495
2411.000000	8.629470
2412.000000	8.621025
2413.000000	8.629800
2414.000000	8.649978
2415.000000	8.634305
2416.000000	8.617888
2417.000000	8.581180
2418.000000	8.521627
2419.000000	8.508948
2420.000000	8.495022
2421.000000	8.467075
2422.000000	8.486045
2423.000000	8.458310
2424.000000	8.423898
2425.000000	8.412527
2426.000000	8.399285
2427.000000	8.405755
2428.000000	8.435300
2429.000000	8.421883
2430.000000	8.401490
2431.000000	8.383860
2432.000000	8.327755
2433.000000	8.326160
2434.000000	8.289560
2435.000000	8.293418
2436.000000	8.290468
2437.000000	8.235320
2438.000000	8.192018
2439.000000	8.160683
2440.000000	8.129677
2441.000000	8.101825
2442.000000	8.094030
2443.000000	8.087090
2444.000000	8.070300
2445.000000	8.013457
2446.000000	7.999745
2447.000000	8.017343
2448.000000	8.022695
2449.000000	8.058030
2450.000000	8.081003
2451.000000	8.116608
2452.000000	8.120290
2453.000000	8.077592
2454.000000	8.085663
2455.000000	8.125688
2456.000000	8.161767
2457.000000	8.154440
2458.000000	8.153358
2459.000000	8.108360
2460.000000	8.084895
2461.000000	8.109820
2462.000000	8.203425
2463.000000	8.308928
2464.000000	8.419448
2465.000000	8.496523
2466.000000	8.516430
2467.000000	8.599322
2468.000000	8.678437
2469.000000	8.800085
2470.000000	8.926508
2471.000000	9.008017
2472.000000	9.051228
2473.000000	9.124827
2474.000000	9.166888
2475.000000	9.233990
2476.000000	9.404678
2477.000000	9.536513
2478.000000	9.654655
2479.000000	9.773105
2480.000000	9.889177
2481.000000	10.012432
2482.000000	10.157585
2483.000000	10.299585
2484.000000	10.491390
2485.000000	10.633085
2486.000000	10.695288
2487.000000	10.819255
2488.000000	10.997255
2489.000000	11.142815
2490.000000	11.272295
2491.000000	11.416175
2492.000000	11.530720
2493.000000	11.840453
2494.000000	12.008950
2495.000000	12.271773
2496.000000	12.501025
2497.000000	12.756113
2498.000000	12.987440
2499.000000	13.183145
2500.000000	13.431990
2501.000000	17.125240
2502.000000	20.740785
2503.000000	24.417785
2504.000000	28.135140
2505.000000	31.986920
2506.000000	35.971900
2507.000000	39.955753
2508.000000	43.871272
2509.000000	47.980925
2510.000000	52.001610
2511.000000	52.819780
2512.000000	53.688340
2513.000000	54.313090
2514.000000	55.651740
2515.000000	56.923510
2516.000000	57.886290
2517.000000	59.028660
2518.000000	60.020440
2519.000000	60.848630
2520.000000	62.064510
2521.000000	62.991770
2522.000000	64.419180
2523.000000	65.344500
2524.000000	65.698040
2525.000000	66.337410
2526.000000	67.480900
2527.000000	68.359520
2528.000000	69.508650
2529.000000	70.690810
2530.000000	71.554740
2531.000000	72.663880
2532.000000	72.663430
2533.000000	73.721490
2534.000000	74.311060
2535.000000	74.392380
2536.000000	74.665260
2537.000000	75.200440
2538.000000	75.841380
2539.000000	76.728140
2540.000000	77.432910
2541.000000	78.370120
2542.000000	80.059760
2543.000000	80.921020
2544.000000	82.167950
2545.000000	83.258750
2546.000000	84.091900
2547.000000	84.672620
2548.000000	84.916860
2549.000000	85.068720
2550.000000	85.878060
2551.000000	86.554980
2552.000000	87.014330
2553.000000	87.601100
2554.000000	88.324210
2555.000000	89.180060
2556.000000	89.652290
2557.000000	90.521550
2558.000000	91.521450
2559.000000	91.991920
2560.000000	92.334430
2561.000000	92.833570
2562.000000	93.402030
2563.000000	94.502460
2564.000000	95.177340
2565.000000	95.470700
2566.000000	95.800070
2567.000000	96.039180
2568.000000	96.415150
2569.000000	97.061790
2570.000000	97.326360
2571.000000	97.557670
2572.000000	98.043530
2573.000000	98.128430
2574.000000	97.981250
2575.000000	98.398970
2576.000000	98.571930
2577.000000	98.586840
2578.000000	98.372150
2579.000000	98.182670
2580.000000	98.320720
2581.000000	98.034540
2582.000000	97.685400
2583.000000	97.261530
2584.000000	97.046880
2585.000000	97.151090
2586.000000	97.900960
2587.000000	98.608110
2588.000000	99.153650
2589.000000	99.432870
2590.000000	99.431320
2591.000000	99.571110
2592.000000	99.533760
2593.000000	99.790770
2594.000000	100.654080
2595.000000	100.982630
2596.000000	101.016270
2597.000000	101.205440
2598.000000	101.133600
2599.000000	101.230900
2600.000000	101.596710
2601.000000	101.474050
2602.000000	101.284200
2603.000000	101.125510
2604.000000	100.668900
2605.000000	100.146640
2606.000000	99.488820
2607.000000	98.727640
2608.000000	99.065380
2609.000000	99.931990
2610.000000	99.921200
2611.000000	100.237220
2612.000000	100.879670
2613.000000	101.083110
2614.000000	101.004940
2615.000000	100.958930
2616.000000	101.127920
2617.000000	101.148740
2618.000000	100.465810
2619.000000	99.511620
2620.000000	99.318270
2621.000000	99.381380
2622.000000	99.229510
2623.000000	99.168390
2624.000000	98.919990
2625.000000	98.649240
2626.000000	98.577180
2627.000000	99.111770
2628.000000	99.710470
2629.000000	100.354060
2630.000000	100.196740
2631.000000	99.611670
2632.000000	98.862970
2633.000000	98.431120
2634.000000	98.849100
2635.000000	99.434720
2636.000000	100.055060
2637.000000	100.035330
2638.000000	100.110240
2639.000000	100.148220
2640.000000	100.316230
2641.000000	100.251500
2642.000000	100.953080
2643.000000	101.436820
2644.000000	101.894590
2645.000000	102.562370
2646.000000	102.660140
2647.000000	102.042530
2648.000000	101.706220
2649.000000	101.000400
2650.000000	101.179450
2651.000000	100.810830
2652.000000	100.191530
2653.000000	100.547130
2654.000000	100.435050
2655.000000	99.599370
2656.000000	98.850460
2657.000000	99.187890
2658.000000	99.452780
2659.000000	100.133500
2660.000000	99.852800
2661.000000	100.898820
2662.000000	101.972850
2663.000000	101.921600
2664.000000	102.300680
2665.000000	102.768950
2666.000000	103.538220
2667.000000	103.772160
2668.000000	103.349860
2669.000000	102.996950
2670.000000	103.742550
2671.000000	104.240070
2672.000000	103.676120
2673.000000	103.593140
2674.000000	102.701040
2675.000000	102.494250
2676.000000	102.081470
2677.000000	102.074410
2678.000000	103.125050
2679.000000	103.295470
2680.000000	102.814190
2681.000000	102.361440
2682.000000	102.005350
2683.000000	101.619600
2684.000000	101.620060
2685.000000	101.811470
2686.000000	102.210740
2687.000000	102.041350
2688.000000	101.596140
2689.000000	101.851970
2690.000000	101.818050
2691.000000	102.386490
2692.000000	103.086050
2693.000000	103.728080
2694.000000	104.173900
2695.000000	104.564760
2696.000000	104.349260
2697.000000	104.411430
2698.000000	104.114810
2699.000000	104.065250
2700.000000	104.333760
2701.000000	104.191650
2702.000000	103.746910
2703.000000	103.296190
2704.000000	103.358950
2705.000000	103.331700
2706.000000	102.834010
2707.000000	102.775390
2708.000000	102.512630
2709.000000	102.767220
2710.000000	102.996450
2711.000000	102.647130
2712.000000	102.262200
2713.000000	101.762780
2714.000000	101.160590
2715.000000	100.582800
2716.000000	100.971420
2717.000000	101.152810
2718.000000	102.162280
2719.000000	101.096200
2720.000000	101.208860
2721.000000	100.905180
2722.000000	101.855210
2723.000000	101.897360
2724.000000	102.815840
2725.000000	102.877640
2726.000000	103.065500
2727.000000	103.110480
2728.000000	102.514010
2729.000000	102.784490
2730.000000	101.361710
2731.000000	102.091980
2732.000000	101.141650
2733.000000	101.628860
2734.000000	101.734190
2735.000000	101.546710
2736.000000	101.223420
2737.000000	100.631320
2738.000000	99.885200
2739.000000	100.841770
2740.000000	102.000370
2741.000000	102.014920
2742.000000	101.699320
2743.000000	101.725580
2744.000000	100.343240
2745.000000	100.866410
2746.000000	101.745750
2747.000000	102.200030
2748.000000	103.230770
2749.000000	103.020530
2750.000000	102.756440
2751.000000	102.426750
2752.000000	103.135760
2753.000000	102.537870
2754.000000	102.932720
2755.000000	102.409300
2756.000000	101.485520
2757.000000	100.789770
2758.000000	100.335010
2759.000000	99.811010
2760.000000	100.733650
2761.000000	100.323390
2762.000000	100.817970
2763.000000	101.704460
2764.000000	102.284990
2765.000000	102.682620
2766.000000	102.661850
2767.000000	102.679280
2768.000000	102.697720
2769.000000	103.686110
2770.000000	103.094260
2771.000000	103.812340
2772.000000	102.938740
2773.000000	103.447850
2774.000000	103.193200
2775.000000	102.499010
2776.000000	102.365650
2777.000000	103.121770
2778.000000	103.660160
2779.000000	102.245610
2780.000000	101.923210
2781.000000	101.530490
2782.000000	102.562690
2783.000000	101.171400
2784.000000	100.680180
2785.000000	100.807250
2786.000000	100.738940
2787.000000	100.419920
2788.000000	100.007490
2789.000000	100.345330
2790.000000	99.994740
2791.000000	100.252100
2792.000000	99.558260
2793.000000	99.588080
2794.000000	99.768540
2795.000000	100.380460
2796.000000	101.182960
2797.000000	101.973660
2798.000000	102.240230
2799.000000	102.635290
2800.000000	103.349770
2801.000000	102.510080
2802.000000	102.748310
2803.000000	103.680990
2804.000000	104.151950
2805.000000	103.586820
2806.000000	102.777750
2807.000000	102.449400
2808.000000	102.529560
2809.000000	102.298970
2810.000000	101.810510
2811.000000	102.090800
2812.000000	101.804790
2813.000000	101.386470
2814.000000	101.541940
2815.000000	101.476620
2816.000000	101.772500
2817.000000	101.809880
2818.000000	101.184470
2819.000000	101.626000
2820.000000	101.750450
2821.000000	101.248880
2822.000000	101.558490
2823.000000	101.522220
2824.000000	101.108540
2825.000000	101.693290
2826.000000	101.977620
2827.000000	101.576730
2828.000000	102.156890
2829.000000	101.705750
2830.000000	101.450650
2831.000000	102.376580
2832.000000	102.528330
2833.000000	102.255910
2834.000000	102.864360
2835.000000	103.096410
2836.000000	103.507560
2837.000000	103.734150
2838.000000	102.823020
2839.000000	102.464770
2840.000000	102.862930
2841.000000	103.346860
2842.000000	103.839480
2843.000000	104.544410
2844.000000	103.521000
2845.000000	102.488730
2846.000000	101.795430
2847.000000	102.201020
2848.000000	103.432340
2849.000000	103.881800
2850.000000	103.631920
2851.000000	102.465100
2852.000000	101.269240
2853.000000	100.858700
2854.000000	101.518800
2855.000000	102.480300
2856.000000	103.347280
2857.000000	103.285980
2858.000000	102.587530
2859.000000	102.061730
2860.000000	101.643420
2861.000000	101.807860
2862.000000	102.608420
2863.000000	102.653000
2864.000000	102.452820
2865.000000	102.329880
2866.000000	101.864880
2867.000000	102.006990
2868.000000	102.430620
2869.000000	103.139570
2870.000000	103.788120
2871.000000	104.101080
2872.000000	103.993980
2873.000000	104.121140
2874.000000	104.674770
2875.000000	104.375150
2876.000000	103.719260
2877.000000	103.121950
2878.000000	102.779610
2879.000000	102.708000
2880.000000	102.581470
2881.000000	102.488820
2882.000000	102.206280
2883.000000	102.035830
2884.000000	101.940370
2885.000000	101.976710
2886.000000	102.553410
2887.000000	102.964730
2888.000000	102.531090
2889.000000	102.307720
2890.000000	102.541900
2891.000000	102.885240
2892.000000	103.424310
2893.000000	103.647880
2894.000000	103.309560
2895.000000	103.197670
2896.000000	102.943930
2897.000000	102.082780
2898.000000	102.819250
2899.000000	103.537250
2900.000000	103.632080
2901.000000	102.863290
2902.000000	102.631910
2903.000000	102.646870
2904.000000	102.824300
2905.000000	103.164130
2906.000000	102.599760
2907.000000	103.297240
2908.000000	103.558130
2909.000000	103.017510
2910.000000	102.923970
2911.000000	104.083280
2912.000000	104.403020
2913.000000	104.318560
2914.000000	104.095750
2915.000000	103.857340
2916.000000	103.897200
2917.000000	103.833130
2918.000000	103.449290
2919.000000	103.118690
2920.000000	102.677560
2921.000000	101.934990
2922.000000	101.426680
2923.000000	101.099440
2924.000000	100.468790
2925.000000	100.137520
2926.000000	100.815850
2927.000000	100.304480
2928.000000	99.740120
2929.000000	98.922360
2930.000000	98.658360
2931.000000	99.092630
2932.000000	98.905640
2933.000000	99.014530
2934.000000	98.646860
2935.000000	98.837110
2936.000000	98.921790
2937.000000	99.071490
2938.000000	98.723290
2939.000000	99.194920
2940.000000	99.229220
2941.000000	98.663320
2942.000000	98.586130
2943.000000	98.739870
2944.000000	99.618330
2945.000000	99.598050
2946.000000	99.266860
2947.000000	99.076070
2948.000000	99.474740
2949.000000	99.487490
2950.000000	100.407830
2951.000000	100.528010
2952.000000	100.734800
2953.000000	101.399410
2954.000000	101.637040
2955.000000	101.020500
2956.000000	101.010760
2957.000000	101.784370
2958.000000	101.417460
2959.000000	101.183110
2960.000000	100.304880
2961.000000	99.848690
2962.000000	99.424420
2963.000000	98.970580
2964.000000	98.859910
2965.000000	99.497210
2966.000000	99.506950
2967.000000	98.477940
2968.000000	98.947350
2969.000000	99.986950
2970.000000	100.525360
2971.000000	101.410150
2972.000000	101.331170
2973.000000	101.014510
2974.000000	101.600860
2975.000000	101.796890
2976.000000	102.076190
2977.000000	103.310210
2978.000000	103.589690
2979.000000	103.406990
2980.000000	102.669730
2981.000000	101.866440
2982.000000	101.814980
2983.000000	102.246880
2984.000000	100.962400
2985.000000	100.851160
2986.000000	100.977990
2987.000000	100.723420
2988.000000	101.699610
2989.000000	101.779020
2990.000000	101.174420
2991.000000	101.474270
2992.000000	101.913530
2993.000000	100.739080
2994.000000	100.936300
2995.000000	100.233680
2996.000000	99.675940
2997.000000	99.471330
2998.000000	98.562880
2999.000000	98.513060
3000.000000	99.686870
