PE UV       SUBTECH     SPECTRUM    ASCII       PEDS        4.00        
   -1
INBUCR0431-4.Sample.ASC
24/02/09
14:51:43.00
24/02/09
14:51:43.00
Vinicio Soto Monge
Chrysina aurigans. Det: A. Solís. COSTA RICA. Prov. Alajuela, Upala, Bijagua. P.N. Volcán Tenorio. Alberg. Heliconias. Send. Heliconias. 700 m. 13 NOV 2001. A. López. T. de Luz #65610. INB00033997038. Tiene únicamente la parte superior del élitro derecho.
250,000000
1
Lambda 1050
1050L1511233
PerkinElmer UV WinLab 6.3.2.0749 / 2.02.05 Lambda 900 UV/VIS/NIR, Aug  7 2015 09:38:08

0
0
3350/servo 860,8/2
0
0
UV/VIS
1
1
1
DoubleDePol,CommonBeamDepol,RBeamAtt,SBeamAtt,60mm sphere, WB InGaAs Detector
0
0
0
0
Program
Program
3350/servo 860,8/2
3350/0,2 860,8/0,2
3350/0,2 860,8/0,2
0
15.00
 
 
 
0
 
860,8
319,2
860,8
Front
100
on
S:100 R:100
0
0
0
0
 
0
 
 
 
0
 
 
0
0
0
0
0
 
 
 
 
0
0


0
0
#HDR
-1
-1
#GR
nm
%R
1.0
0.0
2500,000000
-1,000000
2251
8
17,518000
1,050100
#DATA

250.000000	nan
251.000000	nan
252.000000	nan
253.000000	nan
254.000000	nan
255.000000	nan
256.000000	nan
257.000000	nan
258.000000	nan
259.000000	3.859328
260.000000	3.857636
261.000000	3.855399
262.000000	3.853551
263.000000	3.852265
264.000000	3.851437
265.000000	3.851710
266.000000	3.848077
267.000000	3.845033
268.000000	3.842036
269.000000	3.840161
270.000000	3.838404
271.000000	3.837164
272.000000	3.834358
273.000000	3.832873
274.000000	3.831180
275.000000	3.829165
276.000000	3.829533
277.000000	3.828652
278.000000	3.826872
279.000000	3.824232
280.000000	3.823097
281.000000	3.821499
282.000000	3.820576
283.000000	3.818805
284.000000	3.816889
285.000000	3.813160
286.000000	3.810312
287.000000	3.809144
288.000000	3.808105
289.000000	3.808966
290.000000	3.807186
291.000000	3.807575
292.000000	3.806950
293.000000	3.806932
294.000000	3.806015
295.000000	3.807915
296.000000	3.808927
297.000000	3.807883
298.000000	3.806863
299.000000	3.805149
300.000000	3.805068
301.000000	3.803007
302.000000	3.802135
303.000000	3.800064
304.000000	3.800818
305.000000	3.797532
306.000000	3.797246
307.000000	3.795885
308.000000	3.795263
309.000000	3.794619
310.000000	3.794436
311.000000	3.794243
312.000000	3.794446
313.000000	3.793472
314.000000	3.790014
315.000000	3.790450
316.000000	3.789879
317.000000	3.813476
318.000000	3.838344
319.000000	3.854486
320.000000	3.867953
321.000000	3.873691
322.000000	3.883167
323.000000	3.891334
324.000000	3.904268
325.000000	3.917422
326.000000	3.920142
327.000000	3.911156
328.000000	3.894011
329.000000	3.880324
330.000000	3.870458
331.000000	3.870258
332.000000	3.862880
333.000000	3.860202
334.000000	3.855288
335.000000	3.853694
336.000000	3.859923
337.000000	3.849055
338.000000	3.846008
339.000000	3.849233
340.000000	3.848558
341.000000	3.844427
342.000000	3.845615
343.000000	3.843554
344.000000	3.835638
345.000000	3.828471
346.000000	3.820479
347.000000	3.821272
348.000000	3.818494
349.000000	3.812306
350.000000	3.811278
351.000000	3.811306
352.000000	3.809346
353.000000	3.809288
354.000000	3.810089
355.000000	3.806296
356.000000	3.803494
357.000000	3.801781
358.000000	3.805903
359.000000	3.808927
360.000000	3.808935
361.000000	3.806616
362.000000	3.804672
363.000000	3.801862
364.000000	3.800687
365.000000	3.798154
366.000000	3.798488
367.000000	3.794732
368.000000	3.786863
369.000000	3.782128
370.000000	3.778905
371.000000	3.777331
372.000000	3.773515
373.000000	3.766513
374.000000	3.761273
375.000000	3.758419
376.000000	3.754135
377.000000	3.744440
378.000000	3.766760
379.000000	3.788470
380.000000	3.808715
381.000000	3.830018
382.000000	3.853868
383.000000	3.881285
384.000000	3.908666
385.000000	3.933620
386.000000	3.958160
387.000000	3.989503
388.000000	3.989940
389.000000	3.990620
390.000000	3.991481
391.000000	3.992242
392.000000	3.993048
393.000000	3.993506
394.000000	3.994208
395.000000	3.995154
396.000000	3.996038
397.000000	3.997011
398.000000	3.997729
399.000000	3.998697
400.000000	3.999965
401.000000	4.001207
402.000000	4.001936
403.000000	4.002735
404.000000	4.003535
405.000000	4.004826
406.000000	4.005901
407.000000	4.006803
408.000000	4.008053
409.000000	4.009021
410.000000	4.010005
411.000000	4.011006
412.000000	4.012289
413.000000	4.013774
414.000000	4.015146
415.000000	4.016167
416.000000	4.017446
417.000000	4.018905
418.000000	4.020394
419.000000	4.022027
420.000000	4.023812
421.000000	4.056261
422.000000	4.088715
423.000000	4.121238
424.000000	4.153854
425.000000	4.186710
426.000000	4.219704
427.000000	4.252752
428.000000	4.285697
429.000000	4.318723
430.000000	4.351837
431.000000	4.354362
432.000000	4.356696
433.000000	4.358971
434.000000	4.361573
435.000000	4.364345
436.000000	4.366976
437.000000	4.369715
438.000000	4.372560
439.000000	4.375512
440.000000	4.378377
441.000000	4.381288
442.000000	4.384718
443.000000	4.388342
444.000000	4.391618
445.000000	4.394625
446.000000	4.397923
447.000000	4.401381
448.000000	4.404992
449.000000	4.408732
450.000000	4.412429
451.000000	4.416277
452.000000	4.450939
453.000000	4.485557
454.000000	4.520361
455.000000	4.555520
456.000000	4.590682
457.000000	4.625889
458.000000	4.661157
459.000000	4.696370
460.000000	4.731959
461.000000	4.767937
462.000000	4.773207
463.000000	4.778650
464.000000	4.784257
465.000000	4.790058
466.000000	4.795871
467.000000	4.801796
468.000000	4.807986
469.000000	4.814273
470.000000	4.820394
471.000000	4.826286
472.000000	4.832346
473.000000	4.838581
474.000000	4.844918
475.000000	4.851210
476.000000	4.857620
477.000000	4.894707
478.000000	4.931838
479.000000	4.969090
480.000000	5.006260
481.000000	5.043445
482.000000	5.080511
483.000000	5.117866
484.000000	5.155907
485.000000	5.194826
486.000000	5.265333
487.000000	5.306004
488.000000	5.347671
489.000000	5.390409
490.000000	5.434743
491.000000	5.480593
492.000000	5.558704
493.000000	5.638470
494.000000	5.719844
495.000000	5.802860
496.000000	5.857084
497.000000	5.913786
498.000000	6.004429
499.000000	6.099401
500.000000	6.199408
501.000000	6.305904
502.000000	6.390180
503.000000	6.515234
504.000000	6.652392
505.000000	6.803753
506.000000	6.971259
507.000000	7.156647
508.000000	7.360512
509.000000	7.582635
510.000000	7.822438
511.000000	8.077566
512.000000	8.343930
513.000000	8.586385
514.000000	8.861435
515.000000	9.133137
516.000000	9.396562
517.000000	9.647682
518.000000	9.853074
519.000000	10.041311
520.000000	10.211184
521.000000	10.393708
522.000000	10.560005
523.000000	10.712346
524.000000	10.822635
525.000000	10.923766
526.000000	11.017599
527.000000	11.105581
528.000000	11.188692
529.000000	11.268031
530.000000	11.374891
531.000000	11.448273
532.000000	11.519393
533.000000	11.588473
534.000000	11.655792
535.000000	11.721245
536.000000	11.785480
537.000000	11.849433
538.000000	11.912700
539.000000	11.975250
540.000000	12.006238
541.000000	12.036385
542.000000	12.066077
543.000000	12.094563
544.000000	12.121554
545.000000	12.148143
546.000000	12.174236
547.000000	12.198939
548.000000	12.253562
549.000000	12.308005
550.000000	12.362894
551.000000	12.417906
552.000000	12.471638
553.000000	12.525005
554.000000	12.577151
555.000000	12.627860
556.000000	12.677056
557.000000	12.725324
558.000000	12.741723
559.000000	12.755476
560.000000	12.753086
561.000000	12.746191
562.000000	12.736662
563.000000	12.725083
564.000000	12.711717
565.000000	12.697647
566.000000	12.682706
567.000000	12.668429
568.000000	12.654552
569.000000	12.642739
570.000000	12.645235
571.000000	12.650097
572.000000	12.656013
573.000000	12.660543
574.000000	12.664131
575.000000	12.665564
576.000000	12.665535
577.000000	12.662267
578.000000	12.657431
579.000000	12.650290
580.000000	12.642969
581.000000	12.637382
582.000000	12.633309
583.000000	12.631572
584.000000	12.631762
585.000000	12.633747
586.000000	12.635245
587.000000	12.636121
588.000000	12.635353
589.000000	12.632411
590.000000	12.627167
591.000000	12.619387
592.000000	12.609612
593.000000	12.599924
594.000000	12.592494
595.000000	12.586899
596.000000	12.585525
597.000000	12.587400
598.000000	12.591652
599.000000	12.597261
600.000000	12.601471
601.000000	12.603371
602.000000	12.602031
603.000000	12.596064
604.000000	12.584767
605.000000	12.569884
606.000000	12.553130
607.000000	12.536724
608.000000	12.521947
609.000000	12.510438
610.000000	12.503632
611.000000	12.500233
612.000000	12.499967
613.000000	12.531989
614.000000	12.565083
615.000000	12.596057
616.000000	12.623456
617.000000	12.647190
618.000000	12.666771
619.000000	12.684581
620.000000	12.701645
621.000000	12.718788
622.000000	12.739112
623.000000	12.733262
624.000000	12.731403
625.000000	12.733958
626.000000	12.739327
627.000000	12.746146
628.000000	12.753112
629.000000	12.756815
630.000000	12.757578
631.000000	12.755605
632.000000	12.750275
633.000000	12.743211
634.000000	12.735523
635.000000	12.729545
636.000000	12.725944
637.000000	12.724876
638.000000	12.727132
639.000000	12.733004
640.000000	12.740027
641.000000	12.748471
642.000000	12.755908
643.000000	12.761348
644.000000	12.764149
645.000000	12.764271
646.000000	12.762456
647.000000	12.759984
648.000000	12.758333
649.000000	12.758409
650.000000	12.760677
651.000000	12.764812
652.000000	12.771800
653.000000	12.781071
654.000000	12.792339
655.000000	12.804882
656.000000	12.817297
657.000000	12.859379
658.000000	12.900142
659.000000	12.938863
660.000000	12.976309
661.000000	13.014903
662.000000	13.054141
663.000000	13.095047
664.000000	13.136644
665.000000	13.178638
666.000000	13.222175
667.000000	13.236073
668.000000	13.249929
669.000000	13.264755
670.000000	13.279959
671.000000	13.294803
672.000000	13.309682
673.000000	13.323323
674.000000	13.337272
675.000000	13.352400
676.000000	13.369177
677.000000	13.387178
678.000000	13.406025
679.000000	13.425534
680.000000	13.445329
681.000000	13.464032
682.000000	13.482449
683.000000	13.501792
684.000000	13.521615
685.000000	13.540573
686.000000	13.589654
687.000000	13.639542
688.000000	13.689673
689.000000	13.740631
690.000000	13.793228
691.000000	13.847493
692.000000	13.902095
693.000000	13.955836
694.000000	14.007657
695.000000	14.058996
696.000000	14.079554
697.000000	14.099174
698.000000	14.118325
699.000000	14.137082
700.000000	14.155564
701.000000	14.173742
702.000000	14.192005
703.000000	14.210864
704.000000	14.231774
705.000000	14.252301
706.000000	14.271908
707.000000	14.290296
708.000000	14.308484
709.000000	14.325921
710.000000	14.342788
711.000000	14.358745
712.000000	14.373535
713.000000	14.387844
714.000000	14.401167
715.000000	14.446414
716.000000	14.491509
717.000000	14.536957
718.000000	14.582146
719.000000	14.626783
720.000000	14.671086
721.000000	14.715682
722.000000	14.760510
723.000000	14.805207
724.000000	14.849501
725.000000	14.861663
726.000000	14.872845
727.000000	14.884152
728.000000	14.896067
729.000000	14.908079
730.000000	14.919576
731.000000	14.930590
732.000000	14.942407
733.000000	14.954361
734.000000	14.966227
735.000000	14.977574
736.000000	14.989450
737.000000	15.002351
738.000000	15.014785
739.000000	15.026458
740.000000	15.038260
741.000000	15.080081
742.000000	15.121261
743.000000	15.162743
744.000000	15.204990
745.000000	15.248786
746.000000	15.292827
747.000000	15.335815
748.000000	15.379163
749.000000	15.423347
750.000000	15.468323
751.000000	15.483959
752.000000	15.500309
753.000000	15.516378
754.000000	15.531659
755.000000	15.545357
756.000000	15.559717
757.000000	15.574582
758.000000	15.587819
759.000000	15.601349
760.000000	15.617251
761.000000	15.633438
762.000000	15.679373
763.000000	15.725713
764.000000	15.772964
765.000000	15.821736
766.000000	15.870824
767.000000	15.920768
768.000000	15.971398
769.000000	16.020756
770.000000	16.068620
771.000000	16.116147
772.000000	16.134181
773.000000	16.152715
774.000000	16.171208
775.000000	16.189508
776.000000	16.207669
777.000000	16.225534
778.000000	16.245134
779.000000	16.266418
780.000000	16.286249
781.000000	16.336672
782.000000	16.386941
783.000000	16.436650
784.000000	16.487639
785.000000	16.538740
786.000000	16.588823
787.000000	16.639425
788.000000	16.690118
789.000000	16.741955
790.000000	16.794891
791.000000	16.817513
792.000000	16.841200
793.000000	16.863562
794.000000	16.883026
795.000000	16.903174
796.000000	16.925472
797.000000	16.946975
798.000000	16.968789
799.000000	16.989771
800.000000	17.011699
801.000000	17.062986
802.000000	17.113805
803.000000	17.167941
804.000000	17.223660
805.000000	17.278906
806.000000	17.333842
807.000000	17.387380
808.000000	17.441340
809.000000	17.494521
810.000000	17.548224
811.000000	17.573259
812.000000	17.599730
813.000000	17.624718
814.000000	17.649304
815.000000	17.672690
816.000000	17.694494
817.000000	17.718426
818.000000	17.740258
819.000000	17.763233
820.000000	17.782901
821.000000	17.800795
822.000000	17.816856
823.000000	17.830332
824.000000	17.843302
825.000000	17.858197
826.000000	17.872655
827.000000	17.916243
828.000000	17.961107
829.000000	18.004264
830.000000	18.047057
831.000000	18.088302
832.000000	18.126952
833.000000	18.170111
834.000000	18.211895
835.000000	18.249885
836.000000	18.291387
837.000000	18.300678
838.000000	18.310444
839.000000	18.315759
840.000000	18.318333
841.000000	18.327379
842.000000	18.337745
843.000000	18.339503
844.000000	18.345324
845.000000	18.349292
846.000000	18.353566
847.000000	18.356244
848.000000	18.354880
849.000000	18.360609
850.000000	18.365429
851.000000	18.373152
852.000000	18.367692
853.000000	18.372056
854.000000	18.368559
855.000000	18.365830
856.000000	18.356713
857.000000	18.369511
858.000000	18.631363
859.000000	18.658678
860.000000	18.716868
861.000000	18.744417
862.000000	18.762845
863.000000	18.780146
864.000000	18.829497
865.000000	18.908753
866.000000	18.967415
867.000000	19.032372
868.000000	18.852320
869.000000	18.879517
870.000000	18.856558
871.000000	18.857800
872.000000	18.857817
873.000000	18.879635
874.000000	18.874352
875.000000	18.843250
876.000000	18.835715
877.000000	18.778285
878.000000	18.744735
879.000000	18.735490
880.000000	18.727152
881.000000	18.742337
882.000000	18.755553
883.000000	18.743012
884.000000	18.731293
885.000000	18.719830
886.000000	18.707767
887.000000	18.696285
888.000000	18.682350
889.000000	18.669328
890.000000	18.653970
891.000000	18.638523
892.000000	18.623605
893.000000	18.607875
894.000000	18.591490
895.000000	18.573277
896.000000	18.556777
897.000000	18.564105
898.000000	18.547100
899.000000	18.529367
900.000000	18.536822
901.000000	18.519520
902.000000	18.527793
903.000000	18.536370
904.000000	18.544825
905.000000	18.529248
906.000000	18.537155
907.000000	18.520248
908.000000	18.529300
909.000000	18.512095
910.000000	18.493725
911.000000	18.475642
912.000000	18.457812
913.000000	18.441887
914.000000	18.426962
915.000000	18.436048
916.000000	18.419895
917.000000	18.429092
918.000000	18.413532
919.000000	18.423970
920.000000	18.435020
921.000000	18.446442
922.000000	18.455660
923.000000	18.461205
924.000000	18.467160
925.000000	18.471808
926.000000	18.476188
927.000000	18.479998
928.000000	18.482238
929.000000	18.484327
930.000000	18.487005
931.000000	18.488825
932.000000	18.491768
933.000000	18.497647
934.000000	18.501683
935.000000	18.508592
936.000000	18.515877
937.000000	18.522565
938.000000	18.529250
939.000000	18.535685
940.000000	18.540420
941.000000	18.544020
942.000000	18.546988
943.000000	18.548198
944.000000	18.549845
945.000000	18.550375
946.000000	18.550548
947.000000	18.550805
948.000000	18.552500
949.000000	18.555433
950.000000	18.560022
951.000000	18.564770
952.000000	18.570653
953.000000	18.576695
954.000000	18.583243
955.000000	18.590113
956.000000	18.596113
957.000000	18.602228
958.000000	18.606900
959.000000	18.610907
960.000000	18.614065
961.000000	18.617012
962.000000	18.619447
963.000000	18.623915
964.000000	18.627935
965.000000	18.631895
966.000000	18.636373
967.000000	18.640808
968.000000	18.646753
969.000000	18.651933
970.000000	18.657890
971.000000	18.664397
972.000000	18.671402
973.000000	18.677308
974.000000	18.682678
975.000000	18.687518
976.000000	18.692473
977.000000	18.697922
978.000000	18.703350
979.000000	18.708610
980.000000	18.713287
981.000000	18.719028
982.000000	18.723813
983.000000	18.728162
984.000000	18.733282
985.000000	18.739045
986.000000	18.744995
987.000000	18.749925
988.000000	18.754943
989.000000	18.761408
990.000000	18.768105
991.000000	18.774217
992.000000	18.781408
993.000000	18.788635
994.000000	18.795220
995.000000	18.802143
996.000000	18.809350
997.000000	18.816933
998.000000	18.824397
999.000000	18.830965
1000.000000	18.837343
1001.000000	18.844127
1002.000000	18.850513
1003.000000	18.857520
1004.000000	18.865018
1005.000000	18.896802
1006.000000	18.928460
1007.000000	18.960933
1008.000000	18.993730
1009.000000	19.026300
1010.000000	19.058522
1011.000000	19.090280
1012.000000	19.121767
1013.000000	19.153413
1014.000000	19.184908
1015.000000	19.191787
1016.000000	19.198512
1017.000000	19.205160
1018.000000	19.211747
1019.000000	19.218905
1020.000000	19.227725
1021.000000	19.236700
1022.000000	19.245263
1023.000000	19.253855
1024.000000	19.262755
1025.000000	19.272078
1026.000000	19.282195
1027.000000	19.292298
1028.000000	19.302070
1029.000000	19.312342
1030.000000	19.321938
1031.000000	19.331100
1032.000000	19.341510
1033.000000	19.352877
1034.000000	19.364230
1035.000000	19.374952
1036.000000	19.385287
1037.000000	19.395680
1038.000000	19.406182
1039.000000	19.416240
1040.000000	19.425970
1041.000000	19.435782
1042.000000	19.444707
1043.000000	19.453340
1044.000000	19.462432
1045.000000	19.471470
1046.000000	19.480640
1047.000000	19.489555
1048.000000	19.498195
1049.000000	19.506967
1050.000000	19.516163
1051.000000	19.525955
1052.000000	19.535603
1053.000000	19.544918
1054.000000	19.554022
1055.000000	19.588078
1056.000000	19.621733
1057.000000	19.655825
1058.000000	19.690103
1059.000000	19.724045
1060.000000	19.757720
1061.000000	19.791705
1062.000000	19.826955
1063.000000	19.861405
1064.000000	19.894928
1065.000000	19.903942
1066.000000	19.913707
1067.000000	19.923043
1068.000000	19.932610
1069.000000	19.942618
1070.000000	19.953115
1071.000000	19.963810
1072.000000	19.973520
1073.000000	19.984290
1074.000000	19.995233
1075.000000	20.006058
1076.000000	20.016920
1077.000000	20.027305
1078.000000	20.036723
1079.000000	20.046642
1080.000000	20.056540
1081.000000	20.065810
1082.000000	20.075680
1083.000000	20.085767
1084.000000	20.095095
1085.000000	20.104960
1086.000000	20.114822
1087.000000	20.124142
1088.000000	20.134715
1089.000000	20.145142
1090.000000	20.155608
1091.000000	20.165290
1092.000000	20.173325
1093.000000	20.180557
1094.000000	20.188437
1095.000000	20.194867
1096.000000	20.200337
1097.000000	20.207853
1098.000000	20.215105
1099.000000	20.220965
1100.000000	20.226245
1101.000000	20.231960
1102.000000	20.238683
1103.000000	20.245532
1104.000000	20.252488
1105.000000	20.260207
1106.000000	20.268545
1107.000000	20.274683
1108.000000	20.279840
1109.000000	20.286217
1110.000000	20.293005
1111.000000	20.324677
1112.000000	20.355487
1113.000000	20.385760
1114.000000	20.415935
1115.000000	20.445030
1116.000000	20.473532
1117.000000	20.503517
1118.000000	20.534323
1119.000000	20.563435
1120.000000	20.591552
1121.000000	20.594490
1122.000000	20.598485
1123.000000	20.602360
1124.000000	20.605483
1125.000000	20.607970
1126.000000	20.609578
1127.000000	20.609803
1128.000000	20.609280
1129.000000	20.584077
1130.000000	20.557592
1131.000000	20.528435
1132.000000	20.496195
1133.000000	20.462563
1134.000000	20.430990
1135.000000	20.401150
1136.000000	20.369483
1137.000000	20.336420
1138.000000	20.301775
1139.000000	20.290938
1140.000000	20.280210
1141.000000	20.271505
1142.000000	20.263075
1143.000000	20.255698
1144.000000	20.246512
1145.000000	20.236575
1146.000000	20.228807
1147.000000	20.222168
1148.000000	20.216230
1149.000000	20.210420
1150.000000	20.205075
1151.000000	20.200235
1152.000000	20.198135
1153.000000	20.193998
1154.000000	20.189248
1155.000000	20.182218
1156.000000	20.173728
1157.000000	20.164935
1158.000000	20.153745
1159.000000	20.116510
1160.000000	20.078310
1161.000000	20.036900
1162.000000	19.992400
1163.000000	19.947713
1164.000000	19.901745
1165.000000	19.854285
1166.000000	19.806845
1167.000000	19.758517
1168.000000	19.711400
1169.000000	19.691287
1170.000000	19.670955
1171.000000	19.652973
1172.000000	19.634802
1173.000000	19.618797
1174.000000	19.604008
1175.000000	19.592598
1176.000000	19.581730
1177.000000	19.572472
1178.000000	19.564715
1179.000000	19.555335
1180.000000	19.548207
1181.000000	19.540180
1182.000000	19.535063
1183.000000	19.529990
1184.000000	19.526373
1185.000000	19.523527
1186.000000	19.522272
1187.000000	19.521555
1188.000000	19.521242
1189.000000	19.524870
1190.000000	19.528388
1191.000000	19.535550
1192.000000	19.543347
1193.000000	19.551638
1194.000000	19.560985
1195.000000	19.571805
1196.000000	19.583637
1197.000000	19.596148
1198.000000	19.610522
1199.000000	19.623605
1200.000000	19.638040
1201.000000	19.651863
1202.000000	19.665698
1203.000000	19.678783
1204.000000	19.691430
1205.000000	19.702643
1206.000000	19.714283
1207.000000	19.750380
1208.000000	19.786292
1209.000000	19.822202
1210.000000	19.858173
1211.000000	19.893815
1212.000000	19.930195
1213.000000	19.968043
1214.000000	20.004770
1215.000000	20.040833
1216.000000	20.075935
1217.000000	20.086005
1218.000000	20.094330
1219.000000	20.102507
1220.000000	20.109675
1221.000000	20.115682
1222.000000	20.119878
1223.000000	20.123945
1224.000000	20.127635
1225.000000	20.132652
1226.000000	20.136950
1227.000000	20.141213
1228.000000	20.145367
1229.000000	20.150018
1230.000000	20.154095
1231.000000	20.158188
1232.000000	20.162277
1233.000000	20.166253
1234.000000	20.170247
1235.000000	20.173282
1236.000000	20.177325
1237.000000	20.180430
1238.000000	20.183965
1239.000000	20.187523
1240.000000	20.191688
1241.000000	20.196487
1242.000000	20.202388
1243.000000	20.207997
1244.000000	20.240067
1245.000000	20.272467
1246.000000	20.305380
1247.000000	20.339685
1248.000000	20.375440
1249.000000	20.411695
1250.000000	20.448520
1251.000000	20.485907
1252.000000	20.523013
1253.000000	20.559418
1254.000000	20.570345
1255.000000	20.581610
1256.000000	20.592103
1257.000000	20.602840
1258.000000	20.612758
1259.000000	20.622138
1260.000000	20.630450
1261.000000	20.638060
1262.000000	20.645595
1263.000000	20.653308
1264.000000	20.661060
1265.000000	20.668620
1266.000000	20.675992
1267.000000	20.682308
1268.000000	20.687185
1269.000000	20.691702
1270.000000	20.696603
1271.000000	20.701015
1272.000000	20.705113
1273.000000	20.709625
1274.000000	20.712740
1275.000000	20.715355
1276.000000	20.717995
1277.000000	20.720327
1278.000000	20.723282
1279.000000	20.726657
1280.000000	20.729927
1281.000000	20.734122
1282.000000	20.739097
1283.000000	20.744387
1284.000000	20.750357
1285.000000	20.756640
1286.000000	20.762915
1287.000000	20.770490
1288.000000	20.778602
1289.000000	20.785765
1290.000000	20.793063
1291.000000	20.800440
1292.000000	20.807347
1293.000000	20.815023
1294.000000	20.823743
1295.000000	20.831938
1296.000000	20.839533
1297.000000	20.846765
1298.000000	20.853928
1299.000000	20.861470
1300.000000	20.868690
1301.000000	20.875335
1302.000000	20.881048
1303.000000	20.885037
1304.000000	20.887953
1305.000000	20.891232
1306.000000	20.894527
1307.000000	20.897218
1308.000000	20.899257
1309.000000	20.899932
1310.000000	20.899680
1311.000000	20.898905
1312.000000	20.898387
1313.000000	20.897462
1314.000000	20.895975
1315.000000	20.893585
1316.000000	20.889125
1317.000000	20.883038
1318.000000	20.876270
1319.000000	20.869437
1320.000000	20.862537
1321.000000	20.855005
1322.000000	20.846270
1323.000000	20.836450
1324.000000	20.825745
1325.000000	20.814780
1326.000000	20.804503
1327.000000	20.794670
1328.000000	20.784150
1329.000000	20.772625
1330.000000	20.760058
1331.000000	20.746095
1332.000000	20.731385
1333.000000	20.716280
1334.000000	20.675410
1335.000000	20.633688
1336.000000	20.590493
1337.000000	20.545760
1338.000000	20.499745
1339.000000	20.453197
1340.000000	20.405195
1341.000000	20.355945
1342.000000	20.305867
1343.000000	20.254978
1344.000000	20.226920
1345.000000	20.195878
1346.000000	20.138755
1347.000000	20.081730
1348.000000	20.023023
1349.000000	19.961190
1350.000000	19.898040
1351.000000	19.834250
1352.000000	19.768958
1353.000000	19.703380
1354.000000	19.642030
1355.000000	19.584378
1356.000000	19.552795
1357.000000	19.519343
1358.000000	19.462860
1359.000000	19.407005
1360.000000	19.356540
1361.000000	19.317040
1362.000000	19.279450
1363.000000	19.239525
1364.000000	19.199135
1365.000000	19.156762
1366.000000	19.110515
1367.000000	19.041842
1368.000000	18.997135
1369.000000	18.949858
1370.000000	18.896685
1371.000000	18.831148
1372.000000	18.734820
1373.000000	18.631188
1374.000000	18.517572
1375.000000	18.396078
1376.000000	18.269130
1377.000000	18.133920
1378.000000	17.988490
1379.000000	17.840312
1380.000000	17.690418
1381.000000	17.547105
1382.000000	17.435940
1383.000000	17.311528
1384.000000	17.191210
1385.000000	17.077452
1386.000000	16.973423
1387.000000	16.905307
1388.000000	16.850767
1389.000000	16.801840
1390.000000	16.754523
1391.000000	16.706605
1392.000000	16.659108
1393.000000	16.634132
1394.000000	16.588452
1395.000000	16.553253
1396.000000	16.519737
1397.000000	16.474625
1398.000000	16.422185
1399.000000	16.375710
1400.000000	16.339340
1401.000000	16.297260
1402.000000	16.243705
1403.000000	16.186743
1404.000000	16.154363
1405.000000	16.086192
1406.000000	16.012557
1407.000000	15.943213
1408.000000	15.876140
1409.000000	15.803880
1410.000000	15.718280
1411.000000	15.630348
1412.000000	15.547840
1413.000000	15.444290
1414.000000	15.340275
1415.000000	15.257835
1416.000000	15.173418
1417.000000	15.090632
1418.000000	15.011025
1419.000000	14.931395
1420.000000	14.854117
1421.000000	14.778485
1422.000000	14.706000
1423.000000	14.634142
1424.000000	14.560200
1425.000000	14.488910
1426.000000	14.422197
1427.000000	14.357310
1428.000000	14.291518
1429.000000	14.225778
1430.000000	14.162813
1431.000000	14.103575
1432.000000	14.046873
1433.000000	14.013660
1434.000000	13.982257
1435.000000	13.953592
1436.000000	13.900175
1437.000000	13.849295
1438.000000	13.798705
1439.000000	13.749482
1440.000000	13.701798
1441.000000	13.654712
1442.000000	13.605902
1443.000000	13.558400
1444.000000	13.513205
1445.000000	13.470022
1446.000000	13.453377
1447.000000	13.434490
1448.000000	13.414903
1449.000000	13.397240
1450.000000	13.380125
1451.000000	13.363872
1452.000000	13.347407
1453.000000	13.330450
1454.000000	13.312620
1455.000000	13.268805
1456.000000	13.224168
1457.000000	13.180523
1458.000000	13.138045
1459.000000	13.093943
1460.000000	13.049277
1461.000000	13.002578
1462.000000	12.956698
1463.000000	12.911798
1464.000000	12.866700
1465.000000	12.845997
1466.000000	12.826782
1467.000000	12.806845
1468.000000	12.785597
1469.000000	12.765238
1470.000000	12.745655
1471.000000	12.728455
1472.000000	12.711400
1473.000000	12.694537
1474.000000	12.676490
1475.000000	12.659648
1476.000000	12.643280
1477.000000	12.628595
1478.000000	12.615005
1479.000000	12.602585
1480.000000	12.565423
1481.000000	12.528083
1482.000000	12.491540
1483.000000	12.455607
1484.000000	12.422485
1485.000000	12.390935
1486.000000	12.358593
1487.000000	12.325522
1488.000000	12.294755
1489.000000	12.262900
1490.000000	12.257300
1491.000000	12.251660
1492.000000	12.247265
1493.000000	12.243993
1494.000000	12.240645
1495.000000	12.236603
1496.000000	12.234883
1497.000000	12.235717
1498.000000	12.237600
1499.000000	12.242093
1500.000000	12.246778
1501.000000	12.252670
1502.000000	12.259998
1503.000000	12.268908
1504.000000	12.279037
1505.000000	12.315963
1506.000000	12.353772
1507.000000	12.392247
1508.000000	12.431477
1509.000000	12.471462
1510.000000	12.511923
1511.000000	12.554415
1512.000000	12.597267
1513.000000	12.639540
1514.000000	12.683848
1515.000000	12.703547
1516.000000	12.723115
1517.000000	12.742587
1518.000000	12.761802
1519.000000	12.780263
1520.000000	12.799093
1521.000000	12.817862
1522.000000	12.835307
1523.000000	12.852668
1524.000000	12.868427
1525.000000	12.883495
1526.000000	12.897747
1527.000000	12.912765
1528.000000	12.927650
1529.000000	12.942902
1530.000000	12.958067
1531.000000	12.972095
1532.000000	12.986277
1533.000000	13.000830
1534.000000	13.015355
1535.000000	13.029747
1536.000000	13.068240
1537.000000	13.105275
1538.000000	13.142323
1539.000000	13.177918
1540.000000	13.212550
1541.000000	13.247070
1542.000000	13.281525
1543.000000	13.315113
1544.000000	13.349515
1545.000000	13.384053
1546.000000	13.394730
1547.000000	13.406435
1548.000000	13.418777
1549.000000	13.433173
1550.000000	13.448670
1551.000000	13.463778
1552.000000	13.479387
1553.000000	13.496132
1554.000000	13.511757
1555.000000	13.527252
1556.000000	13.542705
1557.000000	13.556318
1558.000000	13.567890
1559.000000	13.577600
1560.000000	13.586068
1561.000000	13.593377
1562.000000	13.598915
1563.000000	13.602760
1564.000000	13.605448
1565.000000	13.606563
1566.000000	13.606155
1567.000000	13.605017
1568.000000	13.602990
1569.000000	13.600157
1570.000000	13.597243
1571.000000	13.594852
1572.000000	13.592472
1573.000000	13.589515
1574.000000	13.586920
1575.000000	13.584880
1576.000000	13.583670
1577.000000	13.582995
1578.000000	13.583955
1579.000000	13.586460
1580.000000	13.588653
1581.000000	13.591497
1582.000000	13.596160
1583.000000	13.602433
1584.000000	13.609633
1585.000000	13.617808
1586.000000	13.626595
1587.000000	13.636488
1588.000000	13.646713
1589.000000	13.681402
1590.000000	13.716485
1591.000000	13.752347
1592.000000	13.788413
1593.000000	13.824335
1594.000000	13.860360
1595.000000	13.895988
1596.000000	13.931910
1597.000000	13.969223
1598.000000	14.007115
1599.000000	14.021095
1600.000000	14.036810
1601.000000	14.052832
1602.000000	14.069350
1603.000000	14.086620
1604.000000	14.103958
1605.000000	14.122665
1606.000000	14.141868
1607.000000	14.159477
1608.000000	14.177173
1609.000000	14.194950
1610.000000	14.212015
1611.000000	14.228945
1612.000000	14.244208
1613.000000	14.258190
1614.000000	14.272435
1615.000000	14.285077
1616.000000	14.296928
1617.000000	14.334643
1618.000000	14.372100
1619.000000	14.408010
1620.000000	14.442847
1621.000000	14.476860
1622.000000	14.511490
1623.000000	14.546600
1624.000000	14.580920
1625.000000	14.615810
1626.000000	14.651070
1627.000000	14.660348
1628.000000	14.669333
1629.000000	14.679045
1630.000000	14.688225
1631.000000	14.697420
1632.000000	14.706245
1633.000000	14.714783
1634.000000	14.722600
1635.000000	14.730905
1636.000000	14.737425
1637.000000	14.743295
1638.000000	14.747927
1639.000000	14.751633
1640.000000	14.755788
1641.000000	14.759977
1642.000000	14.763540
1643.000000	14.766535
1644.000000	14.769543
1645.000000	14.770473
1646.000000	14.771897
1647.000000	14.773197
1648.000000	14.774050
1649.000000	14.774827
1650.000000	14.774192
1651.000000	14.773218
1652.000000	14.771542
1653.000000	14.768905
1654.000000	14.764345
1655.000000	14.759265
1656.000000	14.752805
1657.000000	14.743330
1658.000000	14.732647
1659.000000	14.720720
1660.000000	14.682663
1661.000000	14.640783
1662.000000	14.595993
1663.000000	14.549555
1664.000000	14.500903
1665.000000	14.449100
1666.000000	14.396345
1667.000000	14.342630
1668.000000	14.283250
1669.000000	14.221370
1670.000000	14.182030
1671.000000	14.141172
1672.000000	14.074555
1673.000000	14.006795
1674.000000	13.939015
1675.000000	13.872465
1676.000000	13.803967
1677.000000	13.735920
1678.000000	13.670847
1679.000000	13.604398
1680.000000	13.538285
1681.000000	13.470460
1682.000000	13.427355
1683.000000	13.359373
1684.000000	13.290750
1685.000000	13.221535
1686.000000	13.154837
1687.000000	13.090857
1688.000000	13.031485
1689.000000	12.978555
1690.000000	12.933335
1691.000000	12.896812
1692.000000	12.867375
1693.000000	12.869505
1694.000000	12.877785
1695.000000	12.891612
1696.000000	12.908705
1697.000000	12.926522
1698.000000	12.944950
1699.000000	12.962600
1700.000000	12.976065
1701.000000	12.986235
1702.000000	12.992980
1703.000000	12.995870
1704.000000	12.996897
1705.000000	12.994440
1706.000000	12.987915
1707.000000	12.978418
1708.000000	12.965540
1709.000000	12.949040
1710.000000	12.930083
1711.000000	12.907870
1712.000000	12.858628
1713.000000	12.805725
1714.000000	12.748143
1715.000000	12.687012
1716.000000	12.621890
1717.000000	12.554700
1718.000000	12.484575
1719.000000	12.411960
1720.000000	12.339865
1721.000000	12.268635
1722.000000	12.224430
1723.000000	12.185030
1724.000000	12.151267
1725.000000	12.123205
1726.000000	12.102865
1727.000000	12.088845
1728.000000	12.080773
1729.000000	12.080655
1730.000000	12.084602
1731.000000	12.093905
1732.000000	12.105975
1733.000000	12.120175
1734.000000	12.135390
1735.000000	12.151415
1736.000000	12.167818
1737.000000	12.185993
1738.000000	12.205828
1739.000000	12.225785
1740.000000	12.246757
1741.000000	12.268133
1742.000000	12.289523
1743.000000	12.310855
1744.000000	12.333735
1745.000000	12.356827
1746.000000	12.379235
1747.000000	12.400343
1748.000000	12.420360
1749.000000	12.438850
1750.000000	12.456103
1751.000000	12.470862
1752.000000	12.483105
1753.000000	12.518097
1754.000000	12.549980
1755.000000	12.579630
1756.000000	12.608980
1757.000000	12.636143
1758.000000	12.662605
1759.000000	12.687817
1760.000000	12.712718
1761.000000	12.738387
1762.000000	12.764150
1763.000000	12.765377
1764.000000	12.767255
1765.000000	12.770748
1766.000000	12.774373
1767.000000	12.778800
1768.000000	12.783040
1769.000000	12.788800
1770.000000	12.795360
1771.000000	12.801975
1772.000000	12.810310
1773.000000	12.819453
1774.000000	12.828543
1775.000000	12.838422
1776.000000	12.849242
1777.000000	12.861138
1778.000000	12.873880
1779.000000	12.885925
1780.000000	12.897710
1781.000000	12.909420
1782.000000	12.919987
1783.000000	12.928628
1784.000000	12.937370
1785.000000	12.945217
1786.000000	12.951160
1787.000000	12.956080
1788.000000	12.958958
1789.000000	12.960833
1790.000000	12.961523
1791.000000	12.961593
1792.000000	12.962640
1793.000000	12.964982
1794.000000	12.967282
1795.000000	12.968790
1796.000000	12.970662
1797.000000	12.971467
1798.000000	12.973270
1799.000000	12.976170
1800.000000	12.980022
1801.000000	12.985473
1802.000000	12.990455
1803.000000	12.993440
1804.000000	12.995315
1805.000000	12.998780
1806.000000	13.003815
1807.000000	13.009185
1808.000000	13.012490
1809.000000	13.014410
1810.000000	13.016623
1811.000000	13.019665
1812.000000	13.022168
1813.000000	13.025062
1814.000000	13.028590
1815.000000	13.032215
1816.000000	13.032723
1817.000000	13.028367
1818.000000	13.047815
1819.000000	13.070565
1820.000000	13.099732
1821.000000	13.131723
1822.000000	13.161085
1823.000000	13.184552
1824.000000	13.203175
1825.000000	13.218602
1826.000000	13.237717
1827.000000	13.264537
1828.000000	13.270233
1829.000000	13.274575
1830.000000	13.274237
1831.000000	13.268780
1832.000000	13.261645
1833.000000	13.256522
1834.000000	13.255232
1835.000000	13.258068
1836.000000	13.263240
1837.000000	13.268458
1838.000000	13.272585
1839.000000	13.277017
1840.000000	13.283515
1841.000000	13.297203
1842.000000	13.317125
1843.000000	13.334710
1844.000000	13.341962
1845.000000	13.339638
1846.000000	13.337572
1847.000000	13.346293
1848.000000	13.365480
1849.000000	13.381187
1850.000000	13.383205
1851.000000	13.371467
1852.000000	13.357127
1853.000000	13.351740
1854.000000	13.359742
1855.000000	13.373632
1856.000000	13.377360
1857.000000	13.364548
1858.000000	13.344452
1859.000000	13.329695
1860.000000	13.323757
1861.000000	13.322442
1862.000000	13.318082
1863.000000	13.303453
1864.000000	13.278915
1865.000000	13.249717
1866.000000	13.195628
1867.000000	13.140270
1868.000000	13.078733
1869.000000	13.015187
1870.000000	12.956145
1871.000000	12.898840
1872.000000	12.845825
1873.000000	12.800215
1874.000000	12.757962
1875.000000	12.718380
1876.000000	12.678508
1877.000000	12.636518
1878.000000	12.590537
1879.000000	12.533497
1880.000000	12.461623
1881.000000	12.354775
1882.000000	12.239885
1883.000000	12.120542
1884.000000	11.998918
1885.000000	11.871855
1886.000000	11.739020
1887.000000	11.599375
1888.000000	11.454795
1889.000000	11.309943
1890.000000	11.166073
1891.000000	11.024925
1892.000000	10.881712
1893.000000	10.732018
1894.000000	10.576058
1895.000000	10.413728
1896.000000	10.248358
1897.000000	10.085548
1898.000000	9.926905
1899.000000	9.771408
1900.000000	9.617098
1901.000000	9.460308
1902.000000	9.302637
1903.000000	9.148193
1904.000000	9.001570
1905.000000	8.866862
1906.000000	8.740832
1907.000000	8.618837
1908.000000	8.495910
1909.000000	8.370653
1910.000000	8.246425
1911.000000	8.152635
1912.000000	8.067585
1913.000000	7.965827
1914.000000	7.865507
1915.000000	7.763770
1916.000000	7.686210
1917.000000	7.610350
1918.000000	7.540205
1919.000000	7.477937
1920.000000	7.422088
1921.000000	7.371138
1922.000000	7.320345
1923.000000	7.292447
1924.000000	7.240438
1925.000000	7.189820
1926.000000	7.146330
1927.000000	7.106438
1928.000000	7.070275
1929.000000	7.036217
1930.000000	7.002248
1931.000000	6.966935
1932.000000	6.931960
1933.000000	6.899067
1934.000000	6.893725
1935.000000	6.890740
1936.000000	6.887308
1937.000000	6.885995
1938.000000	6.886250
1939.000000	6.887552
1940.000000	6.890018
1941.000000	6.893097
1942.000000	6.897195
1943.000000	6.902365
1944.000000	6.909578
1945.000000	6.918382
1946.000000	6.928533
1947.000000	6.938553
1948.000000	6.948358
1949.000000	6.957465
1950.000000	6.965658
1951.000000	6.976068
1952.000000	6.988120
1953.000000	7.001625
1954.000000	7.014920
1955.000000	7.027983
1956.000000	7.065927
1957.000000	7.105515
1958.000000	7.144220
1959.000000	7.183533
1960.000000	7.224148
1961.000000	7.264245
1962.000000	7.303615
1963.000000	7.343678
1964.000000	7.382370
1965.000000	7.421630
1966.000000	7.436195
1967.000000	7.448413
1968.000000	7.461102
1969.000000	7.472695
1970.000000	7.485818
1971.000000	7.498510
1972.000000	7.512542
1973.000000	7.523708
1974.000000	7.535670
1975.000000	7.547490
1976.000000	7.559157
1977.000000	7.571673
1978.000000	7.585400
1979.000000	7.598458
1980.000000	7.611402
1981.000000	7.624572
1982.000000	7.637883
1983.000000	7.677175
1984.000000	7.692170
1985.000000	7.706255
1986.000000	7.720498
1987.000000	7.760343
1988.000000	7.800215
1989.000000	7.840867
1990.000000	7.880368
1991.000000	7.919775
1992.000000	7.958238
1993.000000	7.972165
1994.000000	8.009900
1995.000000	8.048813
1996.000000	8.086832
1997.000000	8.098760
1998.000000	8.109785
1999.000000	8.119980
2000.000000	8.129700
2001.000000	8.139570
2002.000000	8.147837
2003.000000	8.155955
2004.000000	8.163977
2005.000000	8.169945
2006.000000	8.174880
2007.000000	8.180283
2008.000000	8.183713
2009.000000	8.185910
2010.000000	8.187440
2011.000000	8.186205
2012.000000	8.185415
2013.000000	8.182910
2014.000000	8.178980
2015.000000	8.173820
2016.000000	8.167652
2017.000000	8.160262
2018.000000	8.152287
2019.000000	8.143430
2020.000000	8.133865
2021.000000	8.123810
2022.000000	8.111572
2023.000000	8.098733
2024.000000	8.084463
2025.000000	8.069968
2026.000000	8.054858
2027.000000	8.038315
2028.000000	8.020445
2029.000000	8.001995
2030.000000	7.981858
2031.000000	7.960950
2032.000000	7.939952
2033.000000	7.917793
2034.000000	7.895247
2035.000000	7.873115
2036.000000	7.848940
2037.000000	7.823510
2038.000000	7.798435
2039.000000	7.772590
2040.000000	7.745435
2041.000000	7.717897
2042.000000	7.664100
2043.000000	7.610250
2044.000000	7.556917
2045.000000	7.502587
2046.000000	7.449870
2047.000000	7.398113
2048.000000	7.346472
2049.000000	7.296450
2050.000000	7.249498
2051.000000	7.204360
2052.000000	7.187028
2053.000000	7.172040
2054.000000	7.159950
2055.000000	7.176190
2056.000000	7.195432
2057.000000	7.192660
2058.000000	7.192860
2059.000000	7.196245
2060.000000	7.201617
2061.000000	7.210650
2062.000000	7.247713
2063.000000	7.261325
2064.000000	7.300935
2065.000000	7.316350
2066.000000	7.332835
2067.000000	7.375862
2068.000000	7.419715
2069.000000	7.462982
2070.000000	7.506178
2071.000000	7.547938
2072.000000	7.563322
2073.000000	7.604060
2074.000000	7.619183
2075.000000	7.633215
2076.000000	7.646223
2077.000000	7.657877
2078.000000	7.668235
2079.000000	7.703315
2080.000000	7.712002
2081.000000	7.719665
2082.000000	7.751692
2083.000000	7.756455
2084.000000	7.759390
2085.000000	7.761660
2086.000000	7.787605
2087.000000	7.812028
2088.000000	7.835440
2089.000000	7.832270
2090.000000	7.852945
2091.000000	7.873300
2092.000000	7.867895
2093.000000	7.887528
2094.000000	7.882720
2095.000000	7.902625
2096.000000	7.897718
2097.000000	7.892640
2098.000000	7.886738
2099.000000	7.882055
2100.000000	7.878870
2101.000000	7.875745
2102.000000	7.873147
2103.000000	7.871140
2104.000000	7.893385
2105.000000	7.890570
2106.000000	7.887995
2107.000000	7.886105
2108.000000	7.884842
2109.000000	7.883093
2110.000000	7.881045
2111.000000	7.878477
2112.000000	7.874837
2113.000000	7.871140
2114.000000	7.868027
2115.000000	7.864495
2116.000000	7.861017
2117.000000	7.856962
2118.000000	7.852473
2119.000000	7.847498
2120.000000	7.842223
2121.000000	7.837050
2122.000000	7.831480
2123.000000	7.825172
2124.000000	7.818155
2125.000000	7.810975
2126.000000	7.802903
2127.000000	7.794112
2128.000000	7.784517
2129.000000	7.774855
2130.000000	7.764832
2131.000000	7.754302
2132.000000	7.743053
2133.000000	7.731095
2134.000000	7.719115
2135.000000	7.706905
2136.000000	7.693935
2137.000000	7.680640
2138.000000	7.666980
2139.000000	7.652798
2140.000000	7.637820
2141.000000	7.622213
2142.000000	7.607287
2143.000000	7.592060
2144.000000	7.576320
2145.000000	7.534625
2146.000000	7.517723
2147.000000	7.475602
2148.000000	7.433758
2149.000000	7.391430
2150.000000	7.348790
2151.000000	7.306228
2152.000000	7.263695
2153.000000	7.221625
2154.000000	7.179995
2155.000000	7.163682
2156.000000	7.097975
2157.000000	7.083428
2158.000000	7.069600
2159.000000	7.056540
2160.000000	7.044013
2161.000000	7.032280
2162.000000	7.021145
2163.000000	7.010547
2164.000000	6.999672
2165.000000	6.990127
2166.000000	6.981762
2167.000000	6.973268
2168.000000	6.964985
2169.000000	6.932595
2170.000000	6.900145
2171.000000	6.867730
2172.000000	6.835528
2173.000000	6.803230
2174.000000	6.772215
2175.000000	6.716378
2176.000000	6.708705
2177.000000	6.677345
2178.000000	6.646795
2179.000000	6.639950
2180.000000	6.633883
2181.000000	6.628050
2182.000000	6.621157
2183.000000	6.614028
2184.000000	6.604722
2185.000000	6.595363
2186.000000	6.560728
2187.000000	6.524030
2188.000000	6.485235
2189.000000	6.446147
2190.000000	6.404345
2191.000000	6.335680
2192.000000	6.265270
2193.000000	6.193485
2194.000000	6.120878
2195.000000	6.095005
2196.000000	6.043287
2197.000000	5.989088
2198.000000	5.934670
2199.000000	5.878773
2200.000000	5.798608
2201.000000	5.769145
2202.000000	5.715305
2203.000000	5.686187
2204.000000	5.634182
2205.000000	5.559858
2206.000000	5.512697
2207.000000	5.468958
2208.000000	5.428418
2209.000000	5.391138
2210.000000	5.382307
2211.000000	5.350440
2212.000000	5.347790
2213.000000	5.323793
2214.000000	5.328740
2215.000000	5.335300
2216.000000	5.344553
2217.000000	5.357118
2218.000000	5.371107
2219.000000	5.387030
2220.000000	5.403903
2221.000000	5.446990
2222.000000	5.490082
2223.000000	5.534420
2224.000000	5.577553
2225.000000	5.621677
2226.000000	5.664320
2227.000000	5.706165
2228.000000	5.746445
2229.000000	5.785522
2230.000000	5.822722
2231.000000	5.832308
2232.000000	5.842248
2233.000000	5.850862
2234.000000	5.857250
2235.000000	5.861482
2236.000000	5.864063
2237.000000	5.864948
2238.000000	5.864707
2239.000000	5.863565
2240.000000	5.861343
2241.000000	5.859810
2242.000000	5.854090
2243.000000	5.846825
2244.000000	5.864020
2245.000000	5.880085
2246.000000	5.871780
2247.000000	5.861803
2248.000000	5.875775
2249.000000	5.863950
2250.000000	5.877095
2251.000000	5.887618
2252.000000	5.875090
2253.000000	5.862978
2254.000000	5.824103
2255.000000	5.786940
2256.000000	5.773975
2257.000000	5.761465
2258.000000	5.724880
2259.000000	5.739043
2260.000000	5.728453
2261.000000	5.695118
2262.000000	5.687035
2263.000000	5.678565
2264.000000	5.674375
2265.000000	5.670675
2266.000000	5.668505
2267.000000	5.692130
2268.000000	5.716328
2269.000000	5.717573
2270.000000	5.719590
2271.000000	5.747167
2272.000000	5.776345
2273.000000	5.805650
2274.000000	5.809000
2275.000000	5.838457
2276.000000	5.867382
2277.000000	5.897073
2278.000000	5.902362
2279.000000	5.907105
2280.000000	5.910942
2281.000000	5.915140
2282.000000	5.917570
2283.000000	5.947040
2284.000000	5.976267
2285.000000	5.978567
2286.000000	6.006263
2287.000000	6.008607
2288.000000	6.036388
2289.000000	6.062220
2290.000000	6.064000
2291.000000	6.091502
2292.000000	6.120640
2293.000000	6.122447
2294.000000	6.149475
2295.000000	6.177200
2296.000000	6.180200
2297.000000	6.183395
2298.000000	6.185185
2299.000000	6.188587
2300.000000	6.217523
2301.000000	6.246390
2302.000000	6.249380
2303.000000	6.278915
2304.000000	6.308122
2305.000000	6.338270
2306.000000	6.368760
2307.000000	6.399915
2308.000000	6.431703
2309.000000	6.463057
2310.000000	6.494582
2311.000000	6.501610
2312.000000	6.533210
2313.000000	6.539198
2314.000000	6.545968
2315.000000	6.552260
2316.000000	6.557483
2317.000000	6.586747
2318.000000	6.590975
2319.000000	6.619928
2320.000000	6.647678
2321.000000	6.673475
2322.000000	6.699237
2323.000000	6.724813
2324.000000	6.749567
2325.000000	6.772735
2326.000000	6.795408
2327.000000	6.792980
2328.000000	6.815695
2329.000000	6.813345
2330.000000	6.810650
2331.000000	6.809162
2332.000000	6.807873
2333.000000	6.806285
2334.000000	6.804677
2335.000000	6.803820
2336.000000	6.829087
2337.000000	6.854847
2338.000000	6.855630
2339.000000	6.856415
2340.000000	6.883422
2341.000000	6.910210
2342.000000	6.911925
2343.000000	6.914208
2344.000000	6.916995
2345.000000	6.945505
2346.000000	6.923843
2347.000000	6.926968
2348.000000	6.955460
2349.000000	6.984850
2350.000000	6.988270
2351.000000	6.991445
2352.000000	6.995183
2353.000000	7.024707
2354.000000	7.078873
2355.000000	7.081598
2356.000000	7.109805
2357.000000	7.113133
2358.000000	7.115390
2359.000000	7.116658
2360.000000	7.118780
2361.000000	7.145973
2362.000000	7.172633
2363.000000	7.172918
2364.000000	7.147953
2365.000000	7.148817
2366.000000	7.149322
2367.000000	7.174563
2368.000000	7.199950
2369.000000	7.225462
2370.000000	7.251108
2371.000000	7.251937
2372.000000	7.252700
2373.000000	7.254010
2374.000000	7.255445
2375.000000	7.257117
2376.000000	7.284427
2377.000000	7.286412
2378.000000	7.262968
2379.000000	7.264455
2380.000000	7.265555
2381.000000	7.266027
2382.000000	7.266617
2383.000000	7.292060
2384.000000	7.342385
2385.000000	7.366635
2386.000000	7.389988
2387.000000	7.413330
2388.000000	7.436668
2389.000000	7.435003
2390.000000	7.407340
2391.000000	7.405180
2392.000000	7.402897
2393.000000	7.399845
2394.000000	7.396285
2395.000000	7.417810
2396.000000	7.414073
2397.000000	7.410107
2398.000000	7.431565
2399.000000	7.451872
2400.000000	7.497020
2401.000000	7.516558
2402.000000	7.560545
2403.000000	7.579945
2404.000000	7.573920
2405.000000	7.567818
2406.000000	7.535967
2407.000000	7.504100
2408.000000	7.496890
2409.000000	7.489365
2410.000000	7.481618
2411.000000	7.473397
2412.000000	7.464540
2413.000000	7.429990
2414.000000	7.396393
2415.000000	7.361595
2416.000000	7.376925
2417.000000	7.416285
2418.000000	7.404450
2419.000000	7.392510
2420.000000	7.380723
2421.000000	7.392755
2422.000000	7.404315
2423.000000	7.416163
2424.000000	7.426773
2425.000000	7.436772
2426.000000	7.445730
2427.000000	7.405775
2428.000000	7.390648
2429.000000	7.375987
2430.000000	7.361095
2431.000000	7.322118
2432.000000	7.307582
2433.000000	7.292860
2434.000000	7.277922
2435.000000	7.264045
2436.000000	7.276243
2437.000000	7.287242
2438.000000	7.323897
2439.000000	7.334375
2440.000000	7.319515
2441.000000	7.329202
2442.000000	7.340020
2443.000000	7.376818
2444.000000	7.363800
2445.000000	7.350145
2446.000000	7.311447
2447.000000	7.322787
2448.000000	7.309380
2449.000000	7.372235
2450.000000	7.434778
2451.000000	7.449587
2452.000000	7.464148
2453.000000	7.502258
2454.000000	7.589415
2455.000000	7.654240
2456.000000	7.669115
2457.000000	7.734578
2458.000000	7.775275
2459.000000	7.840172
2460.000000	7.881585
2461.000000	7.946305
2462.000000	8.036215
2463.000000	8.052605
2464.000000	8.121110
2465.000000	8.238418
2466.000000	8.431318
2467.000000	8.474683
2468.000000	8.593170
2469.000000	8.588057
2470.000000	8.658020
2471.000000	8.727240
2472.000000	8.822835
2473.000000	8.944778
2474.000000	9.016000
2475.000000	9.037108
2476.000000	9.083845
2477.000000	9.157670
2478.000000	9.255142
2479.000000	9.351443
2480.000000	9.498160
2481.000000	9.649802
2482.000000	9.699800
2483.000000	9.772335
2484.000000	9.921693
2485.000000	10.173413
2486.000000	10.323488
2487.000000	10.521838
2488.000000	10.699785
2489.000000	10.954362
2490.000000	11.112348
2491.000000	11.237830
2492.000000	11.419270
2493.000000	11.649175
2494.000000	11.830505
2495.000000	11.961868
2496.000000	12.115895
2497.000000	12.321127
2498.000000	12.497430
2499.000000	12.628558
2500.000000	12.731210
2501.000000	16.574497
2502.000000	20.588188
2503.000000	24.354418
2504.000000	28.093282
2505.000000	31.805450
2506.000000	35.521335
2507.000000	39.186208
2508.000000	43.227487
2509.000000	47.488790
2510.000000	51.900000
2511.000000	53.000000
2512.000000	53.600000
2513.000000	54.800000
2514.000000	56.200000
2515.000000	57.500000
2516.000000	58.300000
2517.000000	59.400000
2518.000000	60.500000
2519.000000	61.500000
2520.000000	62.600000
2521.000000	63.500000
2522.000000	64.300000
2523.000000	65.000000
2524.000000	65.700000
2525.000000	66.400000
2526.000000	67.700000
2527.000000	68.900000
2528.000000	69.900000
2529.000000	70.900000
2530.000000	71.600000
2531.000000	72.100000
2532.000000	73.500000
2533.000000	74.600000
2534.000000	75.600000
2535.000000	76.600000
2536.000000	77.200000
2537.000000	78.100000
2538.000000	79.200000
2539.000000	80.100000
2540.000000	81.200000
2541.000000	82.300000
2542.000000	82.600000
2543.000000	83.200000
2544.000000	83.600000
2545.000000	84.000000
2546.000000	85.300000
2547.000000	86.200000
2548.000000	85.900000
2549.000000	86.300000
2550.000000	86.800000
2551.000000	87.300000
2552.000000	87.800000
2553.000000	87.700000
2554.000000	87.700000
2555.000000	88.200000
2556.000000	87.800000
2557.000000	87.400000
2558.000000	88.300000
2559.000000	88.700000
2560.000000	89.000000
2561.000000	89.500000
2562.000000	90.100000
2563.000000	90.900000
2564.000000	91.600000
2565.000000	91.800000
2566.000000	92.300000
2567.000000	93.000000
2568.000000	93.000000
2569.000000	92.800000
2570.000000	92.900000
2571.000000	92.100000
2572.000000	91.400000
2573.000000	91.300000
2574.000000	91.300000
2575.000000	91.400000
2576.000000	91.400000
2577.000000	90.900000
2578.000000	90.700000
2579.000000	91.000000
2580.000000	91.300000
2581.000000	92.400000
2582.000000	93.700000
2583.000000	94.100000
2584.000000	94.500000
2585.000000	95.100000
2586.000000	96.300000
2587.000000	97.300000
2588.000000	98.100000
2589.000000	98.400000
2590.000000	98.200000
2591.000000	98.200000
2592.000000	98.500000
2593.000000	99.000000
2594.000000	98.800000
2595.000000	98.600000
2596.000000	97.800000
2597.000000	97.500000
2598.000000	98.300000
2599.000000	99.300000
2600.000000	99.800000
2601.000000	99.800000
2602.000000	99.300000
2603.000000	98.500000
2604.000000	98.500000
2605.000000	98.300000
2606.000000	98.700000
2607.000000	99.100000
2608.000000	98.300000
2609.000000	97.500000
2610.000000	97.500000
2611.000000	98.500000
2612.000000	99.000000
2613.000000	98.900000
2614.000000	99.200000
2615.000000	100.300000
2616.000000	100.500000
2617.000000	101.000000
2618.000000	101.900000
2619.000000	101.800000
2620.000000	101.500000
2621.000000	100.700000
2622.000000	100.200000
2623.000000	100.500000
2624.000000	100.300000
2625.000000	99.800000
2626.000000	99.200000
2627.000000	97.800000
2628.000000	96.300000
2629.000000	96.000000
2630.000000	96.200000
2631.000000	96.200000
2632.000000	96.400000
2633.000000	96.800000
2634.000000	97.600000
2635.000000	97.200000
2636.000000	97.200000
2637.000000	98.000000
2638.000000	98.700000
2639.000000	98.600000
2640.000000	98.000000
2641.000000	98.000000
2642.000000	97.500000
2643.000000	96.800000
2644.000000	96.000000
2645.000000	96.500000
2646.000000	97.100000
2647.000000	96.900000
2648.000000	96.200000
2649.000000	96.900000
2650.000000	98.500000
2651.000000	99.000000
2652.000000	99.100000
2653.000000	100.400000
2654.000000	101.100000
2655.000000	100.700000
2656.000000	100.600000
2657.000000	100.700000
2658.000000	101.600000
2659.000000	101.900000
2660.000000	101.000000
2661.000000	100.800000
2662.000000	101.400000
2663.000000	101.200000
2664.000000	100.600000
2665.000000	100.600000
2666.000000	100.700000
2667.000000	101.000000
2668.000000	101.000000
2669.000000	100.000000
2670.000000	99.200000
2671.000000	98.600000
2672.000000	98.100000
2673.000000	98.600000
2674.000000	99.100000
2675.000000	100.200000
2676.000000	100.500000
2677.000000	100.800000
2678.000000	101.400000
2679.000000	101.300000
2680.000000	101.700000
2681.000000	101.700000
2682.000000	101.600000
2683.000000	100.700000
2684.000000	100.100000
2685.000000	99.400000
2686.000000	98.400000
2687.000000	97.400000
2688.000000	97.400000
2689.000000	97.600000
2690.000000	97.900000
2691.000000	97.700000
2692.000000	97.800000
2693.000000	97.200000
2694.000000	97.000000
2695.000000	96.500000
2696.000000	97.600000
2697.000000	97.900000
2698.000000	97.200000
2699.000000	97.200000
2700.000000	98.000000
2701.000000	98.200000
2702.000000	98.100000
2703.000000	99.000000
2704.000000	98.800000
2705.000000	98.200000
2706.000000	97.300000
2707.000000	97.800000
2708.000000	97.400000
2709.000000	97.700000
2710.000000	97.000000
2711.000000	96.600000
2712.000000	95.800000
2713.000000	96.300000
2714.000000	96.900000
2715.000000	97.800000
2716.000000	98.200000
2717.000000	97.500000
2718.000000	97.800000
2719.000000	98.700000
2720.000000	98.600000
2721.000000	99.600000
2722.000000	100.800000
2723.000000	101.000000
2724.000000	101.000000
2725.000000	101.900000
2726.000000	101.500000
2727.000000	100.800000
2728.000000	100.700000
2729.000000	99.300000
2730.000000	99.400000
2731.000000	98.700000
2732.000000	98.600000
2733.000000	97.400000
2734.000000	98.300000
2735.000000	98.100000
2736.000000	98.100000
2737.000000	99.000000
2738.000000	99.300000
2739.000000	100.100000
2740.000000	99.900000
2741.000000	99.800000
2742.000000	100.300000
2743.000000	101.000000
2744.000000	100.300000
2745.000000	100.900000
2746.000000	101.400000
2747.000000	101.800000
2748.000000	102.300000
2749.000000	102.500000
2750.000000	102.700000
2751.000000	103.200000
2752.000000	102.700000
2753.000000	101.900000
2754.000000	101.700000
2755.000000	100.400000
2756.000000	99.900000
2757.000000	100.500000
2758.000000	99.700000
2759.000000	99.100000
2760.000000	98.600000
2761.000000	98.000000
2762.000000	97.800000
2763.000000	97.200000
2764.000000	97.100000
2765.000000	97.200000
2766.000000	97.800000
2767.000000	96.600000
2768.000000	96.100000
2769.000000	96.000000
2770.000000	96.800000
2771.000000	97.100000
2772.000000	97.300000
2773.000000	98.000000
2774.000000	97.500000
2775.000000	97.800000
2776.000000	97.300000
2777.000000	97.700000
2778.000000	98.100000
2779.000000	98.300000
2780.000000	98.200000
2781.000000	98.800000
2782.000000	98.800000
2783.000000	99.400000
2784.000000	100.300000
2785.000000	100.100000
2786.000000	100.400000
2787.000000	100.100000
2788.000000	100.500000
2789.000000	101.500000
2790.000000	101.600000
2791.000000	100.800000
2792.000000	101.200000
2793.000000	100.800000
2794.000000	100.600000
2795.000000	100.300000
2796.000000	100.300000
2797.000000	100.400000
2798.000000	100.600000
2799.000000	100.000000
2800.000000	99.200000
2801.000000	99.300000
2802.000000	98.900000
2803.000000	98.700000
2804.000000	98.600000
2805.000000	98.200000
2806.000000	97.400000
2807.000000	97.400000
2808.000000	97.000000
2809.000000	97.000000
2810.000000	97.700000
2811.000000	98.200000
2812.000000	98.600000
2813.000000	98.700000
2814.000000	99.400000
2815.000000	99.500000
2816.000000	100.500000
2817.000000	101.200000
2818.000000	101.100000
2819.000000	100.900000
2820.000000	100.800000
2821.000000	100.600000
2822.000000	100.500000
2823.000000	101.100000
2824.000000	101.100000
2825.000000	101.600000
2826.000000	101.900000
2827.000000	102.100000
2828.000000	102.300000
2829.000000	102.300000
2830.000000	101.800000
2831.000000	101.200000
2832.000000	100.400000
2833.000000	99.600000
2834.000000	99.400000
2835.000000	99.600000
2836.000000	99.200000
2837.000000	98.300000
2838.000000	98.200000
2839.000000	98.100000
2840.000000	97.700000
2841.000000	97.900000
2842.000000	98.200000
2843.000000	98.400000
2844.000000	97.800000
2845.000000	97.000000
2846.000000	97.000000
2847.000000	97.200000
2848.000000	97.400000
2849.000000	97.600000
2850.000000	97.700000
2851.000000	97.500000
2852.000000	97.800000
2853.000000	97.900000
2854.000000	97.900000
2855.000000	98.000000
2856.000000	97.600000
2857.000000	98.000000
2858.000000	98.300000
2859.000000	98.300000
2860.000000	99.100000
2861.000000	99.800000
2862.000000	99.800000
2863.000000	99.500000
2864.000000	99.500000
2865.000000	100.000000
2866.000000	100.000000
2867.000000	99.700000
2868.000000	99.500000
2869.000000	98.800000
2870.000000	98.000000
2871.000000	97.900000
2872.000000	97.300000
2873.000000	97.100000
2874.000000	97.100000
2875.000000	96.400000
2876.000000	96.300000
2877.000000	96.500000
2878.000000	96.800000
2879.000000	97.600000
2880.000000	98.500000
2881.000000	98.300000
2882.000000	98.700000
2883.000000	99.200000
2884.000000	99.400000
2885.000000	99.800000
2886.000000	99.500000
2887.000000	98.700000
2888.000000	97.900000
2889.000000	97.700000
2890.000000	97.400000
2891.000000	97.600000
2892.000000	98.100000
2893.000000	98.500000
2894.000000	98.400000
2895.000000	98.300000
2896.000000	98.800000
2897.000000	99.100000
2898.000000	99.000000
2899.000000	98.700000
2900.000000	98.200000
2901.000000	97.700000
2902.000000	97.000000
2903.000000	96.300000
2904.000000	95.900000
2905.000000	95.900000
2906.000000	96.000000
2907.000000	96.000000
2908.000000	96.200000
2909.000000	95.900000
2910.000000	96.100000
2911.000000	96.600000
2912.000000	96.500000
2913.000000	96.600000
2914.000000	96.500000
2915.000000	95.700000
2916.000000	95.600000
2917.000000	95.500000
2918.000000	95.200000
2919.000000	95.900000
2920.000000	96.900000
2921.000000	97.100000
2922.000000	97.200000
2923.000000	96.800000
2924.000000	96.800000
2925.000000	99.000000
2926.000000	99.500000
2927.000000	99.600000
2928.000000	99.800000
2929.000000	99.600000
2930.000000	99.000000
2931.000000	98.800000
2932.000000	100.100000
2933.000000	101.200000
2934.000000	101.000000
2935.000000	99.400000
2936.000000	98.600000
2937.000000	98.700000
2938.000000	98.100000
2939.000000	97.600000
2940.000000	97.100000
2941.000000	96.300000
2942.000000	95.100000
2943.000000	94.700000
2944.000000	95.200000
2945.000000	94.900000
2946.000000	95.700000
2947.000000	95.900000
2948.000000	96.100000
2949.000000	96.800000
2950.000000	97.100000
2951.000000	97.500000
2952.000000	98.000000
2953.000000	97.300000
2954.000000	97.200000
2955.000000	98.000000
2956.000000	97.500000
2957.000000	97.500000
2958.000000	97.300000
2959.000000	96.800000
2960.000000	96.600000
2961.000000	96.100000
2962.000000	95.100000
2963.000000	95.400000
2964.000000	95.200000
2965.000000	95.300000
2966.000000	95.200000
2967.000000	95.100000
2968.000000	95.700000
2969.000000	96.000000
2970.000000	95.200000
2971.000000	95.400000
2972.000000	97.400000
2973.000000	97.600000
2974.000000	98.300000
2975.000000	97.900000
2976.000000	98.000000
2977.000000	97.500000
2978.000000	96.900000
2979.000000	96.300000
2980.000000	97.000000
2981.000000	97.100000
2982.000000	95.800000
2983.000000	96.700000
2984.000000	96.500000
2985.000000	96.500000
2986.000000	96.500000
2987.000000	96.600000
2988.000000	96.800000
2989.000000	97.300000
2990.000000	97.500000
2991.000000	97.000000
2992.000000	96.900000
2993.000000	95.500000
2994.000000	95.100000
2995.000000	95.100000
2996.000000	94.700000
2997.000000	94.500000
2998.000000	94.600000
2999.000000	93.900000
3000.000000	93.900000
