PE UV       SUBTECH     SPECTRUM    ASCII       PEDS        4.00        
   -1
INBUCR0136-4.Sample.ASC
24/02/07
14:46:10.00
24/02/07
14:46:10.00
Vinicio Soto Monge
Pelidnota parallela. Color café con ambos élitros. Pelidnota parallela. Det: A. Solís. COSTA RICA, Prov. Puntarenas. Estación Altamira. 1 km. S del Cerro Biolley. 1450 m. 7 ABR - 10 MAY 1997 #46227. INBIOCRI002538670
250,000000
1
Lambda 1050
1050L1511233
PerkinElmer UV WinLab 6.3.2.0749 / 2.02.05 Lambda 900 UV/VIS/NIR, Aug  7 2015 09:38:08

0
0
3350/servo 860,8/2
0
0
UV/VIS
1
1
1
DoubleDePol,CommonBeamDepol,RBeamAtt,SBeamAtt,60mm sphere, WB InGaAs Detector
0
0
0
0
Program
Program
3350/servo 860,8/2
3350/0,2 860,8/0,2
3350/0,2 860,8/0,2
0
15.00
 
 
 
0
 
860,8
319,2
860,8
Front
100
on
S:100 R:100
0
0
0
0
 
0
 
 
 
0
 
 
0
0
0
0
0
 
 
 
 
0
0


0
0
#HDR
-1
-1
#GR
nm
%R
1.0
0.0
2500,000000
-1,000000
2251
8
15,055700
0,974600
#DATA

250.000000	nan
251.000000	nan
252.000000	nan
253.000000	nan
254.000000	nan
255.000000	nan
256.000000	nan
257.000000	nan
258.000000	nan
259.000000	4.013523
260.000000	4.004291
261.000000	3.996501
262.000000	3.986316
263.000000	3.972853
264.000000	3.961119
265.000000	3.948360
266.000000	3.933174
267.000000	3.921761
268.000000	3.908667
269.000000	3.895491
270.000000	3.879737
271.000000	3.864517
272.000000	3.850592
273.000000	3.838120
274.000000	3.826368
275.000000	3.815075
276.000000	3.805266
277.000000	3.793918
278.000000	3.783276
279.000000	3.775109
280.000000	3.768406
281.000000	3.761769
282.000000	3.755154
283.000000	3.752966
284.000000	3.748636
285.000000	3.743904
286.000000	3.739616
287.000000	3.738385
288.000000	3.735070
289.000000	3.734253
290.000000	3.732708
291.000000	3.730167
292.000000	3.729237
293.000000	3.724714
294.000000	3.722546
295.000000	3.720429
296.000000	3.720644
297.000000	3.716240
298.000000	3.714525
299.000000	3.712641
300.000000	3.708839
301.000000	3.704920
302.000000	3.699824
303.000000	3.695644
304.000000	3.691471
305.000000	3.690361
306.000000	3.685442
307.000000	3.681790
308.000000	3.679736
309.000000	3.675492
310.000000	3.673845
311.000000	3.671321
312.000000	3.668540
313.000000	3.670077
314.000000	3.668128
315.000000	3.665645
316.000000	3.665852
317.000000	3.689395
318.000000	3.712064
319.000000	3.742735
320.000000	3.771753
321.000000	3.793929
322.000000	3.817801
323.000000	3.838029
324.000000	3.869197
325.000000	3.888443
326.000000	3.907358
327.000000	3.899483
328.000000	3.891699
329.000000	3.873130
330.000000	3.859959
331.000000	3.848826
332.000000	3.835858
333.000000	3.822968
334.000000	3.805947
335.000000	3.796426
336.000000	3.782628
337.000000	3.775304
338.000000	3.766770
339.000000	3.756218
340.000000	3.740740
341.000000	3.737093
342.000000	3.731089
343.000000	3.722787
344.000000	3.714862
345.000000	3.709116
346.000000	3.705680
347.000000	3.697337
348.000000	3.696987
349.000000	3.696154
350.000000	3.694708
351.000000	3.689180
352.000000	3.685896
353.000000	3.686031
354.000000	3.682134
355.000000	3.680044
356.000000	3.675575
357.000000	3.675746
358.000000	3.667334
359.000000	3.660071
360.000000	3.656772
361.000000	3.653437
362.000000	3.651912
363.000000	3.644784
364.000000	3.637982
365.000000	3.631586
366.000000	3.630917
367.000000	3.626614
368.000000	3.622191
369.000000	3.620941
370.000000	3.617954
371.000000	3.607793
372.000000	3.599665
373.000000	3.592808
374.000000	3.582059
375.000000	3.569845
376.000000	3.565314
377.000000	3.553667
378.000000	3.543503
379.000000	3.533376
380.000000	3.523699
381.000000	3.518775
382.000000	3.512438
383.000000	3.508599
384.000000	3.507086
385.000000	3.507524
386.000000	3.498213
387.000000	3.496191
388.000000	3.494863
389.000000	3.494448
390.000000	3.493847
391.000000	3.493193
392.000000	3.492262
393.000000	3.491719
394.000000	3.491871
395.000000	3.490936
396.000000	3.490085
397.000000	3.490034
398.000000	3.489891
399.000000	3.488693
400.000000	3.487634
401.000000	3.486929
402.000000	3.486176
403.000000	3.485847
404.000000	3.485654
405.000000	3.486297
406.000000	3.486673
407.000000	3.486933
408.000000	3.487636
409.000000	3.488709
410.000000	3.490140
411.000000	3.492207
412.000000	3.494899
413.000000	3.497707
414.000000	3.500917
415.000000	3.504870
416.000000	3.509294
417.000000	3.514565
418.000000	3.520837
419.000000	3.527962
420.000000	3.535860
421.000000	3.544631
422.000000	3.554399
423.000000	3.565668
424.000000	3.577911
425.000000	3.590668
426.000000	3.604745
427.000000	3.620042
428.000000	3.636060
429.000000	3.652958
430.000000	3.670385
431.000000	3.688449
432.000000	3.707154
433.000000	3.726181
434.000000	3.745607
435.000000	3.765864
436.000000	3.786569
437.000000	3.807302
438.000000	3.828367
439.000000	3.850098
440.000000	3.872495
441.000000	3.895673
442.000000	3.919528
443.000000	3.943481
444.000000	3.968507
445.000000	3.994167
446.000000	4.020516
447.000000	4.047184
448.000000	4.074297
449.000000	4.102209
450.000000	4.130650
451.000000	4.159239
452.000000	4.188333
453.000000	4.218227
454.000000	4.248222
455.000000	4.278574
456.000000	4.309238
457.000000	4.341016
458.000000	4.373357
459.000000	4.405653
460.000000	4.438432
461.000000	4.471859
462.000000	4.505530
463.000000	4.539965
464.000000	4.574912
465.000000	4.609969
466.000000	4.645392
467.000000	4.680874
468.000000	4.716914
469.000000	4.753474
470.000000	4.790226
471.000000	4.827294
472.000000	4.864649
473.000000	4.901806
474.000000	4.939306
475.000000	4.977502
476.000000	5.015859
477.000000	5.054375
478.000000	5.093255
479.000000	5.132353
480.000000	5.171545
481.000000	5.210619
482.000000	5.249497
483.000000	5.288964
484.000000	5.329152
485.000000	5.369794
486.000000	5.410725
487.000000	5.452326
488.000000	5.494562
489.000000	5.537631
490.000000	5.581705
491.000000	5.626350
492.000000	5.672201
493.000000	5.718769
494.000000	5.765403
495.000000	5.812335
496.000000	5.860343
497.000000	5.908738
498.000000	5.957488
499.000000	6.006373
500.000000	6.055499
501.000000	6.106087
502.000000	6.157200
503.000000	6.208599
504.000000	6.260601
505.000000	6.313626
506.000000	6.366811
507.000000	6.420369
508.000000	6.474502
509.000000	6.529316
510.000000	6.585113
511.000000	6.640666
512.000000	6.696632
513.000000	6.753173
514.000000	6.810593
515.000000	6.868316
516.000000	6.926806
517.000000	6.985963
518.000000	7.045872
519.000000	7.106179
520.000000	7.167469
521.000000	7.229977
522.000000	7.293093
523.000000	7.356789
524.000000	7.421189
525.000000	7.486442
526.000000	7.552714
527.000000	7.620183
528.000000	7.688194
529.000000	7.757468
530.000000	7.827175
531.000000	7.898056
532.000000	7.969936
533.000000	8.043293
534.000000	8.117710
535.000000	8.193023
536.000000	8.269528
537.000000	8.346578
538.000000	8.424722
539.000000	8.504158
540.000000	8.583991
541.000000	8.664138
542.000000	8.745570
543.000000	8.827702
544.000000	8.910886
545.000000	8.994542
546.000000	9.078628
547.000000	9.163794
548.000000	9.249733
549.000000	9.335371
550.000000	9.422395
551.000000	9.510014
552.000000	9.597715
553.000000	9.685969
554.000000	9.774677
555.000000	9.863708
556.000000	9.953399
557.000000	10.043498
558.000000	10.134217
559.000000	10.224874
560.000000	10.313171
561.000000	10.401169
562.000000	10.489368
563.000000	10.578182
564.000000	10.666828
565.000000	10.756689
566.000000	10.846439
567.000000	10.936767
568.000000	11.027403
569.000000	11.119661
570.000000	11.214343
571.000000	11.310799
572.000000	11.408185
573.000000	11.506094
574.000000	11.604858
575.000000	11.703982
576.000000	11.803947
577.000000	11.904284
578.000000	12.005008
579.000000	12.106355
580.000000	12.208895
581.000000	12.311293
582.000000	12.414584
583.000000	12.517849
584.000000	12.622174
585.000000	12.726790
586.000000	12.832024
587.000000	12.937942
588.000000	13.043901
589.000000	13.149843
590.000000	13.256484
591.000000	13.364184
592.000000	13.472503
593.000000	13.581789
594.000000	13.690696
595.000000	13.800111
596.000000	13.909680
597.000000	14.019238
598.000000	14.130336
599.000000	14.241842
600.000000	14.354344
601.000000	14.467644
602.000000	14.579869
603.000000	14.693515
604.000000	14.806746
605.000000	14.921265
606.000000	15.036614
607.000000	15.152968
608.000000	15.269391
609.000000	15.385484
610.000000	15.501406
611.000000	15.617608
612.000000	15.736276
613.000000	15.854675
614.000000	15.974430
615.000000	16.093806
616.000000	16.213096
617.000000	16.332365
618.000000	16.451545
619.000000	16.571934
620.000000	16.693179
621.000000	16.814190
622.000000	16.934404
623.000000	17.053030
624.000000	17.173039
625.000000	17.292743
626.000000	17.413680
627.000000	17.535469
628.000000	17.657906
629.000000	17.780408
630.000000	17.902901
631.000000	18.025643
632.000000	18.149812
633.000000	18.275950
634.000000	18.401583
635.000000	18.528553
636.000000	18.655112
637.000000	18.782387
638.000000	18.910195
639.000000	19.039260
640.000000	19.168074
641.000000	19.297929
642.000000	19.428225
643.000000	19.558407
644.000000	19.689811
645.000000	19.821463
646.000000	19.953791
647.000000	20.086519
648.000000	20.220641
649.000000	20.355257
650.000000	20.490972
651.000000	20.626714
652.000000	20.761642
653.000000	20.898135
654.000000	21.035487
655.000000	21.173273
656.000000	21.311897
657.000000	21.450836
658.000000	21.587977
659.000000	21.724818
660.000000	21.861876
661.000000	21.999525
662.000000	22.138324
663.000000	22.276709
664.000000	22.414483
665.000000	22.551263
666.000000	22.687631
667.000000	22.824432
668.000000	22.962406
669.000000	23.100427
670.000000	23.237175
671.000000	23.373955
672.000000	23.509720
673.000000	23.645621
674.000000	23.780513
675.000000	23.916388
676.000000	24.052094
677.000000	24.186706
678.000000	24.320442
679.000000	24.454562
680.000000	24.588798
681.000000	24.721834
682.000000	24.854911
683.000000	24.987571
684.000000	25.120035
685.000000	25.251497
686.000000	25.383083
687.000000	25.513306
688.000000	25.643578
689.000000	25.772065
690.000000	25.900512
691.000000	26.029098
692.000000	26.158048
693.000000	26.285778
694.000000	26.413674
695.000000	26.541858
696.000000	26.668580
697.000000	26.794814
698.000000	26.920401
699.000000	27.047105
700.000000	27.173275
701.000000	27.297342
702.000000	27.420254
703.000000	27.544367
704.000000	27.668205
705.000000	27.789888
706.000000	27.911366
707.000000	28.032119
708.000000	28.153905
709.000000	28.275724
710.000000	28.396864
711.000000	28.519113
712.000000	28.641535
713.000000	28.761314
714.000000	28.880320
715.000000	29.000008
716.000000	29.120124
717.000000	29.241558
718.000000	29.360591
719.000000	29.480248
720.000000	29.601060
721.000000	29.721201
722.000000	29.840456
723.000000	29.960148
724.000000	30.080273
725.000000	30.201204
726.000000	30.320809
727.000000	30.439198
728.000000	30.560239
729.000000	30.679912
730.000000	30.797867
731.000000	30.915596
732.000000	31.033094
733.000000	31.150325
734.000000	31.267136
735.000000	31.384128
736.000000	31.500074
737.000000	31.615442
738.000000	31.730443
739.000000	31.846229
740.000000	31.962414
741.000000	32.079014
742.000000	32.194694
743.000000	32.311999
744.000000	32.428533
745.000000	32.543186
746.000000	32.661350
747.000000	32.780269
748.000000	32.896695
749.000000	33.011774
750.000000	33.127777
751.000000	33.244476
752.000000	33.361028
753.000000	33.476885
754.000000	33.594079
755.000000	33.711685
756.000000	33.826142
757.000000	33.940227
758.000000	34.056144
759.000000	34.172079
760.000000	34.287023
761.000000	34.403708
762.000000	34.520747
763.000000	34.637568
764.000000	34.752378
765.000000	34.864921
766.000000	34.977884
767.000000	35.091253
768.000000	35.205754
769.000000	35.321382
770.000000	35.436129
771.000000	35.547717
772.000000	35.660815
773.000000	35.774306
774.000000	35.886364
775.000000	36.000982
776.000000	36.116286
777.000000	36.232612
778.000000	36.346329
779.000000	36.458619
780.000000	36.572297
781.000000	36.686721
782.000000	36.796707
783.000000	36.909971
784.000000	37.027954
785.000000	37.143769
786.000000	37.256957
787.000000	37.367034
788.000000	37.477769
789.000000	37.587457
790.000000	37.698486
791.000000	37.809721
792.000000	37.923301
793.000000	38.032330
794.000000	38.138015
795.000000	38.244602
796.000000	38.353817
797.000000	38.462969
798.000000	38.574189
799.000000	38.683463
800.000000	38.789492
801.000000	38.895110
802.000000	39.001728
803.000000	39.109481
804.000000	39.213409
805.000000	39.322242
806.000000	39.428891
807.000000	39.535833
808.000000	39.637370
809.000000	39.741244
810.000000	39.846432
811.000000	39.950394
812.000000	40.056907
813.000000	40.160936
814.000000	40.263773
815.000000	40.360447
816.000000	40.461949
817.000000	40.562082
818.000000	40.658553
819.000000	40.756338
820.000000	40.848689
821.000000	40.941934
822.000000	41.026738
823.000000	41.113221
824.000000	41.201016
825.000000	41.293742
826.000000	41.380734
827.000000	41.469167
828.000000	41.559211
829.000000	41.643035
830.000000	41.732150
831.000000	41.814107
832.000000	41.897560
833.000000	41.971630
834.000000	42.048191
835.000000	42.119989
836.000000	42.189229
837.000000	42.257800
838.000000	42.328460
839.000000	42.396856
840.000000	42.459776
841.000000	42.517075
842.000000	42.580795
843.000000	42.641169
844.000000	42.693767
845.000000	42.747963
846.000000	42.801130
847.000000	42.864594
848.000000	42.917821
849.000000	42.970520
850.000000	43.015131
851.000000	43.053970
852.000000	43.105717
853.000000	43.158398
854.000000	43.190755
855.000000	43.217177
856.000000	43.263324
857.000000	43.292214
858.000000	43.489998
859.000000	43.589820
860.000000	43.719656
861.000000	43.864420
862.000000	43.967591
863.000000	44.090870
864.000000	44.223266
865.000000	44.351741
866.000000	44.455367
867.000000	44.559084
868.000000	44.505387
869.000000	44.551618
870.000000	44.567963
871.000000	44.577010
872.000000	44.595793
873.000000	44.601852
874.000000	44.624023
875.000000	44.636467
876.000000	44.656748
877.000000	44.679745
878.000000	44.691535
879.000000	44.702948
880.000000	44.721425
881.000000	44.730538
882.000000	44.752140
883.000000	44.763532
884.000000	44.772290
885.000000	44.789400
886.000000	44.804350
887.000000	44.814310
888.000000	44.828965
889.000000	44.834980
890.000000	44.846407
891.000000	44.861187
892.000000	44.866217
893.000000	44.867770
894.000000	44.873525
895.000000	44.878438
896.000000	44.884190
897.000000	44.888890
898.000000	44.886865
899.000000	44.886328
900.000000	44.876655
901.000000	44.877515
902.000000	44.882800
903.000000	44.893940
904.000000	44.895933
905.000000	44.897787
906.000000	44.893268
907.000000	44.896280
908.000000	44.900310
909.000000	44.911930
910.000000	44.923243
911.000000	44.937065
912.000000	44.947767
913.000000	44.960538
914.000000	44.975617
915.000000	44.998698
916.000000	45.021947
917.000000	45.039075
918.000000	45.060750
919.000000	45.078457
920.000000	45.093077
921.000000	45.103610
922.000000	45.117835
923.000000	45.135030
924.000000	45.152370
925.000000	45.164525
926.000000	45.179400
927.000000	45.195842
928.000000	45.209762
929.000000	45.221385
930.000000	45.236142
931.000000	45.251270
932.000000	45.264460
933.000000	45.276605
934.000000	45.289230
935.000000	45.298275
936.000000	45.304240
937.000000	45.309065
938.000000	45.315202
939.000000	45.321928
940.000000	45.328807
941.000000	45.332875
942.000000	45.337083
943.000000	45.336778
944.000000	45.335760
945.000000	45.336385
946.000000	45.339353
947.000000	45.343915
948.000000	45.348665
949.000000	45.352370
950.000000	45.352868
951.000000	45.355882
952.000000	45.359880
953.000000	45.365662
954.000000	45.369650
955.000000	45.372943
956.000000	45.371935
957.000000	45.371057
958.000000	45.369740
959.000000	45.368200
960.000000	45.368855
961.000000	45.366972
962.000000	45.363932
963.000000	45.359590
964.000000	45.354827
965.000000	45.352580
966.000000	45.351165
967.000000	45.346412
968.000000	45.342062
969.000000	45.339985
970.000000	45.334740
971.000000	45.329237
972.000000	45.323867
973.000000	45.318985
974.000000	45.314210
975.000000	45.306532
976.000000	45.300512
977.000000	45.294915
978.000000	45.286780
979.000000	45.276855
980.000000	45.271098
981.000000	45.264562
982.000000	45.254965
983.000000	45.245117
984.000000	45.236585
985.000000	45.229982
986.000000	45.221393
987.000000	45.212592
988.000000	45.206280
989.000000	45.200802
990.000000	45.194525
991.000000	45.189010
992.000000	45.186300
993.000000	45.183572
994.000000	45.179230
995.000000	45.174315
996.000000	45.172240
997.000000	45.172783
998.000000	45.170130
999.000000	45.166965
1000.000000	45.164097
1001.000000	45.159957
1002.000000	45.155275
1003.000000	45.150633
1004.000000	45.147422
1005.000000	45.143377
1006.000000	45.136280
1007.000000	45.127442
1008.000000	45.120938
1009.000000	45.114308
1010.000000	45.106955
1011.000000	45.100930
1012.000000	45.094738
1013.000000	45.088568
1014.000000	45.083028
1015.000000	45.078140
1016.000000	45.075317
1017.000000	45.073090
1018.000000	45.071805
1019.000000	45.071683
1020.000000	45.072413
1021.000000	45.074965
1022.000000	45.078765
1023.000000	45.083948
1024.000000	45.090333
1025.000000	45.098280
1026.000000	45.107140
1027.000000	45.116390
1028.000000	45.125575
1029.000000	45.135775
1030.000000	45.146608
1031.000000	45.157243
1032.000000	45.168613
1033.000000	45.180285
1034.000000	45.190845
1035.000000	45.202235
1036.000000	45.214563
1037.000000	45.226768
1038.000000	45.238003
1039.000000	45.248715
1040.000000	45.260352
1041.000000	45.272113
1042.000000	45.283243
1043.000000	45.293920
1044.000000	45.304635
1045.000000	45.314487
1046.000000	45.322677
1047.000000	45.331868
1048.000000	45.343077
1049.000000	45.354745
1050.000000	45.365310
1051.000000	45.375220
1052.000000	45.385753
1053.000000	45.397697
1054.000000	45.410007
1055.000000	45.423457
1056.000000	45.439095
1057.000000	45.454147
1058.000000	45.467720
1059.000000	45.481650
1060.000000	45.497192
1061.000000	45.512543
1062.000000	45.528612
1063.000000	45.544135
1064.000000	45.559818
1065.000000	45.575045
1066.000000	45.589380
1067.000000	45.604615
1068.000000	45.621513
1069.000000	45.638435
1070.000000	45.654405
1071.000000	45.669480
1072.000000	45.684235
1073.000000	45.699735
1074.000000	45.714960
1075.000000	45.731133
1076.000000	45.745485
1077.000000	45.758475
1078.000000	45.771142
1079.000000	45.783260
1080.000000	45.795700
1081.000000	45.808450
1082.000000	45.819985
1083.000000	45.829693
1084.000000	45.840193
1085.000000	45.849550
1086.000000	45.859245
1087.000000	45.868762
1088.000000	45.876118
1089.000000	45.884605
1090.000000	45.891553
1091.000000	45.896857
1092.000000	45.901452
1093.000000	45.906077
1094.000000	45.909862
1095.000000	45.912883
1096.000000	45.915643
1097.000000	45.917230
1098.000000	45.919897
1099.000000	45.919848
1100.000000	45.918902
1101.000000	45.920000
1102.000000	45.921357
1103.000000	45.922195
1104.000000	45.921022
1105.000000	45.918885
1106.000000	45.915420
1107.000000	45.913043
1108.000000	45.908358
1109.000000	45.903625
1110.000000	45.899163
1111.000000	45.893287
1112.000000	45.885737
1113.000000	45.877605
1114.000000	45.868093
1115.000000	45.858022
1116.000000	45.847115
1117.000000	45.834238
1118.000000	45.820385
1119.000000	45.804733
1120.000000	45.785277
1121.000000	45.764133
1122.000000	45.738993
1123.000000	45.711373
1124.000000	45.681525
1125.000000	45.647140
1126.000000	45.608777
1127.000000	45.565470
1128.000000	45.517938
1129.000000	45.465260
1130.000000	45.407388
1131.000000	45.341310
1132.000000	45.269708
1133.000000	45.194905
1134.000000	45.116432
1135.000000	45.033608
1136.000000	44.945298
1137.000000	44.853470
1138.000000	44.758477
1139.000000	44.662235
1140.000000	44.567075
1141.000000	44.473143
1142.000000	44.381887
1143.000000	44.289110
1144.000000	44.197745
1145.000000	44.109725
1146.000000	44.026477
1147.000000	43.946650
1148.000000	43.869220
1149.000000	43.792695
1150.000000	43.714807
1151.000000	43.640230
1152.000000	43.565640
1153.000000	43.489890
1154.000000	43.411298
1155.000000	43.327613
1156.000000	43.239562
1157.000000	43.147255
1158.000000	43.050018
1159.000000	42.946940
1160.000000	42.841503
1161.000000	42.728455
1162.000000	42.610833
1163.000000	42.489930
1164.000000	42.365163
1165.000000	42.240308
1166.000000	42.113853
1167.000000	41.987088
1168.000000	41.861260
1169.000000	41.740645
1170.000000	41.622175
1171.000000	41.507987
1172.000000	41.398145
1173.000000	41.294825
1174.000000	41.197473
1175.000000	41.105765
1176.000000	41.020730
1177.000000	40.940605
1178.000000	40.866088
1179.000000	40.793908
1180.000000	40.725917
1181.000000	40.662195
1182.000000	40.602475
1183.000000	40.544728
1184.000000	40.492987
1185.000000	40.445865
1186.000000	40.405073
1187.000000	40.370608
1188.000000	40.343530
1189.000000	40.324650
1190.000000	40.315868
1191.000000	40.315552
1192.000000	40.324517
1193.000000	40.342223
1194.000000	40.365797
1195.000000	40.396345
1196.000000	40.431475
1197.000000	40.471683
1198.000000	40.514340
1199.000000	40.558988
1200.000000	40.603785
1201.000000	40.647870
1202.000000	40.690883
1203.000000	40.733357
1204.000000	40.774860
1205.000000	40.814945
1206.000000	40.853797
1207.000000	40.890895
1208.000000	40.928830
1209.000000	40.966732
1210.000000	41.003498
1211.000000	41.039857
1212.000000	41.077208
1213.000000	41.114812
1214.000000	41.152510
1215.000000	41.189580
1216.000000	41.227213
1217.000000	41.265685
1218.000000	41.303660
1219.000000	41.341640
1220.000000	41.379358
1221.000000	41.417957
1222.000000	41.455957
1223.000000	41.493633
1224.000000	41.530740
1225.000000	41.568512
1226.000000	41.606538
1227.000000	41.643677
1228.000000	41.678955
1229.000000	41.713985
1230.000000	41.748368
1231.000000	41.781490
1232.000000	41.812285
1233.000000	41.841548
1234.000000	41.870260
1235.000000	41.897215
1236.000000	41.922688
1237.000000	41.947145
1238.000000	41.971732
1239.000000	41.995078
1240.000000	42.018648
1241.000000	42.042783
1242.000000	42.067327
1243.000000	42.092100
1244.000000	42.118300
1245.000000	42.145232
1246.000000	42.172975
1247.000000	42.201290
1248.000000	42.229820
1249.000000	42.258830
1250.000000	42.287585
1251.000000	42.315895
1252.000000	42.344165
1253.000000	42.370505
1254.000000	42.394253
1255.000000	42.417045
1256.000000	42.437227
1257.000000	42.455643
1258.000000	42.471528
1259.000000	42.485192
1260.000000	42.496958
1261.000000	42.506065
1262.000000	42.513413
1263.000000	42.520005
1264.000000	42.525642
1265.000000	42.529005
1266.000000	42.531878
1267.000000	42.533583
1268.000000	42.534600
1269.000000	42.534833
1270.000000	42.533592
1271.000000	42.532100
1272.000000	42.530910
1273.000000	42.529085
1274.000000	42.526643
1275.000000	42.524857
1276.000000	42.522780
1277.000000	42.520870
1278.000000	42.520798
1279.000000	42.521640
1280.000000	42.524633
1281.000000	42.529980
1282.000000	42.536440
1283.000000	42.545655
1284.000000	42.557088
1285.000000	42.568885
1286.000000	42.581930
1287.000000	42.596277
1288.000000	42.610423
1289.000000	42.624402
1290.000000	42.638340
1291.000000	42.651748
1292.000000	42.664600
1293.000000	42.675695
1294.000000	42.685607
1295.000000	42.694810
1296.000000	42.703292
1297.000000	42.710695
1298.000000	42.716115
1299.000000	42.720560
1300.000000	42.723653
1301.000000	42.725280
1302.000000	42.725187
1303.000000	42.723440
1304.000000	42.720278
1305.000000	42.715717
1306.000000	42.709798
1307.000000	42.702132
1308.000000	42.693148
1309.000000	42.681660
1310.000000	42.667912
1311.000000	42.651885
1312.000000	42.633007
1313.000000	42.612260
1314.000000	42.588792
1315.000000	42.563293
1316.000000	42.534885
1317.000000	42.503878
1318.000000	42.471480
1319.000000	42.438722
1320.000000	42.404765
1321.000000	42.368218
1322.000000	42.330455
1323.000000	42.290955
1324.000000	42.248630
1325.000000	42.203048
1326.000000	42.155780
1327.000000	42.106993
1328.000000	42.054952
1329.000000	41.999268
1330.000000	41.939685
1331.000000	41.877655
1332.000000	41.811328
1333.000000	41.740578
1334.000000	41.667145
1335.000000	41.591700
1336.000000	41.512080
1337.000000	41.427538
1338.000000	41.338873
1339.000000	41.246850
1340.000000	41.151810
1341.000000	41.052245
1342.000000	40.949102
1343.000000	40.842448
1344.000000	40.732093
1345.000000	40.616185
1346.000000	40.498105
1347.000000	40.378240
1348.000000	40.255043
1349.000000	40.127755
1350.000000	39.996887
1351.000000	39.864333
1352.000000	39.730843
1353.000000	39.599272
1354.000000	39.471187
1355.000000	39.347010
1356.000000	39.224032
1357.000000	39.103345
1358.000000	38.986315
1359.000000	38.873908
1360.000000	38.770688
1361.000000	38.676797
1362.000000	38.584945
1363.000000	38.492100
1364.000000	38.399725
1365.000000	38.305735
1366.000000	38.207352
1367.000000	38.109157
1368.000000	38.007540
1369.000000	37.898807
1370.000000	37.778438
1371.000000	37.643210
1372.000000	37.495455
1373.000000	37.334357
1374.000000	37.155978
1375.000000	36.965178
1376.000000	36.762537
1377.000000	36.543707
1378.000000	36.312565
1379.000000	36.077003
1380.000000	35.837985
1381.000000	35.604278
1382.000000	35.379595
1383.000000	35.165755
1384.000000	34.959407
1385.000000	34.761623
1386.000000	34.577232
1387.000000	34.408798
1388.000000	34.253552
1389.000000	34.102792
1390.000000	33.958800
1391.000000	33.817845
1392.000000	33.680677
1393.000000	33.544957
1394.000000	33.418568
1395.000000	33.298793
1396.000000	33.174925
1397.000000	33.039580
1398.000000	32.901148
1399.000000	32.768133
1400.000000	32.637357
1401.000000	32.492820
1402.000000	32.335167
1403.000000	32.169150
1404.000000	31.993203
1405.000000	31.805682
1406.000000	31.614142
1407.000000	31.421700
1408.000000	31.225308
1409.000000	31.016962
1410.000000	30.795465
1411.000000	30.575657
1412.000000	30.360530
1413.000000	30.149830
1414.000000	29.939902
1415.000000	29.727885
1416.000000	29.517952
1417.000000	29.315302
1418.000000	29.119285
1419.000000	28.930843
1420.000000	28.747400
1421.000000	28.569437
1422.000000	28.397780
1423.000000	28.230318
1424.000000	28.067465
1425.000000	27.913665
1426.000000	27.765612
1427.000000	27.622290
1428.000000	27.481422
1429.000000	27.343563
1430.000000	27.214852
1431.000000	27.094950
1432.000000	26.978645
1433.000000	26.865127
1434.000000	26.755890
1435.000000	26.649750
1436.000000	26.549637
1437.000000	26.452463
1438.000000	26.358693
1439.000000	26.269480
1440.000000	26.183125
1441.000000	26.096393
1442.000000	26.013782
1443.000000	25.934017
1444.000000	25.856830
1445.000000	25.784987
1446.000000	25.712970
1447.000000	25.639910
1448.000000	25.567372
1449.000000	25.497680
1450.000000	25.429900
1451.000000	25.363522
1452.000000	25.295885
1453.000000	25.228515
1454.000000	25.161515
1455.000000	25.093273
1456.000000	25.026125
1457.000000	24.960065
1458.000000	24.895275
1459.000000	24.829515
1460.000000	24.762037
1461.000000	24.695383
1462.000000	24.629517
1463.000000	24.564028
1464.000000	24.498480
1465.000000	24.433698
1466.000000	24.370710
1467.000000	24.307942
1468.000000	24.244370
1469.000000	24.182410
1470.000000	24.123562
1471.000000	24.064985
1472.000000	24.006085
1473.000000	23.948183
1474.000000	23.892095
1475.000000	23.837190
1476.000000	23.783707
1477.000000	23.733123
1478.000000	23.684658
1479.000000	23.637865
1480.000000	23.592015
1481.000000	23.549793
1482.000000	23.510862
1483.000000	23.472740
1484.000000	23.436975
1485.000000	23.403672
1486.000000	23.370978
1487.000000	23.340765
1488.000000	23.312890
1489.000000	23.286470
1490.000000	23.260555
1491.000000	23.237425
1492.000000	23.215978
1493.000000	23.198618
1494.000000	23.184103
1495.000000	23.171447
1496.000000	23.162292
1497.000000	23.156970
1498.000000	23.155945
1499.000000	23.159060
1500.000000	23.166998
1501.000000	23.178090
1502.000000	23.195275
1503.000000	23.217295
1504.000000	23.243240
1505.000000	23.273355
1506.000000	23.308328
1507.000000	23.347043
1508.000000	23.389057
1509.000000	23.433347
1510.000000	23.480225
1511.000000	23.529595
1512.000000	23.580243
1513.000000	23.632623
1514.000000	23.686205
1515.000000	23.741193
1516.000000	23.796335
1517.000000	23.851252
1518.000000	23.905837
1519.000000	23.960422
1520.000000	24.014825
1521.000000	24.069142
1522.000000	24.123673
1523.000000	24.177112
1524.000000	24.229428
1525.000000	24.281550
1526.000000	24.332800
1527.000000	24.384023
1528.000000	24.435895
1529.000000	24.487208
1530.000000	24.537823
1531.000000	24.587487
1532.000000	24.635080
1533.000000	24.682402
1534.000000	24.729993
1535.000000	24.776445
1536.000000	24.822035
1537.000000	24.866575
1538.000000	24.908553
1539.000000	24.949613
1540.000000	24.990845
1541.000000	25.031860
1542.000000	25.073525
1543.000000	25.114335
1544.000000	25.155230
1545.000000	25.197875
1546.000000	25.241557
1547.000000	25.287230
1548.000000	25.336278
1549.000000	25.387345
1550.000000	25.439928
1551.000000	25.493260
1552.000000	25.546377
1553.000000	25.599910
1554.000000	25.652902
1555.000000	25.704635
1556.000000	25.755023
1557.000000	25.801690
1558.000000	25.843882
1559.000000	25.882157
1560.000000	25.916670
1561.000000	25.947598
1562.000000	25.973863
1563.000000	25.995180
1564.000000	26.012240
1565.000000	26.024312
1566.000000	26.031673
1567.000000	26.035813
1568.000000	26.036442
1569.000000	26.035103
1570.000000	26.031332
1571.000000	26.026383
1572.000000	26.022832
1573.000000	26.020075
1574.000000	26.017255
1575.000000	26.016023
1576.000000	26.016950
1577.000000	26.020140
1578.000000	26.026908
1579.000000	26.036700
1580.000000	26.048860
1581.000000	26.064078
1582.000000	26.081552
1583.000000	26.102538
1584.000000	26.127542
1585.000000	26.154910
1586.000000	26.184643
1587.000000	26.216925
1588.000000	26.251725
1589.000000	26.288195
1590.000000	26.326308
1591.000000	26.365895
1592.000000	26.406962
1593.000000	26.448717
1594.000000	26.491705
1595.000000	26.537028
1596.000000	26.585120
1597.000000	26.634255
1598.000000	26.683952
1599.000000	26.735723
1600.000000	26.790825
1601.000000	26.846680
1602.000000	26.904220
1603.000000	26.963352
1604.000000	27.023040
1605.000000	27.083015
1606.000000	27.143045
1607.000000	27.203368
1608.000000	27.264198
1609.000000	27.324713
1610.000000	27.382685
1611.000000	27.439630
1612.000000	27.494503
1613.000000	27.547610
1614.000000	27.599077
1615.000000	27.649093
1616.000000	27.697132
1617.000000	27.742342
1618.000000	27.785377
1619.000000	27.825907
1620.000000	27.866267
1621.000000	27.904330
1622.000000	27.941742
1623.000000	27.978505
1624.000000	28.014985
1625.000000	28.050147
1626.000000	28.084053
1627.000000	28.118187
1628.000000	28.152107
1629.000000	28.186257
1630.000000	28.218130
1631.000000	28.251125
1632.000000	28.283045
1633.000000	28.314620
1634.000000	28.344240
1635.000000	28.372655
1636.000000	28.400637
1637.000000	28.426795
1638.000000	28.449973
1639.000000	28.470657
1640.000000	28.491020
1641.000000	28.508507
1642.000000	28.524500
1643.000000	28.538135
1644.000000	28.550262
1645.000000	28.560435
1646.000000	28.567390
1647.000000	28.572883
1648.000000	28.578320
1649.000000	28.580560
1650.000000	28.579408
1651.000000	28.574497
1652.000000	28.565390
1653.000000	28.552110
1654.000000	28.534470
1655.000000	28.511715
1656.000000	28.481808
1657.000000	28.446400
1658.000000	28.404088
1659.000000	28.354655
1660.000000	28.297738
1661.000000	28.232993
1662.000000	28.159992
1663.000000	28.078625
1664.000000	27.989030
1665.000000	27.891220
1666.000000	27.789108
1667.000000	27.679885
1668.000000	27.560377
1669.000000	27.434613
1670.000000	27.302990
1671.000000	27.168183
1672.000000	27.030520
1673.000000	26.890895
1674.000000	26.747905
1675.000000	26.604632
1676.000000	26.458420
1677.000000	26.311428
1678.000000	26.165460
1679.000000	26.018585
1680.000000	25.871925
1681.000000	25.722135
1682.000000	25.571098
1683.000000	25.419797
1684.000000	25.269552
1685.000000	25.122400
1686.000000	24.981175
1687.000000	24.848240
1688.000000	24.729060
1689.000000	24.626910
1690.000000	24.541635
1691.000000	24.477258
1692.000000	24.431565
1693.000000	24.404350
1694.000000	24.393738
1695.000000	24.394915
1696.000000	24.406868
1697.000000	24.425182
1698.000000	24.444320
1699.000000	24.461868
1700.000000	24.475820
1701.000000	24.483820
1702.000000	24.486713
1703.000000	24.481357
1704.000000	24.469815
1705.000000	24.451113
1706.000000	24.423930
1707.000000	24.388480
1708.000000	24.345595
1709.000000	24.293845
1710.000000	24.232895
1711.000000	24.161413
1712.000000	24.079385
1713.000000	23.987018
1714.000000	23.884950
1715.000000	23.772800
1716.000000	23.653533
1717.000000	23.525898
1718.000000	23.394152
1719.000000	23.259647
1720.000000	23.125258
1721.000000	22.995215
1722.000000	22.873147
1723.000000	22.761328
1724.000000	22.661307
1725.000000	22.577005
1726.000000	22.508005
1727.000000	22.457213
1728.000000	22.421382
1729.000000	22.402667
1730.000000	22.398943
1731.000000	22.408650
1732.000000	22.427977
1733.000000	22.458123
1734.000000	22.497700
1735.000000	22.544878
1736.000000	22.598085
1737.000000	22.655355
1738.000000	22.717960
1739.000000	22.782968
1740.000000	22.852220
1741.000000	22.924440
1742.000000	22.999960
1743.000000	23.075730
1744.000000	23.150855
1745.000000	23.225255
1746.000000	23.298848
1747.000000	23.371677
1748.000000	23.441773
1749.000000	23.508055
1750.000000	23.569437
1751.000000	23.625143
1752.000000	23.674443
1753.000000	23.718017
1754.000000	23.755973
1755.000000	23.788820
1756.000000	23.817277
1757.000000	23.840798
1758.000000	23.861745
1759.000000	23.880947
1760.000000	23.898042
1761.000000	23.915700
1762.000000	23.933582
1763.000000	23.952483
1764.000000	23.972445
1765.000000	23.996012
1766.000000	24.022970
1767.000000	24.052907
1768.000000	24.085555
1769.000000	24.120988
1770.000000	24.159187
1771.000000	24.199123
1772.000000	24.241125
1773.000000	24.284980
1774.000000	24.330655
1775.000000	24.374658
1776.000000	24.418067
1777.000000	24.461885
1778.000000	24.504297
1779.000000	24.545377
1780.000000	24.585275
1781.000000	24.622725
1782.000000	24.657040
1783.000000	24.688208
1784.000000	24.717172
1785.000000	24.743595
1786.000000	24.766545
1787.000000	24.786212
1788.000000	24.802310
1789.000000	24.816728
1790.000000	24.829910
1791.000000	24.842323
1792.000000	24.855010
1793.000000	24.868060
1794.000000	24.881245
1795.000000	24.896748
1796.000000	24.912175
1797.000000	24.927715
1798.000000	24.944562
1799.000000	24.962557
1800.000000	24.982638
1801.000000	25.004780
1802.000000	25.026635
1803.000000	25.047740
1804.000000	25.068985
1805.000000	25.090520
1806.000000	25.113727
1807.000000	25.137070
1808.000000	25.159827
1809.000000	25.181435
1810.000000	25.202690
1811.000000	25.224767
1812.000000	25.247920
1813.000000	25.270388
1814.000000	25.292572
1815.000000	25.312853
1816.000000	25.329622
1817.000000	25.342015
1818.000000	25.353305
1819.000000	25.368958
1820.000000	25.387810
1821.000000	25.405885
1822.000000	25.418212
1823.000000	25.425485
1824.000000	25.430325
1825.000000	25.435468
1826.000000	25.444555
1827.000000	25.461742
1828.000000	25.482315
1829.000000	25.500830
1830.000000	25.516692
1831.000000	25.531055
1832.000000	25.548832
1833.000000	25.569960
1834.000000	25.593863
1835.000000	25.622095
1836.000000	25.653018
1837.000000	25.682870
1838.000000	25.711153
1839.000000	25.738202
1840.000000	25.767163
1841.000000	25.800915
1842.000000	25.834945
1843.000000	25.865060
1844.000000	25.886993
1845.000000	25.902457
1846.000000	25.918228
1847.000000	25.940350
1848.000000	25.966402
1849.000000	25.987805
1850.000000	25.996185
1851.000000	25.992307
1852.000000	25.986282
1853.000000	25.987527
1854.000000	25.995838
1855.000000	26.002372
1856.000000	25.998240
1857.000000	25.979913
1858.000000	25.956805
1859.000000	25.934418
1860.000000	25.916802
1861.000000	25.901270
1862.000000	25.879175
1863.000000	25.844460
1864.000000	25.797573
1865.000000	25.741690
1866.000000	25.681432
1867.000000	25.615085
1868.000000	25.536893
1869.000000	25.451775
1870.000000	25.358588
1871.000000	25.255190
1872.000000	25.146825
1873.000000	25.030957
1874.000000	24.907465
1875.000000	24.774280
1876.000000	24.628845
1877.000000	24.471375
1878.000000	24.300720
1879.000000	24.112548
1880.000000	23.907100
1881.000000	23.687870
1882.000000	23.454887
1883.000000	23.214950
1884.000000	22.963070
1885.000000	22.703762
1886.000000	22.432773
1887.000000	22.149395
1888.000000	21.853282
1889.000000	21.553975
1890.000000	21.247660
1891.000000	20.932295
1892.000000	20.610063
1893.000000	20.275205
1894.000000	19.933592
1895.000000	19.581112
1896.000000	19.223275
1897.000000	18.862160
1898.000000	18.505435
1899.000000	18.143887
1900.000000	17.782283
1901.000000	17.423552
1902.000000	17.064920
1903.000000	16.713350
1904.000000	16.372605
1905.000000	16.041670
1906.000000	15.724048
1907.000000	15.417277
1908.000000	15.118173
1909.000000	14.828922
1910.000000	14.551775
1911.000000	14.289618
1912.000000	14.041235
1913.000000	13.806097
1914.000000	13.584152
1915.000000	13.372300
1916.000000	13.170975
1917.000000	12.981277
1918.000000	12.802495
1919.000000	12.638595
1920.000000	12.487478
1921.000000	12.346120
1922.000000	12.214367
1923.000000	12.089405
1924.000000	11.969845
1925.000000	11.864603
1926.000000	11.765897
1927.000000	11.676797
1928.000000	11.596082
1929.000000	11.522723
1930.000000	11.455705
1931.000000	11.398350
1932.000000	11.344803
1933.000000	11.299515
1934.000000	11.262335
1935.000000	11.230175
1936.000000	11.204558
1937.000000	11.186185
1938.000000	11.175178
1939.000000	11.168788
1940.000000	11.168240
1941.000000	11.170115
1942.000000	11.180708
1943.000000	11.193368
1944.000000	11.207435
1945.000000	11.228898
1946.000000	11.254457
1947.000000	11.285563
1948.000000	11.322132
1949.000000	11.360050
1950.000000	11.400583
1951.000000	11.443630
1952.000000	11.489217
1953.000000	11.543128
1954.000000	11.598533
1955.000000	11.655587
1956.000000	11.714538
1957.000000	11.773745
1958.000000	11.831503
1959.000000	11.890070
1960.000000	11.950902
1961.000000	12.011487
1962.000000	12.076310
1963.000000	12.141230
1964.000000	12.207775
1965.000000	12.268440
1966.000000	12.330505
1967.000000	12.392175
1968.000000	12.452853
1969.000000	12.516235
1970.000000	12.575610
1971.000000	12.637255
1972.000000	12.696708
1973.000000	12.754388
1974.000000	12.812680
1975.000000	12.877210
1976.000000	12.942210
1977.000000	13.004855
1978.000000	13.071465
1979.000000	13.137265
1980.000000	13.204067
1981.000000	13.271010
1982.000000	13.338995
1983.000000	13.405140
1984.000000	13.473617
1985.000000	13.538403
1986.000000	13.603112
1987.000000	13.670680
1988.000000	13.735040
1989.000000	13.797350
1990.000000	13.861212
1991.000000	13.923240
1992.000000	13.983830
1993.000000	14.047315
1994.000000	14.108315
1995.000000	14.166985
1996.000000	14.227013
1997.000000	14.281545
1998.000000	14.334763
1999.000000	14.387835
2000.000000	14.437053
2001.000000	14.483577
2002.000000	14.527048
2003.000000	14.566525
2004.000000	14.602445
2005.000000	14.634822
2006.000000	14.663060
2007.000000	14.690713
2008.000000	14.714003
2009.000000	14.732183
2010.000000	14.748505
2011.000000	14.759875
2012.000000	14.767807
2013.000000	14.771980
2014.000000	14.772290
2015.000000	14.768913
2016.000000	14.757268
2017.000000	14.740123
2018.000000	14.718280
2019.000000	14.694727
2020.000000	14.666430
2021.000000	14.634780
2022.000000	14.600132
2023.000000	14.557353
2024.000000	14.510060
2025.000000	14.462500
2026.000000	14.409295
2027.000000	14.351833
2028.000000	14.291830
2029.000000	14.229427
2030.000000	14.159235
2031.000000	14.084457
2032.000000	14.005140
2033.000000	13.926483
2034.000000	13.842560
2035.000000	13.753958
2036.000000	13.665177
2037.000000	13.573097
2038.000000	13.475040
2039.000000	13.373680
2040.000000	13.274558
2041.000000	13.173193
2042.000000	13.069385
2043.000000	12.962058
2044.000000	12.855678
2045.000000	12.747975
2046.000000	12.644640
2047.000000	12.547073
2048.000000	12.457747
2049.000000	12.373323
2050.000000	12.291173
2051.000000	12.215755
2052.000000	12.147478
2053.000000	12.088348
2054.000000	12.044965
2055.000000	12.015340
2056.000000	11.992805
2057.000000	11.976733
2058.000000	11.971992
2059.000000	11.976635
2060.000000	11.994722
2061.000000	12.021627
2062.000000	12.062452
2063.000000	12.119695
2064.000000	12.175690
2065.000000	12.233257
2066.000000	12.298300
2067.000000	12.371670
2068.000000	12.448110
2069.000000	12.531417
2070.000000	12.614338
2071.000000	12.695652
2072.000000	12.775265
2073.000000	12.849195
2074.000000	12.923663
2075.000000	12.993460
2076.000000	13.064022
2077.000000	13.132935
2078.000000	13.195217
2079.000000	13.248218
2080.000000	13.300135
2081.000000	13.356025
2082.000000	13.409015
2083.000000	13.456633
2084.000000	13.503645
2085.000000	13.550375
2086.000000	13.587300
2087.000000	13.617035
2088.000000	13.646402
2089.000000	13.672098
2090.000000	13.690622
2091.000000	13.700190
2092.000000	13.705328
2093.000000	13.711412
2094.000000	13.715737
2095.000000	13.713727
2096.000000	13.715100
2097.000000	13.718563
2098.000000	13.714728
2099.000000	13.705513
2100.000000	13.706490
2101.000000	13.711550
2102.000000	13.719107
2103.000000	13.720508
2104.000000	13.715150
2105.000000	13.716575
2106.000000	13.712480
2107.000000	13.705578
2108.000000	13.705230
2109.000000	13.716978
2110.000000	13.723327
2111.000000	13.728897
2112.000000	13.725637
2113.000000	13.722388
2114.000000	13.721733
2115.000000	13.720250
2116.000000	13.719835
2117.000000	13.724435
2118.000000	13.728492
2119.000000	13.720795
2120.000000	13.703445
2121.000000	13.683970
2122.000000	13.670783
2123.000000	13.657718
2124.000000	13.643570
2125.000000	13.624930
2126.000000	13.608527
2127.000000	13.582973
2128.000000	13.548712
2129.000000	13.508155
2130.000000	13.467900
2131.000000	13.434893
2132.000000	13.393480
2133.000000	13.343427
2134.000000	13.295738
2135.000000	13.241415
2136.000000	13.180280
2137.000000	13.116717
2138.000000	13.052430
2139.000000	12.993267
2140.000000	12.932300
2141.000000	12.863725
2142.000000	12.791750
2143.000000	12.725180
2144.000000	12.654608
2145.000000	12.589830
2146.000000	12.523625
2147.000000	12.447743
2148.000000	12.374470
2149.000000	12.296495
2150.000000	12.226835
2151.000000	12.147375
2152.000000	12.062233
2153.000000	11.981065
2154.000000	11.901542
2155.000000	11.817073
2156.000000	11.731137
2157.000000	11.652368
2158.000000	11.574842
2159.000000	11.506020
2160.000000	11.438363
2161.000000	11.378502
2162.000000	11.324282
2163.000000	11.268648
2164.000000	11.219500
2165.000000	11.168382
2166.000000	11.126605
2167.000000	11.085233
2168.000000	11.037202
2169.000000	10.993925
2170.000000	10.953788
2171.000000	10.917658
2172.000000	10.883957
2173.000000	10.858895
2174.000000	10.835857
2175.000000	10.810770
2176.000000	10.784480
2177.000000	10.768267
2178.000000	10.774158
2179.000000	10.770715
2180.000000	10.756395
2181.000000	10.750970
2182.000000	10.746460
2183.000000	10.735943
2184.000000	10.722565
2185.000000	10.715087
2186.000000	10.710703
2187.000000	10.703335
2188.000000	10.684797
2189.000000	10.675622
2190.000000	10.665100
2191.000000	10.642010
2192.000000	10.613352
2193.000000	10.578123
2194.000000	10.546957
2195.000000	10.517280
2196.000000	10.484307
2197.000000	10.446460
2198.000000	10.416643
2199.000000	10.364828
2200.000000	10.326525
2201.000000	10.275065
2202.000000	10.258517
2203.000000	10.238355
2204.000000	10.206975
2205.000000	10.181477
2206.000000	10.156795
2207.000000	10.134645
2208.000000	10.116900
2209.000000	10.123682
2210.000000	10.125127
2211.000000	10.141198
2212.000000	10.134855
2213.000000	10.146140
2214.000000	10.170237
2215.000000	10.198517
2216.000000	10.233940
2217.000000	10.281287
2218.000000	10.324475
2219.000000	10.369352
2220.000000	10.433808
2221.000000	10.495990
2222.000000	10.551227
2223.000000	10.607387
2224.000000	10.660343
2225.000000	10.715795
2226.000000	10.767555
2227.000000	10.824050
2228.000000	10.869322
2229.000000	10.908957
2230.000000	10.934240
2231.000000	10.974808
2232.000000	11.018910
2233.000000	11.055105
2234.000000	11.082778
2235.000000	11.107850
2236.000000	11.128472
2237.000000	11.135760
2238.000000	11.141890
2239.000000	11.139385
2240.000000	11.124630
2241.000000	11.107585
2242.000000	11.079945
2243.000000	11.051895
2244.000000	11.019243
2245.000000	10.977673
2246.000000	10.929825
2247.000000	10.882560
2248.000000	10.827260
2249.000000	10.768120
2250.000000	10.704868
2251.000000	10.632085
2252.000000	10.569173
2253.000000	10.492033
2254.000000	10.408715
2255.000000	10.331520
2256.000000	10.255245
2257.000000	10.170420
2258.000000	10.103768
2259.000000	10.042262
2260.000000	9.976328
2261.000000	9.910440
2262.000000	9.841397
2263.000000	9.784060
2264.000000	9.739397
2265.000000	9.694840
2266.000000	9.647280
2267.000000	9.609745
2268.000000	9.572445
2269.000000	9.540967
2270.000000	9.522277
2271.000000	9.498830
2272.000000	9.489453
2273.000000	9.482115
2274.000000	9.479868
2275.000000	9.470465
2276.000000	9.463132
2277.000000	9.453923
2278.000000	9.439267
2279.000000	9.438355
2280.000000	9.441323
2281.000000	9.445308
2282.000000	9.440790
2283.000000	9.438835
2284.000000	9.433187
2285.000000	9.436975
2286.000000	9.447278
2287.000000	9.457072
2288.000000	9.457885
2289.000000	9.442737
2290.000000	9.427568
2291.000000	9.423820
2292.000000	9.420913
2293.000000	9.417680
2294.000000	9.416085
2295.000000	9.413555
2296.000000	9.403003
2297.000000	9.396975
2298.000000	9.398365
2299.000000	9.402013
2300.000000	9.406235
2301.000000	9.405892
2302.000000	9.410260
2303.000000	9.412620
2304.000000	9.421950
2305.000000	9.435737
2306.000000	9.460350
2307.000000	9.477420
2308.000000	9.495662
2309.000000	9.528897
2310.000000	9.568032
2311.000000	9.608808
2312.000000	9.645295
2313.000000	9.681133
2314.000000	9.710425
2315.000000	9.732888
2316.000000	9.762848
2317.000000	9.803055
2318.000000	9.837418
2319.000000	9.865353
2320.000000	9.895528
2321.000000	9.923258
2322.000000	9.948222
2323.000000	9.969708
2324.000000	9.987325
2325.000000	10.006290
2326.000000	10.014082
2327.000000	10.014672
2328.000000	10.031592
2329.000000	10.039228
2330.000000	10.044095
2331.000000	10.051287
2332.000000	10.047493
2333.000000	10.050318
2334.000000	10.047930
2335.000000	10.050223
2336.000000	10.070248
2337.000000	10.092515
2338.000000	10.094437
2339.000000	10.099422
2340.000000	10.108145
2341.000000	10.118360
2342.000000	10.138570
2343.000000	10.166372
2344.000000	10.201455
2345.000000	10.221348
2346.000000	10.228932
2347.000000	10.248037
2348.000000	10.279882
2349.000000	10.303695
2350.000000	10.314015
2351.000000	10.325863
2352.000000	10.346695
2353.000000	10.368517
2354.000000	10.389630
2355.000000	10.411350
2356.000000	10.432118
2357.000000	10.448992
2358.000000	10.459998
2359.000000	10.482895
2360.000000	10.526372
2361.000000	10.568992
2362.000000	10.599572
2363.000000	10.620327
2364.000000	10.642060
2365.000000	10.673245
2366.000000	10.699150
2367.000000	10.719603
2368.000000	10.748343
2369.000000	10.781910
2370.000000	10.788895
2371.000000	10.793158
2372.000000	10.804753
2373.000000	10.814225
2374.000000	10.827172
2375.000000	10.839075
2376.000000	10.860825
2377.000000	10.891755
2378.000000	10.913440
2379.000000	10.934315
2380.000000	10.970875
2381.000000	11.004223
2382.000000	11.026585
2383.000000	11.046690
2384.000000	11.044990
2385.000000	11.052207
2386.000000	11.064115
2387.000000	11.073480
2388.000000	11.092405
2389.000000	11.094805
2390.000000	11.083085
2391.000000	11.081708
2392.000000	11.087393
2393.000000	11.094090
2394.000000	11.124750
2395.000000	11.142807
2396.000000	11.136860
2397.000000	11.120477
2398.000000	11.095873
2399.000000	11.095293
2400.000000	11.105660
2401.000000	11.094240
2402.000000	11.088955
2403.000000	11.103123
2404.000000	11.107090
2405.000000	11.118355
2406.000000	11.125440
2407.000000	11.146045
2408.000000	11.163993
2409.000000	11.170350
2410.000000	11.156092
2411.000000	11.129748
2412.000000	11.115237
2413.000000	11.125900
2414.000000	11.137757
2415.000000	11.125380
2416.000000	11.098875
2417.000000	11.063512
2418.000000	11.046660
2419.000000	11.008823
2420.000000	10.977670
2421.000000	10.967575
2422.000000	10.958592
2423.000000	10.917587
2424.000000	10.875020
2425.000000	10.845435
2426.000000	10.837982
2427.000000	10.834668
2428.000000	10.792030
2429.000000	10.773220
2430.000000	10.741713
2431.000000	10.730100
2432.000000	10.667562
2433.000000	10.622545
2434.000000	10.568480
2435.000000	10.559873
2436.000000	10.534955
2437.000000	10.486590
2438.000000	10.431865
2439.000000	10.360743
2440.000000	10.347925
2441.000000	10.328800
2442.000000	10.341230
2443.000000	10.312608
2444.000000	10.296335
2445.000000	10.223142
2446.000000	10.165733
2447.000000	10.133305
2448.000000	10.118470
2449.000000	10.112433
2450.000000	10.099635
2451.000000	10.099912
2452.000000	10.093280
2453.000000	10.044890
2454.000000	10.018790
2455.000000	10.038720
2456.000000	10.059560
2457.000000	10.060553
2458.000000	10.115978
2459.000000	10.140553
2460.000000	10.178100
2461.000000	10.186317
2462.000000	10.189700
2463.000000	10.283005
2464.000000	10.290907
2465.000000	10.319703
2466.000000	10.391085
2467.000000	10.456447
2468.000000	10.461992
2469.000000	10.482958
2470.000000	10.530013
2471.000000	10.535990
2472.000000	10.586755
2473.000000	10.610895
2474.000000	10.719263
2475.000000	10.792248
2476.000000	10.917180
2477.000000	11.071345
2478.000000	11.199927
2479.000000	11.351015
2480.000000	11.483405
2481.000000	11.643875
2482.000000	11.803773
2483.000000	11.960368
2484.000000	12.125035
2485.000000	12.219312
2486.000000	12.234270
2487.000000	12.328148
2488.000000	12.523582
2489.000000	12.722125
2490.000000	12.863595
2491.000000	13.033722
2492.000000	13.166217
2493.000000	13.306265
2494.000000	13.495225
2495.000000	13.674117
2496.000000	13.842830
2497.000000	13.950225
2498.000000	14.080445
2499.000000	14.250825
2500.000000	14.447470
2501.000000	18.252925
2502.000000	22.187790
2503.000000	26.264235
2504.000000	30.651305
2505.000000	34.703562
2506.000000	39.154140
2507.000000	43.573145
2508.000000	47.687587
2509.000000	51.406832
2510.000000	55.369250
2511.000000	56.211300
2512.000000	56.942660
2513.000000	57.647530
2514.000000	58.353010
2515.000000	59.385970
2516.000000	59.747360
2517.000000	60.424630
2518.000000	61.439770
2519.000000	62.429150
2520.000000	64.015410
2521.000000	65.347890
2522.000000	66.708380
2523.000000	68.431930
2524.000000	69.384580
2525.000000	70.213450
2526.000000	71.075180
2527.000000	71.548900
2528.000000	72.559440
2529.000000	74.117230
2530.000000	74.263940
2531.000000	74.649010
2532.000000	74.461000
2533.000000	74.143740
2534.000000	75.164090
2535.000000	75.713400
2536.000000	76.810880
2537.000000	78.049650
2538.000000	78.730530
2539.000000	79.564410
2540.000000	80.892170
2541.000000	81.309130
2542.000000	82.656940
2543.000000	83.849230
2544.000000	83.963430
2545.000000	85.069060
2546.000000	85.208290
2547.000000	85.531420
2548.000000	86.095850
2549.000000	86.823250
2550.000000	87.449320
2551.000000	88.506050
2552.000000	89.037670
2553.000000	89.164570
2554.000000	89.342670
2555.000000	89.467790
2556.000000	89.964100
2557.000000	90.258840
2558.000000	90.348360
2559.000000	89.587280
2560.000000	89.520850
2561.000000	89.937240
2562.000000	90.385980
2563.000000	91.431260
2564.000000	92.096720
2565.000000	92.052780
2566.000000	92.261440
2567.000000	93.053910
2568.000000	93.862010
2569.000000	95.467720
2570.000000	96.290430
2571.000000	96.521430
2572.000000	96.833710
2573.000000	96.520590
2574.000000	96.782240
2575.000000	97.137850
2576.000000	97.744820
2577.000000	98.075160
2578.000000	98.080470
2579.000000	97.747910
2580.000000	98.205090
2581.000000	98.334760
2582.000000	98.363530
2583.000000	98.281900
2584.000000	98.140330
2585.000000	98.674790
2586.000000	98.851430
2587.000000	98.656830
2588.000000	98.608630
2589.000000	98.558290
2590.000000	98.455770
2591.000000	98.893180
2592.000000	99.165420
2593.000000	99.549560
2594.000000	100.070510
2595.000000	100.116010
2596.000000	99.835660
2597.000000	99.753050
2598.000000	99.573110
2599.000000	99.930380
2600.000000	100.049210
2601.000000	99.757120
2602.000000	100.358130
2603.000000	101.022150
2604.000000	100.817350
2605.000000	101.164240
2606.000000	101.928940
2607.000000	102.106970
2608.000000	102.453600
2609.000000	101.694930
2610.000000	100.803350
2611.000000	100.280280
2612.000000	99.988030
2613.000000	99.785270
2614.000000	99.754500
2615.000000	99.423280
2616.000000	99.463050
2617.000000	99.966980
2618.000000	100.348160
2619.000000	101.240350
2620.000000	101.718300
2621.000000	101.955820
2622.000000	101.794990
2623.000000	102.081500
2624.000000	102.671440
2625.000000	103.264850
2626.000000	103.850090
2627.000000	103.698250
2628.000000	103.292600
2629.000000	103.303850
2630.000000	103.579340
2631.000000	103.865000
2632.000000	103.804650
2633.000000	103.335840
2634.000000	102.564480
2635.000000	102.078850
2636.000000	102.014110
2637.000000	102.265910
2638.000000	102.842220
2639.000000	102.268750
2640.000000	101.418870
2641.000000	100.827980
2642.000000	100.336000
2643.000000	100.265940
2644.000000	100.552370
2645.000000	100.717470
2646.000000	100.140580
2647.000000	99.258940
2648.000000	98.578550
2649.000000	98.910220
2650.000000	99.601750
2651.000000	99.996330
2652.000000	100.303210
2653.000000	100.211100
2654.000000	99.923320
2655.000000	99.528780
2656.000000	99.269390
2657.000000	99.917850
2658.000000	100.551530
2659.000000	101.116320
2660.000000	101.278860
2661.000000	101.618590
2662.000000	101.859810
2663.000000	101.678310
2664.000000	101.601670
2665.000000	102.336910
2666.000000	102.273920
2667.000000	101.810940
2668.000000	101.248280
2669.000000	100.033600
2670.000000	99.907320
2671.000000	100.171590
2672.000000	100.009520
2673.000000	99.916010
2674.000000	100.773550
2675.000000	100.113860
2676.000000	100.512290
2677.000000	100.597210
2678.000000	101.054150
2679.000000	101.577880
2680.000000	100.882360
2681.000000	99.759030
2682.000000	100.117230
2683.000000	100.494090
2684.000000	100.003390
2685.000000	100.568680
2686.000000	100.876560
2687.000000	100.101630
2688.000000	99.573620
2689.000000	99.346320
2690.000000	99.445060
2691.000000	100.197590
2692.000000	100.342020
2693.000000	100.556740
2694.000000	100.329670
2695.000000	100.695040
2696.000000	100.582920
2697.000000	102.625720
2698.000000	102.891040
2699.000000	102.766170
2700.000000	102.433770
2701.000000	102.267050
2702.000000	101.504950
2703.000000	101.619190
2704.000000	102.147450
2705.000000	100.915860
2706.000000	100.755740
2707.000000	99.422550
2708.000000	100.074150
2709.000000	100.528520
2710.000000	101.419360
2711.000000	101.292410
2712.000000	101.402970
2713.000000	101.081800
2714.000000	101.606750
2715.000000	101.085100
2716.000000	101.602230
2717.000000	101.871560
2718.000000	100.925340
2719.000000	100.830540
2720.000000	101.056930
2721.000000	100.794640
2722.000000	101.354060
2723.000000	102.348870
2724.000000	102.119270
2725.000000	102.873310
2726.000000	102.282070
2727.000000	101.913630
2728.000000	101.582180
2729.000000	101.868130
2730.000000	101.738420
2731.000000	102.543990
2732.000000	102.001580
2733.000000	101.182040
2734.000000	100.898110
2735.000000	100.503410
2736.000000	100.350670
2737.000000	101.185750
2738.000000	101.765150
2739.000000	101.350060
2740.000000	101.526410
2741.000000	100.961080
2742.000000	101.416460
2743.000000	101.217190
2744.000000	100.628380
2745.000000	101.752360
2746.000000	101.620710
2747.000000	101.404290
2748.000000	101.986810
2749.000000	102.579370
2750.000000	102.816520
2751.000000	103.350040
2752.000000	102.992970
2753.000000	102.476720
2754.000000	102.873370
2755.000000	102.137040
2756.000000	102.286130
2757.000000	102.189010
2758.000000	100.924710
2759.000000	100.237750
2760.000000	99.591350
2761.000000	99.320090
2762.000000	99.082560
2763.000000	99.467310
2764.000000	99.315480
2765.000000	99.153170
2766.000000	98.755680
2767.000000	98.501510
2768.000000	99.033090
2769.000000	99.791800
2770.000000	99.691830
2771.000000	99.821340
2772.000000	100.010120
2773.000000	100.410540
2774.000000	100.900370
2775.000000	101.648730
2776.000000	101.540320
2777.000000	101.133410
2778.000000	101.392460
2779.000000	101.607540
2780.000000	102.464850
2781.000000	101.679470
2782.000000	102.046750
2783.000000	101.809490
2784.000000	101.418830
2785.000000	100.648600
2786.000000	100.459500
2787.000000	100.107460
2788.000000	100.119570
2789.000000	98.963780
2790.000000	98.343980
2791.000000	98.489770
2792.000000	98.026610
2793.000000	98.087200
2794.000000	98.051870
2795.000000	98.596360
2796.000000	99.781750
2797.000000	101.362540
2798.000000	101.395270
2799.000000	102.343380
2800.000000	102.180920
2801.000000	102.347530
2802.000000	102.819300
2803.000000	102.498890
2804.000000	102.804630
2805.000000	102.672030
2806.000000	102.912470
2807.000000	102.775390
2808.000000	102.010210
2809.000000	101.123640
2810.000000	101.626350
2811.000000	101.617290
2812.000000	101.312060
2813.000000	101.558960
2814.000000	100.686420
2815.000000	100.262990
2816.000000	99.295860
2817.000000	98.196410
2818.000000	98.925200
2819.000000	99.621650
2820.000000	99.069770
2821.000000	100.063360
2822.000000	100.646070
2823.000000	100.766870
2824.000000	101.203110
2825.000000	101.741020
2826.000000	102.507170
2827.000000	103.783020
2828.000000	104.177810
2829.000000	103.727520
2830.000000	103.992320
2831.000000	103.737040
2832.000000	103.461720
2833.000000	102.766450
2834.000000	102.709550
2835.000000	102.724990
2836.000000	102.236770
2837.000000	101.653670
2838.000000	101.229830
2839.000000	101.172070
2840.000000	100.569860
2841.000000	99.643000
2842.000000	98.776530
2843.000000	98.979750
2844.000000	98.766940
2845.000000	98.062290
2846.000000	97.876890
2847.000000	97.720050
2848.000000	97.491900
2849.000000	97.765220
2850.000000	98.402640
2851.000000	98.573740
2852.000000	99.133010
2853.000000	100.137060
2854.000000	100.851510
2855.000000	101.340110
2856.000000	100.986400
2857.000000	100.523100
2858.000000	100.527690
2859.000000	100.471560
2860.000000	100.302340
2861.000000	100.404560
2862.000000	100.443870
2863.000000	99.558520
2864.000000	98.593690
2865.000000	98.209970
2866.000000	98.701690
2867.000000	99.437520
2868.000000	99.433240
2869.000000	98.788220
2870.000000	98.330080
2871.000000	97.895560
2872.000000	96.729320
2873.000000	96.332150
2874.000000	97.096500
2875.000000	97.586510
2876.000000	97.277050
2877.000000	96.762440
2878.000000	97.071800
2879.000000	98.096330
2880.000000	98.592560
2881.000000	99.179820
2882.000000	100.393240
2883.000000	101.269750
2884.000000	101.331000
2885.000000	101.683810
2886.000000	102.609630
2887.000000	102.989460
2888.000000	102.368990
2889.000000	101.653720
2890.000000	101.719880
2891.000000	102.274450
2892.000000	102.216250
2893.000000	101.895290
2894.000000	101.710430
2895.000000	101.172970
2896.000000	100.313370
2897.000000	100.108150
2898.000000	100.770280
2899.000000	101.160850
2900.000000	102.014280
2901.000000	102.168600
2902.000000	101.696930
2903.000000	101.234250
2904.000000	101.214570
2905.000000	101.242280
2906.000000	101.274210
2907.000000	100.975640
2908.000000	100.614770
2909.000000	100.688070
2910.000000	98.896630
2911.000000	97.825510
2912.000000	98.098490
2913.000000	98.457390
2914.000000	98.557590
2915.000000	98.335630
2916.000000	98.244360
2917.000000	98.704310
2918.000000	98.940610
2919.000000	98.863960
2920.000000	99.563020
2921.000000	99.668570
2922.000000	99.363220
2923.000000	99.394730
2924.000000	99.234850
2925.000000	99.044920
2926.000000	99.227170
2927.000000	99.480580
2928.000000	99.436650
2929.000000	99.085900
2930.000000	99.647650
2931.000000	100.297600
2932.000000	100.387860
2933.000000	100.493930
2934.000000	100.508800
2935.000000	101.273070
2936.000000	101.687360
2937.000000	101.878950
2938.000000	102.463880
2939.000000	102.974950
2940.000000	103.551500
2941.000000	103.038200
2942.000000	102.572790
2943.000000	101.905860
2944.000000	101.834650
2945.000000	101.516310
2946.000000	100.834160
2947.000000	100.719300
2948.000000	100.602470
2949.000000	100.435660
2950.000000	99.360550
2951.000000	99.727540
2952.000000	100.513620
2953.000000	101.090680
2954.000000	100.539230
2955.000000	100.283210
2956.000000	100.142290
2957.000000	99.940110
2958.000000	100.191260
2959.000000	100.111760
2960.000000	99.955200
2961.000000	100.374860
2962.000000	100.112820
2963.000000	100.530490
2964.000000	101.274490
2965.000000	102.077090
2966.000000	102.117920
2967.000000	100.897930
2968.000000	100.277310
2969.000000	100.164940
2970.000000	100.176720
2971.000000	99.355170
2972.000000	99.283580
2973.000000	99.374130
2974.000000	99.079120
2975.000000	98.915350
2976.000000	99.027630
2977.000000	99.776590
2978.000000	99.487850
2979.000000	98.998240
2980.000000	99.360180
2981.000000	99.524590
2982.000000	99.931610
2983.000000	99.882960
2984.000000	100.008860
2985.000000	99.768520
2986.000000	100.492870
2987.000000	100.150370
2988.000000	100.525260
2989.000000	101.542930
2990.000000	101.622230
2991.000000	101.458950
2992.000000	100.650890
2993.000000	100.307420
2994.000000	100.544130
2995.000000	101.004490
2996.000000	100.658110
2997.000000	101.494900
2998.000000	101.127240
2999.000000	101.357570
3000.000000	101.491620
