PE UV       SUBTECH     SPECTRUM    ASCII       PEDS        4.00        
   -1
INBUCR0124-5.Sample.ASC
24/02/12
15:01:42.00
24/02/12
15:01:42.00
Vinicio Soto Monge
Color café con ambos élitros (Det: A. Solís) COSTA RICA Prov. Guanacaste, A.C.G, Liberia, Mayorga, Quebrada Grande. 400m. 7 JUN 1986. Janzen. Manua (red, libre) L_N_314000_373000 #52573 INB0003358057 INBIOCRI COSTA RICA 
250,000000
1
Lambda 1050
1050L1511233
PerkinElmer UV WinLab 6.3.2.0749 / 2.02.05 Lambda 900 UV/VIS/NIR, Aug  7 2015 09:38:08

0
0
3350/servo 860,8/2
0
0
UV/VIS
1
1
1
DoubleDePol,CommonBeamDepol,RBeamAtt,SBeamAtt,60mm sphere, WB InGaAs Detector
0
0
0
0
Program
Program
3350/servo 860,8/2
3350/0,2 860,8/0,2
3350/0,2 860,8/0,2
0
15.00
 
 
 
0
 
860,8
150
860,8
Front
100
on
S:100 R:100
0
0
0
0
 
0
 
 
 
0
 
 
0
0
0
0
0
 
 
 
 
0
0


0
0
#HDR
-1
-1
#GR
nm
%R
1.0
0.0
2500,000000
-1,000000
2251
8
22,586700
1,588300
#DATA

250.000000	nan
251.000000	nan
252.000000	nan
253.000000	nan
254.000000	nan
255.000000	nan
256.000000	nan
257.000000	nan
258.000000	nan
259.000000	3.762596
260.000000	3.741086
261.000000	3.713385
262.000000	3.687831
263.000000	3.663538
264.000000	3.628345
265.000000	3.593792
266.000000	3.553087
267.000000	3.523513
268.000000	3.493990
269.000000	3.475375
270.000000	3.456027
271.000000	3.439393
272.000000	3.417135
273.000000	3.387499
274.000000	3.366572
275.000000	3.340748
276.000000	3.328952
277.000000	3.310788
278.000000	3.295794
279.000000	3.278140
280.000000	3.268868
281.000000	3.257177
282.000000	3.245951
283.000000	3.239152
284.000000	3.233146
285.000000	3.229010
286.000000	3.227564
287.000000	3.223934
288.000000	3.217354
289.000000	3.214050
290.000000	3.208370
291.000000	3.206179
292.000000	3.208903
293.000000	3.211039
294.000000	3.219444
295.000000	3.223242
296.000000	3.225463
297.000000	3.230222
298.000000	3.238250
299.000000	3.245016
300.000000	3.254898
301.000000	3.259869
302.000000	3.267806
303.000000	3.275366
304.000000	3.277197
305.000000	3.281100
306.000000	3.283031
307.000000	3.287599
308.000000	3.290334
309.000000	3.294326
310.000000	3.296031
311.000000	3.300358
312.000000	3.303236
313.000000	3.306514
314.000000	3.309806
315.000000	3.315270
316.000000	3.321966
317.000000	3.358516
318.000000	3.392404
319.000000	3.420923
320.000000	3.456215
321.000000	3.477096
322.000000	3.492400
323.000000	3.507834
324.000000	3.526505
325.000000	3.543092
326.000000	3.559967
327.000000	3.549663
328.000000	3.538715
329.000000	3.535362
330.000000	3.523081
331.000000	3.525035
332.000000	3.533203
333.000000	3.537630
334.000000	3.541700
335.000000	3.538476
336.000000	3.537022
337.000000	3.529914
338.000000	3.528019
339.000000	3.524375
340.000000	3.521411
341.000000	3.514204
342.000000	3.508617
343.000000	3.506028
344.000000	3.501126
345.000000	3.505654
346.000000	3.509735
347.000000	3.515130
348.000000	3.514045
349.000000	3.513199
350.000000	3.513537
351.000000	3.516960
352.000000	3.520413
353.000000	3.522380
354.000000	3.523988
355.000000	3.523199
356.000000	3.523457
357.000000	3.524267
358.000000	3.530214
359.000000	3.534370
360.000000	3.539619
361.000000	3.544856
362.000000	3.545247
363.000000	3.547723
364.000000	3.551990
365.000000	3.554190
366.000000	3.555535
367.000000	3.556796
368.000000	3.557716
369.000000	3.562168
370.000000	3.563123
371.000000	3.565253
372.000000	3.565242
373.000000	3.563882
374.000000	3.559626
375.000000	3.561245
376.000000	3.564485
377.000000	3.561616
378.000000	3.558169
379.000000	3.552649
380.000000	3.550150
381.000000	3.546422
382.000000	3.547091
383.000000	3.548989
384.000000	3.552622
385.000000	3.551983
386.000000	3.549949
387.000000	3.554375
388.000000	3.559064
389.000000	3.562820
390.000000	3.566894
391.000000	3.570891
392.000000	3.574710
393.000000	3.578749
394.000000	3.582641
395.000000	3.586306
396.000000	3.589600
397.000000	3.592385
398.000000	3.595068
399.000000	3.598130
400.000000	3.600900
401.000000	3.603670
402.000000	3.606806
403.000000	3.610260
404.000000	3.613406
405.000000	3.616583
406.000000	3.619946
407.000000	3.623561
408.000000	3.627234
409.000000	3.631397
410.000000	3.635736
411.000000	3.640327
412.000000	3.645208
413.000000	3.649987
414.000000	3.655193
415.000000	3.661304
416.000000	3.668300
417.000000	3.675785
418.000000	3.683594
419.000000	3.691853
420.000000	3.701084
421.000000	3.711219
422.000000	3.721911
423.000000	3.733662
424.000000	3.746248
425.000000	3.759216
426.000000	3.772496
427.000000	3.786519
428.000000	3.801509
429.000000	3.817015
430.000000	3.832834
431.000000	3.849722
432.000000	3.867101
433.000000	3.884934
434.000000	3.903571
435.000000	3.922897
436.000000	3.942814
437.000000	3.963027
438.000000	3.983569
439.000000	4.004632
440.000000	4.026256
441.000000	4.047696
442.000000	4.069704
443.000000	4.092320
444.000000	4.115168
445.000000	4.138275
446.000000	4.161502
447.000000	4.185069
448.000000	4.208983
449.000000	4.232830
450.000000	4.256936
451.000000	4.281645
452.000000	4.306251
453.000000	4.330526
454.000000	4.354675
455.000000	4.378878
456.000000	4.403410
457.000000	4.428025
458.000000	4.452775
459.000000	4.478050
460.000000	4.502967
461.000000	4.527707
462.000000	4.552925
463.000000	4.578593
464.000000	4.604287
465.000000	4.630241
466.000000	4.656454
467.000000	4.683020
468.000000	4.709433
469.000000	4.735659
470.000000	4.762573
471.000000	4.789613
472.000000	4.816601
473.000000	4.843965
474.000000	4.871758
475.000000	4.900072
476.000000	4.928623
477.000000	4.957292
478.000000	4.986807
479.000000	5.016735
480.000000	5.046777
481.000000	5.077466
482.000000	5.108309
483.000000	5.138955
484.000000	5.169803
485.000000	5.200838
486.000000	5.232086
487.000000	5.263428
488.000000	5.295034
489.000000	5.327007
490.000000	5.359440
491.000000	5.391442
492.000000	5.424063
493.000000	5.456949
494.000000	5.490432
495.000000	5.524100
496.000000	5.557879
497.000000	5.593011
498.000000	5.628514
499.000000	5.664062
500.000000	5.699419
501.000000	5.735993
502.000000	5.773038
503.000000	5.811046
504.000000	5.849356
505.000000	5.888234
506.000000	5.927559
507.000000	5.966679
508.000000	6.006319
509.000000	6.046743
510.000000	6.088520
511.000000	6.130936
512.000000	6.173760
513.000000	6.217109
514.000000	6.261230
515.000000	6.306177
516.000000	6.352054
517.000000	6.398550
518.000000	6.445860
519.000000	6.494243
520.000000	6.542845
521.000000	6.591886
522.000000	6.641707
523.000000	6.692330
524.000000	6.743461
525.000000	6.795493
526.000000	6.848532
527.000000	6.902236
528.000000	6.956172
529.000000	7.010474
530.000000	7.065844
531.000000	7.122056
532.000000	7.179194
533.000000	7.236814
534.000000	7.294741
535.000000	7.353235
536.000000	7.411856
537.000000	7.471163
538.000000	7.530780
539.000000	7.590837
540.000000	7.651025
541.000000	7.711246
542.000000	7.771472
543.000000	7.832178
544.000000	7.893562
545.000000	7.954780
546.000000	8.015805
547.000000	8.077015
548.000000	8.138329
549.000000	8.199617
550.000000	8.260926
551.000000	8.322576
552.000000	8.384091
553.000000	8.445129
554.000000	8.506455
555.000000	8.567979
556.000000	8.629416
557.000000	8.691353
558.000000	8.753322
559.000000	8.815051
560.000000	8.871860
561.000000	8.927472
562.000000	8.982707
563.000000	9.038417
564.000000	9.093548
565.000000	9.147989
566.000000	9.203300
567.000000	9.258457
568.000000	9.313158
569.000000	9.368436
570.000000	9.428470
571.000000	9.490108
572.000000	9.552508
573.000000	9.614534
574.000000	9.677496
575.000000	9.740972
576.000000	9.803709
577.000000	9.865678
578.000000	9.929380
579.000000	9.993110
580.000000	10.057459
581.000000	10.121151
582.000000	10.185332
583.000000	10.250011
584.000000	10.313967
585.000000	10.378945
586.000000	10.444238
587.000000	10.510130
588.000000	10.575586
589.000000	10.641193
590.000000	10.706740
591.000000	10.773343
592.000000	10.839974
593.000000	10.906630
594.000000	10.973080
595.000000	11.039496
596.000000	11.107043
597.000000	11.175128
598.000000	11.243203
599.000000	11.311396
600.000000	11.380007
601.000000	11.448791
602.000000	11.517888
603.000000	11.587527
604.000000	11.657831
605.000000	11.727118
606.000000	11.796547
607.000000	11.866307
608.000000	11.937344
609.000000	12.008463
610.000000	12.079691
611.000000	12.150555
612.000000	12.221175
613.000000	12.291883
614.000000	12.363275
615.000000	12.435284
616.000000	12.507031
617.000000	12.578518
618.000000	12.649517
619.000000	12.721485
620.000000	12.793812
621.000000	12.866235
622.000000	12.938821
623.000000	13.011406
624.000000	13.084308
625.000000	13.158181
626.000000	13.232116
627.000000	13.306003
628.000000	13.379850
629.000000	13.453783
630.000000	13.528141
631.000000	13.603097
632.000000	13.679710
633.000000	13.757042
634.000000	13.834456
635.000000	13.911599
636.000000	13.989779
637.000000	14.069236
638.000000	14.149113
639.000000	14.229821
640.000000	14.311842
641.000000	14.394678
642.000000	14.477553
643.000000	14.561383
644.000000	14.646052
645.000000	14.731567
646.000000	14.817968
647.000000	14.905306
648.000000	14.993576
649.000000	15.082448
650.000000	15.171209
651.000000	15.260465
652.000000	15.349768
653.000000	15.439974
654.000000	15.530432
655.000000	15.621840
656.000000	15.714048
657.000000	15.806537
658.000000	15.898609
659.000000	15.990572
660.000000	16.083024
661.000000	16.176792
662.000000	16.269923
663.000000	16.361992
664.000000	16.455076
665.000000	16.548719
666.000000	16.641040
667.000000	16.732587
668.000000	16.825128
669.000000	16.918144
670.000000	17.010764
671.000000	17.102153
672.000000	17.194322
673.000000	17.287873
674.000000	17.380053
675.000000	17.471628
676.000000	17.562977
677.000000	17.655945
678.000000	17.748212
679.000000	17.838715
680.000000	17.928499
681.000000	18.019314
682.000000	18.110055
683.000000	18.199517
684.000000	18.289521
685.000000	18.378806
686.000000	18.468346
687.000000	18.556432
688.000000	18.644965
689.000000	18.733768
690.000000	18.824836
691.000000	18.914140
692.000000	19.002359
693.000000	19.090460
694.000000	19.179681
695.000000	19.269774
696.000000	19.359946
697.000000	19.449832
698.000000	19.539715
699.000000	19.629890
700.000000	19.717415
701.000000	19.806312
702.000000	19.895475
703.000000	19.985495
704.000000	20.075981
705.000000	20.166025
706.000000	20.255222
707.000000	20.345118
708.000000	20.434715
709.000000	20.524877
710.000000	20.615964
711.000000	20.706326
712.000000	20.798368
713.000000	20.890527
714.000000	20.980658
715.000000	21.070363
716.000000	21.161337
717.000000	21.252194
718.000000	21.343899
719.000000	21.435653
720.000000	21.527389
721.000000	21.619843
722.000000	21.711218
723.000000	21.802305
724.000000	21.893857
725.000000	21.985651
726.000000	22.078163
727.000000	22.171715
728.000000	22.264767
729.000000	22.358723
730.000000	22.453201
731.000000	22.547578
732.000000	22.642925
733.000000	22.737307
734.000000	22.830643
735.000000	22.925170
736.000000	23.020574
737.000000	23.114826
738.000000	23.208589
739.000000	23.303266
740.000000	23.398638
741.000000	23.492742
742.000000	23.585681
743.000000	23.679727
744.000000	23.774645
745.000000	23.869134
746.000000	23.963672
747.000000	24.058417
748.000000	24.153830
749.000000	24.249879
750.000000	24.346389
751.000000	24.442931
752.000000	24.538715
753.000000	24.636536
754.000000	24.735452
755.000000	24.834318
756.000000	24.932000
757.000000	25.028178
758.000000	25.125833
759.000000	25.221496
760.000000	25.317689
761.000000	25.416290
762.000000	25.517422
763.000000	25.618100
764.000000	25.717934
765.000000	25.817481
766.000000	25.918100
767.000000	26.021873
768.000000	26.122216
769.000000	26.224674
770.000000	26.327017
771.000000	26.427066
772.000000	26.526387
773.000000	26.625205
774.000000	26.724894
775.000000	26.825919
776.000000	26.926514
777.000000	27.026127
778.000000	27.127231
779.000000	27.227139
780.000000	27.326370
781.000000	27.426981
782.000000	27.526534
783.000000	27.628938
784.000000	27.732405
785.000000	27.832602
786.000000	27.933751
787.000000	28.034756
788.000000	28.138442
789.000000	28.242789
790.000000	28.346643
791.000000	28.449461
792.000000	28.553268
793.000000	28.656390
794.000000	28.757551
795.000000	28.861024
796.000000	28.966341
797.000000	29.071165
798.000000	29.172726
799.000000	29.273360
800.000000	29.374859
801.000000	29.478979
802.000000	29.582106
803.000000	29.683672
804.000000	29.788433
805.000000	29.891460
806.000000	29.992659
807.000000	30.096888
808.000000	30.199602
809.000000	30.299864
810.000000	30.404639
811.000000	30.509999
812.000000	30.611699
813.000000	30.714164
814.000000	30.811257
815.000000	30.908758
816.000000	31.003743
817.000000	31.098922
818.000000	31.196867
819.000000	31.298416
820.000000	31.388562
821.000000	31.478884
822.000000	31.570567
823.000000	31.664454
824.000000	31.758380
825.000000	31.850435
826.000000	31.941458
827.000000	32.028962
828.000000	32.113637
829.000000	32.192665
830.000000	32.279305
831.000000	32.361779
832.000000	32.448207
833.000000	32.529454
834.000000	32.605577
835.000000	32.690283
836.000000	32.773302
837.000000	32.852322
838.000000	32.930767
839.000000	33.013287
840.000000	33.090151
841.000000	33.161165
842.000000	33.229543
843.000000	33.302381
844.000000	33.379957
845.000000	33.447725
846.000000	33.519309
847.000000	33.585534
848.000000	33.650019
849.000000	33.711652
850.000000	33.772130
851.000000	33.838155
852.000000	33.897256
853.000000	33.952114
854.000000	34.003786
855.000000	34.054002
856.000000	34.097592
857.000000	34.166478
858.000000	34.710841
859.000000	34.829870
860.000000	34.972554
861.000000	35.084297
862.000000	35.181301
863.000000	35.281306
864.000000	35.384553
865.000000	35.459202
866.000000	35.565267
867.000000	35.640947
868.000000	35.217374
869.000000	35.223798
870.000000	35.214070
871.000000	35.228140
872.000000	35.241292
873.000000	35.245276
874.000000	35.258562
875.000000	35.288424
876.000000	35.274676
877.000000	35.282418
878.000000	35.301800
879.000000	35.318924
880.000000	35.309980
881.000000	35.308536
882.000000	35.321042
883.000000	35.317334
884.000000	35.319044
885.000000	35.322274
886.000000	35.331566
887.000000	35.313370
888.000000	35.307154
889.000000	35.286118
890.000000	35.274700
891.000000	35.264618
892.000000	35.261238
893.000000	35.255198
894.000000	35.226494
895.000000	35.211992
896.000000	35.203096
897.000000	35.198710
898.000000	35.193968
899.000000	35.204766
900.000000	35.208198
901.000000	35.204270
902.000000	35.197526
903.000000	35.210030
904.000000	35.227698
905.000000	35.238386
906.000000	35.246874
907.000000	35.254552
908.000000	35.255512
909.000000	35.252258
910.000000	35.260866
911.000000	35.272412
912.000000	35.282554
913.000000	35.297730
914.000000	35.303166
915.000000	35.301748
916.000000	35.309970
917.000000	35.321292
918.000000	35.338824
919.000000	35.358006
920.000000	35.378722
921.000000	35.395022
922.000000	35.408868
923.000000	35.414460
924.000000	35.427284
925.000000	35.448484
926.000000	35.462816
927.000000	35.483850
928.000000	35.502862
929.000000	35.511148
930.000000	35.522056
931.000000	35.534716
932.000000	35.546364
933.000000	35.564630
934.000000	35.584766
935.000000	35.599238
936.000000	35.613596
937.000000	35.627276
938.000000	35.640476
939.000000	35.656074
940.000000	35.671684
941.000000	35.682820
942.000000	35.698850
943.000000	35.704510
944.000000	35.714066
945.000000	35.725482
946.000000	35.735938
947.000000	35.746544
948.000000	35.756888
949.000000	35.765324
950.000000	35.772336
951.000000	35.783676
952.000000	35.791916
953.000000	35.806220
954.000000	35.815460
955.000000	35.827568
956.000000	35.840078
957.000000	35.852458
958.000000	35.862674
959.000000	35.874472
960.000000	35.884538
961.000000	35.897864
962.000000	35.909154
963.000000	35.915284
964.000000	35.921404
965.000000	35.926452
966.000000	35.929478
967.000000	35.932052
968.000000	35.939264
969.000000	35.946226
970.000000	35.952336
971.000000	35.954904
972.000000	35.959928
973.000000	35.969220
974.000000	35.977216
975.000000	35.983960
976.000000	35.990832
977.000000	35.998698
978.000000	36.003828
979.000000	36.009942
980.000000	36.014604
981.000000	36.017798
982.000000	36.022272
983.000000	36.025968
984.000000	36.030510
985.000000	36.038280
986.000000	36.043466
987.000000	36.046224
988.000000	36.051002
989.000000	36.055314
990.000000	36.059368
991.000000	36.064042
992.000000	36.068854
993.000000	36.073210
994.000000	36.077332
995.000000	36.080022
996.000000	36.083828
997.000000	36.088390
998.000000	36.093030
999.000000	36.098948
1000.000000	36.106236
1001.000000	36.111414
1002.000000	36.115444
1003.000000	36.119858
1004.000000	36.123236
1005.000000	36.127552
1006.000000	36.133218
1007.000000	36.138330
1008.000000	36.141972
1009.000000	36.146548
1010.000000	36.149284
1011.000000	36.152240
1012.000000	36.157262
1013.000000	36.161062
1014.000000	36.164280
1015.000000	36.168876
1016.000000	36.174390
1017.000000	36.179442
1018.000000	36.184128
1019.000000	36.188896
1020.000000	36.196002
1021.000000	36.205152
1022.000000	36.213374
1023.000000	36.222460
1024.000000	36.231694
1025.000000	36.240398
1026.000000	36.249326
1027.000000	36.259144
1028.000000	36.270144
1029.000000	36.280766
1030.000000	36.291380
1031.000000	36.302626
1032.000000	36.315020
1033.000000	36.328690
1034.000000	36.343280
1035.000000	36.356952
1036.000000	36.371046
1037.000000	36.385972
1038.000000	36.399216
1039.000000	36.412762
1040.000000	36.427446
1041.000000	36.442102
1042.000000	36.456110
1043.000000	36.468800
1044.000000	36.481116
1045.000000	36.493086
1046.000000	36.504774
1047.000000	36.517122
1048.000000	36.530988
1049.000000	36.544868
1050.000000	36.558408
1051.000000	36.571604
1052.000000	36.585324
1053.000000	36.600934
1054.000000	36.617314
1055.000000	36.634130
1056.000000	36.651170
1057.000000	36.668134
1058.000000	36.685098
1059.000000	36.702550
1060.000000	36.719252
1061.000000	36.736782
1062.000000	36.754812
1063.000000	36.770854
1064.000000	36.787546
1065.000000	36.805138
1066.000000	36.822120
1067.000000	36.838910
1068.000000	36.856398
1069.000000	36.873326
1070.000000	36.891468
1071.000000	36.908886
1072.000000	36.924942
1073.000000	36.942286
1074.000000	36.960428
1075.000000	36.976962
1076.000000	36.992620
1077.000000	37.007602
1078.000000	37.022096
1079.000000	37.036754
1080.000000	37.050194
1081.000000	37.063042
1082.000000	37.075806
1083.000000	37.087296
1084.000000	37.097058
1085.000000	37.107392
1086.000000	37.119078
1087.000000	37.130806
1088.000000	37.142192
1089.000000	37.153178
1090.000000	37.162748
1091.000000	37.172898
1092.000000	37.181898
1093.000000	37.189928
1094.000000	37.198696
1095.000000	37.207370
1096.000000	37.214820
1097.000000	37.221722
1098.000000	37.226132
1099.000000	37.230356
1100.000000	37.235324
1101.000000	37.239684
1102.000000	37.242414
1103.000000	37.245830
1104.000000	37.248014
1105.000000	37.249656
1106.000000	37.250622
1107.000000	37.251454
1108.000000	37.252736
1109.000000	37.253012
1110.000000	37.251688
1111.000000	37.250454
1112.000000	37.249748
1113.000000	37.248462
1114.000000	37.247880
1115.000000	37.244824
1116.000000	37.240140
1117.000000	37.234526
1118.000000	37.228128
1119.000000	37.219674
1120.000000	37.211604
1121.000000	37.200304
1122.000000	37.187674
1123.000000	37.171702
1124.000000	37.150948
1125.000000	37.129418
1126.000000	37.105272
1127.000000	37.077702
1128.000000	37.047468
1129.000000	37.014078
1130.000000	36.975890
1131.000000	36.932400
1132.000000	36.885126
1133.000000	36.836630
1134.000000	36.788696
1135.000000	36.738856
1136.000000	36.684650
1137.000000	36.628254
1138.000000	36.568406
1139.000000	36.509376
1140.000000	36.449314
1141.000000	36.391258
1142.000000	36.333016
1143.000000	36.273560
1144.000000	36.213172
1145.000000	36.152990
1146.000000	36.094550
1147.000000	36.038454
1148.000000	35.982892
1149.000000	35.925698
1150.000000	35.869538
1151.000000	35.813676
1152.000000	35.758736
1153.000000	35.701696
1154.000000	35.642388
1155.000000	35.579586
1156.000000	35.516790
1157.000000	35.449416
1158.000000	35.381308
1159.000000	35.309812
1160.000000	35.237144
1161.000000	35.159862
1162.000000	35.078834
1163.000000	34.998292
1164.000000	34.915128
1165.000000	34.832678
1166.000000	34.749330
1167.000000	34.666172
1168.000000	34.583598
1169.000000	34.503532
1170.000000	34.423368
1171.000000	34.345942
1172.000000	34.271872
1173.000000	34.200636
1174.000000	34.131588
1175.000000	34.063524
1176.000000	33.998316
1177.000000	33.937184
1178.000000	33.877062
1179.000000	33.820106
1180.000000	33.767156
1181.000000	33.717150
1182.000000	33.669392
1183.000000	33.625272
1184.000000	33.586176
1185.000000	33.550204
1186.000000	33.518852
1187.000000	33.490330
1188.000000	33.465964
1189.000000	33.447458
1190.000000	33.432978
1191.000000	33.425214
1192.000000	33.421604
1193.000000	33.422342
1194.000000	33.427496
1195.000000	33.437006
1196.000000	33.449004
1197.000000	33.466208
1198.000000	33.487568
1199.000000	33.508762
1200.000000	33.531652
1201.000000	33.554058
1202.000000	33.577716
1203.000000	33.600838
1204.000000	33.624720
1205.000000	33.648780
1206.000000	33.674078
1207.000000	33.697850
1208.000000	33.722226
1209.000000	33.747436
1210.000000	33.773282
1211.000000	33.800872
1212.000000	33.828636
1213.000000	33.857732
1214.000000	33.887476
1215.000000	33.917956
1216.000000	33.949024
1217.000000	33.981890
1218.000000	34.015516
1219.000000	34.050572
1220.000000	34.086752
1221.000000	34.122670
1222.000000	34.160310
1223.000000	34.197912
1224.000000	34.234942
1225.000000	34.272584
1226.000000	34.310398
1227.000000	34.346460
1228.000000	34.381522
1229.000000	34.415478
1230.000000	34.448028
1231.000000	34.479480
1232.000000	34.509532
1233.000000	34.538614
1234.000000	34.566074
1235.000000	34.592284
1236.000000	34.616130
1237.000000	34.639320
1238.000000	34.661834
1239.000000	34.682954
1240.000000	34.702292
1241.000000	34.721548
1242.000000	34.740996
1243.000000	34.759252
1244.000000	34.777618
1245.000000	34.796056
1246.000000	34.813954
1247.000000	34.832162
1248.000000	34.850168
1249.000000	34.868300
1250.000000	34.887720
1251.000000	34.908002
1252.000000	34.927546
1253.000000	34.946700
1254.000000	34.964694
1255.000000	34.981646
1256.000000	34.998248
1257.000000	35.014162
1258.000000	35.029628
1259.000000	35.044138
1260.000000	35.056728
1261.000000	35.066786
1262.000000	35.075820
1263.000000	35.083530
1264.000000	35.089970
1265.000000	35.096396
1266.000000	35.103092
1267.000000	35.108380
1268.000000	35.111646
1269.000000	35.114028
1270.000000	35.115536
1271.000000	35.116132
1272.000000	35.115636
1273.000000	35.114834
1274.000000	35.115486
1275.000000	35.116330
1276.000000	35.114954
1277.000000	35.113454
1278.000000	35.113176
1279.000000	35.113482
1280.000000	35.115014
1281.000000	35.117930
1282.000000	35.121874
1283.000000	35.127762
1284.000000	35.133162
1285.000000	35.137888
1286.000000	35.144092
1287.000000	35.151314
1288.000000	35.158856
1289.000000	35.166924
1290.000000	35.175592
1291.000000	35.183474
1292.000000	35.190538
1293.000000	35.197452
1294.000000	35.203628
1295.000000	35.209474
1296.000000	35.216108
1297.000000	35.222216
1298.000000	35.227204
1299.000000	35.231548
1300.000000	35.235420
1301.000000	35.238904
1302.000000	35.241700
1303.000000	35.242842
1304.000000	35.243300
1305.000000	35.242952
1306.000000	35.240868
1307.000000	35.237422
1308.000000	35.232310
1309.000000	35.226062
1310.000000	35.217982
1311.000000	35.207788
1312.000000	35.195998
1313.000000	35.182900
1314.000000	35.168396
1315.000000	35.153094
1316.000000	35.136024
1317.000000	35.117230
1318.000000	35.097658
1319.000000	35.076894
1320.000000	35.053982
1321.000000	35.029736
1322.000000	35.004698
1323.000000	34.977700
1324.000000	34.948854
1325.000000	34.917610
1326.000000	34.884204
1327.000000	34.849806
1328.000000	34.813458
1329.000000	34.773970
1330.000000	34.732064
1331.000000	34.688060
1332.000000	34.641370
1333.000000	34.591936
1334.000000	34.541074
1335.000000	34.489192
1336.000000	34.434652
1337.000000	34.376660
1338.000000	34.315608
1339.000000	34.252332
1340.000000	34.188124
1341.000000	34.122198
1342.000000	34.053818
1343.000000	33.984176
1344.000000	33.913288
1345.000000	33.838916
1346.000000	33.763126
1347.000000	33.688984
1348.000000	33.614066
1349.000000	33.537808
1350.000000	33.460298
1351.000000	33.381550
1352.000000	33.302140
1353.000000	33.222888
1354.000000	33.145988
1355.000000	33.070884
1356.000000	32.995612
1357.000000	32.918702
1358.000000	32.839980
1359.000000	32.760186
1360.000000	32.682776
1361.000000	32.610878
1362.000000	32.536676
1363.000000	32.457750
1364.000000	32.376006
1365.000000	32.289530
1366.000000	32.197434
1367.000000	32.104182
1368.000000	32.008616
1369.000000	31.908060
1370.000000	31.800474
1371.000000	31.682926
1372.000000	31.558776
1373.000000	31.428680
1374.000000	31.287434
1375.000000	31.141588
1376.000000	30.992106
1377.000000	30.833148
1378.000000	30.667310
1379.000000	30.500412
1380.000000	30.331910
1381.000000	30.168864
1382.000000	30.014362
1383.000000	29.867424
1384.000000	29.725294
1385.000000	29.588094
1386.000000	29.457410
1387.000000	29.337568
1388.000000	29.232738
1389.000000	29.129654
1390.000000	29.028418
1391.000000	28.930516
1392.000000	28.833910
1393.000000	28.737984
1394.000000	28.649278
1395.000000	28.571618
1396.000000	28.496104
1397.000000	28.412620
1398.000000	28.321284
1399.000000	28.239150
1400.000000	28.167118
1401.000000	28.087980
1402.000000	27.998796
1403.000000	27.905922
1404.000000	27.811052
1405.000000	27.704620
1406.000000	27.593458
1407.000000	27.485688
1408.000000	27.377148
1409.000000	27.260970
1410.000000	27.132524
1411.000000	27.000118
1412.000000	26.872322
1413.000000	26.747362
1414.000000	26.621962
1415.000000	26.493384
1416.000000	26.363516
1417.000000	26.235972
1418.000000	26.111590
1419.000000	25.989470
1420.000000	25.869656
1421.000000	25.752670
1422.000000	25.639236
1423.000000	25.529518
1424.000000	25.419964
1425.000000	25.313952
1426.000000	25.213350
1427.000000	25.116294
1428.000000	25.020646
1429.000000	24.926652
1430.000000	24.837184
1431.000000	24.754710
1432.000000	24.675212
1433.000000	24.595362
1434.000000	24.517208
1435.000000	24.442898
1436.000000	24.373078
1437.000000	24.304582
1438.000000	24.237904
1439.000000	24.173840
1440.000000	24.112212
1441.000000	24.050058
1442.000000	23.989312
1443.000000	23.929304
1444.000000	23.871830
1445.000000	23.819202
1446.000000	23.767762
1447.000000	23.712436
1448.000000	23.658146
1449.000000	23.606890
1450.000000	23.555848
1451.000000	23.506538
1452.000000	23.457132
1453.000000	23.409278
1454.000000	23.360916
1455.000000	23.310280
1456.000000	23.259160
1457.000000	23.210998
1458.000000	23.164678
1459.000000	23.116942
1460.000000	23.070074
1461.000000	23.022394
1462.000000	22.975130
1463.000000	22.928900
1464.000000	22.883118
1465.000000	22.838212
1466.000000	22.792862
1467.000000	22.748808
1468.000000	22.703388
1469.000000	22.659266
1470.000000	22.614636
1471.000000	22.571350
1472.000000	22.528424
1473.000000	22.485566
1474.000000	22.443214
1475.000000	22.401044
1476.000000	22.360282
1477.000000	22.321356
1478.000000	22.282184
1479.000000	22.243492
1480.000000	22.206148
1481.000000	22.168882
1482.000000	22.133186
1483.000000	22.098466
1484.000000	22.064772
1485.000000	22.031520
1486.000000	22.000134
1487.000000	21.969468
1488.000000	21.941470
1489.000000	21.914102
1490.000000	21.888204
1491.000000	21.864368
1492.000000	21.842282
1493.000000	21.822366
1494.000000	21.803498
1495.000000	21.789208
1496.000000	21.776584
1497.000000	21.765440
1498.000000	21.757654
1499.000000	21.752890
1500.000000	21.751446
1501.000000	21.752750
1502.000000	21.757336
1503.000000	21.764046
1504.000000	21.774602
1505.000000	21.787658
1506.000000	21.803552
1507.000000	21.821390
1508.000000	21.841590
1509.000000	21.864364
1510.000000	21.888346
1511.000000	21.914740
1512.000000	21.942494
1513.000000	21.973168
1514.000000	22.004872
1515.000000	22.036830
1516.000000	22.069904
1517.000000	22.104134
1518.000000	22.138126
1519.000000	22.173096
1520.000000	22.208936
1521.000000	22.244074
1522.000000	22.279706
1523.000000	22.314462
1524.000000	22.348228
1525.000000	22.380822
1526.000000	22.413454
1527.000000	22.446474
1528.000000	22.480362
1529.000000	22.512604
1530.000000	22.543856
1531.000000	22.574546
1532.000000	22.604832
1533.000000	22.635250
1534.000000	22.666708
1535.000000	22.698232
1536.000000	22.728436
1537.000000	22.758498
1538.000000	22.787710
1539.000000	22.815708
1540.000000	22.844278
1541.000000	22.873958
1542.000000	22.903076
1543.000000	22.932032
1544.000000	22.960954
1545.000000	22.990812
1546.000000	23.021614
1547.000000	23.052098
1548.000000	23.083726
1549.000000	23.117222
1550.000000	23.150832
1551.000000	23.183972
1552.000000	23.216432
1553.000000	23.248668
1554.000000	23.280436
1555.000000	23.309982
1556.000000	23.338406
1557.000000	23.366328
1558.000000	23.391814
1559.000000	23.415388
1560.000000	23.436604
1561.000000	23.454354
1562.000000	23.470792
1563.000000	23.484688
1564.000000	23.495672
1565.000000	23.505626
1566.000000	23.513344
1567.000000	23.518446
1568.000000	23.521786
1569.000000	23.523226
1570.000000	23.523326
1571.000000	23.523884
1572.000000	23.524238
1573.000000	23.523904
1574.000000	23.523620
1575.000000	23.523278
1576.000000	23.523998
1577.000000	23.526690
1578.000000	23.530534
1579.000000	23.535652
1580.000000	23.542548
1581.000000	23.551488
1582.000000	23.561818
1583.000000	23.573918
1584.000000	23.588344
1585.000000	23.604676
1586.000000	23.622886
1587.000000	23.641508
1588.000000	23.662492
1589.000000	23.685258
1590.000000	23.708846
1591.000000	23.734360
1592.000000	23.760538
1593.000000	23.787466
1594.000000	23.815536
1595.000000	23.845506
1596.000000	23.876314
1597.000000	23.907890
1598.000000	23.939962
1599.000000	23.973294
1600.000000	24.008164
1601.000000	24.042150
1602.000000	24.076872
1603.000000	24.113892
1604.000000	24.151198
1605.000000	24.186606
1606.000000	24.222604
1607.000000	24.260016
1608.000000	24.297128
1609.000000	24.333590
1610.000000	24.369036
1611.000000	24.403380
1612.000000	24.437426
1613.000000	24.470274
1614.000000	24.501976
1615.000000	24.533584
1616.000000	24.563562
1617.000000	24.592132
1618.000000	24.618782
1619.000000	24.644570
1620.000000	24.669724
1621.000000	24.694900
1622.000000	24.718676
1623.000000	24.741238
1624.000000	24.763534
1625.000000	24.786046
1626.000000	24.807062
1627.000000	24.827868
1628.000000	24.849156
1629.000000	24.869994
1630.000000	24.890882
1631.000000	24.910494
1632.000000	24.928818
1633.000000	24.947248
1634.000000	24.965050
1635.000000	24.981154
1636.000000	24.997144
1637.000000	25.012104
1638.000000	25.025856
1639.000000	25.037920
1640.000000	25.048408
1641.000000	25.059174
1642.000000	25.068932
1643.000000	25.078616
1644.000000	25.085890
1645.000000	25.090750
1646.000000	25.093828
1647.000000	25.095802
1648.000000	25.095078
1649.000000	25.093560
1650.000000	25.089726
1651.000000	25.083126
1652.000000	25.076176
1653.000000	25.062622
1654.000000	25.047522
1655.000000	25.031570
1656.000000	25.011364
1657.000000	24.985812
1658.000000	24.958718
1659.000000	24.924862
1660.000000	24.886150
1661.000000	24.844060
1662.000000	24.794978
1663.000000	24.743590
1664.000000	24.686936
1665.000000	24.624152
1666.000000	24.558386
1667.000000	24.489366
1668.000000	24.413362
1669.000000	24.333538
1670.000000	24.252102
1671.000000	24.165842
1672.000000	24.077426
1673.000000	23.986180
1674.000000	23.892816
1675.000000	23.797280
1676.000000	23.700850
1677.000000	23.601508
1678.000000	23.502950
1679.000000	23.405658
1680.000000	23.305486
1681.000000	23.205562
1682.000000	23.106930
1683.000000	23.008006
1684.000000	22.912098
1685.000000	22.820462
1686.000000	22.731130
1687.000000	22.647676
1688.000000	22.569932
1689.000000	22.499094
1690.000000	22.438700
1691.000000	22.385500
1692.000000	22.340052
1693.000000	22.303438
1694.000000	22.273736
1695.000000	22.251270
1696.000000	22.235198
1697.000000	22.222646
1698.000000	22.211160
1699.000000	22.202150
1700.000000	22.192218
1701.000000	22.182284
1702.000000	22.171626
1703.000000	22.160542
1704.000000	22.144860
1705.000000	22.123886
1706.000000	22.099438
1707.000000	22.071686
1708.000000	22.041038
1709.000000	22.005476
1710.000000	21.964144
1711.000000	21.917838
1712.000000	21.867624
1713.000000	21.811190
1714.000000	21.751418
1715.000000	21.686190
1716.000000	21.616404
1717.000000	21.544582
1718.000000	21.470192
1719.000000	21.394328
1720.000000	21.319428
1721.000000	21.247344
1722.000000	21.176226
1723.000000	21.110140
1724.000000	21.048344
1725.000000	20.996546
1726.000000	20.953466
1727.000000	20.916448
1728.000000	20.888182
1729.000000	20.867774
1730.000000	20.856432
1731.000000	20.852862
1732.000000	20.856740
1733.000000	20.866424
1734.000000	20.883786
1735.000000	20.906824
1736.000000	20.932590
1737.000000	20.963458
1738.000000	21.000794
1739.000000	21.041166
1740.000000	21.084592
1741.000000	21.129556
1742.000000	21.175282
1743.000000	21.223962
1744.000000	21.273158
1745.000000	21.320972
1746.000000	21.369400
1747.000000	21.416388
1748.000000	21.461072
1749.000000	21.505400
1750.000000	21.545708
1751.000000	21.583524
1752.000000	21.621344
1753.000000	21.655582
1754.000000	21.687154
1755.000000	21.716724
1756.000000	21.743758
1757.000000	21.770486
1758.000000	21.794304
1759.000000	21.814876
1760.000000	21.836048
1761.000000	21.857748
1762.000000	21.877666
1763.000000	21.897156
1764.000000	21.918000
1765.000000	21.939532
1766.000000	21.962494
1767.000000	21.985998
1768.000000	22.009932
1769.000000	22.037692
1770.000000	22.067256
1771.000000	22.095334
1772.000000	22.124644
1773.000000	22.156058
1774.000000	22.186978
1775.000000	22.217948
1776.000000	22.249512
1777.000000	22.281252
1778.000000	22.313706
1779.000000	22.342788
1780.000000	22.370714
1781.000000	22.399830
1782.000000	22.427658
1783.000000	22.450810
1784.000000	22.472892
1785.000000	22.493294
1786.000000	22.511250
1787.000000	22.527088
1788.000000	22.540904
1789.000000	22.553732
1790.000000	22.564504
1791.000000	22.574826
1792.000000	22.586156
1793.000000	22.599028
1794.000000	22.610756
1795.000000	22.622158
1796.000000	22.634754
1797.000000	22.646846
1798.000000	22.657948
1799.000000	22.669992
1800.000000	22.684424
1801.000000	22.700792
1802.000000	22.715188
1803.000000	22.727140
1804.000000	22.740204
1805.000000	22.755256
1806.000000	22.771120
1807.000000	22.788072
1808.000000	22.804084
1809.000000	22.819224
1810.000000	22.833946
1811.000000	22.848134
1812.000000	22.863782
1813.000000	22.882002
1814.000000	22.898694
1815.000000	22.913854
1816.000000	22.926380
1817.000000	22.935030
1818.000000	22.944126
1819.000000	22.956516
1820.000000	22.973722
1821.000000	22.993840
1822.000000	23.009438
1823.000000	23.016772
1824.000000	23.023060
1825.000000	23.029256
1826.000000	23.038482
1827.000000	23.053968
1828.000000	23.071548
1829.000000	23.088316
1830.000000	23.103884
1831.000000	23.113578
1832.000000	23.122448
1833.000000	23.134986
1834.000000	23.149288
1835.000000	23.168142
1836.000000	23.190508
1837.000000	23.210868
1838.000000	23.229642
1839.000000	23.250222
1840.000000	23.269998
1841.000000	23.296356
1842.000000	23.327226
1843.000000	23.353638
1844.000000	23.368014
1845.000000	23.372046
1846.000000	23.375352
1847.000000	23.389648
1848.000000	23.412992
1849.000000	23.427986
1850.000000	23.429368
1851.000000	23.416938
1852.000000	23.402188
1853.000000	23.398328
1854.000000	23.408290
1855.000000	23.420806
1856.000000	23.423278
1857.000000	23.408476
1858.000000	23.387584
1859.000000	23.374600
1860.000000	23.367774
1861.000000	23.364048
1862.000000	23.357186
1863.000000	23.337654
1864.000000	23.307826
1865.000000	23.271322
1866.000000	23.229914
1867.000000	23.187328
1868.000000	23.134476
1869.000000	23.073086
1870.000000	23.011950
1871.000000	22.948842
1872.000000	22.880500
1873.000000	22.813312
1874.000000	22.739842
1875.000000	22.663434
1876.000000	22.580786
1877.000000	22.484768
1878.000000	22.380208
1879.000000	22.257850
1880.000000	22.114522
1881.000000	21.960760
1882.000000	21.800702
1883.000000	21.630740
1884.000000	21.459456
1885.000000	21.282104
1886.000000	21.098722
1887.000000	20.910318
1888.000000	20.715020
1889.000000	20.519730
1890.000000	20.327956
1891.000000	20.132836
1892.000000	19.932148
1893.000000	19.725412
1894.000000	19.504564
1895.000000	19.271330
1896.000000	19.032884
1897.000000	18.792542
1898.000000	18.553790
1899.000000	18.317820
1900.000000	18.077226
1901.000000	17.828010
1902.000000	17.573020
1903.000000	17.317632
1904.000000	17.072430
1905.000000	16.839554
1906.000000	16.610968
1907.000000	16.386900
1908.000000	16.162724
1909.000000	15.933912
1910.000000	15.712110
1911.000000	15.505090
1912.000000	15.310520
1913.000000	15.129638
1914.000000	14.955502
1915.000000	14.782572
1916.000000	14.617940
1917.000000	14.458690
1918.000000	14.310704
1919.000000	14.179482
1920.000000	14.056362
1921.000000	13.939036
1922.000000	13.826920
1923.000000	13.718082
1924.000000	13.612212
1925.000000	13.516254
1926.000000	13.430944
1927.000000	13.356898
1928.000000	13.287178
1929.000000	13.224838
1930.000000	13.168060
1931.000000	13.109534
1932.000000	13.058450
1933.000000	13.013516
1934.000000	12.975444
1935.000000	12.942630
1936.000000	12.912450
1937.000000	12.884090
1938.000000	12.866540
1939.000000	12.846798
1940.000000	12.832936
1941.000000	12.830334
1942.000000	12.832284
1943.000000	12.836168
1944.000000	12.844888
1945.000000	12.856484
1946.000000	12.872036
1947.000000	12.895298
1948.000000	12.914108
1949.000000	12.939546
1950.000000	12.962994
1951.000000	12.987206
1952.000000	13.015608
1953.000000	13.044748
1954.000000	13.080068
1955.000000	13.117156
1956.000000	13.157652
1957.000000	13.195432
1958.000000	13.237754
1959.000000	13.278506
1960.000000	13.322868
1961.000000	13.372120
1962.000000	13.415670
1963.000000	13.465508
1964.000000	13.512220
1965.000000	13.557328
1966.000000	13.598046
1967.000000	13.640282
1968.000000	13.682282
1969.000000	13.726556
1970.000000	13.771634
1971.000000	13.814198
1972.000000	13.858146
1973.000000	13.897672
1974.000000	13.938618
1975.000000	13.984474
1976.000000	14.030380
1977.000000	14.077908
1978.000000	14.126766
1979.000000	14.172200
1980.000000	14.219614
1981.000000	14.265746
1982.000000	14.314260
1983.000000	14.363108
1984.000000	14.410454
1985.000000	14.457490
1986.000000	14.506056
1987.000000	14.550296
1988.000000	14.597428
1989.000000	14.645230
1990.000000	14.689372
1991.000000	14.736272
1992.000000	14.781156
1993.000000	14.828910
1994.000000	14.876816
1995.000000	14.917922
1996.000000	14.959220
1997.000000	15.003462
1998.000000	15.041316
1999.000000	15.081154
2000.000000	15.119446
2001.000000	15.148980
2002.000000	15.180924
2003.000000	15.209874
2004.000000	15.233134
2005.000000	15.258628
2006.000000	15.279326
2007.000000	15.297610
2008.000000	15.314228
2009.000000	15.324802
2010.000000	15.333324
2011.000000	15.344694
2012.000000	15.346772
2013.000000	15.346664
2014.000000	15.343064
2015.000000	15.336164
2016.000000	15.331148
2017.000000	15.318952
2018.000000	15.301794
2019.000000	15.284042
2020.000000	15.263420
2021.000000	15.238974
2022.000000	15.215260
2023.000000	15.181644
2024.000000	15.150246
2025.000000	15.115412
2026.000000	15.071014
2027.000000	15.031890
2028.000000	14.991800
2029.000000	14.944762
2030.000000	14.894338
2031.000000	14.837856
2032.000000	14.775896
2033.000000	14.719874
2034.000000	14.656356
2035.000000	14.589610
2036.000000	14.524728
2037.000000	14.452908
2038.000000	14.379256
2039.000000	14.307562
2040.000000	14.234896
2041.000000	14.160462
2042.000000	14.083260
2043.000000	14.006258
2044.000000	13.930782
2045.000000	13.852784
2046.000000	13.779194
2047.000000	13.707742
2048.000000	13.637366
2049.000000	13.576956
2050.000000	13.517968
2051.000000	13.464028
2052.000000	13.418598
2053.000000	13.375442
2054.000000	13.343958
2055.000000	13.324880
2056.000000	13.303720
2057.000000	13.291096
2058.000000	13.290476
2059.000000	13.284714
2060.000000	13.288648
2061.000000	13.307070
2062.000000	13.333530
2063.000000	13.367968
2064.000000	13.405608
2065.000000	13.446032
2066.000000	13.496134
2067.000000	13.545956
2068.000000	13.596480
2069.000000	13.654066
2070.000000	13.713688
2071.000000	13.779228
2072.000000	13.840386
2073.000000	13.892012
2074.000000	13.946348
2075.000000	14.005456
2076.000000	14.064204
2077.000000	14.127016
2078.000000	14.188486
2079.000000	14.249708
2080.000000	14.306032
2081.000000	14.351658
2082.000000	14.396932
2083.000000	14.446598
2084.000000	14.487792
2085.000000	14.525136
2086.000000	14.561032
2087.000000	14.589886
2088.000000	14.610640
2089.000000	14.621716
2090.000000	14.633618
2091.000000	14.644572
2092.000000	14.654864
2093.000000	14.664624
2094.000000	14.674622
2095.000000	14.675266
2096.000000	14.672902
2097.000000	14.673880
2098.000000	14.678342
2099.000000	14.685240
2100.000000	14.682510
2101.000000	14.679822
2102.000000	14.678852
2103.000000	14.677884
2104.000000	14.682614
2105.000000	14.692234
2106.000000	14.697934
2107.000000	14.703222
2108.000000	14.706870
2109.000000	14.712588
2110.000000	14.724166
2111.000000	14.729628
2112.000000	14.736988
2113.000000	14.745908
2114.000000	14.739058
2115.000000	14.729658
2116.000000	14.723740
2117.000000	14.713846
2118.000000	14.705894
2119.000000	14.697266
2120.000000	14.687126
2121.000000	14.680630
2122.000000	14.667816
2123.000000	14.649006
2124.000000	14.632158
2125.000000	14.606586
2126.000000	14.591414
2127.000000	14.579552
2128.000000	14.558608
2129.000000	14.539100
2130.000000	14.514462
2131.000000	14.485444
2132.000000	14.453292
2133.000000	14.420522
2134.000000	14.394860
2135.000000	14.371202
2136.000000	14.328836
2137.000000	14.285326
2138.000000	14.234990
2139.000000	14.169418
2140.000000	14.106902
2141.000000	14.046312
2142.000000	13.991998
2143.000000	13.931998
2144.000000	13.867296
2145.000000	13.808046
2146.000000	13.746962
2147.000000	13.674934
2148.000000	13.616226
2149.000000	13.566428
2150.000000	13.515858
2151.000000	13.461650
2152.000000	13.396644
2153.000000	13.331756
2154.000000	13.259030
2155.000000	13.187266
2156.000000	13.126796
2157.000000	13.063366
2158.000000	13.001344
2159.000000	12.946426
2160.000000	12.899212
2161.000000	12.855620
2162.000000	12.814798
2163.000000	12.769032
2164.000000	12.729826
2165.000000	12.691444
2166.000000	12.646568
2167.000000	12.610440
2168.000000	12.572030
2169.000000	12.533632
2170.000000	12.474782
2171.000000	12.423264
2172.000000	12.383264
2173.000000	12.356224
2174.000000	12.328136
2175.000000	12.311710
2176.000000	12.290042
2177.000000	12.262440
2178.000000	12.234838
2179.000000	12.213068
2180.000000	12.205480
2181.000000	12.190438
2182.000000	12.161154
2183.000000	12.135332
2184.000000	12.112884
2185.000000	12.081116
2186.000000	12.046728
2187.000000	12.018340
2188.000000	11.998098
2189.000000	11.966786
2190.000000	11.935636
2191.000000	11.899214
2192.000000	11.871814
2193.000000	11.837042
2194.000000	11.806296
2195.000000	11.754734
2196.000000	11.713898
2197.000000	11.685802
2198.000000	11.638122
2199.000000	11.595352
2200.000000	11.550560
2201.000000	11.507870
2202.000000	11.463698
2203.000000	11.417682
2204.000000	11.361744
2205.000000	11.333980
2206.000000	11.300138
2207.000000	11.245736
2208.000000	11.215844
2209.000000	11.187464
2210.000000	11.166956
2211.000000	11.144874
2212.000000	11.146234
2213.000000	11.151178
2214.000000	11.163548
2215.000000	11.177458
2216.000000	11.213056
2217.000000	11.252392
2218.000000	11.294436
2219.000000	11.332928
2220.000000	11.380648
2221.000000	11.434098
2222.000000	11.467900
2223.000000	11.518840
2224.000000	11.579622
2225.000000	11.633248
2226.000000	11.674880
2227.000000	11.717952
2228.000000	11.744452
2229.000000	11.788190
2230.000000	11.817616
2231.000000	11.856578
2232.000000	11.903524
2233.000000	11.936064
2234.000000	11.967868
2235.000000	11.985792
2236.000000	12.002592
2237.000000	12.027310
2238.000000	12.048350
2239.000000	12.050530
2240.000000	12.047068
2241.000000	12.032358
2242.000000	12.009614
2243.000000	11.988860
2244.000000	11.957018
2245.000000	11.939018
2246.000000	11.904414
2247.000000	11.862842
2248.000000	11.821870
2249.000000	11.793614
2250.000000	11.767692
2251.000000	11.739890
2252.000000	11.699430
2253.000000	11.668960
2254.000000	11.618330
2255.000000	11.566844
2256.000000	11.531948
2257.000000	11.490872
2258.000000	11.454334
2259.000000	11.404542
2260.000000	11.356582
2261.000000	11.314936
2262.000000	11.277996
2263.000000	11.219652
2264.000000	11.190930
2265.000000	11.157948
2266.000000	11.130484
2267.000000	11.107134
2268.000000	11.093550
2269.000000	11.076644
2270.000000	11.068664
2271.000000	11.057374
2272.000000	11.063038
2273.000000	11.068260
2274.000000	11.068208
2275.000000	11.068210
2276.000000	11.063068
2277.000000	11.066366
2278.000000	11.068136
2279.000000	11.075300
2280.000000	11.083016
2281.000000	11.090854
2282.000000	11.081536
2283.000000	11.090100
2284.000000	11.099314
2285.000000	11.106652
2286.000000	11.111750
2287.000000	11.115952
2288.000000	11.128302
2289.000000	11.140362
2290.000000	11.136264
2291.000000	11.149344
2292.000000	11.165582
2293.000000	11.164314
2294.000000	11.166794
2295.000000	11.169468
2296.000000	11.180382
2297.000000	11.182224
2298.000000	11.185722
2299.000000	11.190684
2300.000000	11.212442
2301.000000	11.227194
2302.000000	11.251722
2303.000000	11.276542
2304.000000	11.301434
2305.000000	11.326934
2306.000000	11.353222
2307.000000	11.397980
2308.000000	11.438444
2309.000000	11.487594
2310.000000	11.514572
2311.000000	11.533412
2312.000000	11.553320
2313.000000	11.593056
2314.000000	11.629314
2315.000000	11.672370
2316.000000	11.704542
2317.000000	11.738276
2318.000000	11.765700
2319.000000	11.790014
2320.000000	11.829350
2321.000000	11.861940
2322.000000	11.895258
2323.000000	11.930412
2324.000000	11.954914
2325.000000	11.983662
2326.000000	12.014326
2327.000000	12.027192
2328.000000	12.046290
2329.000000	12.070640
2330.000000	12.100210
2331.000000	12.134536
2332.000000	12.159786
2333.000000	12.174460
2334.000000	12.185504
2335.000000	12.186984
2336.000000	12.209892
2337.000000	12.241584
2338.000000	12.247082
2339.000000	12.248808
2340.000000	12.263602
2341.000000	12.283748
2342.000000	12.298178
2343.000000	12.303918
2344.000000	12.321086
2345.000000	12.347472
2346.000000	12.359608
2347.000000	12.378152
2348.000000	12.414586
2349.000000	12.451364
2350.000000	12.475718
2351.000000	12.491554
2352.000000	12.517962
2353.000000	12.538852
2354.000000	12.557950
2355.000000	12.576760
2356.000000	12.596000
2357.000000	12.606236
2358.000000	12.622476
2359.000000	12.630866
2360.000000	12.644488
2361.000000	12.659122
2362.000000	12.664704
2363.000000	12.699610
2364.000000	12.746424
2365.000000	12.786302
2366.000000	12.826502
2367.000000	12.859260
2368.000000	12.877500
2369.000000	12.899066
2370.000000	12.925238
2371.000000	12.954700
2372.000000	12.977898
2373.000000	13.008460
2374.000000	13.030082
2375.000000	13.035718
2376.000000	13.043912
2377.000000	13.061962
2378.000000	13.085156
2379.000000	13.095376
2380.000000	13.103918
2381.000000	13.131534
2382.000000	13.168302
2383.000000	13.180832
2384.000000	13.189914
2385.000000	13.214060
2386.000000	13.232918
2387.000000	13.256710
2388.000000	13.272848
2389.000000	13.294542
2390.000000	13.306278
2391.000000	13.321576
2392.000000	13.335782
2393.000000	13.339374
2394.000000	13.357036
2395.000000	13.386568
2396.000000	13.383590
2397.000000	13.371802
2398.000000	13.367608
2399.000000	13.394160
2400.000000	13.431466
2401.000000	13.432876
2402.000000	13.432216
2403.000000	13.453634
2404.000000	13.458456
2405.000000	13.438730
2406.000000	13.439284
2407.000000	13.452346
2408.000000	13.457722
2409.000000	13.431236
2410.000000	13.400328
2411.000000	13.402090
2412.000000	13.398522
2413.000000	13.355062
2414.000000	13.323426
2415.000000	13.311222
2416.000000	13.295034
2417.000000	13.264598
2418.000000	13.245200
2419.000000	13.232524
2420.000000	13.236314
2421.000000	13.210424
2422.000000	13.191562
2423.000000	13.195662
2424.000000	13.189086
2425.000000	13.182446
2426.000000	13.192226
2427.000000	13.210078
2428.000000	13.234020
2429.000000	13.238900
2430.000000	13.218838
2431.000000	13.228292
2432.000000	13.205928
2433.000000	13.166292
2434.000000	13.134142
2435.000000	13.138534
2436.000000	13.116406
2437.000000	13.075364
2438.000000	13.035432
2439.000000	13.010160
2440.000000	12.960886
2441.000000	12.921844
2442.000000	12.906562
2443.000000	12.910172
2444.000000	12.909476
2445.000000	12.868426
2446.000000	12.854934
2447.000000	12.888168
2448.000000	12.899702
2449.000000	12.912894
2450.000000	12.933864
2451.000000	12.930204
2452.000000	12.964164
2453.000000	12.973902
2454.000000	12.987118
2455.000000	12.999908
2456.000000	13.029046
2457.000000	13.001926
2458.000000	12.974360
2459.000000	13.004306
2460.000000	13.088320
2461.000000	13.118628
2462.000000	13.124410
2463.000000	13.173942
2464.000000	13.270000
2465.000000	13.411206
2466.000000	13.533566
2467.000000	13.673246
2468.000000	13.798654
2469.000000	13.856404
2470.000000	13.923556
2471.000000	14.023402
2472.000000	14.093246
2473.000000	14.209258
2474.000000	14.282140
2475.000000	14.312430
2476.000000	14.393506
2477.000000	14.444692
2478.000000	14.565478
2479.000000	14.686488
2480.000000	14.748968
2481.000000	14.937806
2482.000000	15.129388
2483.000000	15.319870
2484.000000	15.479372
2485.000000	15.640748
2486.000000	15.803152
2487.000000	16.007466
2488.000000	16.244796
2489.000000	16.490544
2490.000000	16.690006
2491.000000	16.943136
2492.000000	17.124390
2493.000000	17.328466
2494.000000	17.672170
2495.000000	17.941308
2496.000000	18.197786
2497.000000	18.422602
2498.000000	18.675162
2499.000000	18.897482
2500.000000	19.096026
2501.000000	22.779698
2502.000000	26.734892
2503.000000	30.695920
2504.000000	34.740134
2505.000000	38.734060
2506.000000	42.736070
2507.000000	47.087332
2508.000000	51.459452
2509.000000	55.814038
2510.000000	60.094140
2511.000000	61.063990
2512.000000	61.960200
2513.000000	63.053910
2514.000000	63.892420
2515.000000	64.885270
2516.000000	66.024620
2517.000000	66.631480
2518.000000	66.962000
2519.000000	67.446300
2520.000000	68.175190
2521.000000	68.905300
2522.000000	69.501680
2523.000000	70.275410
2524.000000	71.003500
2525.000000	71.877760
2526.000000	72.478260
2527.000000	73.169980
2528.000000	74.321450
2529.000000	75.961700
2530.000000	77.324980
2531.000000	78.317190
2532.000000	79.280730
2533.000000	79.579920
2534.000000	80.158120
2535.000000	80.978450
2536.000000	81.691640
2537.000000	82.763480
2538.000000	82.935490
2539.000000	82.729290
2540.000000	83.091370
2541.000000	83.174400
2542.000000	84.255350
2543.000000	85.236990
2544.000000	85.949800
2545.000000	86.701640
2546.000000	87.278720
2547.000000	87.767580
2548.000000	89.148400
2549.000000	90.151920
2550.000000	90.920440
2551.000000	92.155040
2552.000000	92.285070
2553.000000	92.613490
2554.000000	93.346190
2555.000000	93.269710
2556.000000	93.198840
2557.000000	93.580250
2558.000000	93.977530
2559.000000	94.888300
2560.000000	95.174120
2561.000000	95.088280
2562.000000	94.840200
2563.000000	94.500130
2564.000000	93.758790
2565.000000	93.967970
2566.000000	95.088490
2567.000000	95.762060
2568.000000	95.684640
2569.000000	95.088860
2570.000000	95.399210
2571.000000	95.702110
2572.000000	95.852530
2573.000000	96.545900
2574.000000	97.984640
2575.000000	98.402660
2576.000000	98.394380
2577.000000	98.276860
2578.000000	98.412800
2579.000000	99.274560
2580.000000	99.371710
2581.000000	99.479150
2582.000000	100.338000
2583.000000	100.716060
2584.000000	100.145730
2585.000000	99.866910
2586.000000	99.829910
2587.000000	100.062210
2588.000000	100.068330
2589.000000	99.529000
2590.000000	99.316100
2591.000000	99.173250
2592.000000	99.025730
2593.000000	99.261700
2594.000000	100.198640
2595.000000	100.784920
2596.000000	100.458810
2597.000000	100.485080
2598.000000	101.315100
2599.000000	101.178200
2600.000000	100.594240
2601.000000	100.475750
2602.000000	100.317400
2603.000000	100.368550
2604.000000	100.216650
2605.000000	100.459630
2606.000000	101.399620
2607.000000	101.367610
2608.000000	100.995820
2609.000000	101.701020
2610.000000	101.947630
2611.000000	102.160120
2612.000000	102.959720
2613.000000	102.866540
2614.000000	102.369470
2615.000000	102.634560
2616.000000	103.069090
2617.000000	103.573030
2618.000000	103.773690
2619.000000	103.323830
2620.000000	103.891820
2621.000000	104.242550
2622.000000	103.674880
2623.000000	103.517100
2624.000000	103.502860
2625.000000	102.489160
2626.000000	101.424490
2627.000000	100.931990
2628.000000	100.933410
2629.000000	101.121730
2630.000000	101.210690
2631.000000	100.931730
2632.000000	100.954960
2633.000000	101.152350
2634.000000	101.118390
2635.000000	101.912620
2636.000000	102.009930
2637.000000	101.469570
2638.000000	101.184110
2639.000000	101.444440
2640.000000	101.489430
2641.000000	101.303590
2642.000000	100.840860
2643.000000	100.747680
2644.000000	100.916230
2645.000000	100.847660
2646.000000	101.108150
2647.000000	101.818220
2648.000000	101.557250
2649.000000	101.675200
2650.000000	103.107930
2651.000000	104.224270
2652.000000	105.004110
2653.000000	104.682380
2654.000000	104.823560
2655.000000	105.258940
2656.000000	105.224580
2657.000000	104.993050
2658.000000	105.296030
2659.000000	104.980390
2660.000000	104.180950
2661.000000	103.549930
2662.000000	103.417740
2663.000000	103.595830
2664.000000	103.873920
2665.000000	102.781220
2666.000000	103.396800
2667.000000	104.556780
2668.000000	104.488630
2669.000000	104.581360
2670.000000	104.391940
2671.000000	104.364750
2672.000000	104.286160
2673.000000	104.568650
2674.000000	103.982290
2675.000000	104.529240
2676.000000	104.045210
2677.000000	102.860960
2678.000000	101.966250
2679.000000	101.533600
2680.000000	101.118000
2681.000000	100.889900
2682.000000	100.773300
2683.000000	100.398400
2684.000000	99.968860
2685.000000	99.812560
2686.000000	100.709730
2687.000000	100.654420
2688.000000	102.051750
2689.000000	102.802690
2690.000000	102.879200
2691.000000	102.849060
2692.000000	102.977520
2693.000000	103.625650
2694.000000	103.713670
2695.000000	103.746680
2696.000000	102.605870
2697.000000	102.470500
2698.000000	102.428160
2699.000000	102.134740
2700.000000	102.571730
2701.000000	103.021360
2702.000000	102.099570
2703.000000	101.425840
2704.000000	101.554380
2705.000000	101.348890
2706.000000	101.179010
2707.000000	100.864630
2708.000000	99.876360
2709.000000	99.939500
2710.000000	98.268910
2711.000000	97.666050
2712.000000	98.356240
2713.000000	98.712550
2714.000000	99.250860
2715.000000	99.550860
2716.000000	99.569900
2717.000000	100.125940
2718.000000	99.488000
2719.000000	98.980260
2720.000000	99.860230
2721.000000	100.218970
2722.000000	100.108500
2723.000000	100.463520
2724.000000	99.798030
2725.000000	99.971840
2726.000000	100.554470
2727.000000	100.764770
2728.000000	101.023250
2729.000000	102.464440
2730.000000	103.223710
2731.000000	103.394230
2732.000000	103.226250
2733.000000	101.925020
2734.000000	102.441350
2735.000000	102.562090
2736.000000	101.958400
2737.000000	100.913140
2738.000000	102.029200
2739.000000	100.651160
2740.000000	100.040500
2741.000000	100.194410
2742.000000	100.757220
2743.000000	101.320240
2744.000000	101.063330
2745.000000	100.969390
2746.000000	101.454990
2747.000000	102.503550
2748.000000	102.506740
2749.000000	102.420130
2750.000000	103.217720
2751.000000	101.955670
2752.000000	101.607540
2753.000000	102.582030
2754.000000	102.842760
2755.000000	102.416670
2756.000000	102.490440
2757.000000	102.261080
2758.000000	101.521220
2759.000000	101.186140
2760.000000	99.886670
2761.000000	100.669000
2762.000000	100.420030
2763.000000	99.128580
2764.000000	99.511190
2765.000000	99.186690
2766.000000	98.779230
2767.000000	98.822230
2768.000000	99.386380
2769.000000	99.920840
2770.000000	100.364910
2771.000000	100.938120
2772.000000	100.881580
2773.000000	101.293640
2774.000000	101.191810
2775.000000	101.123510
2776.000000	101.119530
2777.000000	101.536010
2778.000000	100.851180
2779.000000	101.266860
2780.000000	101.176050
2781.000000	100.686400
2782.000000	101.355780
2783.000000	101.431520
2784.000000	100.662880
2785.000000	100.837210
2786.000000	99.960130
2787.000000	99.467750
2788.000000	100.254040
2789.000000	99.661440
2790.000000	99.988760
2791.000000	100.420280
2792.000000	100.406050
2793.000000	100.921960
2794.000000	102.867010
2795.000000	102.886430
2796.000000	103.118920
2797.000000	103.171410
2798.000000	103.088380
2799.000000	102.689530
2800.000000	102.686630
2801.000000	102.166720
2802.000000	102.042050
2803.000000	102.090070
2804.000000	100.163430
2805.000000	100.561290
2806.000000	100.988190
2807.000000	100.524230
2808.000000	100.439200
2809.000000	101.355990
2810.000000	100.854800
2811.000000	100.907730
2812.000000	100.544060
2813.000000	99.857730
2814.000000	100.259430
2815.000000	100.569270
2816.000000	100.373850
2817.000000	100.562160
2818.000000	100.408310
2819.000000	99.855990
2820.000000	101.110810
2821.000000	102.266470
2822.000000	102.600880
2823.000000	102.397360
2824.000000	102.267920
2825.000000	101.522170
2826.000000	101.981810
2827.000000	102.719750
2828.000000	102.509270
2829.000000	102.710020
2830.000000	102.320970
2831.000000	101.322660
2832.000000	101.679490
2833.000000	102.244970
2834.000000	102.898500
2835.000000	103.595990
2836.000000	104.072010
2837.000000	103.616100
2838.000000	103.776670
2839.000000	103.520760
2840.000000	102.884060
2841.000000	103.493210
2842.000000	103.534750
2843.000000	104.100000
2844.000000	105.108670
2845.000000	105.321580
2846.000000	104.680350
2847.000000	104.024010
2848.000000	104.523540
2849.000000	105.601610
2850.000000	105.480760
2851.000000	103.910140
2852.000000	103.193300
2853.000000	103.043890
2854.000000	101.382950
2855.000000	100.512860
2856.000000	100.961850
2857.000000	101.674420
2858.000000	101.397410
2859.000000	100.704770
2860.000000	100.584080
2861.000000	101.283670
2862.000000	102.323530
2863.000000	102.207600
2864.000000	102.323030
2865.000000	102.951940
2866.000000	103.031880
2867.000000	103.458030
2868.000000	103.776520
2869.000000	104.074510
2870.000000	105.085790
2871.000000	105.937210
2872.000000	105.874520
2873.000000	105.438380
2874.000000	105.632330
2875.000000	105.685350
2876.000000	105.195880
2877.000000	104.533270
2878.000000	104.213380
2879.000000	104.324040
2880.000000	103.642650
2881.000000	102.670140
2882.000000	101.959950
2883.000000	101.732700
2884.000000	101.049260
2885.000000	100.079260
2886.000000	99.731320
2887.000000	99.597930
2888.000000	99.436180
2889.000000	98.872640
2890.000000	98.537340
2891.000000	99.358950
2892.000000	100.292760
2893.000000	100.679250
2894.000000	101.399270
2895.000000	102.133650
2896.000000	102.278510
2897.000000	102.286430
2898.000000	102.197930
2899.000000	102.332110
2900.000000	103.020560
2901.000000	102.342340
2902.000000	100.993510
2903.000000	100.221740
2904.000000	99.628050
2905.000000	99.889960
2906.000000	100.462030
2907.000000	100.848280
2908.000000	100.948860
2909.000000	101.375840
2910.000000	101.524800
2911.000000	102.475830
2912.000000	103.107470
2913.000000	103.620270
2914.000000	104.410220
2915.000000	104.176780
2916.000000	104.081040
2917.000000	104.665660
2918.000000	104.774730
2919.000000	104.471910
2920.000000	104.319530
2921.000000	103.468390
2922.000000	102.830120
2923.000000	102.882020
2924.000000	102.975410
2925.000000	103.055130
2926.000000	103.253730
2927.000000	102.496130
2928.000000	102.541340
2929.000000	103.071610
2930.000000	102.530160
2931.000000	102.368480
2932.000000	103.206470
2933.000000	103.063540
2934.000000	102.169630
2935.000000	102.583850
2936.000000	102.451770
2937.000000	102.520210
2938.000000	102.362160
2939.000000	102.081940
2940.000000	102.807110
2941.000000	103.079790
2942.000000	102.254490
2943.000000	102.319670
2944.000000	102.659400
2945.000000	101.961530
2946.000000	101.968590
2947.000000	101.290720
2948.000000	101.633840
2949.000000	101.182860
2950.000000	100.885980
2951.000000	100.603450
2952.000000	101.010780
2953.000000	101.519360
2954.000000	101.861780
2955.000000	102.047250
2956.000000	100.933360
2957.000000	101.096330
2958.000000	100.663180
2959.000000	100.054500
2960.000000	99.227420
2961.000000	99.891790
2962.000000	100.050180
2963.000000	99.541750
2964.000000	99.407770
2965.000000	98.570290
2966.000000	100.223880
2967.000000	100.780450
2968.000000	101.074970
2969.000000	102.036350
2970.000000	103.665470
2971.000000	103.139270
2972.000000	103.882480
2973.000000	104.679440
2974.000000	104.520420
2975.000000	105.055120
2976.000000	104.511920
2977.000000	103.243630
2978.000000	102.748200
2979.000000	101.978970
2980.000000	100.647940
2981.000000	100.500070
2982.000000	99.088640
2983.000000	98.105050
2984.000000	98.802770
2985.000000	99.391970
2986.000000	99.016540
2987.000000	100.541110
2988.000000	101.086520
2989.000000	101.244090
2990.000000	101.851120
2991.000000	101.716380
2992.000000	102.148780
2993.000000	103.179840
2994.000000	102.730070
2995.000000	102.820460
2996.000000	104.304770
2997.000000	103.641410
2998.000000	104.492350
2999.000000	104.928600
3000.000000	104.475830
