PE UV       SUBTECH     SPECTRUM    ASCII       PEDS        4.00        
   -1
INBUCR0225-4.Sample.ASC
24/02/08
11:12:46.00
24/02/08
11:12:46.00
Vinicio Soto Monge
C. chrysopedila Det: A. Solís COSTA RICA  Prov Puntarenas Coto Brus. Z. P  Las Tablas Estación Biol. Las Alturas. 1500 m. 15-24 Mar 1999. R. barton de luz L_S_322700_591400 #52438 INB0003120139 INBIOCRI Costa Rica. Sin élitros
250,000000
1
Lambda 1050
1050L1511233
PerkinElmer UV WinLab 6.3.2.0749 / 2.02.05 Lambda 900 UV/VIS/NIR, Aug  7 2015 09:38:08

0
0
3350/servo 860,8/2
0
0
UV/VIS
1
1
1
DoubleDePol,CommonBeamDepol,RBeamAtt,SBeamAtt,60mm sphere, WB InGaAs Detector
0
0
0
0
Program
Program
3350/servo 860,8/2
3350/0,2 860,8/0,2
3350/0,2 860,8/0,2
0
15.00
 
 
 
0
 
860,8
319,2
860,8
Front
100
on
S:100 R:100
0
0
0
0
 
0
 
 
 
0
 
 
0
0
0
0
0
 
 
 
 
0
0


0
0
#HDR
-1
-1
#GR
nm
%R
1.0
0.0
2500,000000
-1,000000
2251
8
13,302700
0,951000
#DATA

250.000000	nan
251.000000	nan
252.000000	nan
253.000000	nan
254.000000	nan
255.000000	nan
256.000000	nan
257.000000	nan
258.000000	nan
259.000000	3.423669
260.000000	3.405698
261.000000	3.384035
262.000000	3.361265
263.000000	3.336508
264.000000	3.310686
265.000000	3.281215
266.000000	3.251579
267.000000	3.223055
268.000000	3.192395
269.000000	3.165144
270.000000	3.140039
271.000000	3.114127
272.000000	3.088924
273.000000	3.065390
274.000000	3.043623
275.000000	3.023227
276.000000	3.006891
277.000000	2.989204
278.000000	2.973622
279.000000	2.961152
280.000000	2.944916
281.000000	2.932604
282.000000	2.922919
283.000000	2.913064
284.000000	2.906610
285.000000	2.904082
286.000000	2.900009
287.000000	2.896390
288.000000	2.896445
289.000000	2.896474
290.000000	2.900988
291.000000	2.908607
292.000000	2.913005
293.000000	2.921806
294.000000	2.932233
295.000000	2.940776
296.000000	2.950905
297.000000	2.966511
298.000000	2.981904
299.000000	2.997260
300.000000	3.011686
301.000000	3.022836
302.000000	3.039096
303.000000	3.050447
304.000000	3.062296
305.000000	3.072788
306.000000	3.083319
307.000000	3.089061
308.000000	3.096296
309.000000	3.100140
310.000000	3.111609
311.000000	3.118947
312.000000	3.124959
313.000000	3.134894
314.000000	3.138247
315.000000	3.147984
316.000000	3.157158
317.000000	3.199858
318.000000	3.241736
319.000000	3.273015
320.000000	3.290312
321.000000	3.309894
322.000000	3.335786
323.000000	3.358299
324.000000	3.382125
325.000000	3.404011
326.000000	3.421921
327.000000	3.404226
328.000000	3.391325
329.000000	3.388296
330.000000	3.388682
331.000000	3.395284
332.000000	3.389026
333.000000	3.385455
334.000000	3.380365
335.000000	3.376129
336.000000	3.375347
337.000000	3.375608
338.000000	3.369061
339.000000	3.371373
340.000000	3.375515
341.000000	3.375432
342.000000	3.378322
343.000000	3.380000
344.000000	3.381073
345.000000	3.382904
346.000000	3.385209
347.000000	3.389690
348.000000	3.397079
349.000000	3.394734
350.000000	3.394049
351.000000	3.397166
352.000000	3.404448
353.000000	3.409417
354.000000	3.423696
355.000000	3.432261
356.000000	3.442279
357.000000	3.454009
358.000000	3.462793
359.000000	3.474224
360.000000	3.485635
361.000000	3.493220
362.000000	3.502742
363.000000	3.514103
364.000000	3.522796
365.000000	3.532398
366.000000	3.539019
367.000000	3.543211
368.000000	3.548408
369.000000	3.555963
370.000000	3.567048
371.000000	3.576054
372.000000	3.576998
373.000000	3.578513
374.000000	3.577419
375.000000	3.581633
376.000000	3.588142
377.000000	3.581813
378.000000	3.574785
379.000000	3.566581
380.000000	3.556134
381.000000	3.547657
382.000000	3.543879
383.000000	3.540480
384.000000	3.537758
385.000000	3.531263
386.000000	3.525317
387.000000	3.533167
388.000000	3.540432
389.000000	3.547681
390.000000	3.555185
391.000000	3.562612
392.000000	3.570120
393.000000	3.577064
394.000000	3.583708
395.000000	3.590689
396.000000	3.597242
397.000000	3.603629
398.000000	3.610177
399.000000	3.616809
400.000000	3.623667
401.000000	3.630283
402.000000	3.636358
403.000000	3.643346
404.000000	3.650563
405.000000	3.657214
406.000000	3.663536
407.000000	3.670301
408.000000	3.677136
409.000000	3.684041
410.000000	3.690341
411.000000	3.697496
412.000000	3.705390
413.000000	3.712212
414.000000	3.719200
415.000000	3.726698
416.000000	3.734735
417.000000	3.742388
418.000000	3.749708
419.000000	3.757031
420.000000	3.764847
421.000000	3.772252
422.000000	3.779583
423.000000	3.788087
424.000000	3.796683
425.000000	3.804974
426.000000	3.812922
427.000000	3.821305
428.000000	3.830683
429.000000	3.840166
430.000000	3.849139
431.000000	3.858676
432.000000	3.868447
433.000000	3.877757
434.000000	3.887365
435.000000	3.897387
436.000000	3.907341
437.000000	3.917471
438.000000	3.927644
439.000000	3.938274
440.000000	3.949240
441.000000	3.960150
442.000000	3.971214
443.000000	3.982708
444.000000	3.993871
445.000000	4.004785
446.000000	4.016077
447.000000	4.026966
448.000000	4.037653
449.000000	4.047888
450.000000	4.058022
451.000000	4.068303
452.000000	4.077807
453.000000	4.086791
454.000000	4.096149
455.000000	4.105964
456.000000	4.115878
457.000000	4.125711
458.000000	4.135256
459.000000	4.145146
460.000000	4.155516
461.000000	4.165749
462.000000	4.176671
463.000000	4.188127
464.000000	4.199347
465.000000	4.210548
466.000000	4.221789
467.000000	4.233345
468.000000	4.245168
469.000000	4.256934
470.000000	4.268157
471.000000	4.279503
472.000000	4.290995
473.000000	4.302553
474.000000	4.314258
475.000000	4.325907
476.000000	4.337802
477.000000	4.349956
478.000000	4.362297
479.000000	4.374938
480.000000	4.388115
481.000000	4.401141
482.000000	4.413966
483.000000	4.427038
484.000000	4.440870
485.000000	4.455440
486.000000	4.470163
487.000000	4.484999
488.000000	4.500062
489.000000	4.515487
490.000000	4.530876
491.000000	4.546849
492.000000	4.563812
493.000000	4.581144
494.000000	4.598439
495.000000	4.615656
496.000000	4.632533
497.000000	4.649776
498.000000	4.667515
499.000000	4.685581
500.000000	4.703743
501.000000	4.722180
502.000000	4.740369
503.000000	4.758581
504.000000	4.776992
505.000000	4.795787
506.000000	4.815354
507.000000	4.834952
508.000000	4.854649
509.000000	4.874180
510.000000	4.894392
511.000000	4.914247
512.000000	4.934326
513.000000	4.954401
514.000000	4.974396
515.000000	4.994427
516.000000	5.014390
517.000000	5.034648
518.000000	5.055107
519.000000	5.076001
520.000000	5.096694
521.000000	5.118146
522.000000	5.140085
523.000000	5.162401
524.000000	5.185311
525.000000	5.208766
526.000000	5.232824
527.000000	5.257239
528.000000	5.282073
529.000000	5.307378
530.000000	5.333282
531.000000	5.359906
532.000000	5.386834
533.000000	5.414236
534.000000	5.441980
535.000000	5.469524
536.000000	5.497236
537.000000	5.525151
538.000000	5.553316
539.000000	5.581044
540.000000	5.609478
541.000000	5.638082
542.000000	5.666216
543.000000	5.694086
544.000000	5.722068
545.000000	5.750101
546.000000	5.778167
547.000000	5.806163
548.000000	5.834167
549.000000	5.862459
550.000000	5.890497
551.000000	5.917708
552.000000	5.945635
553.000000	5.973573
554.000000	6.001002
555.000000	6.028663
556.000000	6.055961
557.000000	6.083101
558.000000	6.110359
559.000000	6.137531
560.000000	6.157845
561.000000	6.177222
562.000000	6.195825
563.000000	6.214724
564.000000	6.233495
565.000000	6.252245
566.000000	6.271348
567.000000	6.290914
568.000000	6.309975
569.000000	6.328795
570.000000	6.353930
571.000000	6.380406
572.000000	6.407633
573.000000	6.433979
574.000000	6.460457
575.000000	6.487816
576.000000	6.515250
577.000000	6.541916
578.000000	6.568535
579.000000	6.595649
580.000000	6.622983
581.000000	6.650330
582.000000	6.677385
583.000000	6.705039
584.000000	6.733218
585.000000	6.760684
586.000000	6.787533
587.000000	6.815276
588.000000	6.842815
589.000000	6.871022
590.000000	6.898428
591.000000	6.926296
592.000000	6.953941
593.000000	6.981775
594.000000	7.010325
595.000000	7.039007
596.000000	7.067515
597.000000	7.096297
598.000000	7.125509
599.000000	7.153934
600.000000	7.183943
601.000000	7.213562
602.000000	7.243109
603.000000	7.272392
604.000000	7.301169
605.000000	7.329926
606.000000	7.359539
607.000000	7.388241
608.000000	7.418019
609.000000	7.447702
610.000000	7.477077
611.000000	7.506213
612.000000	7.536180
613.000000	7.567269
614.000000	7.597519
615.000000	7.627490
616.000000	7.657817
617.000000	7.688138
618.000000	7.718200
619.000000	7.748914
620.000000	7.779259
621.000000	7.809710
622.000000	7.840584
623.000000	7.870489
624.000000	7.901329
625.000000	7.933195
626.000000	7.965680
627.000000	7.998452
628.000000	8.031504
629.000000	8.065030
630.000000	8.099649
631.000000	8.135585
632.000000	8.171462
633.000000	8.207454
634.000000	8.244821
635.000000	8.282730
636.000000	8.320646
637.000000	8.359923
638.000000	8.399806
639.000000	8.440082
640.000000	8.481273
641.000000	8.523669
642.000000	8.566505
643.000000	8.611171
644.000000	8.655954
645.000000	8.702066
646.000000	8.748434
647.000000	8.795763
648.000000	8.843990
649.000000	8.893073
650.000000	8.942856
651.000000	8.991744
652.000000	9.042162
653.000000	9.092384
654.000000	9.143712
655.000000	9.194789
656.000000	9.245404
657.000000	9.296925
658.000000	9.348477
659.000000	9.400496
660.000000	9.452024
661.000000	9.505328
662.000000	9.556502
663.000000	9.609030
664.000000	9.660128
665.000000	9.711922
666.000000	9.764601
667.000000	9.816397
668.000000	9.867888
669.000000	9.919453
670.000000	9.971096
671.000000	10.021922
672.000000	10.073933
673.000000	10.124799
674.000000	10.176474
675.000000	10.227615
676.000000	10.278273
677.000000	10.329483
678.000000	10.381219
679.000000	10.431451
680.000000	10.481169
681.000000	10.531016
682.000000	10.580805
683.000000	10.631261
684.000000	10.682504
685.000000	10.733242
686.000000	10.785514
687.000000	10.836358
688.000000	10.886765
689.000000	10.938119
690.000000	10.989581
691.000000	11.040491
692.000000	11.091890
693.000000	11.142524
694.000000	11.192801
695.000000	11.244363
696.000000	11.294832
697.000000	11.346223
698.000000	11.397323
699.000000	11.448675
700.000000	11.500579
701.000000	11.552804
702.000000	11.605263
703.000000	11.658189
704.000000	11.710838
705.000000	11.762683
706.000000	11.813696
707.000000	11.864740
708.000000	11.916328
709.000000	11.968788
710.000000	12.022045
711.000000	12.073996
712.000000	12.124474
713.000000	12.176396
714.000000	12.227399
715.000000	12.278005
716.000000	12.331339
717.000000	12.384193
718.000000	12.436404
719.000000	12.488660
720.000000	12.539267
721.000000	12.591211
722.000000	12.644755
723.000000	12.697206
724.000000	12.750577
725.000000	12.804670
726.000000	12.856572
727.000000	12.908678
728.000000	12.961391
729.000000	13.013771
730.000000	13.066901
731.000000	13.119805
732.000000	13.172207
733.000000	13.223226
734.000000	13.274644
735.000000	13.325273
736.000000	13.376509
737.000000	13.427832
738.000000	13.478753
739.000000	13.529946
740.000000	13.582282
741.000000	13.634678
742.000000	13.687405
743.000000	13.741673
744.000000	13.795687
745.000000	13.849670
746.000000	13.903650
747.000000	13.958560
748.000000	14.013806
749.000000	14.066600
750.000000	14.117401
751.000000	14.169426
752.000000	14.220685
753.000000	14.272323
754.000000	14.324256
755.000000	14.375706
756.000000	14.428661
757.000000	14.482335
758.000000	14.536279
759.000000	14.591073
760.000000	14.647090
761.000000	14.701305
762.000000	14.755639
763.000000	14.809698
764.000000	14.862990
765.000000	14.916879
766.000000	14.970276
767.000000	15.021545
768.000000	15.072295
769.000000	15.122844
770.000000	15.173684
771.000000	15.224925
772.000000	15.277549
773.000000	15.330025
774.000000	15.381463
775.000000	15.432836
776.000000	15.484977
777.000000	15.538415
778.000000	15.591003
779.000000	15.643190
780.000000	15.693927
781.000000	15.745542
782.000000	15.798428
783.000000	15.849586
784.000000	15.901934
785.000000	15.952983
786.000000	16.003446
787.000000	16.053274
788.000000	16.105920
789.000000	16.161999
790.000000	16.218333
791.000000	16.274570
792.000000	16.326937
793.000000	16.381152
794.000000	16.434241
795.000000	16.488311
796.000000	16.542437
797.000000	16.595325
798.000000	16.646720
799.000000	16.697105
800.000000	16.746887
801.000000	16.794558
802.000000	16.843619
803.000000	16.893625
804.000000	16.946013
805.000000	16.998846
806.000000	17.049628
807.000000	17.101957
808.000000	17.155261
809.000000	17.206156
810.000000	17.259711
811.000000	17.314049
812.000000	17.370266
813.000000	17.423066
814.000000	17.470970
815.000000	17.520718
816.000000	17.573416
817.000000	17.623170
818.000000	17.674099
819.000000	17.725495
820.000000	17.776186
821.000000	17.823020
822.000000	17.866138
823.000000	17.911592
824.000000	17.961934
825.000000	18.008748
826.000000	18.053572
827.000000	18.097742
828.000000	18.140392
829.000000	18.182639
830.000000	18.221411
831.000000	18.263907
832.000000	18.309833
833.000000	18.353261
834.000000	18.391719
835.000000	18.428418
836.000000	18.461702
837.000000	18.501692
838.000000	18.542038
839.000000	18.579651
840.000000	18.612079
841.000000	18.648513
842.000000	18.679245
843.000000	18.715291
844.000000	18.756058
845.000000	18.791794
846.000000	18.828345
847.000000	18.856471
848.000000	18.880569
849.000000	18.905840
850.000000	18.935265
851.000000	18.957588
852.000000	18.994278
853.000000	19.019922
854.000000	19.047305
855.000000	19.061687
856.000000	19.093535
857.000000	19.145946
858.000000	19.221156
859.000000	19.307345
860.000000	19.397031
861.000000	19.491605
862.000000	19.577440
863.000000	19.671000
864.000000	19.762178
865.000000	19.872258
866.000000	19.966814
867.000000	20.044294
868.000000	20.101340
869.000000	20.148177
870.000000	20.192640
871.000000	20.234530
872.000000	20.273097
873.000000	20.310367
874.000000	20.345753
875.000000	20.381487
876.000000	20.415060
877.000000	20.449430
878.000000	20.482113
879.000000	20.513547
880.000000	20.545160
881.000000	20.576860
882.000000	20.607480
883.000000	20.638093
884.000000	20.666980
885.000000	20.694960
886.000000	20.722640
887.000000	20.748337
888.000000	20.772723
889.000000	20.797220
890.000000	20.821230
891.000000	20.843333
892.000000	20.865357
893.000000	20.886457
894.000000	20.907273
895.000000	20.927913
896.000000	20.948360
897.000000	20.966343
898.000000	20.984777
899.000000	21.002943
900.000000	21.022400
901.000000	21.041130
902.000000	21.058140
903.000000	21.073643
904.000000	21.089367
905.000000	21.106907
906.000000	21.124043
907.000000	21.144077
908.000000	21.163737
909.000000	21.182973
910.000000	21.199917
911.000000	21.219577
912.000000	21.241153
913.000000	21.262557
914.000000	21.284053
915.000000	21.303077
916.000000	21.322950
917.000000	21.342453
918.000000	21.362130
919.000000	21.382970
920.000000	21.405833
921.000000	21.426643
922.000000	21.447520
923.000000	21.469560
924.000000	21.491170
925.000000	21.513803
926.000000	21.535943
927.000000	21.556013
928.000000	21.577607
929.000000	21.597767
930.000000	21.617603
931.000000	21.637563
932.000000	21.657497
933.000000	21.678050
934.000000	21.698273
935.000000	21.718413
936.000000	21.737187
937.000000	21.757450
938.000000	21.776497
939.000000	21.794870
940.000000	21.811247
941.000000	21.827130
942.000000	21.841643
943.000000	21.856920
944.000000	21.872027
945.000000	21.887617
946.000000	21.904670
947.000000	21.921710
948.000000	21.937607
949.000000	21.955400
950.000000	21.973463
951.000000	21.991940
952.000000	22.011567
953.000000	22.029257
954.000000	22.046937
955.000000	22.064180
956.000000	22.081307
957.000000	22.098017
958.000000	22.114837
959.000000	22.131920
960.000000	22.149060
961.000000	22.165783
962.000000	22.181740
963.000000	22.198547
964.000000	22.215743
965.000000	22.231433
966.000000	22.246130
967.000000	22.260403
968.000000	22.275917
969.000000	22.289240
970.000000	22.303477
971.000000	22.317157
972.000000	22.331713
973.000000	22.345117
974.000000	22.358327
975.000000	22.372837
976.000000	22.388343
977.000000	22.405117
978.000000	22.420220
979.000000	22.435597
980.000000	22.450830
981.000000	22.465810
982.000000	22.480947
983.000000	22.497407
984.000000	22.513820
985.000000	22.528853
986.000000	22.543747
987.000000	22.557597
988.000000	22.572670
989.000000	22.588710
990.000000	22.604397
991.000000	22.620903
992.000000	22.635913
993.000000	22.649923
994.000000	22.665077
995.000000	22.679480
996.000000	22.693153
997.000000	22.706177
998.000000	22.719000
999.000000	22.732100
1000.000000	22.744320
1001.000000	22.757217
1002.000000	22.771287
1003.000000	22.785337
1004.000000	22.797600
1005.000000	22.809793
1006.000000	22.823957
1007.000000	22.840760
1008.000000	22.856643
1009.000000	22.870863
1010.000000	22.885847
1011.000000	22.900237
1012.000000	22.913027
1013.000000	22.924770
1014.000000	22.937360
1015.000000	22.952157
1016.000000	22.966053
1017.000000	22.977327
1018.000000	22.988497
1019.000000	23.001350
1020.000000	23.014390
1021.000000	23.027937
1022.000000	23.042847
1023.000000	23.058067
1024.000000	23.073257
1025.000000	23.088053
1026.000000	23.102663
1027.000000	23.118303
1028.000000	23.134733
1029.000000	23.151797
1030.000000	23.168680
1031.000000	23.184720
1032.000000	23.202053
1033.000000	23.220400
1034.000000	23.238300
1035.000000	23.255480
1036.000000	23.272367
1037.000000	23.289400
1038.000000	23.305567
1039.000000	23.321293
1040.000000	23.337813
1041.000000	23.354227
1042.000000	23.368323
1043.000000	23.381833
1044.000000	23.397160
1045.000000	23.413157
1046.000000	23.429300
1047.000000	23.445433
1048.000000	23.461953
1049.000000	23.478037
1050.000000	23.493570
1051.000000	23.509373
1052.000000	23.526347
1053.000000	23.544593
1054.000000	23.561803
1055.000000	23.579240
1056.000000	23.597367
1057.000000	23.614600
1058.000000	23.632137
1059.000000	23.649580
1060.000000	23.666790
1061.000000	23.684430
1062.000000	23.701677
1063.000000	23.718310
1064.000000	23.734307
1065.000000	23.750033
1066.000000	23.766017
1067.000000	23.781877
1068.000000	23.798460
1069.000000	23.815753
1070.000000	23.832893
1071.000000	23.849310
1072.000000	23.866037
1073.000000	23.883070
1074.000000	23.900990
1075.000000	23.918430
1076.000000	23.936120
1077.000000	23.953417
1078.000000	23.969747
1079.000000	23.985467
1080.000000	24.000743
1081.000000	24.017670
1082.000000	24.034663
1083.000000	24.050300
1084.000000	24.065050
1085.000000	24.079637
1086.000000	24.093113
1087.000000	24.108320
1088.000000	24.124150
1089.000000	24.140447
1090.000000	24.166173
1091.000000	24.195073
1092.000000	24.223887
1093.000000	24.253360
1094.000000	24.282323
1095.000000	24.311437
1096.000000	24.339830
1097.000000	24.367470
1098.000000	24.393560
1099.000000	24.418313
1100.000000	24.434300
1101.000000	24.445803
1102.000000	24.456663
1103.000000	24.467367
1104.000000	24.478187
1105.000000	24.488683
1106.000000	24.498703
1107.000000	24.508653
1108.000000	24.519527
1109.000000	24.530717
1110.000000	24.541423
1111.000000	24.551570
1112.000000	24.561307
1113.000000	24.570057
1114.000000	24.578397
1115.000000	24.587073
1116.000000	24.596223
1117.000000	24.605663
1118.000000	24.614047
1119.000000	24.622013
1120.000000	24.629130
1121.000000	24.637363
1122.000000	24.645900
1123.000000	24.654973
1124.000000	24.663003
1125.000000	24.670477
1126.000000	24.676590
1127.000000	24.680823
1128.000000	24.684667
1129.000000	24.687083
1130.000000	24.687097
1131.000000	24.682390
1132.000000	24.675553
1133.000000	24.668667
1134.000000	24.664897
1135.000000	24.659923
1136.000000	24.651457
1137.000000	24.638930
1138.000000	24.625763
1139.000000	24.610883
1140.000000	24.599370
1141.000000	24.588203
1142.000000	24.576767
1143.000000	24.562750
1144.000000	24.547913
1145.000000	24.533087
1146.000000	24.521870
1147.000000	24.513963
1148.000000	24.506497
1149.000000	24.500193
1150.000000	24.491567
1151.000000	24.485813
1152.000000	24.479310
1153.000000	24.474173
1154.000000	24.465120
1155.000000	24.455650
1156.000000	24.444830
1157.000000	24.432657
1158.000000	24.418647
1159.000000	24.402853
1160.000000	24.386107
1161.000000	24.365670
1162.000000	24.344777
1163.000000	24.321710
1164.000000	24.298500
1165.000000	24.273703
1166.000000	24.246337
1167.000000	24.219887
1168.000000	24.192450
1169.000000	24.166747
1170.000000	24.140433
1171.000000	24.116453
1172.000000	24.092197
1173.000000	24.069183
1174.000000	24.047453
1175.000000	24.026330
1176.000000	24.008253
1177.000000	23.989650
1178.000000	23.972163
1179.000000	23.955103
1180.000000	23.941027
1181.000000	23.926023
1182.000000	23.912680
1183.000000	23.899413
1184.000000	23.886857
1185.000000	23.876867
1186.000000	23.869027
1187.000000	23.863977
1188.000000	23.860223
1189.000000	23.859130
1190.000000	23.857863
1191.000000	23.861447
1192.000000	23.868840
1193.000000	23.878670
1194.000000	23.891800
1195.000000	23.906690
1196.000000	23.922907
1197.000000	23.939730
1198.000000	23.958440
1199.000000	23.977660
1200.000000	23.998733
1201.000000	24.019697
1202.000000	24.040223
1203.000000	24.061340
1204.000000	24.082157
1205.000000	24.101677
1206.000000	24.121350
1207.000000	24.142343
1208.000000	24.163623
1209.000000	24.184433
1210.000000	24.205033
1211.000000	24.225633
1212.000000	24.245983
1213.000000	24.266883
1214.000000	24.287213
1215.000000	24.307670
1216.000000	24.326833
1217.000000	24.344523
1218.000000	24.362500
1219.000000	24.379973
1220.000000	24.397230
1221.000000	24.413657
1222.000000	24.429540
1223.000000	24.443110
1224.000000	24.455950
1225.000000	24.469370
1226.000000	24.482187
1227.000000	24.494593
1228.000000	24.505480
1229.000000	24.516173
1230.000000	24.526303
1231.000000	24.534413
1232.000000	24.541483
1233.000000	24.548497
1234.000000	24.554003
1235.000000	24.557950
1236.000000	24.561677
1237.000000	24.564487
1238.000000	24.567973
1239.000000	24.569600
1240.000000	24.571207
1241.000000	24.574203
1242.000000	24.578137
1243.000000	24.582850
1244.000000	24.587960
1245.000000	24.593767
1246.000000	24.600990
1247.000000	24.608743
1248.000000	24.617500
1249.000000	24.629080
1250.000000	24.641783
1251.000000	24.654180
1252.000000	24.666000
1253.000000	24.679210
1254.000000	24.694280
1255.000000	24.708827
1256.000000	24.722327
1257.000000	24.735940
1258.000000	24.748163
1259.000000	24.760077
1260.000000	24.770150
1261.000000	24.780237
1262.000000	24.790393
1263.000000	24.797723
1264.000000	24.803403
1265.000000	24.809557
1266.000000	24.814520
1267.000000	24.817733
1268.000000	24.820630
1269.000000	24.821893
1270.000000	24.822463
1271.000000	24.822857
1272.000000	24.822353
1273.000000	24.821223
1274.000000	24.819870
1275.000000	24.817877
1276.000000	24.815693
1277.000000	24.815000
1278.000000	24.815453
1279.000000	24.815890
1280.000000	24.817080
1281.000000	24.817577
1282.000000	24.818810
1283.000000	24.822227
1284.000000	24.826563
1285.000000	24.831747
1286.000000	24.837663
1287.000000	24.843287
1288.000000	24.848527
1289.000000	24.854727
1290.000000	24.860567
1291.000000	24.866317
1292.000000	24.872153
1293.000000	24.878050
1294.000000	24.883337
1295.000000	24.887557
1296.000000	24.891633
1297.000000	24.895800
1298.000000	24.899150
1299.000000	24.901933
1300.000000	24.904540
1301.000000	24.906690
1302.000000	24.908517
1303.000000	24.909017
1304.000000	24.908660
1305.000000	24.907437
1306.000000	24.906213
1307.000000	24.905100
1308.000000	24.903480
1309.000000	24.900973
1310.000000	24.898103
1311.000000	24.894560
1312.000000	24.889263
1313.000000	24.883133
1314.000000	24.877010
1315.000000	24.870613
1316.000000	24.862073
1317.000000	24.851743
1318.000000	24.841400
1319.000000	24.830363
1320.000000	24.818000
1321.000000	24.805503
1322.000000	24.792753
1323.000000	24.778943
1324.000000	24.763477
1325.000000	24.747673
1326.000000	24.731743
1327.000000	24.715247
1328.000000	24.696450
1329.000000	24.676380
1330.000000	24.656717
1331.000000	24.636490
1332.000000	24.614633
1333.000000	24.591413
1334.000000	24.566810
1335.000000	24.541133
1336.000000	24.514993
1337.000000	24.487187
1338.000000	24.458627
1339.000000	24.430017
1340.000000	24.399013
1341.000000	24.365177
1342.000000	24.330337
1343.000000	24.294980
1344.000000	24.258993
1345.000000	24.220077
1346.000000	24.179363
1347.000000	24.139823
1348.000000	24.098390
1349.000000	24.054723
1350.000000	24.010320
1351.000000	23.965497
1352.000000	23.921057
1353.000000	23.877413
1354.000000	23.837477
1355.000000	23.800743
1356.000000	23.763703
1357.000000	23.723793
1358.000000	23.684527
1359.000000	23.645753
1360.000000	23.612653
1361.000000	23.588693
1362.000000	23.562680
1363.000000	23.533380
1364.000000	23.501623
1365.000000	23.465813
1366.000000	23.427150
1367.000000	23.389377
1368.000000	23.346660
1369.000000	23.296530
1370.000000	23.233983
1371.000000	23.155350
1372.000000	23.064420
1373.000000	22.957273
1374.000000	22.828877
1375.000000	22.685603
1376.000000	22.525663
1377.000000	22.349773
1378.000000	22.161273
1379.000000	21.966227
1380.000000	21.771313
1381.000000	21.584263
1382.000000	21.409940
1383.000000	21.253990
1384.000000	21.115890
1385.000000	20.994720
1386.000000	20.895233
1387.000000	20.821123
1388.000000	20.770260
1389.000000	20.734563
1390.000000	20.708690
1391.000000	20.690620
1392.000000	20.680563
1393.000000	20.676623
1394.000000	20.682633
1395.000000	20.702583
1396.000000	20.723280
1397.000000	20.729817
1398.000000	20.733557
1399.000000	20.745500
1400.000000	20.765233
1401.000000	20.773130
1402.000000	20.768530
1403.000000	20.755923
1404.000000	20.739770
1405.000000	20.708167
1406.000000	20.673970
1407.000000	20.643903
1408.000000	20.610950
1409.000000	20.567843
1410.000000	20.508557
1411.000000	20.448830
1412.000000	20.393643
1413.000000	20.342607
1414.000000	20.289353
1415.000000	20.231287
1416.000000	20.168607
1417.000000	20.108427
1418.000000	20.050170
1419.000000	19.993387
1420.000000	19.939110
1421.000000	19.884867
1422.000000	19.832163
1423.000000	19.779847
1424.000000	19.724637
1425.000000	19.673367
1426.000000	19.627670
1427.000000	19.581877
1428.000000	19.535193
1429.000000	19.486560
1430.000000	19.442010
1431.000000	19.404933
1432.000000	19.369240
1433.000000	19.332507
1434.000000	19.297923
1435.000000	19.267113
1436.000000	19.236967
1437.000000	19.210073
1438.000000	19.183623
1439.000000	19.158993
1440.000000	19.136313
1441.000000	19.113890
1442.000000	19.090403
1443.000000	19.066310
1444.000000	19.045487
1445.000000	19.027677
1446.000000	19.010837
1447.000000	18.987573
1448.000000	18.966890
1449.000000	18.949753
1450.000000	18.933623
1451.000000	18.916017
1452.000000	18.897897
1453.000000	18.880877
1454.000000	18.862407
1455.000000	18.841660
1456.000000	18.822230
1457.000000	18.806587
1458.000000	18.788720
1459.000000	18.768703
1460.000000	18.747650
1461.000000	18.726467
1462.000000	18.708437
1463.000000	18.691597
1464.000000	18.673053
1465.000000	18.656167
1466.000000	18.638870
1467.000000	18.620863
1468.000000	18.603707
1469.000000	18.588320
1470.000000	18.575050
1471.000000	18.563527
1472.000000	18.550017
1473.000000	18.536090
1474.000000	18.523247
1475.000000	18.508723
1476.000000	18.495370
1477.000000	18.485620
1478.000000	18.474990
1479.000000	18.463807
1480.000000	18.451220
1481.000000	18.436807
1482.000000	18.423690
1483.000000	18.409803
1484.000000	18.397200
1485.000000	18.384430
1486.000000	18.371390
1487.000000	18.356630
1488.000000	18.343177
1489.000000	18.328400
1490.000000	18.313267
1491.000000	18.299997
1492.000000	18.287040
1493.000000	18.275703
1494.000000	18.264503
1495.000000	18.255703
1496.000000	18.247330
1497.000000	18.240397
1498.000000	18.235490
1499.000000	18.233947
1500.000000	18.233687
1501.000000	18.236280
1502.000000	18.241317
1503.000000	18.248283
1504.000000	18.257363
1505.000000	18.267970
1506.000000	18.280190
1507.000000	18.292853
1508.000000	18.306947
1509.000000	18.323053
1510.000000	18.340080
1511.000000	18.356837
1512.000000	18.375067
1513.000000	18.393700
1514.000000	18.412263
1515.000000	18.431157
1516.000000	18.450803
1517.000000	18.471710
1518.000000	18.492703
1519.000000	18.512677
1520.000000	18.532990
1521.000000	18.554067
1522.000000	18.574330
1523.000000	18.594673
1524.000000	18.615810
1525.000000	18.636913
1526.000000	18.657907
1527.000000	18.678923
1528.000000	18.698937
1529.000000	18.718930
1530.000000	18.738823
1531.000000	18.758637
1532.000000	18.779003
1533.000000	18.798843
1534.000000	18.817680
1535.000000	18.836713
1536.000000	18.854507
1537.000000	18.871903
1538.000000	18.889847
1539.000000	18.906993
1540.000000	18.923840
1541.000000	18.939033
1542.000000	18.953457
1543.000000	18.969633
1544.000000	18.985830
1545.000000	19.002273
1546.000000	19.020630
1547.000000	19.039470
1548.000000	19.059477
1549.000000	19.080797
1550.000000	19.103117
1551.000000	19.126600
1552.000000	19.150913
1553.000000	19.174740
1554.000000	19.198940
1555.000000	19.222157
1556.000000	19.244200
1557.000000	19.265847
1558.000000	19.285683
1559.000000	19.303763
1560.000000	19.320550
1561.000000	19.335253
1562.000000	19.347660
1563.000000	19.357567
1564.000000	19.365230
1565.000000	19.371080
1566.000000	19.374220
1567.000000	19.375767
1568.000000	19.376617
1569.000000	19.376537
1570.000000	19.375297
1571.000000	19.374237
1572.000000	19.373213
1573.000000	19.372113
1574.000000	19.372363
1575.000000	19.373057
1576.000000	19.375020
1577.000000	19.378067
1578.000000	19.381277
1579.000000	19.385190
1580.000000	19.390367
1581.000000	19.397060
1582.000000	19.405820
1583.000000	19.416550
1584.000000	19.427320
1585.000000	19.439130
1586.000000	19.452717
1587.000000	19.466810
1588.000000	19.481437
1589.000000	19.497173
1590.000000	19.514020
1591.000000	19.529837
1592.000000	19.544430
1593.000000	19.558757
1594.000000	19.573727
1595.000000	19.589527
1596.000000	19.605013
1597.000000	19.620643
1598.000000	19.637997
1599.000000	19.656073
1600.000000	19.673740
1601.000000	19.692317
1602.000000	19.712690
1603.000000	19.733323
1604.000000	19.753910
1605.000000	19.775240
1606.000000	19.796740
1607.000000	19.817343
1608.000000	19.837203
1609.000000	19.856460
1610.000000	19.875000
1611.000000	19.892573
1612.000000	19.908990
1613.000000	19.924920
1614.000000	19.939830
1615.000000	19.953020
1616.000000	19.965210
1617.000000	19.977643
1618.000000	19.989267
1619.000000	20.000380
1620.000000	20.011350
1621.000000	20.022840
1622.000000	20.034230
1623.000000	20.044557
1624.000000	20.054790
1625.000000	20.065870
1626.000000	20.077027
1627.000000	20.088273
1628.000000	20.099573
1629.000000	20.111310
1630.000000	20.122743
1631.000000	20.133463
1632.000000	20.143777
1633.000000	20.154377
1634.000000	20.164940
1635.000000	20.174983
1636.000000	20.185477
1637.000000	20.194440
1638.000000	20.203343
1639.000000	20.210583
1640.000000	20.217200
1641.000000	20.223890
1642.000000	20.229990
1643.000000	20.235677
1644.000000	20.240543
1645.000000	20.244330
1646.000000	20.247147
1647.000000	20.249403
1648.000000	20.251433
1649.000000	20.252227
1650.000000	20.253327
1651.000000	20.253667
1652.000000	20.252053
1653.000000	20.248580
1654.000000	20.244757
1655.000000	20.239040
1656.000000	20.230657
1657.000000	20.220243
1658.000000	20.206913
1659.000000	20.190937
1660.000000	20.170570
1661.000000	20.148263
1662.000000	20.125423
1663.000000	20.099900
1664.000000	20.070333
1665.000000	20.038890
1666.000000	20.004053
1667.000000	19.968503
1668.000000	19.927437
1669.000000	19.885473
1670.000000	19.842280
1671.000000	19.794823
1672.000000	19.743630
1673.000000	19.690947
1674.000000	19.636543
1675.000000	19.579973
1676.000000	19.523270
1677.000000	19.462550
1678.000000	19.404667
1679.000000	19.343133
1680.000000	19.280683
1681.000000	19.218963
1682.000000	19.153697
1683.000000	19.087747
1684.000000	19.021327
1685.000000	18.956080
1686.000000	18.891053
1687.000000	18.830677
1688.000000	18.772923
1689.000000	18.722323
1690.000000	18.678407
1691.000000	18.641230
1692.000000	18.611433
1693.000000	18.589067
1694.000000	18.575283
1695.000000	18.566713
1696.000000	18.563990
1697.000000	18.563307
1698.000000	18.563640
1699.000000	18.565673
1700.000000	18.566757
1701.000000	18.565950
1702.000000	18.566210
1703.000000	18.564533
1704.000000	18.561240
1705.000000	18.557300
1706.000000	18.552210
1707.000000	18.544317
1708.000000	18.535787
1709.000000	18.524213
1710.000000	18.509490
1711.000000	18.492190
1712.000000	18.471143
1713.000000	18.447283
1714.000000	18.417670
1715.000000	18.382910
1716.000000	18.343537
1717.000000	18.301433
1718.000000	18.255370
1719.000000	18.206763
1720.000000	18.157467
1721.000000	18.106410
1722.000000	18.057227
1723.000000	18.011150
1724.000000	17.969160
1725.000000	17.932663
1726.000000	17.900133
1727.000000	17.872967
1728.000000	17.853050
1729.000000	17.838780
1730.000000	17.829200
1731.000000	17.826030
1732.000000	17.826177
1733.000000	17.828027
1734.000000	17.833830
1735.000000	17.841083
1736.000000	17.850670
1737.000000	17.863227
1738.000000	17.876627
1739.000000	17.891497
1740.000000	17.907910
1741.000000	17.925083
1742.000000	17.944087
1743.000000	17.962957
1744.000000	17.982063
1745.000000	18.001550
1746.000000	18.022743
1747.000000	18.043527
1748.000000	18.063413
1749.000000	18.083077
1750.000000	18.102020
1751.000000	18.120477
1752.000000	18.137110
1753.000000	18.153843
1754.000000	18.167743
1755.000000	18.180070
1756.000000	18.189770
1757.000000	18.199153
1758.000000	18.208517
1759.000000	18.215970
1760.000000	18.222163
1761.000000	18.226580
1762.000000	18.231400
1763.000000	18.236717
1764.000000	18.243107
1765.000000	18.251097
1766.000000	18.261520
1767.000000	18.271720
1768.000000	18.281277
1769.000000	18.292857
1770.000000	18.306300
1771.000000	18.320423
1772.000000	18.335650
1773.000000	18.350853
1774.000000	18.366663
1775.000000	18.382263
1776.000000	18.396457
1777.000000	18.409907
1778.000000	18.423180
1779.000000	18.436407
1780.000000	18.448967
1781.000000	18.461527
1782.000000	18.471797
1783.000000	18.479870
1784.000000	18.487380
1785.000000	18.493457
1786.000000	18.497943
1787.000000	18.501867
1788.000000	18.504300
1789.000000	18.503800
1790.000000	18.501860
1791.000000	18.500590
1792.000000	18.500267
1793.000000	18.500653
1794.000000	18.499567
1795.000000	18.497830
1796.000000	18.496437
1797.000000	18.494673
1798.000000	18.493553
1799.000000	18.494700
1800.000000	18.498547
1801.000000	18.502943
1802.000000	18.506160
1803.000000	18.508367
1804.000000	18.510933
1805.000000	18.516467
1806.000000	18.523440
1807.000000	18.529800
1808.000000	18.534137
1809.000000	18.536830
1810.000000	18.540307
1811.000000	18.544243
1812.000000	18.547317
1813.000000	18.550490
1814.000000	18.554813
1815.000000	18.557497
1816.000000	18.557237
1817.000000	18.554807
1818.000000	18.552510
1819.000000	18.554520
1820.000000	18.560933
1821.000000	18.568907
1822.000000	18.574890
1823.000000	18.575590
1824.000000	18.571920
1825.000000	18.567887
1826.000000	18.568300
1827.000000	18.573557
1828.000000	18.581967
1829.000000	18.589090
1830.000000	18.590670
1831.000000	18.588743
1832.000000	18.587820
1833.000000	18.589103
1834.000000	18.593670
1835.000000	18.601667
1836.000000	18.611290
1837.000000	18.620463
1838.000000	18.629143
1839.000000	18.636640
1840.000000	18.646203
1841.000000	18.660837
1842.000000	18.676450
1843.000000	18.688527
1844.000000	18.691383
1845.000000	18.687117
1846.000000	18.684330
1847.000000	18.689743
1848.000000	18.700460
1849.000000	18.706833
1850.000000	18.700903
1851.000000	18.682973
1852.000000	18.665273
1853.000000	18.657537
1854.000000	18.660387
1855.000000	18.664383
1856.000000	18.657463
1857.000000	18.637550
1858.000000	18.612853
1859.000000	18.591700
1860.000000	18.577060
1861.000000	18.565900
1862.000000	18.549390
1863.000000	18.523533
1864.000000	18.490123
1865.000000	18.453417
1866.000000	18.417440
1867.000000	18.381253
1868.000000	18.340900
1869.000000	18.298260
1870.000000	18.257140
1871.000000	18.216573
1872.000000	18.178017
1873.000000	18.139813
1874.000000	18.099110
1875.000000	18.055500
1876.000000	18.007827
1877.000000	17.953860
1878.000000	17.892280
1879.000000	17.819593
1880.000000	17.732927
1881.000000	17.635860
1882.000000	17.531527
1883.000000	17.423057
1884.000000	17.309653
1885.000000	17.189387
1886.000000	17.060377
1887.000000	16.924617
1888.000000	16.781947
1889.000000	16.637043
1890.000000	16.489887
1891.000000	16.341343
1892.000000	16.187447
1893.000000	16.025130
1894.000000	15.857987
1895.000000	15.686567
1896.000000	15.514100
1897.000000	15.340310
1898.000000	15.169660
1899.000000	15.000273
1900.000000	14.830973
1901.000000	14.660743
1902.000000	14.490737
1903.000000	14.324823
1904.000000	14.165427
1905.000000	14.013520
1906.000000	13.865917
1907.000000	13.723450
1908.000000	13.582720
1909.000000	13.441933
1910.000000	13.304870
1911.000000	13.176053
1912.000000	13.056853
1913.000000	12.944597
1914.000000	12.834927
1915.000000	12.727873
1916.000000	12.625433
1917.000000	12.526233
1918.000000	12.432203
1919.000000	12.347923
1920.000000	12.271410
1921.000000	12.196383
1922.000000	12.123073
1923.000000	12.052403
1924.000000	11.983740
1925.000000	11.920200
1926.000000	11.863267
1927.000000	11.814453
1928.000000	11.769507
1929.000000	11.726697
1930.000000	11.687580
1931.000000	11.650937
1932.000000	11.616670
1933.000000	11.586047
1934.000000	11.560500
1935.000000	11.537600
1936.000000	11.516740
1937.000000	11.498727
1938.000000	11.486477
1939.000000	11.475907
1940.000000	11.466647
1941.000000	11.461190
1942.000000	11.458993
1943.000000	11.459183
1944.000000	11.466067
1945.000000	11.475287
1946.000000	11.487047
1947.000000	11.498970
1948.000000	11.510653
1949.000000	11.523887
1950.000000	11.539130
1951.000000	11.556990
1952.000000	11.577147
1953.000000	11.599390
1954.000000	11.621330
1955.000000	11.643550
1956.000000	11.665833
1957.000000	11.691257
1958.000000	11.717463
1959.000000	11.743807
1960.000000	11.771057
1961.000000	11.797990
1962.000000	11.824993
1963.000000	11.851163
1964.000000	11.877180
1965.000000	11.905130
1966.000000	11.931297
1967.000000	11.956913
1968.000000	11.981277
1969.000000	12.006900
1970.000000	12.031427
1971.000000	12.056393
1972.000000	12.081053
1973.000000	12.106797
1974.000000	12.130057
1975.000000	12.153700
1976.000000	12.179483
1977.000000	12.203783
1978.000000	12.230017
1979.000000	12.257077
1980.000000	12.285227
1981.000000	12.312470
1982.000000	12.341350
1983.000000	12.370687
1984.000000	12.401600
1985.000000	12.431413
1986.000000	12.461430
1987.000000	12.491623
1988.000000	12.523550
1989.000000	12.554527
1990.000000	12.585110
1991.000000	12.617293
1992.000000	12.648570
1993.000000	12.677780
1994.000000	12.707367
1995.000000	12.737657
1996.000000	12.766577
1997.000000	12.796350
1998.000000	12.823043
1999.000000	12.849450
2000.000000	12.874863
2001.000000	12.896907
2002.000000	12.918243
2003.000000	12.940023
2004.000000	12.960470
2005.000000	12.979030
2006.000000	12.996427
2007.000000	13.011800
2008.000000	13.024900
2009.000000	13.036763
2010.000000	13.046693
2011.000000	13.057457
2012.000000	13.064927
2013.000000	13.069240
2014.000000	13.071160
2015.000000	13.070807
2016.000000	13.070500
2017.000000	13.066687
2018.000000	13.062313
2019.000000	13.054963
2020.000000	13.046613
2021.000000	13.035043
2022.000000	13.022330
2023.000000	13.008713
2024.000000	12.992260
2025.000000	12.975107
2026.000000	12.953900
2027.000000	12.931347
2028.000000	12.906983
2029.000000	12.880943
2030.000000	12.853030
2031.000000	12.823180
2032.000000	12.792043
2033.000000	12.757120
2034.000000	12.722613
2035.000000	12.685960
2036.000000	12.649640
2037.000000	12.612197
2038.000000	12.571527
2039.000000	12.529207
2040.000000	12.485590
2041.000000	12.441510
2042.000000	12.395360
2043.000000	12.350980
2044.000000	12.306087
2045.000000	12.260720
2046.000000	12.213483
2047.000000	12.166013
2048.000000	12.121033
2049.000000	12.078397
2050.000000	12.038303
2051.000000	12.000977
2052.000000	11.967207
2053.000000	11.936933
2054.000000	11.909963
2055.000000	11.888757
2056.000000	11.874290
2057.000000	11.866413
2058.000000	11.864183
2059.000000	11.867630
2060.000000	11.877143
2061.000000	11.892147
2062.000000	11.912553
2063.000000	11.936760
2064.000000	11.965180
2065.000000	11.997240
2066.000000	12.032417
2067.000000	12.070313
2068.000000	12.110167
2069.000000	12.150687
2070.000000	12.191253
2071.000000	12.232380
2072.000000	12.273460
2073.000000	12.315007
2074.000000	12.356233
2075.000000	12.394907
2076.000000	12.431420
2077.000000	12.467330
2078.000000	12.501697
2079.000000	12.534507
2080.000000	12.564930
2081.000000	12.592163
2082.000000	12.617457
2083.000000	12.640827
2084.000000	12.660990
2085.000000	12.678930
2086.000000	12.695557
2087.000000	12.708977
2088.000000	12.719747
2089.000000	12.728753
2090.000000	12.736390
2091.000000	12.742560
2092.000000	12.747080
2093.000000	12.749783
2094.000000	12.751683
2095.000000	12.752820
2096.000000	12.752757
2097.000000	12.752597
2098.000000	12.751310
2099.000000	12.748803
2100.000000	12.746137
2101.000000	12.742657
2102.000000	12.740090
2103.000000	12.738153
2104.000000	12.734737
2105.000000	12.731203
2106.000000	12.727367
2107.000000	12.722123
2108.000000	12.718160
2109.000000	12.715073
2110.000000	12.710110
2111.000000	12.704947
2112.000000	12.698217
2113.000000	12.689260
2114.000000	12.680900
2115.000000	12.673170
2116.000000	12.664707
2117.000000	12.655403
2118.000000	12.644390
2119.000000	12.632063
2120.000000	12.619347
2121.000000	12.606183
2122.000000	12.591640
2123.000000	12.576503
2124.000000	12.561487
2125.000000	12.544407
2126.000000	12.525953
2127.000000	12.506260
2128.000000	12.485107
2129.000000	12.462733
2130.000000	12.438527
2131.000000	12.412520
2132.000000	12.386280
2133.000000	12.358253
2134.000000	12.327007
2135.000000	12.294263
2136.000000	12.260037
2137.000000	12.225137
2138.000000	12.188957
2139.000000	12.150410
2140.000000	12.111207
2141.000000	12.070797
2142.000000	12.028627
2143.000000	11.986740
2144.000000	11.944357
2145.000000	11.900077
2146.000000	11.855183
2147.000000	11.809170
2148.000000	11.762350
2149.000000	11.716760
2150.000000	11.670563
2151.000000	11.623460
2152.000000	11.574923
2153.000000	11.526490
2154.000000	11.478133
2155.000000	11.430103
2156.000000	11.382597
2157.000000	11.336083
2158.000000	11.291423
2159.000000	11.247543
2160.000000	11.205343
2161.000000	11.164980
2162.000000	11.127090
2163.000000	11.089960
2164.000000	11.053993
2165.000000	11.019863
2166.000000	10.987600
2167.000000	10.957477
2168.000000	10.927647
2169.000000	10.898210
2170.000000	10.870047
2171.000000	10.844383
2172.000000	10.819080
2173.000000	10.794183
2174.000000	10.770633
2175.000000	10.748400
2176.000000	10.726507
2177.000000	10.702967
2178.000000	10.680627
2179.000000	10.656947
2180.000000	10.632800
2181.000000	10.606610
2182.000000	10.578783
2183.000000	10.549140
2184.000000	10.517707
2185.000000	10.482687
2186.000000	10.442897
2187.000000	10.399080
2188.000000	10.349917
2189.000000	10.295227
2190.000000	10.234780
2191.000000	10.167007
2192.000000	10.094187
2193.000000	10.013123
2194.000000	9.924487
2195.000000	9.828317
2196.000000	9.726650
2197.000000	9.620223
2198.000000	9.506743
2199.000000	9.390000
2200.000000	9.270527
2201.000000	9.150723
2202.000000	9.029723
2203.000000	8.911913
2204.000000	8.797593
2205.000000	8.688700
2206.000000	8.586503
2207.000000	8.492200
2208.000000	8.409627
2209.000000	8.339157
2210.000000	8.280097
2211.000000	8.234210
2212.000000	8.199563
2213.000000	8.178970
2214.000000	8.170907
2215.000000	8.174640
2216.000000	8.189733
2217.000000	8.215083
2218.000000	8.249597
2219.000000	8.290710
2220.000000	8.336937
2221.000000	8.388490
2222.000000	8.444640
2223.000000	8.502883
2224.000000	8.561190
2225.000000	8.619533
2226.000000	8.676027
2227.000000	8.731373
2228.000000	8.784410
2229.000000	8.835237
2230.000000	8.884073
2231.000000	8.926007
2232.000000	8.965187
2233.000000	8.999897
2234.000000	9.030630
2235.000000	9.057420
2236.000000	9.081803
2237.000000	9.099317
2238.000000	9.113010
2239.000000	9.121193
2240.000000	9.126270
2241.000000	9.130190
2242.000000	9.129197
2243.000000	9.123863
2244.000000	9.115817
2245.000000	9.106277
2246.000000	9.094053
2247.000000	9.080833
2248.000000	9.065820
2249.000000	9.051613
2250.000000	9.034127
2251.000000	9.015570
2252.000000	8.996717
2253.000000	8.978827
2254.000000	8.961370
2255.000000	8.943420
2256.000000	8.926787
2257.000000	8.911967
2258.000000	8.896967
2259.000000	8.884013
2260.000000	8.872580
2261.000000	8.863713
2262.000000	8.859167
2263.000000	8.855793
2264.000000	8.857010
2265.000000	8.861073
2266.000000	8.865837
2267.000000	8.874790
2268.000000	8.887823
2269.000000	8.902060
2270.000000	8.919727
2271.000000	8.938150
2272.000000	8.957567
2273.000000	8.980233
2274.000000	9.002053
2275.000000	9.024917
2276.000000	9.049487
2277.000000	9.073027
2278.000000	9.094547
2279.000000	9.117390
2280.000000	9.139510
2281.000000	9.161673
2282.000000	9.182380
2283.000000	9.201393
2284.000000	9.219053
2285.000000	9.236633
2286.000000	9.253980
2287.000000	9.271203
2288.000000	9.290147
2289.000000	9.306230
2290.000000	9.323037
2291.000000	9.340047
2292.000000	9.357270
2293.000000	9.375697
2294.000000	9.393460
2295.000000	9.412270
2296.000000	9.431960
2297.000000	9.451180
2298.000000	9.470053
2299.000000	9.491000
2300.000000	9.512843
2301.000000	9.534300
2302.000000	9.556830
2303.000000	9.579000
2304.000000	9.603773
2305.000000	9.628097
2306.000000	9.651340
2307.000000	9.676980
2308.000000	9.703503
2309.000000	9.729397
2310.000000	9.754673
2311.000000	9.780947
2312.000000	9.806927
2313.000000	9.832600
2314.000000	9.858153
2315.000000	9.882970
2316.000000	9.908650
2317.000000	9.932243
2318.000000	9.954143
2319.000000	9.975017
2320.000000	9.993920
2321.000000	10.011010
2322.000000	10.027197
2323.000000	10.042617
2324.000000	10.055317
2325.000000	10.067250
2326.000000	10.076413
2327.000000	10.083377
2328.000000	10.088140
2329.000000	10.092183
2330.000000	10.097070
2331.000000	10.100517
2332.000000	10.102073
2333.000000	10.102383
2334.000000	10.102880
2335.000000	10.102647
2336.000000	10.102483
2337.000000	10.101920
2338.000000	10.102070
2339.000000	10.102597
2340.000000	10.102693
2341.000000	10.103157
2342.000000	10.104177
2343.000000	10.105303
2344.000000	10.106750
2345.000000	10.108360
2346.000000	10.110247
2347.000000	10.113900
2348.000000	10.118167
2349.000000	10.121513
2350.000000	10.125033
2351.000000	10.129637
2352.000000	10.134847
2353.000000	10.140733
2354.000000	10.146303
2355.000000	10.150760
2356.000000	10.154963
2357.000000	10.159907
2358.000000	10.165130
2359.000000	10.170677
2360.000000	10.175657
2361.000000	10.179830
2362.000000	10.183980
2363.000000	10.187530
2364.000000	10.191457
2365.000000	10.196077
2366.000000	10.200133
2367.000000	10.202993
2368.000000	10.206103
2369.000000	10.209067
2370.000000	10.211783
2371.000000	10.214927
2372.000000	10.218053
2373.000000	10.221150
2374.000000	10.223280
2375.000000	10.225807
2376.000000	10.229680
2377.000000	10.233107
2378.000000	10.234587
2379.000000	10.235717
2380.000000	10.237260
2381.000000	10.238003
2382.000000	10.237993
2383.000000	10.237557
2384.000000	10.236923
2385.000000	10.235513
2386.000000	10.232890
2387.000000	10.229137
2388.000000	10.225270
2389.000000	10.221320
2390.000000	10.216600
2391.000000	10.211107
2392.000000	10.203890
2393.000000	10.195860
2394.000000	10.187843
2395.000000	10.178003
2396.000000	10.167070
2397.000000	10.155667
2398.000000	10.143150
2399.000000	10.129513
2400.000000	10.115773
2401.000000	10.101227
2402.000000	10.086503
2403.000000	10.069997
2404.000000	10.051037
2405.000000	10.032607
2406.000000	10.013403
2407.000000	9.993283
2408.000000	9.972750
2409.000000	9.950627
2410.000000	9.927457
2411.000000	9.903740
2412.000000	9.879093
2413.000000	9.853637
2414.000000	9.828433
2415.000000	9.801523
2416.000000	9.771757
2417.000000	9.740217
2418.000000	9.707830
2419.000000	9.675750
2420.000000	9.643193
2421.000000	9.609710
2422.000000	9.573957
2423.000000	9.535660
2424.000000	9.494240
2425.000000	9.451197
2426.000000	9.409073
2427.000000	9.367387
2428.000000	9.325903
2429.000000	9.283627
2430.000000	9.239277
2431.000000	9.195687
2432.000000	9.153983
2433.000000	9.115530
2434.000000	9.078053
2435.000000	9.041863
2436.000000	9.005270
2437.000000	8.969003
2438.000000	8.932543
2439.000000	8.895377
2440.000000	8.857710
2441.000000	8.818587
2442.000000	8.778720
2443.000000	8.737897
2444.000000	8.697757
2445.000000	8.657643
2446.000000	8.617997
2447.000000	8.578480
2448.000000	8.539027
2449.000000	8.500607
2450.000000	8.462557
2451.000000	8.423870
2452.000000	8.385313
2453.000000	8.347880
2454.000000	8.312080
2455.000000	8.276923
2456.000000	8.243377
2457.000000	8.209513
2458.000000	8.176000
2459.000000	8.141387
2460.000000	8.109367
2461.000000	8.079610
2462.000000	8.052683
2463.000000	8.026243
2464.000000	7.999093
2465.000000	7.973140
2466.000000	7.947637
2467.000000	7.921860
2468.000000	7.897943
2469.000000	7.877397
2470.000000	7.856953
2471.000000	7.839127
2472.000000	7.821257
2473.000000	7.802220
2474.000000	7.788170
2475.000000	7.769993
2476.000000	7.756197
2477.000000	7.742530
2478.000000	7.730643
2479.000000	7.717500
2480.000000	7.704693
2481.000000	7.692977
2482.000000	7.681560
2483.000000	7.674240
2484.000000	7.665750
2485.000000	7.660613
2486.000000	7.650700
2487.000000	7.646733
2488.000000	7.642357
2489.000000	7.637897
2490.000000	7.634540
2491.000000	7.632820
2492.000000	7.624960
2493.000000	7.616997
2494.000000	7.606233
2495.000000	7.600300
2496.000000	7.600313
2497.000000	7.597733
2498.000000	7.599883
2499.000000	7.598360
2500.000000	7.599077
