PE UV       SUBTECH     SPECTRUM    ASCII       PEDS        4.00        
   -1
INBUCR0116-5.Sample.ASC
24/02/12
13:56:59.00
24/02/12
13:56:59.00
Vinicio Soto Monge
Strigidia pubes. Color café con ambos élitros (Det: A. Solís) COSTA RICA Prov. Limón. R.B. Hitoy Cerere. Valle de la Estrella. Send. Espavel. 560m 23-27 SEP 2003 F. Rojas. B. Gamboa W. Araya. Luz Mercurio L_S_401200_569800 #75427. INB0003766766 
250,000000
1
Lambda 1050
1050L1511233
PerkinElmer UV WinLab 6.3.2.0749 / 2.02.05 Lambda 900 UV/VIS/NIR, Aug  7 2015 09:38:08

0
0
3350/servo 860,8/2
0
0
UV/VIS
1
1
1
DoubleDePol,CommonBeamDepol,RBeamAtt,SBeamAtt,60mm sphere, WB InGaAs Detector
0
0
0
0
Program
Program
3350/servo 860,8/2
3350/0,2 860,8/0,2
3350/0,2 860,8/0,2
0
15.00
 
 
 
0
 
860,8
150
860,8
Front
100
on
S:100 R:100
0
0
0
0
 
0
 
 
 
0
 
 
0
0
0
0
0
 
 
 
 
0
0


0
0
#HDR
-1
-1
#GR
nm
%R
1.0
0.0
2500,000000
-1,000000
2251
8
23,404700
1,453500
#DATA

250.000000	nan
251.000000	nan
252.000000	nan
253.000000	nan
254.000000	nan
255.000000	nan
256.000000	nan
257.000000	nan
258.000000	nan
259.000000	5.017034
260.000000	5.008406
261.000000	4.982894
262.000000	4.958934
263.000000	4.935897
264.000000	4.893132
265.000000	4.872820
266.000000	4.839271
267.000000	4.803689
268.000000	4.765970
269.000000	4.741489
270.000000	4.717425
271.000000	4.685704
272.000000	4.663671
273.000000	4.637965
274.000000	4.616803
275.000000	4.604087
276.000000	4.595725
277.000000	4.581190
278.000000	4.569435
279.000000	4.556609
280.000000	4.543738
281.000000	4.545724
282.000000	4.534469
283.000000	4.528895
284.000000	4.526576
285.000000	4.522109
286.000000	4.517442
287.000000	4.510416
288.000000	4.512066
289.000000	4.509504
290.000000	4.506689
291.000000	4.498015
292.000000	4.502977
293.000000	4.506983
294.000000	4.502937
295.000000	4.500802
296.000000	4.494335
297.000000	4.492135
298.000000	4.485650
299.000000	4.486266
300.000000	4.484847
301.000000	4.484407
302.000000	4.479923
303.000000	4.475439
304.000000	4.472274
305.000000	4.468106
306.000000	4.467188
307.000000	4.469285
308.000000	4.470835
309.000000	4.467138
310.000000	4.467393
311.000000	4.464888
312.000000	4.463526
313.000000	4.461670
314.000000	4.463301
315.000000	4.463286
316.000000	4.467611
317.000000	4.504179
318.000000	4.521889
319.000000	4.547467
320.000000	4.569813
321.000000	4.586431
322.000000	4.607217
323.000000	4.623788
324.000000	4.634893
325.000000	4.655590
326.000000	4.669729
327.000000	4.645601
328.000000	4.634607
329.000000	4.622296
330.000000	4.614554
331.000000	4.608026
332.000000	4.596414
333.000000	4.594117
334.000000	4.591246
335.000000	4.583407
336.000000	4.583670
337.000000	4.584683
338.000000	4.590118
339.000000	4.592093
340.000000	4.586568
341.000000	4.588775
342.000000	4.590311
343.000000	4.587452
344.000000	4.588232
345.000000	4.586432
346.000000	4.579290
347.000000	4.577471
348.000000	4.575726
349.000000	4.570366
350.000000	4.566909
351.000000	4.563560
352.000000	4.561578
353.000000	4.559873
354.000000	4.556807
355.000000	4.555333
356.000000	4.553701
357.000000	4.549916
358.000000	4.548910
359.000000	4.549976
360.000000	4.555255
361.000000	4.554338
362.000000	4.553846
363.000000	4.553242
364.000000	4.553735
365.000000	4.553542
366.000000	4.548750
367.000000	4.544003
368.000000	4.536599
369.000000	4.532769
370.000000	4.524239
371.000000	4.518218
372.000000	4.512790
373.000000	4.511540
374.000000	4.504099
375.000000	4.496020
376.000000	4.495705
377.000000	4.489636
378.000000	4.484064
379.000000	4.475439
380.000000	4.469801
381.000000	4.465429
382.000000	4.461055
383.000000	4.452656
384.000000	4.449204
385.000000	4.446736
386.000000	4.440211
387.000000	4.439877
388.000000	4.440083
389.000000	4.441066
390.000000	4.442087
391.000000	4.442636
392.000000	4.442165
393.000000	4.442231
394.000000	4.442861
395.000000	4.443526
396.000000	4.443385
397.000000	4.443505
398.000000	4.443863
399.000000	4.443933
400.000000	4.443321
401.000000	4.443125
402.000000	4.443525
403.000000	4.443826
404.000000	4.443741
405.000000	4.443626
406.000000	4.445168
407.000000	4.446709
408.000000	4.447000
409.000000	4.447185
410.000000	4.448345
411.000000	4.449623
412.000000	4.450911
413.000000	4.451985
414.000000	4.453101
415.000000	4.453929
416.000000	4.454384
417.000000	4.454545
418.000000	4.455366
419.000000	4.456699
420.000000	4.457659
421.000000	4.458123
422.000000	4.458655
423.000000	4.459554
424.000000	4.460532
425.000000	4.461553
426.000000	4.461905
427.000000	4.462818
428.000000	4.463970
429.000000	4.464585
430.000000	4.465227
431.000000	4.465816
432.000000	4.466540
433.000000	4.467663
434.000000	4.468565
435.000000	4.469451
436.000000	4.470999
437.000000	4.472736
438.000000	4.473833
439.000000	4.474920
440.000000	4.476108
441.000000	4.478062
442.000000	4.479371
443.000000	4.480078
444.000000	4.481348
445.000000	4.482684
446.000000	4.483573
447.000000	4.484032
448.000000	4.484945
449.000000	4.486270
450.000000	4.487514
451.000000	4.488289
452.000000	4.489221
453.000000	4.490854
454.000000	4.492428
455.000000	4.493400
456.000000	4.494335
457.000000	4.495655
458.000000	4.497501
459.000000	4.499170
460.000000	4.500368
461.000000	4.501596
462.000000	4.503193
463.000000	4.504634
464.000000	4.506042
465.000000	4.507643
466.000000	4.509328
467.000000	4.510657
468.000000	4.511483
469.000000	4.512153
470.000000	4.512908
471.000000	4.513670
472.000000	4.514017
473.000000	4.513509
474.000000	4.512845
475.000000	4.512520
476.000000	4.511552
477.000000	4.510193
478.000000	4.508690
479.000000	4.507151
480.000000	4.505490
481.000000	4.503319
482.000000	4.501298
483.000000	4.500503
484.000000	4.500406
485.000000	4.500658
486.000000	4.502034
487.000000	4.504582
488.000000	4.508442
489.000000	4.512844
490.000000	4.518104
491.000000	4.524680
492.000000	4.532104
493.000000	4.539466
494.000000	4.546866
495.000000	4.554597
496.000000	4.562383
497.000000	4.570002
498.000000	4.577378
499.000000	4.584771
500.000000	4.592719
501.000000	4.600414
502.000000	4.607940
503.000000	4.615372
504.000000	4.622687
505.000000	4.629940
506.000000	4.637463
507.000000	4.644858
508.000000	4.651702
509.000000	4.658750
510.000000	4.665349
511.000000	4.671786
512.000000	4.677949
513.000000	4.684054
514.000000	4.689864
515.000000	4.695197
516.000000	4.700035
517.000000	4.704585
518.000000	4.709242
519.000000	4.713806
520.000000	4.717977
521.000000	4.722191
522.000000	4.727178
523.000000	4.732353
524.000000	4.738009
525.000000	4.744284
526.000000	4.751373
527.000000	4.759690
528.000000	4.768767
529.000000	4.778638
530.000000	4.789605
531.000000	4.802075
532.000000	4.814976
533.000000	4.828725
534.000000	4.843623
535.000000	4.859908
536.000000	4.877104
537.000000	4.894878
538.000000	4.913469
539.000000	4.932880
540.000000	4.953089
541.000000	4.973685
542.000000	4.995028
543.000000	5.017405
544.000000	5.040665
545.000000	5.064093
546.000000	5.088340
547.000000	5.113458
548.000000	5.139343
549.000000	5.165916
550.000000	5.193023
551.000000	5.220791
552.000000	5.249788
553.000000	5.279537
554.000000	5.309495
555.000000	5.340183
556.000000	5.371780
557.000000	5.403856
558.000000	5.436350
559.000000	5.469480
560.000000	5.501557
561.000000	5.534196
562.000000	5.567173
563.000000	5.600426
564.000000	5.634660
565.000000	5.669678
566.000000	5.705198
567.000000	5.741068
568.000000	5.778112
569.000000	5.815779
570.000000	5.856242
571.000000	5.897353
572.000000	5.939214
573.000000	5.981657
574.000000	6.025136
575.000000	6.069480
576.000000	6.114408
577.000000	6.160520
578.000000	6.206681
579.000000	6.253428
580.000000	6.300777
581.000000	6.348578
582.000000	6.397095
583.000000	6.446712
584.000000	6.496747
585.000000	6.547106
586.000000	6.598100
587.000000	6.649738
588.000000	6.702148
589.000000	6.755279
590.000000	6.808475
591.000000	6.863166
592.000000	6.918515
593.000000	6.974454
594.000000	7.030519
595.000000	7.087876
596.000000	7.145396
597.000000	7.202670
598.000000	7.260752
599.000000	7.319506
600.000000	7.379397
601.000000	7.438986
602.000000	7.499339
603.000000	7.559531
604.000000	7.621368
605.000000	7.682913
606.000000	7.745569
607.000000	7.808888
608.000000	7.873040
609.000000	7.937534
610.000000	8.002107
611.000000	8.067920
612.000000	8.133712
613.000000	8.200729
614.000000	8.267394
615.000000	8.335022
616.000000	8.402324
617.000000	8.471468
618.000000	8.540050
619.000000	8.608986
620.000000	8.679158
621.000000	8.749686
622.000000	8.820364
623.000000	8.891504
624.000000	8.962636
625.000000	9.034710
626.000000	9.107904
627.000000	9.180760
628.000000	9.254662
629.000000	9.329039
630.000000	9.403947
631.000000	9.479153
632.000000	9.554940
633.000000	9.631480
634.000000	9.709971
635.000000	9.788301
636.000000	9.866932
637.000000	9.945995
638.000000	10.026420
639.000000	10.107986
640.000000	10.189519
641.000000	10.271801
642.000000	10.354948
643.000000	10.438917
644.000000	10.521987
645.000000	10.606658
646.000000	10.692556
647.000000	10.778734
648.000000	10.864759
649.000000	10.951388
650.000000	11.039354
651.000000	11.128044
652.000000	11.217749
653.000000	11.306661
654.000000	11.397705
655.000000	11.489120
656.000000	11.580434
657.000000	11.672109
658.000000	11.763710
659.000000	11.855653
660.000000	11.947771
661.000000	12.040319
662.000000	12.132210
663.000000	12.226159
664.000000	12.320029
665.000000	12.413218
666.000000	12.505627
667.000000	12.598555
668.000000	12.693013
669.000000	12.787317
670.000000	12.881142
671.000000	12.975196
672.000000	13.069510
673.000000	13.163565
674.000000	13.256802
675.000000	13.350222
676.000000	13.444875
677.000000	13.540051
678.000000	13.634744
679.000000	13.729881
680.000000	13.825175
681.000000	13.919887
682.000000	14.015618
683.000000	14.110083
684.000000	14.205242
685.000000	14.299970
686.000000	14.395185
687.000000	14.490255
688.000000	14.584682
689.000000	14.679344
690.000000	14.774968
691.000000	14.871553
692.000000	14.967058
693.000000	15.063763
694.000000	15.160557
695.000000	15.257994
696.000000	15.355501
697.000000	15.453258
698.000000	15.551859
699.000000	15.650272
700.000000	15.748046
701.000000	15.845347
702.000000	15.943758
703.000000	16.042242
704.000000	16.140223
705.000000	16.237730
706.000000	16.336375
707.000000	16.435244
708.000000	16.534273
709.000000	16.633982
710.000000	16.732283
711.000000	16.831767
712.000000	16.931939
713.000000	17.030678
714.000000	17.129333
715.000000	17.229421
716.000000	17.329311
717.000000	17.429733
718.000000	17.530226
719.000000	17.630253
720.000000	17.732305
721.000000	17.834090
722.000000	17.934939
723.000000	18.037571
724.000000	18.141456
725.000000	18.245010
726.000000	18.347378
727.000000	18.448931
728.000000	18.551707
729.000000	18.654374
730.000000	18.757623
731.000000	18.860369
732.000000	18.963709
733.000000	19.069143
734.000000	19.174598
735.000000	19.280546
736.000000	19.387512
737.000000	19.493840
738.000000	19.599280
739.000000	19.705983
740.000000	19.813141
741.000000	19.922374
742.000000	20.032534
743.000000	20.140280
744.000000	20.246747
745.000000	20.355384
746.000000	20.464740
747.000000	20.575744
748.000000	20.688327
749.000000	20.800383
750.000000	20.911783
751.000000	21.021546
752.000000	21.130403
753.000000	21.240438
754.000000	21.354506
755.000000	21.467232
756.000000	21.580554
757.000000	21.693883
758.000000	21.806916
759.000000	21.919983
760.000000	22.033936
761.000000	22.152227
762.000000	22.270586
763.000000	22.388836
764.000000	22.503969
765.000000	22.619645
766.000000	22.734834
767.000000	22.852087
768.000000	22.970835
769.000000	23.091586
770.000000	23.211318
771.000000	23.329601
772.000000	23.448099
773.000000	23.566109
774.000000	23.686644
775.000000	23.807997
776.000000	23.929837
777.000000	24.049640
778.000000	24.167846
779.000000	24.285718
780.000000	24.406803
781.000000	24.527871
782.000000	24.651102
783.000000	24.775872
784.000000	24.898285
785.000000	25.019360
786.000000	25.140468
787.000000	25.261838
788.000000	25.383964
789.000000	25.505776
790.000000	25.626643
791.000000	25.747131
792.000000	25.864349
793.000000	25.981844
794.000000	26.098402
795.000000	26.215535
796.000000	26.331299
797.000000	26.446697
798.000000	26.558518
799.000000	26.669884
800.000000	26.779546
801.000000	26.889176
802.000000	27.000092
803.000000	27.107894
804.000000	27.213311
805.000000	27.315518
806.000000	27.420052
807.000000	27.525328
808.000000	27.631248
809.000000	27.735100
810.000000	27.836361
811.000000	27.933777
812.000000	28.029500
813.000000	28.125221
814.000000	28.221008
815.000000	28.315361
816.000000	28.409164
817.000000	28.498563
818.000000	28.586490
819.000000	28.673088
820.000000	28.759112
821.000000	28.843091
822.000000	28.924725
823.000000	29.005089
824.000000	29.081102
825.000000	29.158263
826.000000	29.230966
827.000000	29.304065
828.000000	29.374014
829.000000	29.441670
830.000000	29.512364
831.000000	29.576473
832.000000	29.635788
833.000000	29.700463
834.000000	29.768891
835.000000	29.839915
836.000000	29.899911
837.000000	29.957899
838.000000	30.018146
839.000000	30.083817
840.000000	30.128984
841.000000	30.176918
842.000000	30.237920
843.000000	30.285847
844.000000	30.330740
845.000000	30.367846
846.000000	30.415995
847.000000	30.466723
848.000000	30.511750
849.000000	30.553882
850.000000	30.596399
851.000000	30.651553
852.000000	30.681746
853.000000	30.713844
854.000000	30.762576
855.000000	30.808385
856.000000	30.848673
857.000000	30.895159
858.000000	31.192724
859.000000	31.299629
860.000000	31.417837
861.000000	31.536125
862.000000	31.644186
863.000000	31.745389
864.000000	31.832653
865.000000	31.936990
866.000000	32.034688
867.000000	32.118799
868.000000	31.954038
869.000000	31.944266
870.000000	31.955874
871.000000	31.950558
872.000000	31.959134
873.000000	31.975946
874.000000	31.994062
875.000000	31.981184
876.000000	31.981032
877.000000	31.973354
878.000000	31.964328
879.000000	31.991844
880.000000	31.984380
881.000000	31.972974
882.000000	31.977522
883.000000	31.987004
884.000000	31.991976
885.000000	32.001636
886.000000	32.013020
887.000000	32.025046
888.000000	32.040850
889.000000	32.043500
890.000000	32.053702
891.000000	32.080278
892.000000	32.081990
893.000000	32.086498
894.000000	32.085522
895.000000	32.097830
896.000000	32.116472
897.000000	32.117996
898.000000	32.123754
899.000000	32.131976
900.000000	32.159480
901.000000	32.172188
902.000000	32.203678
903.000000	32.223144
904.000000	32.250630
905.000000	32.267206
906.000000	32.270420
907.000000	32.298254
908.000000	32.322564
909.000000	32.346136
910.000000	32.355182
911.000000	32.379074
912.000000	32.396868
913.000000	32.410848
914.000000	32.426492
915.000000	32.448518
916.000000	32.480292
917.000000	32.502776
918.000000	32.525042
919.000000	32.557074
920.000000	32.587310
921.000000	32.610886
922.000000	32.634388
923.000000	32.670530
924.000000	32.694218
925.000000	32.724116
926.000000	32.741240
927.000000	32.768446
928.000000	32.795830
929.000000	32.816998
930.000000	32.835126
931.000000	32.848536
932.000000	32.871998
933.000000	32.888444
934.000000	32.917306
935.000000	32.938264
936.000000	32.960550
937.000000	32.984884
938.000000	33.002544
939.000000	33.022588
940.000000	33.050148
941.000000	33.076498
942.000000	33.096812
943.000000	33.115380
944.000000	33.129472
945.000000	33.148114
946.000000	33.165684
947.000000	33.181432
948.000000	33.198608
949.000000	33.212424
950.000000	33.223310
951.000000	33.236764
952.000000	33.249552
953.000000	33.265352
954.000000	33.282536
955.000000	33.300100
956.000000	33.318600
957.000000	33.337234
958.000000	33.353194
959.000000	33.368408
960.000000	33.382440
961.000000	33.401904
962.000000	33.421088
963.000000	33.436898
964.000000	33.446590
965.000000	33.454514
966.000000	33.462614
967.000000	33.470556
968.000000	33.481416
969.000000	33.493882
970.000000	33.507834
971.000000	33.515978
972.000000	33.525410
973.000000	33.536856
974.000000	33.551864
975.000000	33.564788
976.000000	33.575826
977.000000	33.586558
978.000000	33.597998
979.000000	33.607946
980.000000	33.618280
981.000000	33.627526
982.000000	33.636176
983.000000	33.645784
984.000000	33.653260
985.000000	33.662544
986.000000	33.674162
987.000000	33.683360
988.000000	33.689570
989.000000	33.697456
990.000000	33.705898
991.000000	33.714372
992.000000	33.720528
993.000000	33.726204
994.000000	33.732862
995.000000	33.739302
996.000000	33.746156
997.000000	33.753340
998.000000	33.761012
999.000000	33.767878
1000.000000	33.775038
1001.000000	33.782740
1002.000000	33.792300
1003.000000	33.800858
1004.000000	33.808768
1005.000000	33.815228
1006.000000	33.819802
1007.000000	33.825578
1008.000000	33.832414
1009.000000	33.840048
1010.000000	33.846622
1011.000000	33.852490
1012.000000	33.857814
1013.000000	33.864268
1014.000000	33.870872
1015.000000	33.877956
1016.000000	33.885850
1017.000000	33.895442
1018.000000	33.905256
1019.000000	33.914616
1020.000000	33.923260
1021.000000	33.932080
1022.000000	33.942758
1023.000000	33.954222
1024.000000	33.967190
1025.000000	33.982030
1026.000000	33.998176
1027.000000	34.012646
1028.000000	34.027342
1029.000000	34.043498
1030.000000	34.059694
1031.000000	34.076102
1032.000000	34.092326
1033.000000	34.108882
1034.000000	34.124776
1035.000000	34.139500
1036.000000	34.154020
1037.000000	34.169460
1038.000000	34.184626
1039.000000	34.197902
1040.000000	34.212254
1041.000000	34.228000
1042.000000	34.242904
1043.000000	34.255544
1044.000000	34.267936
1045.000000	34.281632
1046.000000	34.294360
1047.000000	34.306832
1048.000000	34.319668
1049.000000	34.332954
1050.000000	34.346308
1051.000000	34.359404
1052.000000	34.372310
1053.000000	34.385450
1054.000000	34.399592
1055.000000	34.414012
1056.000000	34.428756
1057.000000	34.443248
1058.000000	34.457636
1059.000000	34.472392
1060.000000	34.487592
1061.000000	34.502618
1062.000000	34.518592
1063.000000	34.533936
1064.000000	34.549112
1065.000000	34.562780
1066.000000	34.575326
1067.000000	34.588654
1068.000000	34.602862
1069.000000	34.617008
1070.000000	34.630978
1071.000000	34.644734
1072.000000	34.657084
1073.000000	34.669828
1074.000000	34.682748
1075.000000	34.697356
1076.000000	34.711574
1077.000000	34.725046
1078.000000	34.737016
1079.000000	34.748082
1080.000000	34.758730
1081.000000	34.769024
1082.000000	34.779500
1083.000000	34.790490
1084.000000	34.800812
1085.000000	34.809448
1086.000000	34.818114
1087.000000	34.826212
1088.000000	34.834888
1089.000000	34.844064
1090.000000	34.851440
1091.000000	34.857642
1092.000000	34.865764
1093.000000	34.872572
1094.000000	34.879472
1095.000000	34.885604
1096.000000	34.891316
1097.000000	34.895992
1098.000000	34.899502
1099.000000	34.903166
1100.000000	34.907740
1101.000000	34.912408
1102.000000	34.913514
1103.000000	34.914922
1104.000000	34.916844
1105.000000	34.917850
1106.000000	34.919284
1107.000000	34.919078
1108.000000	34.918584
1109.000000	34.918082
1110.000000	34.916750
1111.000000	34.914856
1112.000000	34.912924
1113.000000	34.909556
1114.000000	34.903262
1115.000000	34.896860
1116.000000	34.888384
1117.000000	34.880986
1118.000000	34.872560
1119.000000	34.860362
1120.000000	34.846712
1121.000000	34.831496
1122.000000	34.815566
1123.000000	34.798552
1124.000000	34.778082
1125.000000	34.756276
1126.000000	34.732152
1127.000000	34.703948
1128.000000	34.672834
1129.000000	34.639786
1130.000000	34.601420
1131.000000	34.559018
1132.000000	34.510354
1133.000000	34.459846
1134.000000	34.410858
1135.000000	34.359234
1136.000000	34.304114
1137.000000	34.247142
1138.000000	34.187290
1139.000000	34.127042
1140.000000	34.068828
1141.000000	34.011786
1142.000000	33.957062
1143.000000	33.902412
1144.000000	33.845896
1145.000000	33.789924
1146.000000	33.735964
1147.000000	33.685200
1148.000000	33.635486
1149.000000	33.585536
1150.000000	33.532682
1151.000000	33.479844
1152.000000	33.428296
1153.000000	33.376226
1154.000000	33.323896
1155.000000	33.265804
1156.000000	33.206050
1157.000000	33.141736
1158.000000	33.075790
1159.000000	33.006068
1160.000000	32.936176
1161.000000	32.861828
1162.000000	32.783190
1163.000000	32.702590
1164.000000	32.618918
1165.000000	32.535876
1166.000000	32.452718
1167.000000	32.369698
1168.000000	32.288210
1169.000000	32.207870
1170.000000	32.130942
1171.000000	32.057626
1172.000000	31.988264
1173.000000	31.921572
1174.000000	31.858852
1175.000000	31.802424
1176.000000	31.747804
1177.000000	31.696778
1178.000000	31.648596
1179.000000	31.604422
1180.000000	31.562142
1181.000000	31.523526
1182.000000	31.487068
1183.000000	31.452420
1184.000000	31.420634
1185.000000	31.391442
1186.000000	31.366246
1187.000000	31.345036
1188.000000	31.326630
1189.000000	31.314050
1190.000000	31.304770
1191.000000	31.300572
1192.000000	31.300600
1193.000000	31.306116
1194.000000	31.314820
1195.000000	31.325534
1196.000000	31.338482
1197.000000	31.353574
1198.000000	31.370426
1199.000000	31.388090
1200.000000	31.406902
1201.000000	31.423820
1202.000000	31.441068
1203.000000	31.456720
1204.000000	31.472230
1205.000000	31.488382
1206.000000	31.505122
1207.000000	31.521072
1208.000000	31.537880
1209.000000	31.554512
1210.000000	31.571784
1211.000000	31.590388
1212.000000	31.609696
1213.000000	31.630118
1214.000000	31.651174
1215.000000	31.672600
1216.000000	31.695232
1217.000000	31.718714
1218.000000	31.743206
1219.000000	31.768000
1220.000000	31.794058
1221.000000	31.821536
1222.000000	31.849590
1223.000000	31.878320
1224.000000	31.908952
1225.000000	31.939908
1226.000000	31.970978
1227.000000	32.003084
1228.000000	32.034926
1229.000000	32.066462
1230.000000	32.097816
1231.000000	32.128120
1232.000000	32.157100
1233.000000	32.185792
1234.000000	32.213090
1235.000000	32.240352
1236.000000	32.266766
1237.000000	32.292536
1238.000000	32.318372
1239.000000	32.343202
1240.000000	32.366888
1241.000000	32.389370
1242.000000	32.412190
1243.000000	32.433794
1244.000000	32.455440
1245.000000	32.476562
1246.000000	32.498478
1247.000000	32.520880
1248.000000	32.542216
1249.000000	32.564480
1250.000000	32.586110
1251.000000	32.608346
1252.000000	32.629482
1253.000000	32.650000
1254.000000	32.669638
1255.000000	32.688348
1256.000000	32.705142
1257.000000	32.719986
1258.000000	32.734154
1259.000000	32.746568
1260.000000	32.758170
1261.000000	32.768574
1262.000000	32.777870
1263.000000	32.786736
1264.000000	32.794774
1265.000000	32.801892
1266.000000	32.808660
1267.000000	32.815836
1268.000000	32.822222
1269.000000	32.827444
1270.000000	32.831846
1271.000000	32.835896
1272.000000	32.840560
1273.000000	32.844846
1274.000000	32.848806
1275.000000	32.853012
1276.000000	32.856568
1277.000000	32.859378
1278.000000	32.863056
1279.000000	32.867920
1280.000000	32.873530
1281.000000	32.879478
1282.000000	32.885428
1283.000000	32.891840
1284.000000	32.898328
1285.000000	32.905230
1286.000000	32.913550
1287.000000	32.922524
1288.000000	32.931276
1289.000000	32.940416
1290.000000	32.949554
1291.000000	32.958702
1292.000000	32.968210
1293.000000	32.977464
1294.000000	32.986380
1295.000000	32.994612
1296.000000	33.001978
1297.000000	33.008732
1298.000000	33.014262
1299.000000	33.018570
1300.000000	33.021912
1301.000000	33.024004
1302.000000	33.024744
1303.000000	33.024150
1304.000000	33.023080
1305.000000	33.021372
1306.000000	33.018244
1307.000000	33.013568
1308.000000	33.007902
1309.000000	33.001026
1310.000000	32.992798
1311.000000	32.983062
1312.000000	32.972592
1313.000000	32.960920
1314.000000	32.947012
1315.000000	32.930864
1316.000000	32.913160
1317.000000	32.893800
1318.000000	32.872032
1319.000000	32.848498
1320.000000	32.823844
1321.000000	32.798590
1322.000000	32.771010
1323.000000	32.740952
1324.000000	32.708776
1325.000000	32.675794
1326.000000	32.641698
1327.000000	32.605204
1328.000000	32.566912
1329.000000	32.526708
1330.000000	32.484184
1331.000000	32.439080
1332.000000	32.391612
1333.000000	32.341534
1334.000000	32.290114
1335.000000	32.235966
1336.000000	32.179614
1337.000000	32.121416
1338.000000	32.060478
1339.000000	31.996670
1340.000000	31.930328
1341.000000	31.862136
1342.000000	31.791220
1343.000000	31.719060
1344.000000	31.644088
1345.000000	31.565698
1346.000000	31.484364
1347.000000	31.402766
1348.000000	31.320062
1349.000000	31.234976
1350.000000	31.147236
1351.000000	31.056956
1352.000000	30.965690
1353.000000	30.873800
1354.000000	30.785828
1355.000000	30.701356
1356.000000	30.618322
1357.000000	30.532208
1358.000000	30.446706
1359.000000	30.360890
1360.000000	30.279288
1361.000000	30.206060
1362.000000	30.135212
1363.000000	30.061582
1364.000000	29.985512
1365.000000	29.906440
1366.000000	29.822826
1367.000000	29.739998
1368.000000	29.656028
1369.000000	29.569470
1370.000000	29.477744
1371.000000	29.375700
1372.000000	29.264624
1373.000000	29.146700
1374.000000	29.018062
1375.000000	28.881986
1376.000000	28.740770
1377.000000	28.590786
1378.000000	28.430652
1379.000000	28.266684
1380.000000	28.100268
1381.000000	27.937950
1382.000000	27.781708
1383.000000	27.634264
1384.000000	27.492340
1385.000000	27.354506
1386.000000	27.222640
1387.000000	27.101506
1388.000000	26.992174
1389.000000	26.889038
1390.000000	26.786856
1391.000000	26.685312
1392.000000	26.585734
1393.000000	26.485748
1394.000000	26.389954
1395.000000	26.303516
1396.000000	26.221196
1397.000000	26.131194
1398.000000	26.034024
1399.000000	25.939192
1400.000000	25.853860
1401.000000	25.762264
1402.000000	25.660784
1403.000000	25.552388
1404.000000	25.441538
1405.000000	25.319700
1406.000000	25.190204
1407.000000	25.060476
1408.000000	24.931882
1409.000000	24.797664
1410.000000	24.650754
1411.000000	24.500494
1412.000000	24.352210
1413.000000	24.207756
1414.000000	24.063058
1415.000000	23.919420
1416.000000	23.773986
1417.000000	23.631064
1418.000000	23.491826
1419.000000	23.356128
1420.000000	23.223494
1421.000000	23.095266
1422.000000	22.971672
1423.000000	22.852190
1424.000000	22.732844
1425.000000	22.616452
1426.000000	22.507060
1427.000000	22.402624
1428.000000	22.299866
1429.000000	22.199008
1430.000000	22.102746
1431.000000	22.012632
1432.000000	21.926850
1433.000000	21.842838
1434.000000	21.762438
1435.000000	21.684196
1436.000000	21.609418
1437.000000	21.537670
1438.000000	21.468154
1439.000000	21.400284
1440.000000	21.335428
1441.000000	21.270268
1442.000000	21.207682
1443.000000	21.145868
1444.000000	21.085846
1445.000000	21.030490
1446.000000	20.975636
1447.000000	20.918406
1448.000000	20.861814
1449.000000	20.807448
1450.000000	20.753974
1451.000000	20.702972
1452.000000	20.650752
1453.000000	20.599632
1454.000000	20.549586
1455.000000	20.496772
1456.000000	20.445050
1457.000000	20.395738
1458.000000	20.346088
1459.000000	20.295252
1460.000000	20.245174
1461.000000	20.193856
1462.000000	20.142816
1463.000000	20.093046
1464.000000	20.041490
1465.000000	19.990592
1466.000000	19.939922
1467.000000	19.889172
1468.000000	19.838286
1469.000000	19.788816
1470.000000	19.739184
1471.000000	19.691140
1472.000000	19.645564
1473.000000	19.598924
1474.000000	19.553990
1475.000000	19.511436
1476.000000	19.468946
1477.000000	19.428246
1478.000000	19.391334
1479.000000	19.356370
1480.000000	19.323112
1481.000000	19.291382
1482.000000	19.259530
1483.000000	19.232364
1484.000000	19.208630
1485.000000	19.186210
1486.000000	19.166622
1487.000000	19.149552
1488.000000	19.134098
1489.000000	19.120122
1490.000000	19.108014
1491.000000	19.097904
1492.000000	19.090680
1493.000000	19.084550
1494.000000	19.080698
1495.000000	19.078490
1496.000000	19.079146
1497.000000	19.082390
1498.000000	19.088026
1499.000000	19.097876
1500.000000	19.109908
1501.000000	19.124288
1502.000000	19.142262
1503.000000	19.164348
1504.000000	19.188456
1505.000000	19.216452
1506.000000	19.247478
1507.000000	19.280258
1508.000000	19.315980
1509.000000	19.352412
1510.000000	19.391898
1511.000000	19.433216
1512.000000	19.475536
1513.000000	19.517950
1514.000000	19.562210
1515.000000	19.606686
1516.000000	19.650626
1517.000000	19.695360
1518.000000	19.740050
1519.000000	19.784646
1520.000000	19.828000
1521.000000	19.871366
1522.000000	19.915230
1523.000000	19.956834
1524.000000	19.996708
1525.000000	20.036662
1526.000000	20.076984
1527.000000	20.116422
1528.000000	20.154204
1529.000000	20.191312
1530.000000	20.228078
1531.000000	20.263354
1532.000000	20.296698
1533.000000	20.330162
1534.000000	20.362618
1535.000000	20.394150
1536.000000	20.424700
1537.000000	20.454188
1538.000000	20.483036
1539.000000	20.511066
1540.000000	20.538740
1541.000000	20.566458
1542.000000	20.593262
1543.000000	20.620472
1544.000000	20.648642
1545.000000	20.676668
1546.000000	20.703926
1547.000000	20.731886
1548.000000	20.761226
1549.000000	20.791880
1550.000000	20.822760
1551.000000	20.853382
1552.000000	20.885464
1553.000000	20.917242
1554.000000	20.948200
1555.000000	20.978162
1556.000000	21.006926
1557.000000	21.034744
1558.000000	21.059528
1559.000000	21.080100
1560.000000	21.098402
1561.000000	21.115008
1562.000000	21.127666
1563.000000	21.137186
1564.000000	21.144416
1565.000000	21.149414
1566.000000	21.152712
1567.000000	21.152970
1568.000000	21.152010
1569.000000	21.151220
1570.000000	21.148824
1571.000000	21.144762
1572.000000	21.140324
1573.000000	21.136624
1574.000000	21.133440
1575.000000	21.130538
1576.000000	21.128202
1577.000000	21.127112
1578.000000	21.127684
1579.000000	21.130450
1580.000000	21.134534
1581.000000	21.141152
1582.000000	21.151508
1583.000000	21.163684
1584.000000	21.176462
1585.000000	21.190728
1586.000000	21.206752
1587.000000	21.225314
1588.000000	21.245148
1589.000000	21.266278
1590.000000	21.289896
1591.000000	21.315380
1592.000000	21.340906
1593.000000	21.366714
1594.000000	21.393944
1595.000000	21.422964
1596.000000	21.454016
1597.000000	21.485938
1598.000000	21.519332
1599.000000	21.553094
1600.000000	21.588338
1601.000000	21.624118
1602.000000	21.660226
1603.000000	21.696550
1604.000000	21.734846
1605.000000	21.774662
1606.000000	21.813688
1607.000000	21.852028
1608.000000	21.890226
1609.000000	21.927994
1610.000000	21.964026
1611.000000	21.998550
1612.000000	22.033354
1613.000000	22.068490
1614.000000	22.101044
1615.000000	22.132030
1616.000000	22.162680
1617.000000	22.192556
1618.000000	22.220210
1619.000000	22.246342
1620.000000	22.273326
1621.000000	22.297916
1622.000000	22.321420
1623.000000	22.344066
1624.000000	22.366722
1625.000000	22.387798
1626.000000	22.407376
1627.000000	22.427026
1628.000000	22.446370
1629.000000	22.465570
1630.000000	22.484000
1631.000000	22.503834
1632.000000	22.522746
1633.000000	22.541070
1634.000000	22.558286
1635.000000	22.572722
1636.000000	22.587336
1637.000000	22.599938
1638.000000	22.612084
1639.000000	22.622828
1640.000000	22.630656
1641.000000	22.636936
1642.000000	22.640120
1643.000000	22.642762
1644.000000	22.645288
1645.000000	22.647230
1646.000000	22.645450
1647.000000	22.644982
1648.000000	22.641528
1649.000000	22.635840
1650.000000	22.627676
1651.000000	22.616706
1652.000000	22.605362
1653.000000	22.589584
1654.000000	22.568894
1655.000000	22.544984
1656.000000	22.518206
1657.000000	22.483802
1658.000000	22.445166
1659.000000	22.401662
1660.000000	22.355218
1661.000000	22.303458
1662.000000	22.245352
1663.000000	22.181280
1664.000000	22.112678
1665.000000	22.041368
1666.000000	21.964640
1667.000000	21.885040
1668.000000	21.797852
1669.000000	21.708000
1670.000000	21.614722
1671.000000	21.518970
1672.000000	21.421444
1673.000000	21.324358
1674.000000	21.225866
1675.000000	21.125794
1676.000000	21.027264
1677.000000	20.927648
1678.000000	20.831698
1679.000000	20.735370
1680.000000	20.639274
1681.000000	20.544140
1682.000000	20.449528
1683.000000	20.354718
1684.000000	20.262238
1685.000000	20.174056
1686.000000	20.089078
1687.000000	20.011870
1688.000000	19.943274
1689.000000	19.883986
1690.000000	19.835310
1691.000000	19.797694
1692.000000	19.770858
1693.000000	19.755076
1694.000000	19.749748
1695.000000	19.748794
1696.000000	19.753736
1697.000000	19.760934
1698.000000	19.770294
1699.000000	19.779642
1700.000000	19.783516
1701.000000	19.783998
1702.000000	19.780428
1703.000000	19.772442
1704.000000	19.757328
1705.000000	19.736430
1706.000000	19.709910
1707.000000	19.676152
1708.000000	19.636526
1709.000000	19.589248
1710.000000	19.537222
1711.000000	19.478510
1712.000000	19.412526
1713.000000	19.338880
1714.000000	19.260406
1715.000000	19.179224
1716.000000	19.092796
1717.000000	19.001748
1718.000000	18.907606
1719.000000	18.813588
1720.000000	18.719540
1721.000000	18.629286
1722.000000	18.544150
1723.000000	18.466444
1724.000000	18.397510
1725.000000	18.336656
1726.000000	18.287050
1727.000000	18.250986
1728.000000	18.225090
1729.000000	18.210388
1730.000000	18.207812
1731.000000	18.213634
1732.000000	18.229288
1733.000000	18.253228
1734.000000	18.284488
1735.000000	18.322124
1736.000000	18.366082
1737.000000	18.414154
1738.000000	18.467124
1739.000000	18.523818
1740.000000	18.583130
1741.000000	18.644834
1742.000000	18.707268
1743.000000	18.769828
1744.000000	18.829958
1745.000000	18.890244
1746.000000	18.946960
1747.000000	19.001670
1748.000000	19.053542
1749.000000	19.102258
1750.000000	19.144656
1751.000000	19.183100
1752.000000	19.216812
1753.000000	19.244986
1754.000000	19.269088
1755.000000	19.289064
1756.000000	19.305698
1757.000000	19.318584
1758.000000	19.328676
1759.000000	19.336786
1760.000000	19.344752
1761.000000	19.350972
1762.000000	19.357688
1763.000000	19.366020
1764.000000	19.375466
1765.000000	19.386326
1766.000000	19.399856
1767.000000	19.416538
1768.000000	19.435770
1769.000000	19.456882
1770.000000	19.481476
1771.000000	19.508176
1772.000000	19.536840
1773.000000	19.567820
1774.000000	19.599802
1775.000000	19.632496
1776.000000	19.664316
1777.000000	19.696854
1778.000000	19.729728
1779.000000	19.761998
1780.000000	19.793398
1781.000000	19.824954
1782.000000	19.854332
1783.000000	19.880988
1784.000000	19.905950
1785.000000	19.929212
1786.000000	19.952892
1787.000000	19.972326
1788.000000	19.988616
1789.000000	20.003578
1790.000000	20.017610
1791.000000	20.030342
1792.000000	20.042488
1793.000000	20.053788
1794.000000	20.066372
1795.000000	20.079514
1796.000000	20.092168
1797.000000	20.105998
1798.000000	20.120214
1799.000000	20.134334
1800.000000	20.149086
1801.000000	20.166028
1802.000000	20.183250
1803.000000	20.199610
1804.000000	20.215208
1805.000000	20.230810
1806.000000	20.247096
1807.000000	20.263382
1808.000000	20.278390
1809.000000	20.292902
1810.000000	20.306892
1811.000000	20.319750
1812.000000	20.334404
1813.000000	20.350392
1814.000000	20.365178
1815.000000	20.378858
1816.000000	20.389574
1817.000000	20.396018
1818.000000	20.401510
1819.000000	20.409240
1820.000000	20.422088
1821.000000	20.437088
1822.000000	20.448852
1823.000000	20.455540
1824.000000	20.459552
1825.000000	20.463816
1826.000000	20.471052
1827.000000	20.483126
1828.000000	20.497632
1829.000000	20.511674
1830.000000	20.522552
1831.000000	20.530838
1832.000000	20.537970
1833.000000	20.545816
1834.000000	20.555450
1835.000000	20.565770
1836.000000	20.580588
1837.000000	20.597720
1838.000000	20.615354
1839.000000	20.632384
1840.000000	20.649926
1841.000000	20.672270
1842.000000	20.699638
1843.000000	20.726278
1844.000000	20.744138
1845.000000	20.755948
1846.000000	20.764966
1847.000000	20.781692
1848.000000	20.805116
1849.000000	20.823784
1850.000000	20.831378
1851.000000	20.826644
1852.000000	20.816420
1853.000000	20.812418
1854.000000	20.820320
1855.000000	20.831328
1856.000000	20.834318
1857.000000	20.823150
1858.000000	20.804150
1859.000000	20.790794
1860.000000	20.784942
1861.000000	20.782660
1862.000000	20.775070
1863.000000	20.757118
1864.000000	20.728220
1865.000000	20.689226
1866.000000	20.645058
1867.000000	20.595496
1868.000000	20.538076
1869.000000	20.473490
1870.000000	20.406000
1871.000000	20.333442
1872.000000	20.260602
1873.000000	20.186644
1874.000000	20.108912
1875.000000	20.028648
1876.000000	19.943658
1877.000000	19.850574
1878.000000	19.750440
1879.000000	19.637666
1880.000000	19.505678
1881.000000	19.361220
1882.000000	19.203568
1883.000000	19.037866
1884.000000	18.866660
1885.000000	18.689202
1886.000000	18.505032
1887.000000	18.312554
1888.000000	18.108918
1889.000000	17.898508
1890.000000	17.688618
1891.000000	17.476278
1892.000000	17.263312
1893.000000	17.041688
1894.000000	16.808412
1895.000000	16.567644
1896.000000	16.316648
1897.000000	16.063014
1898.000000	15.812242
1899.000000	15.564362
1900.000000	15.310890
1901.000000	15.057424
1902.000000	14.796184
1903.000000	14.537854
1904.000000	14.288830
1905.000000	14.051834
1906.000000	13.823984
1907.000000	13.602228
1908.000000	13.383704
1909.000000	13.170354
1910.000000	12.963806
1911.000000	12.759458
1912.000000	12.573944
1913.000000	12.400012
1914.000000	12.239342
1915.000000	12.079284
1916.000000	11.924802
1917.000000	11.779648
1918.000000	11.647092
1919.000000	11.524710
1920.000000	11.410976
1921.000000	11.311580
1922.000000	11.215916
1923.000000	11.127938
1924.000000	11.039854
1925.000000	10.957726
1926.000000	10.886978
1927.000000	10.826282
1928.000000	10.768244
1929.000000	10.716246
1930.000000	10.673076
1931.000000	10.634210
1932.000000	10.601658
1933.000000	10.565796
1934.000000	10.538510
1935.000000	10.520228
1936.000000	10.509016
1937.000000	10.495646
1938.000000	10.490258
1939.000000	10.488796
1940.000000	10.490136
1941.000000	10.496186
1942.000000	10.502644
1943.000000	10.517250
1944.000000	10.532302
1945.000000	10.552908
1946.000000	10.568406
1947.000000	10.593066
1948.000000	10.619144
1949.000000	10.644876
1950.000000	10.673968
1951.000000	10.704008
1952.000000	10.739106
1953.000000	10.776812
1954.000000	10.816266
1955.000000	10.855512
1956.000000	10.902386
1957.000000	10.946230
1958.000000	10.988474
1959.000000	11.032526
1960.000000	11.080026
1961.000000	11.124590
1962.000000	11.169196
1963.000000	11.216562
1964.000000	11.264914
1965.000000	11.310370
1966.000000	11.355172
1967.000000	11.405098
1968.000000	11.453410
1969.000000	11.501984
1970.000000	11.546852
1971.000000	11.594474
1972.000000	11.642268
1973.000000	11.690142
1974.000000	11.738146
1975.000000	11.788202
1976.000000	11.837520
1977.000000	11.884604
1978.000000	11.932448
1979.000000	11.979402
1980.000000	12.027922
1981.000000	12.078442
1982.000000	12.127892
1983.000000	12.177088
1984.000000	12.224724
1985.000000	12.273344
1986.000000	12.321900
1987.000000	12.372016
1988.000000	12.423762
1989.000000	12.472196
1990.000000	12.520520
1991.000000	12.569318
1992.000000	12.617748
1993.000000	12.664432
1994.000000	12.711366
1995.000000	12.753418
1996.000000	12.796250
1997.000000	12.837978
1998.000000	12.877264
1999.000000	12.917852
2000.000000	12.954314
2001.000000	12.985370
2002.000000	13.015994
2003.000000	13.040352
2004.000000	13.061466
2005.000000	13.086002
2006.000000	13.110158
2007.000000	13.128380
2008.000000	13.141890
2009.000000	13.151724
2010.000000	13.159332
2011.000000	13.163696
2012.000000	13.160868
2013.000000	13.157942
2014.000000	13.153636
2015.000000	13.143736
2016.000000	13.125716
2017.000000	13.105116
2018.000000	13.085760
2019.000000	13.063500
2020.000000	13.038644
2021.000000	13.010174
2022.000000	12.981586
2023.000000	12.953164
2024.000000	12.925328
2025.000000	12.891478
2026.000000	12.853138
2027.000000	12.812710
2028.000000	12.765800
2029.000000	12.715278
2030.000000	12.662890
2031.000000	12.609764
2032.000000	12.553640
2033.000000	12.489570
2034.000000	12.419542
2035.000000	12.347834
2036.000000	12.276282
2037.000000	12.203158
2038.000000	12.130828
2039.000000	12.057304
2040.000000	11.982252
2041.000000	11.906070
2042.000000	11.829714
2043.000000	11.749706
2044.000000	11.670280
2045.000000	11.598158
2046.000000	11.530168
2047.000000	11.459046
2048.000000	11.388290
2049.000000	11.318990
2050.000000	11.254864
2051.000000	11.200884
2052.000000	11.147600
2053.000000	11.103138
2054.000000	11.065656
2055.000000	11.031454
2056.000000	11.004506
2057.000000	10.989476
2058.000000	10.985598
2059.000000	10.992292
2060.000000	11.005752
2061.000000	11.021662
2062.000000	11.050080
2063.000000	11.090188
2064.000000	11.132770
2065.000000	11.176448
2066.000000	11.223776
2067.000000	11.273428
2068.000000	11.326328
2069.000000	11.385284
2070.000000	11.442536
2071.000000	11.500158
2072.000000	11.560422
2073.000000	11.619270
2074.000000	11.679294
2075.000000	11.739250
2076.000000	11.795464
2077.000000	11.852228
2078.000000	11.904310
2079.000000	11.946116
2080.000000	11.986396
2081.000000	12.024608
2082.000000	12.057984
2083.000000	12.087534
2084.000000	12.110594
2085.000000	12.126672
2086.000000	12.144142
2087.000000	12.160302
2088.000000	12.166954
2089.000000	12.175776
2090.000000	12.186760
2091.000000	12.189394
2092.000000	12.183810
2093.000000	12.178682
2094.000000	12.173088
2095.000000	12.173620
2096.000000	12.175814
2097.000000	12.173298
2098.000000	12.170134
2099.000000	12.160346
2100.000000	12.154198
2101.000000	12.158396
2102.000000	12.166918
2103.000000	12.171852
2104.000000	12.177972
2105.000000	12.182096
2106.000000	12.186784
2107.000000	12.187356
2108.000000	12.185862
2109.000000	12.194984
2110.000000	12.203392
2111.000000	12.205866
2112.000000	12.205308
2113.000000	12.205528
2114.000000	12.203394
2115.000000	12.198464
2116.000000	12.183460
2117.000000	12.174064
2118.000000	12.180342
2119.000000	12.179630
2120.000000	12.167802
2121.000000	12.158178
2122.000000	12.146844
2123.000000	12.131620
2124.000000	12.116160
2125.000000	12.103852
2126.000000	12.097876
2127.000000	12.088758
2128.000000	12.061804
2129.000000	12.036944
2130.000000	12.025812
2131.000000	12.005770
2132.000000	11.977742
2133.000000	11.955594
2134.000000	11.936200
2135.000000	11.904612
2136.000000	11.869374
2137.000000	11.823476
2138.000000	11.784996
2139.000000	11.735046
2140.000000	11.675928
2141.000000	11.619244
2142.000000	11.570870
2143.000000	11.516452
2144.000000	11.452368
2145.000000	11.392524
2146.000000	11.329056
2147.000000	11.269190
2148.000000	11.209156
2149.000000	11.164910
2150.000000	11.110472
2151.000000	11.059570
2152.000000	11.001576
2153.000000	10.948616
2154.000000	10.896292
2155.000000	10.846650
2156.000000	10.796852
2157.000000	10.754266
2158.000000	10.706084
2159.000000	10.650196
2160.000000	10.596890
2161.000000	10.550574
2162.000000	10.514372
2163.000000	10.468420
2164.000000	10.422908
2165.000000	10.382036
2166.000000	10.344064
2167.000000	10.308418
2168.000000	10.282456
2169.000000	10.245706
2170.000000	10.227322
2171.000000	10.201874
2172.000000	10.168564
2173.000000	10.146688
2174.000000	10.124480
2175.000000	10.094596
2176.000000	10.074380
2177.000000	10.054080
2178.000000	10.037242
2179.000000	10.033390
2180.000000	10.015386
2181.000000	9.999700
2182.000000	9.981516
2183.000000	9.960874
2184.000000	9.950350
2185.000000	9.948910
2186.000000	9.930360
2187.000000	9.903180
2188.000000	9.870444
2189.000000	9.839892
2190.000000	9.803494
2191.000000	9.763078
2192.000000	9.735506
2193.000000	9.709410
2194.000000	9.667184
2195.000000	9.617360
2196.000000	9.571390
2197.000000	9.527238
2198.000000	9.484640
2199.000000	9.437444
2200.000000	9.400320
2201.000000	9.358964
2202.000000	9.313828
2203.000000	9.264478
2204.000000	9.227112
2205.000000	9.201104
2206.000000	9.174052
2207.000000	9.146800
2208.000000	9.121184
2209.000000	9.111870
2210.000000	9.111328
2211.000000	9.113470
2212.000000	9.111474
2213.000000	9.118880
2214.000000	9.127346
2215.000000	9.135828
2216.000000	9.151748
2217.000000	9.187226
2218.000000	9.214068
2219.000000	9.250568
2220.000000	9.279226
2221.000000	9.317966
2222.000000	9.362502
2223.000000	9.391784
2224.000000	9.437824
2225.000000	9.478380
2226.000000	9.531014
2227.000000	9.565738
2228.000000	9.608834
2229.000000	9.635836
2230.000000	9.667570
2231.000000	9.677164
2232.000000	9.700358
2233.000000	9.739656
2234.000000	9.761888
2235.000000	9.795226
2236.000000	9.799910
2237.000000	9.809336
2238.000000	9.820746
2239.000000	9.832524
2240.000000	9.835024
2241.000000	9.838924
2242.000000	9.836176
2243.000000	9.824360
2244.000000	9.815604
2245.000000	9.779156
2246.000000	9.756962
2247.000000	9.733908
2248.000000	9.710312
2249.000000	9.659084
2250.000000	9.604106
2251.000000	9.569044
2252.000000	9.520044
2253.000000	9.464576
2254.000000	9.401024
2255.000000	9.345046
2256.000000	9.289158
2257.000000	9.230028
2258.000000	9.177828
2259.000000	9.138576
2260.000000	9.101078
2261.000000	9.057098
2262.000000	9.017674
2263.000000	8.983630
2264.000000	8.940770
2265.000000	8.907224
2266.000000	8.881400
2267.000000	8.862944
2268.000000	8.849198
2269.000000	8.830654
2270.000000	8.811324
2271.000000	8.805076
2272.000000	8.797622
2273.000000	8.790240
2274.000000	8.804330
2275.000000	8.822896
2276.000000	8.826286
2277.000000	8.826364
2278.000000	8.814508
2279.000000	8.824740
2280.000000	8.834594
2281.000000	8.839598
2282.000000	8.843960
2283.000000	8.858686
2284.000000	8.861632
2285.000000	8.862168
2286.000000	8.858544
2287.000000	8.866406
2288.000000	8.872890
2289.000000	8.869182
2290.000000	8.879252
2291.000000	8.866096
2292.000000	8.864540
2293.000000	8.862826
2294.000000	8.873596
2295.000000	8.882298
2296.000000	8.895120
2297.000000	8.894034
2298.000000	8.898846
2299.000000	8.888952
2300.000000	8.877348
2301.000000	8.882246
2302.000000	8.886616
2303.000000	8.889920
2304.000000	8.885338
2305.000000	8.894044
2306.000000	8.919810
2307.000000	8.945848
2308.000000	8.963122
2309.000000	8.997918
2310.000000	9.036324
2311.000000	9.076310
2312.000000	9.102826
2313.000000	9.133420
2314.000000	9.159792
2315.000000	9.170726
2316.000000	9.176972
2317.000000	9.180326
2318.000000	9.200216
2319.000000	9.223936
2320.000000	9.238278
2321.000000	9.243688
2322.000000	9.253576
2323.000000	9.268932
2324.000000	9.300724
2325.000000	9.333120
2326.000000	9.367330
2327.000000	9.411694
2328.000000	9.446870
2329.000000	9.478644
2330.000000	9.504958
2331.000000	9.525950
2332.000000	9.537976
2333.000000	9.541398
2334.000000	9.541288
2335.000000	9.548690
2336.000000	9.564234
2337.000000	9.576442
2338.000000	9.575240
2339.000000	9.560188
2340.000000	9.558718
2341.000000	9.587286
2342.000000	9.621268
2343.000000	9.639570
2344.000000	9.654984
2345.000000	9.675660
2346.000000	9.683668
2347.000000	9.679600
2348.000000	9.684176
2349.000000	9.705794
2350.000000	9.711014
2351.000000	9.698422
2352.000000	9.702654
2353.000000	9.726744
2354.000000	9.750726
2355.000000	9.765788
2356.000000	9.798720
2357.000000	9.840218
2358.000000	9.862204
2359.000000	9.872436
2360.000000	9.895010
2361.000000	9.928288
2362.000000	9.951316
2363.000000	9.972330
2364.000000	9.994396
2365.000000	10.002184
2366.000000	10.005726
2367.000000	10.019558
2368.000000	10.038430
2369.000000	10.051826
2370.000000	10.075230
2371.000000	10.112426
2372.000000	10.145576
2373.000000	10.151694
2374.000000	10.151664
2375.000000	10.162266
2376.000000	10.155458
2377.000000	10.154984
2378.000000	10.175670
2379.000000	10.199496
2380.000000	10.197792
2381.000000	10.166490
2382.000000	10.155836
2383.000000	10.157892
2384.000000	10.147618
2385.000000	10.163352
2386.000000	10.197272
2387.000000	10.218468
2388.000000	10.211400
2389.000000	10.194620
2390.000000	10.198654
2391.000000	10.202840
2392.000000	10.183434
2393.000000	10.173452
2394.000000	10.186582
2395.000000	10.161898
2396.000000	10.110764
2397.000000	10.059426
2398.000000	10.039984
2399.000000	10.057792
2400.000000	10.046408
2401.000000	10.031690
2402.000000	10.028112
2403.000000	9.999382
2404.000000	9.974630
2405.000000	9.969770
2406.000000	9.978304
2407.000000	9.988816
2408.000000	9.995808
2409.000000	9.982220
2410.000000	9.980424
2411.000000	9.978458
2412.000000	9.966826
2413.000000	9.956090
2414.000000	9.932214
2415.000000	9.907218
2416.000000	9.886498
2417.000000	9.845704
2418.000000	9.803164
2419.000000	9.790968
2420.000000	9.769344
2421.000000	9.738470
2422.000000	9.708544
2423.000000	9.692528
2424.000000	9.687096
2425.000000	9.655062
2426.000000	9.593260
2427.000000	9.526448
2428.000000	9.479456
2429.000000	9.380084
2430.000000	9.280374
2431.000000	9.238486
2432.000000	9.170896
2433.000000	9.109516
2434.000000	9.057230
2435.000000	8.997370
2436.000000	8.946158
2437.000000	8.897852
2438.000000	8.844378
2439.000000	8.807908
2440.000000	8.766840
2441.000000	8.673184
2442.000000	8.612684
2443.000000	8.538932
2444.000000	8.444488
2445.000000	8.385946
2446.000000	8.315926
2447.000000	8.222304
2448.000000	8.167622
2449.000000	8.091178
2450.000000	7.960138
2451.000000	7.928310
2452.000000	7.878090
2453.000000	7.833870
2454.000000	7.792546
2455.000000	7.675094
2456.000000	7.548914
2457.000000	7.571962
2458.000000	7.455914
2459.000000	7.335852
2460.000000	7.332338
2461.000000	7.198084
2462.000000	7.003924
2463.000000	6.847584
2464.000000	6.671586
2465.000000	6.541814
2466.000000	6.510666
2467.000000	6.255502
2468.000000	6.051832
2469.000000	5.876588
2470.000000	5.555624
2471.000000	5.213968
2472.000000	4.907880
2473.000000	4.511896
2474.000000	4.076972
2475.000000	3.543994
2476.000000	2.850630
2477.000000	2.272166
2478.000000	1.574016
2479.000000	0.562172
2480.000000	-0.453930
2481.000000	-1.296186
2482.000000	-2.415934
2483.000000	-3.703698
2484.000000	-5.349558
2485.000000	-7.494676
2486.000000	-10.609470
2487.000000	-13.743034
2488.000000	-19.110738
2489.000000	-28.900052
2490.000000	-98.676212
2491.000000	16492.238108
2492.000000	17081.837684
2493.000000	17108.970786
2494.000000	17124.295736
2495.000000	17135.026574
2496.000000	17145.219870
2497.000000	17154.851390
2498.000000	17167.095938
2499.000000	17182.968938
2500.000000	17258.564020
2501.000000	673.131436
2502.000000	89.657800
2503.000000	68.839338
2504.000000	60.420424
2505.000000	57.184984
2506.000000	55.878820
2507.000000	54.946762
2508.000000	53.905366
2509.000000	53.988034
2510.000000	54.442710
2511.000000	55.414750
2512.000000	55.845920
2513.000000	56.295670
2514.000000	56.794510
2515.000000	57.742980
2516.000000	58.486730
2517.000000	59.454670
2518.000000	60.638300
2519.000000	61.674670
2520.000000	62.549370
2521.000000	63.328170
2522.000000	64.577600
2523.000000	65.762290
2524.000000	67.020600
2525.000000	68.076480
2526.000000	68.585930
2527.000000	69.342320
2528.000000	69.882000
2529.000000	70.326630
2530.000000	71.226240
2531.000000	71.838580
2532.000000	72.544120
2533.000000	73.429200
2534.000000	74.083870
2535.000000	74.777850
2536.000000	76.167400
2537.000000	77.494500
2538.000000	78.241540
2539.000000	79.596750
2540.000000	80.899120
2541.000000	82.499450
2542.000000	83.113400
2543.000000	83.637040
2544.000000	84.154390
2545.000000	84.474710
2546.000000	84.858120
2547.000000	85.102720
2548.000000	85.657990
2549.000000	85.882920
2550.000000	86.252530
2551.000000	86.369390
2552.000000	87.088190
2553.000000	87.835160
2554.000000	88.383840
2555.000000	88.829510
2556.000000	88.911630
2557.000000	89.213250
2558.000000	89.181280
2559.000000	89.560110
2560.000000	89.963220
2561.000000	90.606660
2562.000000	91.005710
2563.000000	90.875570
2564.000000	90.901730
2565.000000	91.826240
2566.000000	93.211250
2567.000000	94.079140
2568.000000	95.280920
2569.000000	96.377580
2570.000000	96.502040
2571.000000	96.014160
2572.000000	95.803530
2573.000000	96.582450
2574.000000	97.537880
2575.000000	97.810230
2576.000000	97.478510
2577.000000	97.425370
2578.000000	97.176300
2579.000000	96.672780
2580.000000	96.961250
2581.000000	97.515050
2582.000000	98.118970
2583.000000	98.494630
2584.000000	98.195710
2585.000000	97.941060
2586.000000	98.042140
2587.000000	97.523880
2588.000000	97.631600
2589.000000	97.972120
2590.000000	97.590230
2591.000000	97.754980
2592.000000	98.336310
2593.000000	97.991590
2594.000000	98.077320
2595.000000	98.362230
2596.000000	98.519130
2597.000000	99.335160
2598.000000	100.144330
2599.000000	100.563850
2600.000000	100.778870
2601.000000	100.668190
2602.000000	100.223030
2603.000000	100.082750
2604.000000	100.392690
2605.000000	100.250810
2606.000000	99.911480
2607.000000	99.850350
2608.000000	99.200690
2609.000000	99.011320
2610.000000	99.676340
2611.000000	99.603760
2612.000000	99.584450
2613.000000	99.873780
2614.000000	99.679380
2615.000000	100.071630
2616.000000	100.465040
2617.000000	100.167830
2618.000000	100.187760
2619.000000	99.493610
2620.000000	98.636780
2621.000000	98.455480
2622.000000	98.208930
2623.000000	98.755170
2624.000000	99.065110
2625.000000	98.789410
2626.000000	98.759580
2627.000000	98.718750
2628.000000	98.991030
2629.000000	99.691790
2630.000000	100.111330
2631.000000	100.783060
2632.000000	101.292630
2633.000000	101.371790
2634.000000	101.578080
2635.000000	101.520170
2636.000000	101.555570
2637.000000	101.751870
2638.000000	101.464780
2639.000000	101.157150
2640.000000	101.120670
2641.000000	100.769250
2642.000000	100.042840
2643.000000	99.085660
2644.000000	98.303780
2645.000000	98.395100
2646.000000	98.434000
2647.000000	98.463920
2648.000000	99.280240
2649.000000	99.187440
2650.000000	99.139000
2651.000000	99.719190
2652.000000	100.453140
2653.000000	101.026530
2654.000000	101.460630
2655.000000	101.010500
2656.000000	101.080420
2657.000000	101.319900
2658.000000	100.697200
2659.000000	100.843690
2660.000000	101.182380
2661.000000	101.115360
2662.000000	101.283020
2663.000000	101.370750
2664.000000	101.697380
2665.000000	102.341570
2666.000000	101.820890
2667.000000	101.246510
2668.000000	101.367240
2669.000000	100.948680
2670.000000	100.571040
2671.000000	100.404120
2672.000000	100.918100
2673.000000	100.966630
2674.000000	101.410590
2675.000000	101.683140
2676.000000	102.252820
2677.000000	103.004540
2678.000000	103.300940
2679.000000	103.223900
2680.000000	103.474040
2681.000000	103.668990
2682.000000	102.668190
2683.000000	102.249210
2684.000000	101.497070
2685.000000	100.397430
2686.000000	100.179670
2687.000000	99.648040
2688.000000	99.161980
2689.000000	100.017380
2690.000000	99.544900
2691.000000	98.697480
2692.000000	98.766470
2693.000000	99.664750
2694.000000	100.103020
2695.000000	100.826740
2696.000000	100.848470
2697.000000	101.383660
2698.000000	101.246620
2699.000000	100.849820
2700.000000	101.365590
2701.000000	102.295160
2702.000000	102.304130
2703.000000	101.444290
2704.000000	101.019060
2705.000000	99.923510
2706.000000	99.653060
2707.000000	98.644510
2708.000000	98.490460
2709.000000	99.072540
2710.000000	99.233850
2711.000000	99.085330
2712.000000	99.473450
2713.000000	99.512580
2714.000000	99.912470
2715.000000	101.092350
2716.000000	101.760820
2717.000000	102.221330
2718.000000	102.802560
2719.000000	101.780270
2720.000000	101.703890
2721.000000	101.375050
2722.000000	101.668840
2723.000000	101.014420
2724.000000	100.748630
2725.000000	100.648670
2726.000000	101.244130
2727.000000	101.219250
2728.000000	101.300050
2729.000000	102.100660
2730.000000	101.619420
2731.000000	101.601380
2732.000000	101.286630
2733.000000	101.584080
2734.000000	101.946010
2735.000000	101.634870
2736.000000	100.062990
2737.000000	100.472000
2738.000000	99.024740
2739.000000	98.297960
2740.000000	98.303700
2741.000000	98.552150
2742.000000	97.666610
2743.000000	98.004570
2744.000000	98.064270
2745.000000	97.616480
2746.000000	98.077410
2747.000000	98.737330
2748.000000	99.978140
2749.000000	100.248010
2750.000000	100.530330
2751.000000	100.805250
2752.000000	102.796510
2753.000000	102.552570
2754.000000	102.356760
2755.000000	102.577850
2756.000000	103.271540
2757.000000	102.799580
2758.000000	101.993510
2759.000000	101.863120
2760.000000	101.893430
2761.000000	101.928750
2762.000000	100.588510
2763.000000	100.449250
2764.000000	101.012150
2765.000000	101.400840
2766.000000	100.894170
2767.000000	101.019770
2768.000000	101.061980
2769.000000	101.274790
2770.000000	101.742230
2771.000000	101.207410
2772.000000	100.400360
2773.000000	100.671380
2774.000000	100.042390
2775.000000	100.278190
2776.000000	99.837800
2777.000000	98.653240
2778.000000	98.907360
2779.000000	98.797480
2780.000000	98.130720
2781.000000	98.430500
2782.000000	99.030420
2783.000000	99.740460
2784.000000	99.142350
2785.000000	98.550360
2786.000000	99.176700
2787.000000	99.987190
2788.000000	100.921710
2789.000000	101.328270
2790.000000	101.352660
2791.000000	100.381560
2792.000000	99.818790
2793.000000	99.518750
2794.000000	100.078790
2795.000000	100.350780
2796.000000	99.671370
2797.000000	99.275210
2798.000000	98.662900
2799.000000	98.676770
2800.000000	98.873730
2801.000000	99.592510
2802.000000	100.747440
2803.000000	100.303270
2804.000000	100.028600
2805.000000	100.352360
2806.000000	100.844630
2807.000000	101.355220
2808.000000	101.585070
2809.000000	101.418680
2810.000000	101.100100
2811.000000	101.225470
2812.000000	101.261590
2813.000000	102.059430
2814.000000	101.765330
2815.000000	101.415090
2816.000000	101.188340
2817.000000	100.832150
2818.000000	100.652460
2819.000000	100.416570
2820.000000	100.402200
2821.000000	100.326650
2822.000000	100.354160
2823.000000	101.048070
2824.000000	101.732270
2825.000000	102.173340
2826.000000	102.408150
2827.000000	101.991820
2828.000000	102.233600
2829.000000	102.498350
2830.000000	102.285540
2831.000000	102.050050
2832.000000	102.064490
2833.000000	100.792190
2834.000000	100.170880
2835.000000	99.999560
2836.000000	99.764750
2837.000000	100.130870
2838.000000	99.864050
2839.000000	99.830670
2840.000000	100.298690
2841.000000	100.247240
2842.000000	99.336680
2843.000000	99.319120
2844.000000	99.747410
2845.000000	99.512300
2846.000000	99.673090
2847.000000	99.871680
2848.000000	99.361850
2849.000000	98.604500
2850.000000	98.084290
2851.000000	97.771440
2852.000000	97.784950
2853.000000	98.264730
2854.000000	98.645350
2855.000000	98.947250
2856.000000	98.941250
2857.000000	98.867330
2858.000000	99.531840
2859.000000	100.692800
2860.000000	101.724330
2861.000000	102.077050
2862.000000	102.566480
2863.000000	102.552360
2864.000000	102.019290
2865.000000	102.058940
2866.000000	102.343460
2867.000000	102.651520
2868.000000	102.741750
2869.000000	102.471540
2870.000000	102.543440
2871.000000	103.425290
2872.000000	103.920560
2873.000000	103.810070
2874.000000	103.728040
2875.000000	103.882930
2876.000000	104.443740
2877.000000	104.083990
2878.000000	103.459830
2879.000000	103.507320
2880.000000	103.236300
2881.000000	102.554350
2882.000000	101.769740
2883.000000	101.688110
2884.000000	101.482900
2885.000000	100.871810
2886.000000	100.359790
2887.000000	100.923290
2888.000000	101.603380
2889.000000	101.166900
2890.000000	101.216350
2891.000000	101.493430
2892.000000	101.562500
2893.000000	100.968500
2894.000000	101.387650
2895.000000	102.136940
2896.000000	101.951100
2897.000000	101.237070
2898.000000	101.220230
2899.000000	102.089960
2900.000000	101.925950
2901.000000	102.000410
2902.000000	102.283160
2903.000000	103.092180
2904.000000	103.322310
2905.000000	102.797710
2906.000000	102.044780
2907.000000	102.657250
2908.000000	102.519750
2909.000000	102.285580
2910.000000	102.832450
2911.000000	102.627860
2912.000000	102.435500
2913.000000	101.667360
2914.000000	101.394190
2915.000000	101.379940
2916.000000	101.694260
2917.000000	101.355660
2918.000000	101.419570
2919.000000	101.773040
2920.000000	101.272560
2921.000000	100.901690
2922.000000	100.563170
2923.000000	100.892970
2924.000000	100.638670
2925.000000	100.417540
2926.000000	100.308910
2927.000000	100.610750
2928.000000	100.862590
2929.000000	100.128980
2930.000000	99.993870
2931.000000	100.613020
2932.000000	101.477140
2933.000000	101.828830
2934.000000	102.458950
2935.000000	102.552210
2936.000000	102.839670
2937.000000	102.429850
2938.000000	101.688720
2939.000000	101.863630
2940.000000	101.863830
2941.000000	101.525210
2942.000000	100.922610
2943.000000	101.227100
2944.000000	102.002700
2945.000000	103.132410
2946.000000	103.533240
2947.000000	103.782180
2948.000000	104.516930
2949.000000	104.136180
2950.000000	103.735440
2951.000000	103.432950
2952.000000	103.482320
2953.000000	103.064600
2954.000000	101.994740
2955.000000	101.884570
2956.000000	101.630360
2957.000000	101.467310
2958.000000	101.061160
2959.000000	101.053490
2960.000000	101.558750
2961.000000	101.663940
2962.000000	101.671240
2963.000000	101.850980
2964.000000	100.683910
2965.000000	99.583960
2966.000000	99.896080
2967.000000	99.848410
2968.000000	99.570940
2969.000000	99.390590
2970.000000	98.483470
2971.000000	98.597160
2972.000000	98.369300
2973.000000	98.454320
2974.000000	99.503220
2975.000000	99.542410
2976.000000	98.570040
2977.000000	98.299880
2978.000000	98.404310
2979.000000	98.564670
2980.000000	99.828360
2981.000000	100.947200
2982.000000	100.678310
2983.000000	100.434380
2984.000000	100.021130
2985.000000	100.127520
2986.000000	100.732880
2987.000000	101.189720
2988.000000	101.352420
2989.000000	101.656010
2990.000000	101.231720
2991.000000	100.694360
2992.000000	101.536630
2993.000000	101.031640
2994.000000	100.933690
2995.000000	101.090310
2996.000000	100.676330
2997.000000	100.119260
2998.000000	100.245080
2999.000000	100.392420
3000.000000	100.868950
