PE UV       SUBTECH     SPECTRUM    ASCII       PEDS        4.00        
   -1
INBUCR0435-4.Sample.ASC
24/02/09
16:00:33.00
24/02/09
16:00:33.00
Vinicio Soto Monge
Chrysina limbata. COSTA RICA. Prov. Cartago. Tayutic, Platanillo. 980-1000 m. 15 de Nov 2002, Rocío Vives. Manual (Aplastado sobre la calle). L. N. 199600 585500 #72176. INB0003554368 INBIOCRI COSTA RICA. Falta élitro izquierdo
250,000000
1
Lambda 1050
1050L1511233
PerkinElmer UV WinLab 6.3.2.0749 / 2.02.05 Lambda 900 UV/VIS/NIR, Aug  7 2015 09:38:08

0
0
3350/servo 860,8/2
0
0
UV/VIS
1
1
1
DoubleDePol,CommonBeamDepol,RBeamAtt,SBeamAtt,60mm sphere, WB InGaAs Detector
0
0
0
0
Program
Program
3350/servo 860,8/2
3350/0,2 860,8/0,2
3350/0,2 860,8/0,2
0
15.00
 
 
 
0
 
860,8
319,2
860,8
Front
100
on
S:100 R:100
0
0
0
0
 
0
 
 
 
0
 
 
0
0
0
0
0
 
 
 
 
0
0


0
0
#HDR
-1
-1
#GR
nm
%R
1.0
0.0
2500,000000
-1,000000
2251
8
19,611200
1,781400
#DATA

250.000000	nan
251.000000	nan
252.000000	nan
253.000000	nan
254.000000	nan
255.000000	nan
256.000000	nan
257.000000	nan
258.000000	nan
259.000000	4.082499
260.000000	4.079030
261.000000	4.078121
262.000000	4.075090
263.000000	4.071299
264.000000	4.067819
265.000000	4.067420
266.000000	4.067001
267.000000	4.063952
268.000000	4.059825
269.000000	4.056367
270.000000	4.053996
271.000000	4.050754
272.000000	4.048270
273.000000	4.046092
274.000000	4.044527
275.000000	4.039799
276.000000	4.035750
277.000000	4.033631
278.000000	4.031713
279.000000	4.029961
280.000000	4.029055
281.000000	4.028812
282.000000	4.027123
283.000000	4.025758
284.000000	4.024403
285.000000	4.026274
286.000000	4.025824
287.000000	4.024654
288.000000	4.025408
289.000000	4.024108
290.000000	4.023434
291.000000	4.020430
292.000000	4.021243
293.000000	4.020415
294.000000	4.019063
295.000000	4.016383
296.000000	4.015183
297.000000	4.013794
298.000000	4.012423
299.000000	4.012765
300.000000	4.012198
301.000000	4.011568
302.000000	4.011310
303.000000	4.011933
304.000000	4.012117
305.000000	4.010668
306.000000	4.007721
307.000000	4.008718
308.000000	4.006879
309.000000	4.006956
310.000000	4.004650
311.000000	4.005120
312.000000	4.002231
313.000000	4.001421
314.000000	4.001653
315.000000	4.001999
316.000000	4.006844
317.000000	4.034567
318.000000	4.059994
319.000000	4.085982
320.000000	4.101070
321.000000	4.121263
322.000000	4.146396
323.000000	4.164359
324.000000	4.187771
325.000000	4.204803
326.000000	4.228311
327.000000	4.223550
328.000000	4.214904
329.000000	4.208206
330.000000	4.213330
331.000000	4.208184
332.000000	4.195688
333.000000	4.200937
334.000000	4.200084
335.000000	4.210683
336.000000	4.239376
337.000000	4.275638
338.000000	4.321766
339.000000	4.366131
340.000000	4.412372
341.000000	4.467701
342.000000	4.531444
343.000000	4.585280
344.000000	4.645304
345.000000	4.735136
346.000000	4.804517
347.000000	4.876980
348.000000	4.952118
349.000000	5.034014
350.000000	5.151637
351.000000	5.278238
352.000000	5.408039
353.000000	5.579453
354.000000	5.756599
355.000000	5.911609
356.000000	6.070176
357.000000	6.261862
358.000000	6.461517
359.000000	6.699013
360.000000	6.913838
361.000000	7.129948
362.000000	7.380523
363.000000	7.604237
364.000000	7.832502
365.000000	8.088603
366.000000	8.348883
367.000000	8.586268
368.000000	8.852555
369.000000	9.087503
370.000000	9.347824
371.000000	9.603928
372.000000	9.825263
373.000000	10.042896
374.000000	10.286411
375.000000	10.501107
376.000000	10.731425
377.000000	10.919521
378.000000	11.073935
379.000000	11.249360
380.000000	11.394033
381.000000	11.535935
382.000000	11.677805
383.000000	11.841036
384.000000	11.968694
385.000000	12.091077
386.000000	12.189203
387.000000	12.316326
388.000000	12.438135
389.000000	12.527297
390.000000	12.611751
391.000000	12.718631
392.000000	12.820539
393.000000	12.889877
394.000000	12.955127
395.000000	13.016376
396.000000	13.072129
397.000000	13.123220
398.000000	13.171791
399.000000	13.215935
400.000000	13.256756
401.000000	13.265088
402.000000	13.268101
403.000000	13.267577
404.000000	13.262283
405.000000	13.225031
406.000000	13.184032
407.000000	13.139340
408.000000	13.089755
409.000000	13.036009
410.000000	12.977781
411.000000	12.915964
412.000000	12.851975
413.000000	12.758164
414.000000	12.662388
415.000000	12.593156
416.000000	12.525025
417.000000	12.458978
418.000000	12.395999
419.000000	12.338555
420.000000	12.287182
421.000000	12.243969
422.000000	12.208868
423.000000	12.238090
424.000000	12.277156
425.000000	12.325498
426.000000	12.382138
427.000000	12.445699
428.000000	12.515729
429.000000	12.590598
430.000000	12.695754
431.000000	12.801851
432.000000	12.907454
433.000000	12.982796
434.000000	13.054116
435.000000	13.120664
436.000000	13.180400
437.000000	13.232441
438.000000	13.275914
439.000000	13.310026
440.000000	13.308212
441.000000	13.297403
442.000000	13.277278
443.000000	13.219991
444.000000	13.154758
445.000000	13.084286
446.000000	13.010465
447.000000	12.935354
448.000000	12.861102
449.000000	12.789444
450.000000	12.721854
451.000000	12.660396
452.000000	12.607364
453.000000	12.592071
454.000000	12.587823
455.000000	12.593648
456.000000	12.608858
457.000000	12.632695
458.000000	12.663459
459.000000	12.728045
460.000000	12.797332
461.000000	12.869652
462.000000	12.942475
463.000000	13.014048
464.000000	13.081865
465.000000	13.171863
466.000000	13.256111
467.000000	13.333869
468.000000	13.404376
469.000000	13.439136
470.000000	13.465984
471.000000	13.457749
472.000000	13.444719
473.000000	13.428370
474.000000	13.410396
475.000000	13.365512
476.000000	13.321745
477.000000	13.280524
478.000000	13.244533
479.000000	13.214667
480.000000	13.190296
481.000000	13.226775
482.000000	13.267153
483.000000	13.312308
484.000000	13.363527
485.000000	13.420456
486.000000	13.510040
487.000000	13.603415
488.000000	13.698785
489.000000	13.795070
490.000000	13.892493
491.000000	13.964464
492.000000	14.038831
493.000000	14.112963
494.000000	14.184945
495.000000	14.253870
496.000000	14.292455
497.000000	14.328707
498.000000	14.363657
499.000000	14.398723
500.000000	14.434773
501.000000	14.470955
502.000000	14.507821
503.000000	14.545674
504.000000	14.585105
505.000000	14.654163
506.000000	14.724895
507.000000	14.797062
508.000000	14.869901
509.000000	14.942202
510.000000	15.013306
511.000000	15.110246
512.000000	15.205165
513.000000	15.298431
514.000000	15.389516
515.000000	15.449433
516.000000	15.505967
517.000000	15.559505
518.000000	15.637834
519.000000	15.713900
520.000000	15.787456
521.000000	15.831894
522.000000	15.874651
523.000000	15.916173
524.000000	15.956811
525.000000	15.997811
526.000000	16.039019
527.000000	16.080504
528.000000	16.093953
529.000000	16.107413
530.000000	16.121517
531.000000	16.135567
532.000000	16.149595
533.000000	16.191951
534.000000	16.234252
535.000000	16.275731
536.000000	16.317346
537.000000	16.358302
538.000000	16.400121
539.000000	16.442165
540.000000	16.484052
541.000000	16.526858
542.000000	16.570020
543.000000	16.585023
544.000000	16.599423
545.000000	16.613820
546.000000	16.627450
547.000000	16.640761
548.000000	16.652747
549.000000	16.662743
550.000000	16.672262
551.000000	16.680359
552.000000	16.686362
553.000000	16.691310
554.000000	16.695028
555.000000	16.698197
556.000000	16.700987
557.000000	16.702992
558.000000	16.704950
559.000000	16.708094
560.000000	16.691682
561.000000	16.671319
562.000000	16.651062
563.000000	16.629981
564.000000	16.609262
565.000000	16.587301
566.000000	16.564843
567.000000	16.541442
568.000000	16.516966
569.000000	16.490875
570.000000	16.481933
571.000000	16.474755
572.000000	16.465899
573.000000	16.456135
574.000000	16.443953
575.000000	16.431022
576.000000	16.389103
577.000000	16.347908
578.000000	16.306235
579.000000	16.264375
580.000000	16.223885
581.000000	16.183791
582.000000	16.144450
583.000000	16.104763
584.000000	16.066065
585.000000	16.025974
586.000000	16.013813
587.000000	15.999770
588.000000	15.984084
589.000000	15.966439
590.000000	15.945964
591.000000	15.925241
592.000000	15.902175
593.000000	15.878154
594.000000	15.853268
595.000000	15.829420
596.000000	15.777079
597.000000	15.725807
598.000000	15.676774
599.000000	15.629185
600.000000	15.584148
601.000000	15.539039
602.000000	15.497360
603.000000	15.457501
604.000000	15.419002
605.000000	15.380287
606.000000	15.369170
607.000000	15.356930
608.000000	15.342725
609.000000	15.328113
610.000000	15.311833
611.000000	15.296018
612.000000	15.278001
613.000000	15.259764
614.000000	15.242268
615.000000	15.226288
616.000000	15.212539
617.000000	15.202067
618.000000	15.194144
619.000000	15.188661
620.000000	15.185404
621.000000	15.184259
622.000000	15.185940
623.000000	15.188582
624.000000	15.190421
625.000000	15.191419
626.000000	15.191002
627.000000	15.189498
628.000000	15.187434
629.000000	15.184281
630.000000	15.180032
631.000000	15.175014
632.000000	15.170200
633.000000	15.167068
634.000000	15.166373
635.000000	15.169042
636.000000	15.175439
637.000000	15.184424
638.000000	15.196370
639.000000	15.211518
640.000000	15.230012
641.000000	15.249805
642.000000	15.271127
643.000000	15.291239
644.000000	15.310752
645.000000	15.328734
646.000000	15.344178
647.000000	15.357075
648.000000	15.367071
649.000000	15.375168
650.000000	15.381744
651.000000	15.417005
652.000000	15.451754
653.000000	15.488316
654.000000	15.526895
655.000000	15.567550
656.000000	15.611300
657.000000	15.658706
658.000000	15.709757
659.000000	15.762248
660.000000	15.816838
661.000000	15.843135
662.000000	15.869096
663.000000	15.894279
664.000000	15.918042
665.000000	15.940669
666.000000	15.989812
667.000000	16.036539
668.000000	16.081407
669.000000	16.126888
670.000000	16.170846
671.000000	16.216020
672.000000	16.262832
673.000000	16.311197
674.000000	16.361765
675.000000	16.414247
676.000000	16.442312
677.000000	16.500222
678.000000	16.560588
679.000000	16.621532
680.000000	16.684057
681.000000	16.746162
682.000000	16.807480
683.000000	16.868498
684.000000	16.927065
685.000000	16.984665
686.000000	17.038757
687.000000	17.063411
688.000000	17.086344
689.000000	17.135993
690.000000	17.185600
691.000000	17.234467
692.000000	17.283939
693.000000	17.333698
694.000000	17.385312
695.000000	17.438430
696.000000	17.493207
697.000000	17.549969
698.000000	17.607876
699.000000	17.637984
700.000000	17.695524
701.000000	17.753597
702.000000	17.810782
703.000000	17.866645
704.000000	17.921293
705.000000	17.973774
706.000000	18.024378
707.000000	18.073722
708.000000	18.121838
709.000000	18.169286
710.000000	18.188273
711.000000	18.206859
712.000000	18.225202
713.000000	18.244290
714.000000	18.290799
715.000000	18.338395
716.000000	18.387223
717.000000	18.435348
718.000000	18.484278
719.000000	18.533898
720.000000	18.583909
721.000000	18.634156
722.000000	18.683940
723.000000	18.732792
724.000000	18.753784
725.000000	18.772563
726.000000	18.790047
727.000000	18.808211
728.000000	18.825696
729.000000	18.841727
730.000000	18.883976
731.000000	18.925845
732.000000	18.967733
733.000000	19.010036
734.000000	19.052542
735.000000	19.095712
736.000000	19.140381
737.000000	19.184325
738.000000	19.226039
739.000000	19.267234
740.000000	19.282687
741.000000	19.298221
742.000000	19.313407
743.000000	19.328512
744.000000	19.343805
745.000000	19.359574
746.000000	19.400684
747.000000	19.441875
748.000000	19.485661
749.000000	19.530697
750.000000	19.574275
751.000000	19.618222
752.000000	19.663387
753.000000	19.707935
754.000000	19.753161
755.000000	19.798965
756.000000	19.818704
757.000000	19.838518
758.000000	19.856683
759.000000	19.873633
760.000000	19.891919
761.000000	19.910293
762.000000	19.926782
763.000000	19.943362
764.000000	19.958896
765.000000	20.001247
766.000000	20.042815
767.000000	20.083396
768.000000	20.125097
769.000000	20.169881
770.000000	20.213094
771.000000	20.253561
772.000000	20.296405
773.000000	20.340539
774.000000	20.383877
775.000000	20.399064
776.000000	20.414691
777.000000	20.432694
778.000000	20.449822
779.000000	20.464758
780.000000	20.479986
781.000000	20.494740
782.000000	20.507647
783.000000	20.520568
784.000000	20.534510
785.000000	20.549642
786.000000	20.592683
787.000000	20.635048
788.000000	20.678844
789.000000	20.722486
790.000000	20.766287
791.000000	20.811353
792.000000	20.858914
793.000000	20.906171
794.000000	20.953588
795.000000	21.003360
796.000000	21.022984
797.000000	21.039512
798.000000	21.056392
799.000000	21.073339
800.000000	21.091570
801.000000	21.110319
802.000000	21.155972
803.000000	21.201283
804.000000	21.246389
805.000000	21.289718
806.000000	21.336940
807.000000	21.385619
808.000000	21.433890
809.000000	21.487293
810.000000	21.539854
811.000000	21.593095
812.000000	21.618980
813.000000	21.644136
814.000000	21.667516
815.000000	21.690751
816.000000	21.714432
817.000000	21.737858
818.000000	21.760566
819.000000	21.777757
820.000000	21.794661
821.000000	21.809312
822.000000	21.822433
823.000000	21.838446
824.000000	21.852833
825.000000	21.867304
826.000000	21.878768
827.000000	21.919897
828.000000	21.961178
829.000000	21.995669
830.000000	22.032170
831.000000	22.074130
832.000000	22.113971
833.000000	22.151705
834.000000	22.190964
835.000000	22.226614
836.000000	22.265034
837.000000	22.268294
838.000000	22.269494
839.000000	22.279738
840.000000	22.286158
841.000000	22.285403
842.000000	22.289048
843.000000	22.288013
844.000000	22.296774
845.000000	22.304527
846.000000	22.310721
847.000000	22.287875
848.000000	22.290965
849.000000	22.294905
850.000000	22.292276
851.000000	22.286605
852.000000	22.272703
853.000000	22.258705
854.000000	22.249330
855.000000	22.234352
856.000000	22.222774
857.000000	22.258736
858.000000	22.440451
859.000000	22.476906
860.000000	22.547360
861.000000	22.600460
862.000000	22.662109
863.000000	22.727935
864.000000	22.758036
865.000000	22.796995
866.000000	22.831321
867.000000	22.828859
868.000000	22.679855
869.000000	22.648170
870.000000	22.614930
871.000000	22.605003
872.000000	22.566643
873.000000	22.526855
874.000000	22.508057
875.000000	22.488885
876.000000	22.443425
877.000000	22.422037
878.000000	22.375085
879.000000	22.352322
880.000000	22.277567
881.000000	22.203263
882.000000	22.153020
883.000000	22.101543
884.000000	22.050295
885.000000	21.997678
886.000000	21.945168
887.000000	21.891427
888.000000	21.837635
889.000000	21.758042
890.000000	21.702980
891.000000	21.645235
892.000000	21.587173
893.000000	21.530065
894.000000	21.472037
895.000000	21.413040
896.000000	21.376673
897.000000	21.340485
898.000000	21.278675
899.000000	21.241105
900.000000	21.203460
901.000000	21.165552
902.000000	21.128240
903.000000	21.064912
904.000000	21.001133
905.000000	20.938345
906.000000	20.876352
907.000000	20.811573
908.000000	20.771573
909.000000	20.707325
910.000000	20.668263
911.000000	20.605930
912.000000	20.542282
913.000000	20.502978
914.000000	20.464180
915.000000	20.424442
916.000000	20.385755
917.000000	20.321865
918.000000	20.256998
919.000000	20.217053
920.000000	20.152172
921.000000	20.110650
922.000000	20.067770
923.000000	20.000117
924.000000	19.932117
925.000000	19.862745
926.000000	19.792370
927.000000	19.747120
928.000000	19.701613
929.000000	19.655435
930.000000	19.607963
931.000000	19.535240
932.000000	19.464247
933.000000	19.417320
934.000000	19.371395
935.000000	19.327545
936.000000	19.282918
937.000000	19.240065
938.000000	19.197700
939.000000	19.154010
940.000000	19.085573
941.000000	19.041735
942.000000	18.997737
943.000000	18.953302
944.000000	18.909010
945.000000	18.863717
946.000000	18.819978
947.000000	18.776767
948.000000	18.734942
949.000000	18.694475
950.000000	18.680803
951.000000	18.667863
952.000000	18.630653
953.000000	18.596367
954.000000	18.561640
955.000000	18.526925
956.000000	18.491447
957.000000	18.456142
958.000000	18.420945
959.000000	18.386600
960.000000	18.351402
961.000000	18.316582
962.000000	18.306528
963.000000	18.296482
964.000000	18.285855
965.000000	18.275928
966.000000	18.267502
967.000000	18.259183
968.000000	18.251053
969.000000	18.218545
970.000000	18.187217
971.000000	18.156523
972.000000	18.127210
973.000000	18.097923
974.000000	18.069718
975.000000	18.042732
976.000000	18.015928
977.000000	17.989818
978.000000	17.963850
979.000000	17.962497
980.000000	17.961523
981.000000	17.960325
982.000000	17.957892
983.000000	17.955145
984.000000	17.952423
985.000000	17.949488
986.000000	17.946545
987.000000	17.943560
988.000000	17.942137
989.000000	17.941103
990.000000	17.940168
991.000000	17.940530
992.000000	17.942185
993.000000	17.944833
994.000000	17.949077
995.000000	17.953750
996.000000	17.958950
997.000000	17.964230
998.000000	17.969123
999.000000	17.974105
1000.000000	17.978603
1001.000000	17.982805
1002.000000	17.986448
1003.000000	17.990407
1004.000000	17.994233
1005.000000	17.997745
1006.000000	17.975997
1007.000000	17.979202
1008.000000	17.981558
1009.000000	17.984400
1010.000000	17.987860
1011.000000	17.966168
1012.000000	17.945525
1013.000000	17.924675
1014.000000	17.902772
1015.000000	17.881140
1016.000000	17.910320
1017.000000	17.915055
1018.000000	17.920365
1019.000000	17.925998
1020.000000	17.907205
1021.000000	17.913535
1022.000000	17.920268
1023.000000	17.927280
1024.000000	17.934630
1025.000000	17.942645
1026.000000	17.925158
1027.000000	17.907618
1028.000000	17.890680
1029.000000	17.898500
1030.000000	17.931078
1031.000000	17.939250
1032.000000	17.947310
1033.000000	17.954793
1034.000000	17.961968
1035.000000	17.968925
1036.000000	18.000525
1037.000000	18.032013
1038.000000	18.063288
1039.000000	18.069945
1040.000000	18.076715
1041.000000	18.107952
1042.000000	18.139015
1043.000000	18.170917
1044.000000	18.203308
1045.000000	18.235492
1046.000000	18.243668
1047.000000	18.252108
1048.000000	18.260427
1049.000000	18.268595
1050.000000	18.276915
1051.000000	18.285683
1052.000000	18.294945
1053.000000	18.303870
1054.000000	18.312665
1055.000000	18.321350
1056.000000	18.329557
1057.000000	18.338223
1058.000000	18.347145
1059.000000	18.355652
1060.000000	18.363577
1061.000000	18.371155
1062.000000	18.378363
1063.000000	18.385893
1064.000000	18.393570
1065.000000	18.402113
1066.000000	18.410892
1067.000000	18.418997
1068.000000	18.427300
1069.000000	18.435720
1070.000000	18.444465
1071.000000	18.454355
1072.000000	18.463635
1073.000000	18.472875
1074.000000	18.483157
1075.000000	18.493488
1076.000000	18.502970
1077.000000	18.512638
1078.000000	18.522430
1079.000000	18.531665
1080.000000	18.541357
1081.000000	18.550328
1082.000000	18.558820
1083.000000	18.566427
1084.000000	18.572927
1085.000000	18.579375
1086.000000	18.586157
1087.000000	18.592683
1088.000000	18.598265
1089.000000	18.603720
1090.000000	18.609205
1091.000000	18.615257
1092.000000	18.621688
1093.000000	18.628260
1094.000000	18.635095
1095.000000	18.640755
1096.000000	18.646440
1097.000000	18.652907
1098.000000	18.658900
1099.000000	18.665568
1100.000000	18.672092
1101.000000	18.677098
1102.000000	18.682228
1103.000000	18.687905
1104.000000	18.693002
1105.000000	18.698315
1106.000000	18.703453
1107.000000	18.707668
1108.000000	18.713503
1109.000000	18.718142
1110.000000	18.721575
1111.000000	18.725177
1112.000000	18.728470
1113.000000	18.731547
1114.000000	18.735188
1115.000000	18.738660
1116.000000	18.742088
1117.000000	18.744970
1118.000000	18.746617
1119.000000	18.748207
1120.000000	18.750522
1121.000000	18.752460
1122.000000	18.754475
1123.000000	18.756652
1124.000000	18.756310
1125.000000	18.754105
1126.000000	18.752035
1127.000000	18.750405
1128.000000	18.748207
1129.000000	18.747060
1130.000000	18.743565
1131.000000	18.737928
1132.000000	18.730095
1133.000000	18.721733
1134.000000	18.715678
1135.000000	18.712263
1136.000000	18.707010
1137.000000	18.700373
1138.000000	18.693000
1139.000000	18.683308
1140.000000	18.675383
1141.000000	18.669198
1142.000000	18.664170
1143.000000	18.658085
1144.000000	18.650062
1145.000000	18.641593
1146.000000	18.634505
1147.000000	18.628605
1148.000000	18.621760
1149.000000	18.616595
1150.000000	18.611940
1151.000000	18.606462
1152.000000	18.601512
1153.000000	18.596398
1154.000000	18.592525
1155.000000	18.587122
1156.000000	18.579383
1157.000000	18.569395
1158.000000	18.559695
1159.000000	18.548555
1160.000000	18.534905
1161.000000	18.496880
1162.000000	18.456080
1163.000000	18.413210
1164.000000	18.368417
1165.000000	18.323393
1166.000000	18.279218
1167.000000	18.236160
1168.000000	18.193490
1169.000000	18.149853
1170.000000	18.107503
1171.000000	18.089140
1172.000000	18.073540
1173.000000	18.059632
1174.000000	18.047618
1175.000000	18.035908
1176.000000	18.025415
1177.000000	18.016278
1178.000000	18.006238
1179.000000	17.998852
1180.000000	17.990655
1181.000000	17.984695
1182.000000	17.979585
1183.000000	17.975225
1184.000000	17.969995
1185.000000	17.965470
1186.000000	17.961897
1187.000000	17.958837
1188.000000	17.956250
1189.000000	17.953845
1190.000000	17.955137
1191.000000	17.957065
1192.000000	17.958665
1193.000000	17.962800
1194.000000	17.969590
1195.000000	17.976710
1196.000000	17.984168
1197.000000	17.992365
1198.000000	18.002460
1199.000000	18.012818
1200.000000	18.022090
1201.000000	18.030390
1202.000000	18.039140
1203.000000	18.046405
1204.000000	18.053097
1205.000000	18.061317
1206.000000	18.069143
1207.000000	18.075785
1208.000000	18.082383
1209.000000	18.090190
1210.000000	18.097870
1211.000000	18.106388
1212.000000	18.115663
1213.000000	18.124738
1214.000000	18.158062
1215.000000	18.189745
1216.000000	18.221192
1217.000000	18.253438
1218.000000	18.285315
1219.000000	18.315468
1220.000000	18.345305
1221.000000	18.374240
1222.000000	18.401315
1223.000000	18.427545
1224.000000	18.428935
1225.000000	18.430542
1226.000000	18.432178
1227.000000	18.431790
1228.000000	18.431810
1229.000000	18.431833
1230.000000	18.431580
1231.000000	18.431130
1232.000000	18.430375
1233.000000	18.430010
1234.000000	18.429665
1235.000000	18.429353
1236.000000	18.427975
1237.000000	18.427430
1238.000000	18.426782
1239.000000	18.426102
1240.000000	18.425605
1241.000000	18.425915
1242.000000	18.427515
1243.000000	18.429288
1244.000000	18.431365
1245.000000	18.433835
1246.000000	18.438010
1247.000000	18.443468
1248.000000	18.449157
1249.000000	18.455598
1250.000000	18.462355
1251.000000	18.469140
1252.000000	18.475990
1253.000000	18.483247
1254.000000	18.490560
1255.000000	18.498375
1256.000000	18.506172
1257.000000	18.512993
1258.000000	18.519263
1259.000000	18.525552
1260.000000	18.531355
1261.000000	18.537038
1262.000000	18.542970
1263.000000	18.548390
1264.000000	18.551950
1265.000000	18.554465
1266.000000	18.556338
1267.000000	18.557845
1268.000000	18.559390
1269.000000	18.560070
1270.000000	18.560728
1271.000000	18.561705
1272.000000	18.561730
1273.000000	18.561675
1274.000000	18.562190
1275.000000	18.562382
1276.000000	18.562820
1277.000000	18.563390
1278.000000	18.563737
1279.000000	18.564755
1280.000000	18.565960
1281.000000	18.566265
1282.000000	18.566945
1283.000000	18.568148
1284.000000	18.569875
1285.000000	18.571930
1286.000000	18.573692
1287.000000	18.575578
1288.000000	18.578445
1289.000000	18.581470
1290.000000	18.584515
1291.000000	18.588123
1292.000000	18.591898
1293.000000	18.595562
1294.000000	18.599972
1295.000000	18.605135
1296.000000	18.610222
1297.000000	18.615068
1298.000000	18.619435
1299.000000	18.623462
1300.000000	18.627320
1301.000000	18.630795
1302.000000	18.633765
1303.000000	18.636862
1304.000000	18.639328
1305.000000	18.640765
1306.000000	18.641520
1307.000000	18.641672
1308.000000	18.640335
1309.000000	18.637865
1310.000000	18.634620
1311.000000	18.631138
1312.000000	18.627382
1313.000000	18.622555
1314.000000	18.616220
1315.000000	18.609213
1316.000000	18.602805
1317.000000	18.596135
1318.000000	18.589392
1319.000000	18.582608
1320.000000	18.575615
1321.000000	18.567293
1322.000000	18.558348
1323.000000	18.549542
1324.000000	18.541158
1325.000000	18.532023
1326.000000	18.521520
1327.000000	18.510890
1328.000000	18.499460
1329.000000	18.487567
1330.000000	18.475887
1331.000000	18.464520
1332.000000	18.451900
1333.000000	18.411752
1334.000000	18.371250
1335.000000	18.331342
1336.000000	18.291152
1337.000000	18.249825
1338.000000	18.208548
1339.000000	18.166760
1340.000000	18.122940
1341.000000	18.079010
1342.000000	18.034365
1343.000000	18.015110
1344.000000	17.994018
1345.000000	17.969687
1346.000000	17.944588
1347.000000	17.919582
1348.000000	17.894123
1349.000000	17.865707
1350.000000	17.836402
1351.000000	17.805150
1352.000000	17.773880
1353.000000	17.743575
1354.000000	17.716945
1355.000000	17.693670
1356.000000	17.669792
1357.000000	17.645163
1358.000000	17.619993
1359.000000	17.594975
1360.000000	17.574682
1361.000000	17.563897
1362.000000	17.554015
1363.000000	17.515650
1364.000000	17.475893
1365.000000	17.432945
1366.000000	17.387680
1367.000000	17.345525
1368.000000	17.303238
1369.000000	17.258232
1370.000000	17.208240
1371.000000	17.122500
1372.000000	17.029520
1373.000000	16.956435
1374.000000	16.873330
1375.000000	16.785108
1376.000000	16.690220
1377.000000	16.584935
1378.000000	16.470482
1379.000000	16.329695
1380.000000	16.187920
1381.000000	16.077018
1382.000000	15.974050
1383.000000	15.880018
1384.000000	15.791592
1385.000000	15.709090
1386.000000	15.634927
1387.000000	15.573770
1388.000000	15.526200
1389.000000	15.482637
1390.000000	15.438888
1391.000000	15.396052
1392.000000	15.354605
1393.000000	15.311552
1394.000000	15.273808
1395.000000	15.245347
1396.000000	15.218113
1397.000000	15.179242
1398.000000	15.133012
1399.000000	15.118550
1400.000000	15.114760
1401.000000	15.102765
1402.000000	15.080935
1403.000000	15.056300
1404.000000	15.031035
1405.000000	14.995820
1406.000000	14.958190
1407.000000	14.924508
1408.000000	14.893070
1409.000000	14.856143
1410.000000	14.806857
1411.000000	14.755555
1412.000000	14.709355
1413.000000	14.665237
1414.000000	14.621452
1415.000000	14.574853
1416.000000	14.525983
1417.000000	14.478735
1418.000000	14.433475
1419.000000	14.388325
1420.000000	14.344368
1421.000000	14.278520
1422.000000	14.214087
1423.000000	14.150887
1424.000000	14.085002
1425.000000	14.021562
1426.000000	13.961812
1427.000000	13.902267
1428.000000	13.843253
1429.000000	13.783975
1430.000000	13.727598
1431.000000	13.699642
1432.000000	13.672783
1433.000000	13.645808
1434.000000	13.618625
1435.000000	13.592995
1436.000000	13.569795
1437.000000	13.549165
1438.000000	13.527795
1439.000000	13.508270
1440.000000	13.489853
1441.000000	13.471235
1442.000000	13.452830
1443.000000	13.435285
1444.000000	13.420103
1445.000000	13.408378
1446.000000	13.370250
1447.000000	13.330495
1448.000000	13.290048
1449.000000	13.250387
1450.000000	13.212065
1451.000000	13.173507
1452.000000	13.135788
1453.000000	13.097455
1454.000000	13.058840
1455.000000	13.019255
1456.000000	13.004808
1457.000000	12.990852
1458.000000	12.978280
1459.000000	12.965698
1460.000000	12.950415
1461.000000	12.935647
1462.000000	12.920390
1463.000000	12.906708
1464.000000	12.892683
1465.000000	12.876645
1466.000000	12.860980
1467.000000	12.845908
1468.000000	12.829955
1469.000000	12.814675
1470.000000	12.801862
1471.000000	12.789650
1472.000000	12.776962
1473.000000	12.763298
1474.000000	12.749178
1475.000000	12.736457
1476.000000	12.723950
1477.000000	12.712243
1478.000000	12.702470
1479.000000	12.691885
1480.000000	12.681675
1481.000000	12.672128
1482.000000	12.663187
1483.000000	12.656038
1484.000000	12.650142
1485.000000	12.643440
1486.000000	12.639273
1487.000000	12.634863
1488.000000	12.630495
1489.000000	12.626505
1490.000000	12.621918
1491.000000	12.617105
1492.000000	12.613555
1493.000000	12.609877
1494.000000	12.607225
1495.000000	12.607032
1496.000000	12.606618
1497.000000	12.607143
1498.000000	12.608590
1499.000000	12.611335
1500.000000	12.615805
1501.000000	12.621548
1502.000000	12.627657
1503.000000	12.635433
1504.000000	12.644095
1505.000000	12.652900
1506.000000	12.662907
1507.000000	12.674735
1508.000000	12.687375
1509.000000	12.700810
1510.000000	12.714985
1511.000000	12.729518
1512.000000	12.745102
1513.000000	12.760815
1514.000000	12.777123
1515.000000	12.794158
1516.000000	12.810233
1517.000000	12.825270
1518.000000	12.840613
1519.000000	12.855892
1520.000000	12.871293
1521.000000	12.887125
1522.000000	12.902575
1523.000000	12.917483
1524.000000	12.931760
1525.000000	12.945677
1526.000000	12.960513
1527.000000	12.975975
1528.000000	12.990438
1529.000000	13.003893
1530.000000	13.016535
1531.000000	13.053843
1532.000000	13.091680
1533.000000	13.129375
1534.000000	13.166565
1535.000000	13.203622
1536.000000	13.239797
1537.000000	13.274793
1538.000000	13.309547
1539.000000	13.344230
1540.000000	13.379050
1541.000000	13.388075
1542.000000	13.396370
1543.000000	13.404790
1544.000000	13.413657
1545.000000	13.422215
1546.000000	13.430472
1547.000000	13.439367
1548.000000	13.449375
1549.000000	13.460667
1550.000000	13.471670
1551.000000	13.483422
1552.000000	13.496590
1553.000000	13.509807
1554.000000	13.522407
1555.000000	13.534395
1556.000000	13.546142
1557.000000	13.557390
1558.000000	13.567150
1559.000000	13.575467
1560.000000	13.582675
1561.000000	13.588337
1562.000000	13.591757
1563.000000	13.593732
1564.000000	13.594778
1565.000000	13.595497
1566.000000	13.596060
1567.000000	13.595310
1568.000000	13.593778
1569.000000	13.591620
1570.000000	13.589367
1571.000000	13.587352
1572.000000	13.585405
1573.000000	13.583995
1574.000000	13.583315
1575.000000	13.583275
1576.000000	13.583138
1577.000000	13.583673
1578.000000	13.585600
1579.000000	13.588560
1580.000000	13.592305
1581.000000	13.596910
1582.000000	13.602298
1583.000000	13.607753
1584.000000	13.613610
1585.000000	13.620197
1586.000000	13.627780
1587.000000	13.635620
1588.000000	13.642715
1589.000000	13.650400
1590.000000	13.659030
1591.000000	13.667900
1592.000000	13.677235
1593.000000	13.686963
1594.000000	13.696572
1595.000000	13.705995
1596.000000	13.715502
1597.000000	13.725620
1598.000000	13.737720
1599.000000	13.749610
1600.000000	13.761285
1601.000000	13.773525
1602.000000	13.785865
1603.000000	13.798858
1604.000000	13.812010
1605.000000	13.824480
1606.000000	13.837293
1607.000000	13.850893
1608.000000	13.863760
1609.000000	13.877062
1610.000000	13.914292
1611.000000	13.950445
1612.000000	13.985830
1613.000000	14.020648
1614.000000	14.055205
1615.000000	14.090463
1616.000000	14.124662
1617.000000	14.157637
1618.000000	14.190682
1619.000000	14.223088
1620.000000	14.230920
1621.000000	14.239490
1622.000000	14.247745
1623.000000	14.255447
1624.000000	14.263045
1625.000000	14.270045
1626.000000	14.277402
1627.000000	14.284828
1628.000000	14.291098
1629.000000	14.296943
1630.000000	14.303078
1631.000000	14.309363
1632.000000	14.315205
1633.000000	14.320755
1634.000000	14.326393
1635.000000	14.331380
1636.000000	14.335785
1637.000000	14.339865
1638.000000	14.343675
1639.000000	14.347043
1640.000000	14.350078
1641.000000	14.351045
1642.000000	14.351632
1643.000000	14.353103
1644.000000	14.353215
1645.000000	14.354100
1646.000000	14.354257
1647.000000	14.353895
1648.000000	14.353365
1649.000000	14.353122
1650.000000	14.350748
1651.000000	14.348952
1652.000000	14.346940
1653.000000	14.343643
1654.000000	14.339517
1655.000000	14.333945
1656.000000	14.327492
1657.000000	14.318730
1658.000000	14.309318
1659.000000	14.297475
1660.000000	14.285152
1661.000000	14.270717
1662.000000	14.254983
1663.000000	14.237052
1664.000000	14.217930
1665.000000	14.197805
1666.000000	14.176665
1667.000000	14.130472
1668.000000	14.078718
1669.000000	14.024720
1670.000000	13.969303
1671.000000	13.913518
1672.000000	13.856547
1673.000000	13.799395
1674.000000	13.742160
1675.000000	13.683663
1676.000000	13.624788
1677.000000	13.590318
1678.000000	13.557832
1679.000000	13.528063
1680.000000	13.497160
1681.000000	13.463955
1682.000000	13.430195
1683.000000	13.395785
1684.000000	13.360153
1685.000000	13.325430
1686.000000	13.291268
1687.000000	13.259053
1688.000000	13.232057
1689.000000	13.207677
1690.000000	13.165197
1691.000000	13.129577
1692.000000	13.098950
1693.000000	13.074080
1694.000000	13.053963
1695.000000	13.036615
1696.000000	13.022490
1697.000000	13.010567
1698.000000	12.997015
1699.000000	12.983593
1700.000000	12.991493
1701.000000	12.997762
1702.000000	13.001995
1703.000000	13.005057
1704.000000	13.005433
1705.000000	13.003640
1706.000000	12.998188
1707.000000	12.991280
1708.000000	12.983042
1709.000000	12.970577
1710.000000	12.957958
1711.000000	12.941260
1712.000000	12.922168
1713.000000	12.898795
1714.000000	12.872377
1715.000000	12.843138
1716.000000	12.812675
1717.000000	12.777110
1718.000000	12.741048
1719.000000	12.703458
1720.000000	12.664940
1721.000000	12.629003
1722.000000	12.594630
1723.000000	12.562803
1724.000000	12.536515
1725.000000	12.515382
1726.000000	12.498090
1727.000000	12.487330
1728.000000	12.481587
1729.000000	12.480950
1730.000000	12.484377
1731.000000	12.490055
1732.000000	12.497007
1733.000000	12.506267
1734.000000	12.516438
1735.000000	12.526810
1736.000000	12.539302
1737.000000	12.552097
1738.000000	12.565148
1739.000000	12.579013
1740.000000	12.593103
1741.000000	12.607477
1742.000000	12.624005
1743.000000	12.640422
1744.000000	12.656842
1745.000000	12.673070
1746.000000	12.689708
1747.000000	12.706228
1748.000000	12.720078
1749.000000	12.733197
1750.000000	12.744377
1751.000000	12.754140
1752.000000	12.762322
1753.000000	12.769570
1754.000000	12.775337
1755.000000	12.779295
1756.000000	12.780523
1757.000000	12.781837
1758.000000	12.782852
1759.000000	12.783542
1760.000000	12.784175
1761.000000	12.784795
1762.000000	12.785737
1763.000000	12.786000
1764.000000	12.786427
1765.000000	12.788208
1766.000000	12.791253
1767.000000	12.794015
1768.000000	12.798882
1769.000000	12.804507
1770.000000	12.810973
1771.000000	12.817270
1772.000000	12.824088
1773.000000	12.831930
1774.000000	12.840695
1775.000000	12.849405
1776.000000	12.857778
1777.000000	12.866115
1778.000000	12.873757
1779.000000	12.881803
1780.000000	12.890255
1781.000000	12.899060
1782.000000	12.906332
1783.000000	12.912493
1784.000000	12.917855
1785.000000	12.923000
1786.000000	12.926910
1787.000000	12.929982
1788.000000	12.932165
1789.000000	12.933438
1790.000000	12.933922
1791.000000	12.934068
1792.000000	12.934142
1793.000000	12.934197
1794.000000	12.934003
1795.000000	12.935070
1796.000000	12.936913
1797.000000	12.936965
1798.000000	12.935702
1799.000000	12.935230
1800.000000	12.935933
1801.000000	12.937805
1802.000000	12.940918
1803.000000	12.942305
1804.000000	12.942823
1805.000000	12.943695
1806.000000	12.946437
1807.000000	12.950743
1808.000000	12.953660
1809.000000	12.954530
1810.000000	12.955520
1811.000000	12.982702
1812.000000	13.009410
1813.000000	13.036563
1814.000000	13.065093
1815.000000	13.092908
1816.000000	13.116778
1817.000000	13.136775
1818.000000	13.155967
1819.000000	13.179110
1820.000000	13.208495
1821.000000	13.215402
1822.000000	13.219700
1823.000000	13.217925
1824.000000	13.211222
1825.000000	13.203245
1826.000000	13.198627
1827.000000	13.199922
1828.000000	13.205590
1829.000000	13.210112
1830.000000	13.209483
1831.000000	13.203585
1832.000000	13.196927
1833.000000	13.192802
1834.000000	13.191363
1835.000000	13.192755
1836.000000	13.196558
1837.000000	13.200565
1838.000000	13.203385
1839.000000	13.205925
1840.000000	13.210665
1841.000000	13.222897
1842.000000	13.238700
1843.000000	13.251298
1844.000000	13.255175
1845.000000	13.251165
1846.000000	13.248320
1847.000000	13.255713
1848.000000	13.271017
1849.000000	13.282215
1850.000000	13.280175
1851.000000	13.265702
1852.000000	13.250745
1853.000000	13.244940
1854.000000	13.251428
1855.000000	13.262280
1856.000000	13.263515
1857.000000	13.249927
1858.000000	13.231205
1859.000000	13.218115
1860.000000	13.213115
1861.000000	13.212405
1862.000000	13.207375
1863.000000	13.193700
1864.000000	13.171200
1865.000000	13.143242
1866.000000	13.115315
1867.000000	13.086647
1868.000000	13.051742
1869.000000	12.990320
1870.000000	12.932242
1871.000000	12.875623
1872.000000	12.824537
1873.000000	12.780715
1874.000000	12.739485
1875.000000	12.700820
1876.000000	12.661568
1877.000000	12.618897
1878.000000	12.548520
1879.000000	12.493640
1880.000000	12.424753
1881.000000	12.348113
1882.000000	12.264247
1883.000000	12.175105
1884.000000	12.083110
1885.000000	11.987723
1886.000000	11.887200
1887.000000	11.780310
1888.000000	11.693900
1889.000000	11.605630
1890.000000	11.495223
1891.000000	11.385245
1892.000000	11.273750
1893.000000	11.156477
1894.000000	11.032673
1895.000000	10.901765
1896.000000	10.743412
1897.000000	10.586697
1898.000000	10.433497
1899.000000	10.283535
1900.000000	10.158703
1901.000000	10.031192
1902.000000	9.875340
1903.000000	9.722765
1904.000000	9.578888
1905.000000	9.446122
1906.000000	9.345585
1907.000000	9.249670
1908.000000	9.153065
1909.000000	9.029022
1910.000000	8.905400
1911.000000	8.787100
1912.000000	8.703400
1913.000000	8.626525
1914.000000	8.551260
1915.000000	8.474472
1916.000000	8.372443
1917.000000	8.271310
1918.000000	8.175095
1919.000000	8.111352
1920.000000	8.054343
1921.000000	8.001680
1922.000000	7.948500
1923.000000	7.894680
1924.000000	7.840687
1925.000000	7.789648
1926.000000	7.769253
1927.000000	7.754327
1928.000000	7.742880
1929.000000	7.733108
1930.000000	7.722575
1931.000000	7.712320
1932.000000	7.702542
1933.000000	7.694452
1934.000000	7.689383
1935.000000	7.685575
1936.000000	7.682278
1937.000000	7.680430
1938.000000	7.680617
1939.000000	7.681298
1940.000000	7.660370
1941.000000	7.664270
1942.000000	7.669140
1943.000000	7.675905
1944.000000	7.685060
1945.000000	7.695140
1946.000000	7.706860
1947.000000	7.719133
1948.000000	7.730697
1949.000000	7.742307
1950.000000	7.778458
1951.000000	7.790705
1952.000000	7.805707
1953.000000	7.820428
1954.000000	7.834113
1955.000000	7.849555
1956.000000	7.864490
1957.000000	7.878605
1958.000000	7.892643
1959.000000	7.908638
1960.000000	7.924403
1961.000000	7.941308
1962.000000	7.956287
1963.000000	7.972787
1964.000000	7.988640
1965.000000	8.004400
1966.000000	8.019742
1967.000000	8.035742
1968.000000	8.052160
1969.000000	8.066880
1970.000000	8.081692
1971.000000	8.095562
1972.000000	8.111700
1973.000000	8.150505
1974.000000	8.191213
1975.000000	8.230830
1976.000000	8.270835
1977.000000	8.310868
1978.000000	8.350490
1979.000000	8.390408
1980.000000	8.430160
1981.000000	8.472033
1982.000000	8.511680
1983.000000	8.526400
1984.000000	8.542132
1985.000000	8.557897
1986.000000	8.573650
1987.000000	8.588438
1988.000000	8.603480
1989.000000	8.619340
1990.000000	8.635203
1991.000000	8.649475
1992.000000	8.664333
1993.000000	8.679483
1994.000000	8.693025
1995.000000	8.730783
1996.000000	8.768218
1997.000000	8.806787
1998.000000	8.844867
1999.000000	8.881010
2000.000000	8.916177
2001.000000	8.950402
2002.000000	8.984132
2003.000000	9.017745
2004.000000	9.049888
2005.000000	9.057050
2006.000000	9.064047
2007.000000	9.068992
2008.000000	9.072305
2009.000000	9.075862
2010.000000	9.078503
2011.000000	9.078650
2012.000000	9.079058
2013.000000	9.077153
2014.000000	9.074390
2015.000000	9.070933
2016.000000	9.064975
2017.000000	9.058113
2018.000000	9.050445
2019.000000	9.041173
2020.000000	9.030795
2021.000000	9.020903
2022.000000	9.008012
2023.000000	8.995205
2024.000000	8.981573
2025.000000	8.966365
2026.000000	8.950672
2027.000000	8.934102
2028.000000	8.916353
2029.000000	8.898250
2030.000000	8.879670
2031.000000	8.834650
2032.000000	8.789800
2033.000000	8.769198
2034.000000	8.722240
2035.000000	8.699952
2036.000000	8.651260
2037.000000	8.602030
2038.000000	8.552545
2039.000000	8.501500
2040.000000	8.449567
2041.000000	8.423025
2042.000000	8.395760
2043.000000	8.343065
2044.000000	8.314950
2045.000000	8.260795
2046.000000	8.233415
2047.000000	8.206677
2048.000000	8.181070
2049.000000	8.157295
2050.000000	8.134923
2051.000000	8.114410
2052.000000	8.097170
2053.000000	8.082432
2054.000000	8.071135
2055.000000	8.063125
2056.000000	8.057935
2057.000000	8.056468
2058.000000	8.058040
2059.000000	8.061818
2060.000000	8.068910
2061.000000	8.078278
2062.000000	8.088935
2063.000000	8.101370
2064.000000	8.116122
2065.000000	8.132345
2066.000000	8.174088
2067.000000	8.215972
2068.000000	8.232825
2069.000000	8.275972
2070.000000	8.319237
2071.000000	8.361045
2072.000000	8.402668
2073.000000	8.443447
2074.000000	8.482287
2075.000000	8.520812
2076.000000	8.533017
2077.000000	8.544165
2078.000000	8.580108
2079.000000	8.588907
2080.000000	8.595690
2081.000000	8.601565
2082.000000	8.606270
2083.000000	8.611160
2084.000000	8.615545
2085.000000	8.617667
2086.000000	8.618735
2087.000000	8.618793
2088.000000	8.617363
2089.000000	8.615068
2090.000000	8.612305
2091.000000	8.609510
2092.000000	8.605752
2093.000000	8.600140
2094.000000	8.593913
2095.000000	8.588240
2096.000000	8.582325
2097.000000	8.576210
2098.000000	8.570220
2099.000000	8.564710
2100.000000	8.584535
2101.000000	8.605120
2102.000000	8.626413
2103.000000	8.622920
2104.000000	8.619620
2105.000000	8.641732
2106.000000	8.663995
2107.000000	8.661272
2108.000000	8.683275
2109.000000	8.704657
2110.000000	8.701825
2111.000000	8.698582
2112.000000	8.694072
2113.000000	8.714080
2114.000000	8.734395
2115.000000	8.729255
2116.000000	8.723665
2117.000000	8.717557
2118.000000	8.711555
2119.000000	8.706100
2120.000000	8.699723
2121.000000	8.691345
2122.000000	8.682425
2123.000000	8.674615
2124.000000	8.665747
2125.000000	8.656377
2126.000000	8.647405
2127.000000	8.663170
2128.000000	8.652807
2129.000000	8.641300
2130.000000	8.629260
2131.000000	8.617395
2132.000000	8.605235
2133.000000	8.591782
2134.000000	8.578733
2135.000000	8.564808
2136.000000	8.550248
2137.000000	8.510653
2138.000000	8.470682
2139.000000	8.455632
2140.000000	8.440020
2141.000000	8.398602
2142.000000	8.357120
2143.000000	8.340535
2144.000000	8.298242
2145.000000	8.256110
2146.000000	8.213928
2147.000000	8.196133
2148.000000	8.178310
2149.000000	8.134728
2150.000000	8.091057
2151.000000	8.073825
2152.000000	8.056605
2153.000000	8.014410
2154.000000	7.997683
2155.000000	7.980280
2156.000000	7.963712
2157.000000	7.948300
2158.000000	7.908283
2159.000000	7.870185
2160.000000	7.833468
2161.000000	7.796980
2162.000000	7.761233
2163.000000	7.726290
2164.000000	7.691832
2165.000000	7.658878
2166.000000	7.625140
2167.000000	7.592417
2168.000000	7.585757
2169.000000	7.578397
2170.000000	7.570647
2171.000000	7.564137
2172.000000	7.558220
2173.000000	7.552110
2174.000000	7.545463
2175.000000	7.514527
2176.000000	7.508995
2177.000000	7.478180
2178.000000	7.447805
2179.000000	7.417505
2180.000000	7.387402
2181.000000	7.356255
2182.000000	7.324355
2183.000000	7.292130
2184.000000	7.259575
2185.000000	7.251113
2186.000000	7.217435
2187.000000	7.207610
2188.000000	7.170015
2189.000000	7.131078
2190.000000	7.090090
2191.000000	7.047438
2192.000000	7.003555
2193.000000	6.957407
2194.000000	6.910015
2195.000000	6.860683
2196.000000	6.784217
2197.000000	6.705825
2198.000000	6.651458
2199.000000	6.596592
2200.000000	6.542488
2201.000000	6.487108
2202.000000	6.432823
2203.000000	6.354227
2204.000000	6.277390
2205.000000	6.227375
2206.000000	6.179900
2207.000000	6.134730
2208.000000	6.118783
2209.000000	6.081100
2210.000000	6.045850
2211.000000	6.015878
2212.000000	5.988803
2213.000000	5.990248
2214.000000	5.994582
2215.000000	5.976795
2216.000000	5.987280
2217.000000	6.000440
2218.000000	5.989715
2219.000000	6.006220
2220.000000	6.048565
2221.000000	6.065935
2222.000000	6.109767
2223.000000	6.154502
2224.000000	6.198615
2225.000000	6.242498
2226.000000	6.284875
2227.000000	6.326078
2228.000000	6.366745
2229.000000	6.406255
2230.000000	6.420318
2231.000000	6.457275
2232.000000	6.467097
2233.000000	6.474690
2234.000000	6.481938
2235.000000	6.487793
2236.000000	6.516340
2237.000000	6.518802
2238.000000	6.519375
2239.000000	6.543283
2240.000000	6.540002
2241.000000	6.535863
2242.000000	6.529635
2243.000000	6.523233
2244.000000	6.514670
2245.000000	6.529863
2246.000000	6.519718
2247.000000	6.508460
2248.000000	6.522007
2249.000000	6.484385
2250.000000	6.470453
2251.000000	6.456330
2252.000000	6.442617
2253.000000	6.429025
2254.000000	6.440445
2255.000000	6.426650
2256.000000	6.412205
2257.000000	6.423470
2258.000000	6.386097
2259.000000	6.398313
2260.000000	6.412365
2261.000000	6.428233
2262.000000	6.444435
2263.000000	6.461175
2264.000000	6.454370
2265.000000	6.448410
2266.000000	6.445997
2267.000000	6.444010
2268.000000	6.466340
2269.000000	6.466003
2270.000000	6.466967
2271.000000	6.468630
2272.000000	6.495907
2273.000000	6.499005
2274.000000	6.502955
2275.000000	6.532440
2276.000000	6.561378
2277.000000	6.590580
2278.000000	6.595200
2279.000000	6.624655
2280.000000	6.653505
2281.000000	6.681588
2282.000000	6.685170
2283.000000	6.712858
2284.000000	6.739307
2285.000000	6.741410
2286.000000	6.743117
2287.000000	6.745188
2288.000000	6.772253
2289.000000	6.773880
2290.000000	6.775320
2291.000000	6.776772
2292.000000	6.777800
2293.000000	6.803987
2294.000000	6.830460
2295.000000	6.856780
2296.000000	6.882752
2297.000000	6.909330
2298.000000	6.936272
2299.000000	6.988887
2300.000000	7.017970
2301.000000	7.046650
2302.000000	7.075780
2303.000000	7.080820
2304.000000	7.086180
2305.000000	7.092058
2306.000000	7.124170
2307.000000	7.156668
2308.000000	7.163708
2309.000000	7.145023
2310.000000	7.175825
2311.000000	7.208008
2312.000000	7.240035
2313.000000	7.271470
2314.000000	7.303090
2315.000000	7.334098
2316.000000	7.338873
2317.000000	7.342503
2318.000000	7.370653
2319.000000	7.399040
2320.000000	7.402043
2321.000000	7.403090
2322.000000	7.403403
2323.000000	7.403258
2324.000000	7.402343
2325.000000	7.400685
2326.000000	7.398202
2327.000000	7.394702
2328.000000	7.416777
2329.000000	7.438755
2330.000000	7.460615
2331.000000	7.482395
2332.000000	7.504467
2333.000000	7.527085
2334.000000	7.549402
2335.000000	7.571952
2336.000000	7.596363
2337.000000	7.621930
2338.000000	7.622415
2339.000000	7.623382
2340.000000	7.625167
2341.000000	7.652848
2342.000000	7.655337
2343.000000	7.657610
2344.000000	7.661000
2345.000000	7.665188
2346.000000	7.694015
2347.000000	7.722720
2348.000000	7.751033
2349.000000	7.754153
2350.000000	7.757020
2351.000000	7.760325
2352.000000	7.789160
2353.000000	7.818225
2354.000000	7.846630
2355.000000	7.874710
2356.000000	7.877005
2357.000000	7.879035
2358.000000	7.881658
2359.000000	7.909360
2360.000000	7.936395
2361.000000	7.937812
2362.000000	7.938530
2363.000000	7.938470
2364.000000	7.938532
2365.000000	7.938530
2366.000000	7.938935
2367.000000	7.939730
2368.000000	7.964755
2369.000000	7.989718
2370.000000	7.989498
2371.000000	7.989270
2372.000000	7.990138
2373.000000	8.016872
2374.000000	8.018795
2375.000000	8.020400
2376.000000	8.046603
2377.000000	8.072350
2378.000000	8.098640
2379.000000	8.124445
2380.000000	8.175183
2381.000000	8.200887
2382.000000	8.225847
2383.000000	8.225293
2384.000000	8.249470
2385.000000	8.273713
2386.000000	8.272445
2387.000000	8.271045
2388.000000	8.244623
2389.000000	8.242385
2390.000000	8.239403
2391.000000	8.262210
2392.000000	8.259560
2393.000000	8.255375
2394.000000	8.251777
2395.000000	8.272775
2396.000000	8.292920
2397.000000	8.312828
2398.000000	8.331770
2399.000000	8.326632
2400.000000	8.321540
2401.000000	8.315217
2402.000000	8.333435
2403.000000	8.326673
2404.000000	8.318593
2405.000000	8.310567
2406.000000	8.278057
2407.000000	8.270115
2408.000000	8.261165
2409.000000	8.226230
2410.000000	8.216387
2411.000000	8.206878
2412.000000	8.197050
2413.000000	8.237002
2414.000000	8.251410
2415.000000	8.240035
2416.000000	8.227720
2417.000000	8.213947
2418.000000	8.200872
2419.000000	8.211985
2420.000000	8.173153
2421.000000	8.158283
2422.000000	8.117572
2423.000000	8.051842
2424.000000	8.010150
2425.000000	7.967888
2426.000000	7.975515
2427.000000	7.984550
2428.000000	7.968085
2429.000000	7.975985
2430.000000	7.983022
2431.000000	7.964773
2432.000000	7.972202
2433.000000	7.979275
2434.000000	8.012977
2435.000000	8.046410
2436.000000	8.055077
2437.000000	8.062400
2438.000000	8.044995
2439.000000	8.004055
2440.000000	7.988170
2441.000000	7.972010
2442.000000	7.956427
2443.000000	7.940353
2444.000000	7.948568
2445.000000	7.932110
2446.000000	7.940412
2447.000000	7.949840
2448.000000	7.960100
2449.000000	7.994303
2450.000000	8.054325
2451.000000	8.064348
2452.000000	8.074815
2453.000000	8.110897
2454.000000	8.147760
2455.000000	8.184865
2456.000000	8.222672
2457.000000	8.237210
2458.000000	8.301658
2459.000000	8.341098
2460.000000	8.405855
2461.000000	8.496375
2462.000000	8.587165
2463.000000	8.628235
2464.000000	8.619998
2465.000000	8.636263
2466.000000	8.678735
2467.000000	8.721318
2468.000000	8.762593
2469.000000	8.806567
2470.000000	8.850348
2471.000000	8.943223
2472.000000	9.061900
2473.000000	9.155818
2474.000000	9.301407
2475.000000	9.446392
2476.000000	9.618852
2477.000000	9.691418
2478.000000	9.888822
2479.000000	10.108905
2480.000000	10.256675
2481.000000	10.306555
2482.000000	10.352820
2483.000000	10.502867
2484.000000	10.678090
2485.000000	10.778612
2486.000000	10.880620
2487.000000	11.082337
2488.000000	11.161300
2489.000000	11.190705
2490.000000	11.295172
2491.000000	11.520580
2492.000000	11.726227
2493.000000	11.858073
2494.000000	11.937468
2495.000000	12.216893
2496.000000	12.437530
2497.000000	12.642222
2498.000000	12.845280
2499.000000	13.029760
2500.000000	13.284402
2501.000000	17.438330
2502.000000	21.390028
2503.000000	25.763123
2504.000000	29.811625
2505.000000	34.037417
2506.000000	38.243088
2507.000000	42.564305
2508.000000	46.887093
2509.000000	51.354705
2510.000000	55.800000
2511.000000	56.400000
2512.000000	57.400000
2513.000000	58.200000
2514.000000	59.200000
2515.000000	60.100000
2516.000000	60.900000
2517.000000	61.700000
2518.000000	62.600000
2519.000000	64.000000
2520.000000	64.900000
2521.000000	65.700000
2522.000000	66.600000
2523.000000	67.500000
2524.000000	68.500000
2525.000000	69.500000
2526.000000	70.600000
2527.000000	72.000000
2528.000000	73.200000
2529.000000	73.600000
2530.000000	74.500000
2531.000000	75.200000
2532.000000	75.700000
2533.000000	75.900000
2534.000000	76.800000
2535.000000	77.700000
2536.000000	78.200000
2537.000000	78.100000
2538.000000	78.600000
2539.000000	79.100000
2540.000000	79.500000
2541.000000	80.300000
2542.000000	81.100000
2543.000000	81.700000
2544.000000	81.900000
2545.000000	82.100000
2546.000000	83.000000
2547.000000	83.700000
2548.000000	84.100000
2549.000000	85.000000
2550.000000	85.600000
2551.000000	86.400000
2552.000000	87.100000
2553.000000	88.200000
2554.000000	89.000000
2555.000000	89.800000
2556.000000	90.100000
2557.000000	90.300000
2558.000000	90.100000
2559.000000	89.900000
2560.000000	90.000000
2561.000000	90.500000
2562.000000	92.100000
2563.000000	93.400000
2564.000000	94.000000
2565.000000	94.300000
2566.000000	94.700000
2567.000000	95.500000
2568.000000	96.500000
2569.000000	97.600000
2570.000000	98.800000
2571.000000	99.100000
2572.000000	98.900000
2573.000000	98.600000
2574.000000	98.500000
2575.000000	98.600000
2576.000000	98.200000
2577.000000	98.100000
2578.000000	98.200000
2579.000000	97.600000
2580.000000	97.200000
2581.000000	96.600000
2582.000000	95.500000
2583.000000	95.200000
2584.000000	95.300000
2585.000000	95.000000
2586.000000	95.600000
2587.000000	95.800000
2588.000000	95.500000
2589.000000	96.000000
2590.000000	96.500000
2591.000000	97.400000
2592.000000	98.500000
2593.000000	99.400000
2594.000000	99.700000
2595.000000	99.800000
2596.000000	99.500000
2597.000000	99.700000
2598.000000	100.200000
2599.000000	100.200000
2600.000000	100.000000
2601.000000	99.600000
2602.000000	99.100000
2603.000000	97.900000
2604.000000	97.800000
2605.000000	98.600000
2606.000000	98.800000
2607.000000	98.700000
2608.000000	99.000000
2609.000000	99.200000
2610.000000	99.200000
2611.000000	98.800000
2612.000000	98.200000
2613.000000	98.100000
2614.000000	98.000000
2615.000000	98.100000
2616.000000	98.800000
2617.000000	99.100000
2618.000000	99.300000
2619.000000	99.500000
2620.000000	99.700000
2621.000000	100.300000
2622.000000	100.500000
2623.000000	100.400000
2624.000000	100.000000
2625.000000	99.300000
2626.000000	98.900000
2627.000000	99.200000
2628.000000	98.700000
2629.000000	98.100000
2630.000000	97.900000
2631.000000	98.000000
2632.000000	98.700000
2633.000000	99.600000
2634.000000	100.500000
2635.000000	100.300000
2636.000000	99.400000
2637.000000	98.600000
2638.000000	98.300000
2639.000000	98.100000
2640.000000	98.000000
2641.000000	97.900000
2642.000000	97.900000
2643.000000	98.200000
2644.000000	97.600000
2645.000000	97.600000
2646.000000	98.100000
2647.000000	97.800000
2648.000000	97.500000
2649.000000	97.500000
2650.000000	97.100000
2651.000000	97.600000
2652.000000	97.800000
2653.000000	97.000000
2654.000000	96.600000
2655.000000	96.600000
2656.000000	96.700000
2657.000000	97.500000
2658.000000	98.200000
2659.000000	98.900000
2660.000000	99.200000
2661.000000	99.300000
2662.000000	99.200000
2663.000000	99.300000
2664.000000	100.400000
2665.000000	101.300000
2666.000000	101.500000
2667.000000	101.400000
2668.000000	101.200000
2669.000000	100.800000
2670.000000	101.800000
2671.000000	102.500000
2672.000000	103.100000
2673.000000	103.600000
2674.000000	102.900000
2675.000000	102.300000
2676.000000	102.100000
2677.000000	102.600000
2678.000000	103.100000
2679.000000	103.300000
2680.000000	102.500000
2681.000000	100.700000
2682.000000	99.500000
2683.000000	99.100000
2684.000000	99.000000
2685.000000	99.700000
2686.000000	99.400000
2687.000000	99.200000
2688.000000	98.300000
2689.000000	98.200000
2690.000000	98.700000
2691.000000	98.500000
2692.000000	98.800000
2693.000000	99.300000
2694.000000	99.300000
2695.000000	99.000000
2696.000000	100.700000
2697.000000	101.300000
2698.000000	101.800000
2699.000000	102.200000
2700.000000	101.800000
2701.000000	103.000000
2702.000000	102.900000
2703.000000	101.700000
2704.000000	102.000000
2705.000000	101.700000
2706.000000	100.600000
2707.000000	99.200000
2708.000000	100.300000
2709.000000	100.500000
2710.000000	101.100000
2711.000000	101.500000
2712.000000	101.800000
2713.000000	102.300000
2714.000000	102.400000
2715.000000	103.100000
2716.000000	102.800000
2717.000000	103.500000
2718.000000	103.300000
2719.000000	102.600000
2720.000000	101.500000
2721.000000	100.100000
2722.000000	99.900000
2723.000000	100.800000
2724.000000	100.100000
2725.000000	99.600000
2726.000000	100.800000
2727.000000	101.600000
2728.000000	101.000000
2729.000000	101.400000
2730.000000	102.300000
2731.000000	103.200000
2732.000000	102.800000
2733.000000	101.500000
2734.000000	102.000000
2735.000000	102.200000
2736.000000	101.400000
2737.000000	100.600000
2738.000000	100.800000
2739.000000	101.100000
2740.000000	101.300000
2741.000000	101.900000
2742.000000	103.100000
2743.000000	103.900000
2744.000000	103.800000
2745.000000	103.200000
2746.000000	103.600000
2747.000000	104.300000
2748.000000	104.200000
2749.000000	103.800000
2750.000000	103.600000
2751.000000	102.600000
2752.000000	101.800000
2753.000000	101.400000
2754.000000	101.500000
2755.000000	101.400000
2756.000000	100.800000
2757.000000	99.600000
2758.000000	100.100000
2759.000000	100.300000
2760.000000	100.600000
2761.000000	100.700000
2762.000000	100.700000
2763.000000	100.500000
2764.000000	100.400000
2765.000000	101.300000
2766.000000	102.700000
2767.000000	103.600000
2768.000000	102.500000
2769.000000	102.000000
2770.000000	101.500000
2771.000000	101.400000
2772.000000	101.100000
2773.000000	102.200000
2774.000000	102.300000
2775.000000	101.400000
2776.000000	99.900000
2777.000000	99.600000
2778.000000	100.500000
2779.000000	101.100000
2780.000000	101.000000
2781.000000	101.000000
2782.000000	100.800000
2783.000000	100.500000
2784.000000	100.800000
2785.000000	100.600000
2786.000000	100.900000
2787.000000	100.800000
2788.000000	100.300000
2789.000000	100.200000
2790.000000	100.400000
2791.000000	99.900000
2792.000000	100.300000
2793.000000	99.700000
2794.000000	99.400000
2795.000000	99.900000
2796.000000	100.500000
2797.000000	100.200000
2798.000000	99.900000
2799.000000	100.200000
2800.000000	101.200000
2801.000000	101.900000
2802.000000	101.800000
2803.000000	102.300000
2804.000000	102.600000
2805.000000	102.200000
2806.000000	101.200000
2807.000000	101.200000
2808.000000	101.400000
2809.000000	101.900000
2810.000000	100.700000
2811.000000	101.200000
2812.000000	101.700000
2813.000000	101.900000
2814.000000	102.400000
2815.000000	103.400000
2816.000000	103.900000
2817.000000	104.300000
2818.000000	104.600000
2819.000000	103.800000
2820.000000	104.300000
2821.000000	104.100000
2822.000000	104.800000
2823.000000	105.500000
2824.000000	105.400000
2825.000000	105.000000
2826.000000	105.200000
2827.000000	105.100000
2828.000000	104.800000
2829.000000	104.300000
2830.000000	103.700000
2831.000000	103.300000
2832.000000	102.100000
2833.000000	101.000000
2834.000000	100.500000
2835.000000	100.500000
2836.000000	100.200000
2837.000000	100.000000
2838.000000	99.800000
2839.000000	100.200000
2840.000000	100.800000
2841.000000	100.400000
2842.000000	100.100000
2843.000000	100.100000
2844.000000	100.700000
2845.000000	101.300000
2846.000000	101.500000
2847.000000	101.100000
2848.000000	101.300000
2849.000000	101.100000
2850.000000	100.000000
2851.000000	100.100000
2852.000000	101.200000
2853.000000	101.600000
2854.000000	100.900000
2855.000000	100.500000
2856.000000	100.200000
2857.000000	100.600000
2858.000000	100.400000
2859.000000	100.500000
2860.000000	101.400000
2861.000000	101.600000
2862.000000	100.600000
2863.000000	99.700000
2864.000000	99.700000
2865.000000	99.200000
2866.000000	99.200000
2867.000000	99.300000
2868.000000	100.000000
2869.000000	100.300000
2870.000000	99.600000
2871.000000	99.600000
2872.000000	100.300000
2873.000000	100.800000
2874.000000	100.800000
2875.000000	101.400000
2876.000000	102.000000
2877.000000	102.700000
2878.000000	102.300000
2879.000000	102.400000
2880.000000	103.200000
2881.000000	103.200000
2882.000000	103.300000
2883.000000	103.400000
2884.000000	103.400000
2885.000000	102.900000
2886.000000	102.100000
2887.000000	101.100000
2888.000000	101.100000
2889.000000	100.800000
2890.000000	100.200000
2891.000000	99.800000
2892.000000	98.800000
2893.000000	98.500000
2894.000000	98.900000
2895.000000	99.000000
2896.000000	99.100000
2897.000000	99.600000
2898.000000	100.100000
2899.000000	100.700000
2900.000000	100.800000
2901.000000	101.100000
2902.000000	101.200000
2903.000000	100.900000
2904.000000	100.300000
2905.000000	100.100000
2906.000000	100.400000
2907.000000	100.600000
2908.000000	99.600000
2909.000000	98.700000
2910.000000	98.900000
2911.000000	99.700000
2912.000000	100.300000
2913.000000	100.500000
2914.000000	100.500000
2915.000000	100.500000
2916.000000	100.500000
2917.000000	99.700000
2918.000000	99.900000
2919.000000	99.800000
2920.000000	99.600000
2921.000000	99.200000
2922.000000	99.600000
2923.000000	100.000000
2924.000000	100.400000
2925.000000	100.300000
2926.000000	100.500000
2927.000000	101.300000
2928.000000	101.500000
2929.000000	102.500000
2930.000000	102.600000
2931.000000	102.200000
2932.000000	101.900000
2933.000000	101.900000
2934.000000	103.200000
2935.000000	104.000000
2936.000000	103.100000
2937.000000	102.600000
2938.000000	103.500000
2939.000000	103.200000
2940.000000	103.200000
2941.000000	102.700000
2942.000000	102.300000
2943.000000	102.000000
2944.000000	99.600000
2945.000000	99.000000
2946.000000	99.800000
2947.000000	100.200000
2948.000000	100.000000
2949.000000	100.100000
2950.000000	100.200000
2951.000000	101.700000
2952.000000	101.800000
2953.000000	101.700000
2954.000000	102.400000
2955.000000	102.500000
2956.000000	103.000000
2957.000000	103.700000
2958.000000	103.000000
2959.000000	102.500000
2960.000000	102.500000
2961.000000	102.000000
2962.000000	102.400000
2963.000000	103.500000
2964.000000	103.900000
2965.000000	103.900000
2966.000000	103.300000
2967.000000	102.600000
2968.000000	103.100000
2969.000000	103.500000
2970.000000	103.400000
2971.000000	103.000000
2972.000000	103.200000
2973.000000	101.800000
2974.000000	101.500000
2975.000000	101.600000
2976.000000	101.200000
2977.000000	100.600000
2978.000000	99.800000
2979.000000	99.300000
2980.000000	98.900000
2981.000000	99.100000
2982.000000	98.500000
2983.000000	98.800000
2984.000000	98.500000
2985.000000	98.400000
2986.000000	98.900000
2987.000000	100.200000
2988.000000	100.700000
2989.000000	101.300000
2990.000000	101.600000
2991.000000	100.700000
2992.000000	100.900000
2993.000000	101.100000
2994.000000	101.500000
2995.000000	101.400000
2996.000000	101.100000
2997.000000	99.200000
2998.000000	100.000000
2999.000000	99.000000
3000.000000	99.800000
