PE UV       SUBTECH     SPECTRUM    ASCII       PEDS        4.00        
   -1
INBUCR0115-5.Sample.ASC
24/02/12
13:44:21.00
24/02/12
13:44:21.00
Vinicio Soto Monge
Strigidia pubes. Color café con ambos élitros (Det: A. Solís) COSTA RICA Prov. Limón. Estación R. B. Hitoy Cerere. 160m AGO 1998 E. Rojas. Tp. Luz L_N_184120_643471 #51622 INB0003055960 INBIOCRI COSTA RICA 
250,000000
1
Lambda 1050
1050L1511233
PerkinElmer UV WinLab 6.3.2.0749 / 2.02.05 Lambda 900 UV/VIS/NIR, Aug  7 2015 09:38:08

0
0
3350/servo 860,8/2
0
0
UV/VIS
1
1
1
DoubleDePol,CommonBeamDepol,RBeamAtt,SBeamAtt,60mm sphere, WB InGaAs Detector
0
0
0
0
Program
Program
3350/servo 860,8/2
3350/0,2 860,8/0,2
3350/0,2 860,8/0,2
0
15.00
 
 
 
0
 
860,8
150
860,8
Front
100
on
S:100 R:100
0
0
0
0
 
0
 
 
 
0
 
 
0
0
0
0
0
 
 
 
 
0
0


0
0
#HDR
-1
-1
#GR
nm
%R
1.0
0.0
2500,000000
-1,000000
2251
8
22,631900
1,381700
#DATA

250.000000	nan
251.000000	nan
252.000000	nan
253.000000	nan
254.000000	nan
255.000000	nan
256.000000	nan
257.000000	nan
258.000000	nan
259.000000	4.813009
260.000000	4.780990
261.000000	4.737681
262.000000	4.736952
263.000000	4.727354
264.000000	4.705383
265.000000	4.693754
266.000000	4.691010
267.000000	4.676826
268.000000	4.663222
269.000000	4.648091
270.000000	4.633720
271.000000	4.617998
272.000000	4.597049
273.000000	4.581106
274.000000	4.564905
275.000000	4.548220
276.000000	4.536613
277.000000	4.528419
278.000000	4.516448
279.000000	4.514614
280.000000	4.503131
281.000000	4.495349
282.000000	4.487739
283.000000	4.477426
284.000000	4.471566
285.000000	4.463672
286.000000	4.453775
287.000000	4.446684
288.000000	4.437731
289.000000	4.429902
290.000000	4.426016
291.000000	4.421360
292.000000	4.414070
293.000000	4.412657
294.000000	4.405228
295.000000	4.404595
296.000000	4.405152
297.000000	4.401082
298.000000	4.397354
299.000000	4.391354
300.000000	4.387761
301.000000	4.383120
302.000000	4.379512
303.000000	4.376449
304.000000	4.374057
305.000000	4.373207
306.000000	4.372692
307.000000	4.372084
308.000000	4.375608
309.000000	4.376916
310.000000	4.380208
311.000000	4.380867
312.000000	4.383995
313.000000	4.385644
314.000000	4.388381
315.000000	4.387872
316.000000	4.388063
317.000000	4.418011
318.000000	4.430375
319.000000	4.458953
320.000000	4.479942
321.000000	4.498573
322.000000	4.513438
323.000000	4.523531
324.000000	4.537191
325.000000	4.550076
326.000000	4.571443
327.000000	4.559480
328.000000	4.554966
329.000000	4.534924
330.000000	4.524315
331.000000	4.514906
332.000000	4.513955
333.000000	4.519010
334.000000	4.515721
335.000000	4.506460
336.000000	4.489256
337.000000	4.482528
338.000000	4.481801
339.000000	4.481668
340.000000	4.476444
341.000000	4.480059
342.000000	4.474570
343.000000	4.467346
344.000000	4.462682
345.000000	4.466331
346.000000	4.472765
347.000000	4.473968
348.000000	4.477025
349.000000	4.481064
350.000000	4.483951
351.000000	4.479719
352.000000	4.478488
353.000000	4.476491
354.000000	4.477573
355.000000	4.478400
356.000000	4.474589
357.000000	4.470029
358.000000	4.468349
359.000000	4.462915
360.000000	4.458866
361.000000	4.459092
362.000000	4.456168
363.000000	4.453776
364.000000	4.453341
365.000000	4.451577
366.000000	4.448939
367.000000	4.444975
368.000000	4.438559
369.000000	4.438194
370.000000	4.438338
371.000000	4.432870
372.000000	4.427391
373.000000	4.421320
374.000000	4.411667
375.000000	4.402791
376.000000	4.398957
377.000000	4.391943
378.000000	4.386644
379.000000	4.377999
380.000000	4.369480
381.000000	4.363356
382.000000	4.359578
383.000000	4.357451
384.000000	4.356678
385.000000	4.356900
386.000000	4.352565
387.000000	4.352328
388.000000	4.352118
389.000000	4.351503
390.000000	4.350898
391.000000	4.350839
392.000000	4.351445
393.000000	4.351673
394.000000	4.352157
395.000000	4.352233
396.000000	4.352404
397.000000	4.352450
398.000000	4.352058
399.000000	4.352312
400.000000	4.352754
401.000000	4.352556
402.000000	4.352327
403.000000	4.352395
404.000000	4.352566
405.000000	4.352793
406.000000	4.353077
407.000000	4.353406
408.000000	4.353652
409.000000	4.353793
410.000000	4.353592
411.000000	4.353777
412.000000	4.353761
413.000000	4.353695
414.000000	4.353590
415.000000	4.353613
416.000000	4.353997
417.000000	4.354554
418.000000	4.354969
419.000000	4.354679
420.000000	4.355321
421.000000	4.356379
422.000000	4.357592
423.000000	4.358081
424.000000	4.358677
425.000000	4.359230
426.000000	4.359796
427.000000	4.360619
428.000000	4.361614
429.000000	4.362963
430.000000	4.363729
431.000000	4.364365
432.000000	4.364891
433.000000	4.365638
434.000000	4.366466
435.000000	4.367526
436.000000	4.368540
437.000000	4.369509
438.000000	4.370612
439.000000	4.371758
440.000000	4.372800
441.000000	4.373632
442.000000	4.374713
443.000000	4.376060
444.000000	4.377397
445.000000	4.378626
446.000000	4.379922
447.000000	4.381402
448.000000	4.382793
449.000000	4.383929
450.000000	4.385338
451.000000	4.386801
452.000000	4.388285
453.000000	4.389872
454.000000	4.391430
455.000000	4.392986
456.000000	4.394335
457.000000	4.395440
458.000000	4.396641
459.000000	4.398063
460.000000	4.399974
461.000000	4.401775
462.000000	4.403424
463.000000	4.405407
464.000000	4.407208
465.000000	4.409167
466.000000	4.411367
467.000000	4.413556
468.000000	4.416019
469.000000	4.418531
470.000000	4.420239
471.000000	4.422010
472.000000	4.423795
473.000000	4.424861
474.000000	4.425786
475.000000	4.426329
476.000000	4.426576
477.000000	4.426762
478.000000	4.426116
479.000000	4.424734
480.000000	4.423910
481.000000	4.423038
482.000000	4.422093
483.000000	4.422141
484.000000	4.423105
485.000000	4.424850
486.000000	4.427602
487.000000	4.431184
488.000000	4.436433
489.000000	4.443087
490.000000	4.450223
491.000000	4.458341
492.000000	4.467558
493.000000	4.476854
494.000000	4.486376
495.000000	4.496274
496.000000	4.506128
497.000000	4.515841
498.000000	4.525314
499.000000	4.534911
500.000000	4.544860
501.000000	4.554689
502.000000	4.564555
503.000000	4.574600
504.000000	4.584811
505.000000	4.594895
506.000000	4.604814
507.000000	4.614754
508.000000	4.624803
509.000000	4.634466
510.000000	4.643789
511.000000	4.653125
512.000000	4.661971
513.000000	4.670315
514.000000	4.678308
515.000000	4.686254
516.000000	4.694155
517.000000	4.701616
518.000000	4.708618
519.000000	4.716270
520.000000	4.723532
521.000000	4.730678
522.000000	4.738358
523.000000	4.746959
524.000000	4.755619
525.000000	4.764693
526.000000	4.774521
527.000000	4.785491
528.000000	4.797353
529.000000	4.809559
530.000000	4.823169
531.000000	4.837921
532.000000	4.853647
533.000000	4.870019
534.000000	4.887553
535.000000	4.906033
536.000000	4.925451
537.000000	4.945548
538.000000	4.966155
539.000000	4.987877
540.000000	5.010619
541.000000	5.033883
542.000000	5.057722
543.000000	5.082460
544.000000	5.107891
545.000000	5.133992
546.000000	5.160705
547.000000	5.188164
548.000000	5.216650
549.000000	5.245714
550.000000	5.274929
551.000000	5.305222
552.000000	5.335748
553.000000	5.367245
554.000000	5.399082
555.000000	5.431674
556.000000	5.465011
557.000000	5.498830
558.000000	5.533304
559.000000	5.568328
560.000000	5.602269
561.000000	5.635956
562.000000	5.670881
563.000000	5.705974
564.000000	5.742187
565.000000	5.779192
566.000000	5.816720
567.000000	5.854783
568.000000	5.893425
569.000000	5.932568
570.000000	5.974722
571.000000	6.018184
572.000000	6.062259
573.000000	6.107116
574.000000	6.153038
575.000000	6.199426
576.000000	6.246674
577.000000	6.294854
578.000000	6.343913
579.000000	6.393767
580.000000	6.444554
581.000000	6.495778
582.000000	6.548083
583.000000	6.601064
584.000000	6.655005
585.000000	6.709482
586.000000	6.764544
587.000000	6.820876
588.000000	6.878102
589.000000	6.936706
590.000000	6.995477
591.000000	7.054917
592.000000	7.115263
593.000000	7.176413
594.000000	7.238210
595.000000	7.300765
596.000000	7.364015
597.000000	7.427277
598.000000	7.491757
599.000000	7.556301
600.000000	7.621918
601.000000	7.688806
602.000000	7.756081
603.000000	7.823881
604.000000	7.892513
605.000000	7.961981
606.000000	8.032268
607.000000	8.103711
608.000000	8.175247
609.000000	8.247569
610.000000	8.320568
611.000000	8.394846
612.000000	8.469128
613.000000	8.544268
614.000000	8.620161
615.000000	8.696634
616.000000	8.773978
617.000000	8.851686
618.000000	8.930154
619.000000	9.009435
620.000000	9.089752
621.000000	9.169873
622.000000	9.251612
623.000000	9.334078
624.000000	9.416318
625.000000	9.499370
626.000000	9.583305
627.000000	9.668187
628.000000	9.753574
629.000000	9.840194
630.000000	9.926660
631.000000	10.014350
632.000000	10.102982
633.000000	10.192493
634.000000	10.283270
635.000000	10.375046
636.000000	10.467328
637.000000	10.560342
638.000000	10.654233
639.000000	10.748866
640.000000	10.844849
641.000000	10.941598
642.000000	11.038662
643.000000	11.137657
644.000000	11.236939
645.000000	11.336878
646.000000	11.437044
647.000000	11.537893
648.000000	11.639682
649.000000	11.742802
650.000000	11.846360
651.000000	11.950308
652.000000	12.055672
653.000000	12.159978
654.000000	12.265501
655.000000	12.371361
656.000000	12.478046
657.000000	12.585733
658.000000	12.693572
659.000000	12.801390
660.000000	12.909368
661.000000	13.018381
662.000000	13.126782
663.000000	13.235993
664.000000	13.345318
665.000000	13.454900
666.000000	13.565456
667.000000	13.675884
668.000000	13.786713
669.000000	13.897759
670.000000	14.008653
671.000000	14.119916
672.000000	14.230814
673.000000	14.343041
674.000000	14.455475
675.000000	14.568395
676.000000	14.680369
677.000000	14.792423
678.000000	14.904871
679.000000	15.016925
680.000000	15.129095
681.000000	15.241404
682.000000	15.355430
683.000000	15.467996
684.000000	15.580961
685.000000	15.693504
686.000000	15.806787
687.000000	15.920694
688.000000	16.034338
689.000000	16.147993
690.000000	16.262972
691.000000	16.377047
692.000000	16.490361
693.000000	16.605156
694.000000	16.719244
695.000000	16.834938
696.000000	16.951166
697.000000	17.066897
698.000000	17.183183
699.000000	17.299943
700.000000	17.416694
701.000000	17.534662
702.000000	17.652643
703.000000	17.769393
704.000000	17.887156
705.000000	18.004081
706.000000	18.120706
707.000000	18.238833
708.000000	18.357713
709.000000	18.477281
710.000000	18.596399
711.000000	18.714841
712.000000	18.834010
713.000000	18.954017
714.000000	19.074198
715.000000	19.195339
716.000000	19.317801
717.000000	19.439179
718.000000	19.559727
719.000000	19.679831
720.000000	19.800356
721.000000	19.921883
722.000000	20.044916
723.000000	20.169224
724.000000	20.293459
725.000000	20.417759
726.000000	20.541117
727.000000	20.664950
728.000000	20.791179
729.000000	20.919034
730.000000	21.047139
731.000000	21.174232
732.000000	21.300642
733.000000	21.427512
734.000000	21.555010
735.000000	21.683253
736.000000	21.812994
737.000000	21.943824
738.000000	22.073425
739.000000	22.202514
740.000000	22.332007
741.000000	22.463523
742.000000	22.595875
743.000000	22.726283
744.000000	22.857448
745.000000	22.990573
746.000000	23.123724
747.000000	23.256302
748.000000	23.390910
749.000000	23.525185
750.000000	23.660184
751.000000	23.795003
752.000000	23.928690
753.000000	24.064509
754.000000	24.199733
755.000000	24.332503
756.000000	24.465902
757.000000	24.599621
758.000000	24.731266
759.000000	24.862665
760.000000	24.995583
761.000000	25.129411
762.000000	25.262846
763.000000	25.396391
764.000000	25.529632
765.000000	25.663598
766.000000	25.797915
767.000000	25.932208
768.000000	26.066483
769.000000	26.201313
770.000000	26.335637
771.000000	26.467959
772.000000	26.598776
773.000000	26.728680
774.000000	26.856551
775.000000	26.984306
776.000000	27.112864
777.000000	27.240874
778.000000	27.367265
779.000000	27.491865
780.000000	27.615146
781.000000	27.737129
782.000000	27.860861
783.000000	27.983845
784.000000	28.106082
785.000000	28.227087
786.000000	28.346648
787.000000	28.463309
788.000000	28.578655
789.000000	28.694078
790.000000	28.805421
791.000000	28.919141
792.000000	29.031202
793.000000	29.138541
794.000000	29.247202
795.000000	29.358221
796.000000	29.463508
797.000000	29.567403
798.000000	29.673367
799.000000	29.775746
800.000000	29.878603
801.000000	29.979179
802.000000	30.081433
803.000000	30.185093
804.000000	30.285249
805.000000	30.379490
806.000000	30.472493
807.000000	30.568916
808.000000	30.663359
809.000000	30.762198
810.000000	30.857703
811.000000	30.951242
812.000000	31.042357
813.000000	31.131923
814.000000	31.219403
815.000000	31.308655
816.000000	31.401177
817.000000	31.489193
818.000000	31.576028
819.000000	31.660180
820.000000	31.744217
821.000000	31.824983
822.000000	31.903701
823.000000	31.981634
824.000000	32.066054
825.000000	32.148886
826.000000	32.225242
827.000000	32.300762
828.000000	32.372778
829.000000	32.446334
830.000000	32.516757
831.000000	32.589300
832.000000	32.662882
833.000000	32.735570
834.000000	32.805980
835.000000	32.868798
836.000000	32.935010
837.000000	33.007640
838.000000	33.084461
839.000000	33.150595
840.000000	33.221311
841.000000	33.292185
842.000000	33.356883
843.000000	33.416796
844.000000	33.467010
845.000000	33.543822
846.000000	33.599255
847.000000	33.657975
848.000000	33.714370
849.000000	33.765109
850.000000	33.822979
851.000000	33.880910
852.000000	33.941255
853.000000	33.991371
854.000000	34.055912
855.000000	34.097855
856.000000	34.160385
857.000000	34.221552
858.000000	34.548305
859.000000	34.677448
860.000000	34.802181
861.000000	34.918124
862.000000	35.031382
863.000000	35.144949
864.000000	35.263035
865.000000	35.352288
866.000000	35.443333
867.000000	35.528757
868.000000	35.345684
869.000000	35.384216
870.000000	35.412278
871.000000	35.417748
872.000000	35.415416
873.000000	35.446180
874.000000	35.453788
875.000000	35.490988
876.000000	35.532944
877.000000	35.550650
878.000000	35.564696
879.000000	35.564846
880.000000	35.565548
881.000000	35.590956
882.000000	35.632258
883.000000	35.647002
884.000000	35.666920
885.000000	35.674888
886.000000	35.675580
887.000000	35.698468
888.000000	35.717790
889.000000	35.729880
890.000000	35.746398
891.000000	35.771462
892.000000	35.780272
893.000000	35.786728
894.000000	35.817130
895.000000	35.839800
896.000000	35.850456
897.000000	35.868438
898.000000	35.884968
899.000000	35.906578
900.000000	35.927280
901.000000	35.942034
902.000000	35.962000
903.000000	35.980192
904.000000	35.981712
905.000000	36.006062
906.000000	36.041790
907.000000	36.066022
908.000000	36.092034
909.000000	36.122260
910.000000	36.147446
911.000000	36.169662
912.000000	36.193670
913.000000	36.229096
914.000000	36.258302
915.000000	36.284472
916.000000	36.306624
917.000000	36.326224
918.000000	36.359018
919.000000	36.386320
920.000000	36.415812
921.000000	36.449224
922.000000	36.484696
923.000000	36.513738
924.000000	36.544546
925.000000	36.572936
926.000000	36.606250
927.000000	36.635736
928.000000	36.659108
929.000000	36.686048
930.000000	36.718776
931.000000	36.745980
932.000000	36.767608
933.000000	36.792106
934.000000	36.813184
935.000000	36.837056
936.000000	36.859558
937.000000	36.885250
938.000000	36.907360
939.000000	36.927938
940.000000	36.945334
941.000000	36.963768
942.000000	36.986410
943.000000	37.008460
944.000000	37.029862
945.000000	37.047874
946.000000	37.065786
947.000000	37.087762
948.000000	37.109676
949.000000	37.125766
950.000000	37.139536
951.000000	37.155412
952.000000	37.169390
953.000000	37.184152
954.000000	37.203186
955.000000	37.222216
956.000000	37.237060
957.000000	37.249596
958.000000	37.263522
959.000000	37.278696
960.000000	37.293476
961.000000	37.308024
962.000000	37.325246
963.000000	37.339024
964.000000	37.350022
965.000000	37.358834
966.000000	37.369126
967.000000	37.381122
968.000000	37.391272
969.000000	37.404064
970.000000	37.418118
971.000000	37.430160
972.000000	37.440472
973.000000	37.453010
974.000000	37.463144
975.000000	37.473308
976.000000	37.484850
977.000000	37.494968
978.000000	37.504674
979.000000	37.513486
980.000000	37.518752
981.000000	37.523234
982.000000	37.527316
983.000000	37.532474
984.000000	37.538798
985.000000	37.545052
986.000000	37.549768
987.000000	37.551730
988.000000	37.554294
989.000000	37.558330
990.000000	37.566016
991.000000	37.574128
992.000000	37.581818
993.000000	37.587784
994.000000	37.594146
995.000000	37.598950
996.000000	37.602628
997.000000	37.609396
998.000000	37.615938
999.000000	37.622304
1000.000000	37.628694
1001.000000	37.635156
1002.000000	37.640948
1003.000000	37.648278
1004.000000	37.654834
1005.000000	37.662326
1006.000000	37.672382
1007.000000	37.679714
1008.000000	37.685452
1009.000000	37.690748
1010.000000	37.693988
1011.000000	37.697284
1012.000000	37.702844
1013.000000	37.709348
1014.000000	37.716578
1015.000000	37.723826
1016.000000	37.728486
1017.000000	37.734300
1018.000000	37.743536
1019.000000	37.754210
1020.000000	37.766124
1021.000000	37.779458
1022.000000	37.792018
1023.000000	37.803190
1024.000000	37.814252
1025.000000	37.826652
1026.000000	37.840268
1027.000000	37.855526
1028.000000	37.871156
1029.000000	37.885474
1030.000000	37.900794
1031.000000	37.915530
1032.000000	37.929444
1033.000000	37.945208
1034.000000	37.962388
1035.000000	37.979680
1036.000000	37.996812
1037.000000	38.012806
1038.000000	38.026828
1039.000000	38.040202
1040.000000	38.052482
1041.000000	38.065982
1042.000000	38.080992
1043.000000	38.094752
1044.000000	38.107342
1045.000000	38.119286
1046.000000	38.130948
1047.000000	38.143546
1048.000000	38.157050
1049.000000	38.170416
1050.000000	38.184620
1051.000000	38.198760
1052.000000	38.212362
1053.000000	38.225972
1054.000000	38.240166
1055.000000	38.255108
1056.000000	38.270460
1057.000000	38.286278
1058.000000	38.301544
1059.000000	38.317178
1060.000000	38.333120
1061.000000	38.347988
1062.000000	38.361346
1063.000000	38.375058
1064.000000	38.389620
1065.000000	38.405224
1066.000000	38.421234
1067.000000	38.436200
1068.000000	38.452664
1069.000000	38.470018
1070.000000	38.486424
1071.000000	38.502816
1072.000000	38.521226
1073.000000	38.539214
1074.000000	38.555794
1075.000000	38.570848
1076.000000	38.584664
1077.000000	38.598660
1078.000000	38.611682
1079.000000	38.623952
1080.000000	38.634724
1081.000000	38.645646
1082.000000	38.655352
1083.000000	38.664428
1084.000000	38.673368
1085.000000	38.681254
1086.000000	38.689416
1087.000000	38.697080
1088.000000	38.705196
1089.000000	38.712840
1090.000000	38.720718
1091.000000	38.727744
1092.000000	38.734854
1093.000000	38.741856
1094.000000	38.748302
1095.000000	38.755408
1096.000000	38.761658
1097.000000	38.766758
1098.000000	38.770824
1099.000000	38.774604
1100.000000	38.778404
1101.000000	38.782176
1102.000000	38.784842
1103.000000	38.787076
1104.000000	38.788762
1105.000000	38.788506
1106.000000	38.789198
1107.000000	38.791016
1108.000000	38.791090
1109.000000	38.790150
1110.000000	38.788618
1111.000000	38.786110
1112.000000	38.782186
1113.000000	38.777082
1114.000000	38.771802
1115.000000	38.766280
1116.000000	38.759332
1117.000000	38.749984
1118.000000	38.739604
1119.000000	38.727262
1120.000000	38.713350
1121.000000	38.697970
1122.000000	38.683346
1123.000000	38.667514
1124.000000	38.649090
1125.000000	38.627382
1126.000000	38.602296
1127.000000	38.574324
1128.000000	38.543482
1129.000000	38.510334
1130.000000	38.473968
1131.000000	38.432570
1132.000000	38.383702
1133.000000	38.331308
1134.000000	38.279052
1135.000000	38.227618
1136.000000	38.174136
1137.000000	38.116492
1138.000000	38.057998
1139.000000	37.998254
1140.000000	37.936630
1141.000000	37.876488
1142.000000	37.819202
1143.000000	37.762608
1144.000000	37.703854
1145.000000	37.643446
1146.000000	37.584278
1147.000000	37.526548
1148.000000	37.469150
1149.000000	37.412368
1150.000000	37.356068
1151.000000	37.299288
1152.000000	37.242630
1153.000000	37.182834
1154.000000	37.121474
1155.000000	37.057420
1156.000000	36.989402
1157.000000	36.920770
1158.000000	36.849080
1159.000000	36.774860
1160.000000	36.696362
1161.000000	36.614078
1162.000000	36.527298
1163.000000	36.440920
1164.000000	36.351540
1165.000000	36.261848
1166.000000	36.172172
1167.000000	36.081590
1168.000000	35.993340
1169.000000	35.904598
1170.000000	35.820850
1171.000000	35.739168
1172.000000	35.660942
1173.000000	35.585318
1174.000000	35.515278
1175.000000	35.448714
1176.000000	35.386156
1177.000000	35.328546
1178.000000	35.273712
1179.000000	35.222964
1180.000000	35.173830
1181.000000	35.130530
1182.000000	35.091064
1183.000000	35.055006
1184.000000	35.021262
1185.000000	34.992118
1186.000000	34.966608
1187.000000	34.944602
1188.000000	34.925204
1189.000000	34.911814
1190.000000	34.904212
1191.000000	34.901102
1192.000000	34.902998
1193.000000	34.908832
1194.000000	34.919320
1195.000000	34.931628
1196.000000	34.947372
1197.000000	34.965726
1198.000000	34.987292
1199.000000	35.009554
1200.000000	35.032084
1201.000000	35.054378
1202.000000	35.075750
1203.000000	35.097004
1204.000000	35.116690
1205.000000	35.136474
1206.000000	35.155568
1207.000000	35.173832
1208.000000	35.192516
1209.000000	35.211088
1210.000000	35.230728
1211.000000	35.249708
1212.000000	35.268696
1213.000000	35.289160
1214.000000	35.310628
1215.000000	35.332576
1216.000000	35.354906
1217.000000	35.378670
1218.000000	35.401746
1219.000000	35.425502
1220.000000	35.449538
1221.000000	35.475174
1222.000000	35.501314
1223.000000	35.526400
1224.000000	35.552464
1225.000000	35.578742
1226.000000	35.605780
1227.000000	35.632080
1228.000000	35.658666
1229.000000	35.684964
1230.000000	35.710192
1231.000000	35.733976
1232.000000	35.758076
1233.000000	35.783068
1234.000000	35.806896
1235.000000	35.829936
1236.000000	35.851374
1237.000000	35.872424
1238.000000	35.893444
1239.000000	35.913792
1240.000000	35.934562
1241.000000	35.955206
1242.000000	35.976426
1243.000000	35.997302
1244.000000	36.017792
1245.000000	36.038744
1246.000000	36.059722
1247.000000	36.081592
1248.000000	36.103876
1249.000000	36.125556
1250.000000	36.147598
1251.000000	36.170256
1252.000000	36.191834
1253.000000	36.211962
1254.000000	36.230992
1255.000000	36.248930
1256.000000	36.267492
1257.000000	36.284392
1258.000000	36.298970
1259.000000	36.314118
1260.000000	36.327226
1261.000000	36.338512
1262.000000	36.348630
1263.000000	36.357924
1264.000000	36.368148
1265.000000	36.377712
1266.000000	36.385816
1267.000000	36.392652
1268.000000	36.399106
1269.000000	36.404106
1270.000000	36.408502
1271.000000	36.412700
1272.000000	36.417166
1273.000000	36.421750
1274.000000	36.425416
1275.000000	36.429406
1276.000000	36.433824
1277.000000	36.438906
1278.000000	36.444008
1279.000000	36.449786
1280.000000	36.456430
1281.000000	36.464208
1282.000000	36.472764
1283.000000	36.481574
1284.000000	36.490736
1285.000000	36.500486
1286.000000	36.511162
1287.000000	36.522272
1288.000000	36.533050
1289.000000	36.543344
1290.000000	36.554664
1291.000000	36.565452
1292.000000	36.574704
1293.000000	36.584202
1294.000000	36.593740
1295.000000	36.602440
1296.000000	36.609812
1297.000000	36.616796
1298.000000	36.624544
1299.000000	36.631608
1300.000000	36.636366
1301.000000	36.640416
1302.000000	36.644084
1303.000000	36.645960
1304.000000	36.646682
1305.000000	36.646868
1306.000000	36.646028
1307.000000	36.643074
1308.000000	36.638610
1309.000000	36.632622
1310.000000	36.624324
1311.000000	36.613786
1312.000000	36.602394
1313.000000	36.590110
1314.000000	36.575752
1315.000000	36.558834
1316.000000	36.540146
1317.000000	36.519740
1318.000000	36.497158
1319.000000	36.472396
1320.000000	36.447022
1321.000000	36.419966
1322.000000	36.390140
1323.000000	36.357988
1324.000000	36.323958
1325.000000	36.288420
1326.000000	36.250600
1327.000000	36.211518
1328.000000	36.169884
1329.000000	36.126330
1330.000000	36.080392
1331.000000	36.032458
1332.000000	35.981552
1333.000000	35.927724
1334.000000	35.871162
1335.000000	35.811958
1336.000000	35.750374
1337.000000	35.686274
1338.000000	35.619612
1339.000000	35.550726
1340.000000	35.479564
1341.000000	35.404948
1342.000000	35.328160
1343.000000	35.249236
1344.000000	35.167588
1345.000000	35.082556
1346.000000	34.994554
1347.000000	34.904772
1348.000000	34.813774
1349.000000	34.719810
1350.000000	34.623716
1351.000000	34.526272
1352.000000	34.426094
1353.000000	34.325276
1354.000000	34.229058
1355.000000	34.136078
1356.000000	34.043962
1357.000000	33.951100
1358.000000	33.857678
1359.000000	33.762450
1360.000000	33.670006
1361.000000	33.588306
1362.000000	33.511184
1363.000000	33.430612
1364.000000	33.346422
1365.000000	33.259956
1366.000000	33.169192
1367.000000	33.078960
1368.000000	32.989352
1369.000000	32.898058
1370.000000	32.800522
1371.000000	32.690286
1372.000000	32.570380
1373.000000	32.444906
1374.000000	32.308992
1375.000000	32.164470
1376.000000	32.012256
1377.000000	31.849862
1378.000000	31.674552
1379.000000	31.495720
1380.000000	31.315010
1381.000000	31.137958
1382.000000	30.967446
1383.000000	30.804446
1384.000000	30.647016
1385.000000	30.493604
1386.000000	30.347642
1387.000000	30.212710
1388.000000	30.091890
1389.000000	29.975802
1390.000000	29.859862
1391.000000	29.743730
1392.000000	29.628990
1393.000000	29.513024
1394.000000	29.399462
1395.000000	29.295618
1396.000000	29.196106
1397.000000	29.086908
1398.000000	28.967220
1399.000000	28.850718
1400.000000	28.744446
1401.000000	28.633074
1402.000000	28.508154
1403.000000	28.376300
1404.000000	28.243508
1405.000000	28.098092
1406.000000	27.944270
1407.000000	27.791012
1408.000000	27.639238
1409.000000	27.480272
1410.000000	27.307982
1411.000000	27.129524
1412.000000	26.954470
1413.000000	26.784790
1414.000000	26.614852
1415.000000	26.443586
1416.000000	26.271312
1417.000000	26.100652
1418.000000	25.935276
1419.000000	25.774838
1420.000000	25.617200
1421.000000	25.463524
1422.000000	25.317164
1423.000000	25.174458
1424.000000	25.031692
1425.000000	24.894526
1426.000000	24.764538
1427.000000	24.639552
1428.000000	24.516700
1429.000000	24.396086
1430.000000	24.280842
1431.000000	24.173674
1432.000000	24.070166
1433.000000	23.967810
1434.000000	23.869200
1435.000000	23.774494
1436.000000	23.683392
1437.000000	23.597068
1438.000000	23.513450
1439.000000	23.433328
1440.000000	23.356446
1441.000000	23.280492
1442.000000	23.205868
1443.000000	23.133300
1444.000000	23.063444
1445.000000	22.997642
1446.000000	22.934574
1447.000000	22.869548
1448.000000	22.804746
1449.000000	22.741136
1450.000000	22.679804
1451.000000	22.620870
1452.000000	22.560224
1453.000000	22.500652
1454.000000	22.440988
1455.000000	22.379534
1456.000000	22.317010
1457.000000	22.255822
1458.000000	22.195236
1459.000000	22.135166
1460.000000	22.074038
1461.000000	22.011258
1462.000000	21.950356
1463.000000	21.889806
1464.000000	21.830390
1465.000000	21.771184
1466.000000	21.711344
1467.000000	21.652664
1468.000000	21.593782
1469.000000	21.536374
1470.000000	21.479232
1471.000000	21.423214
1472.000000	21.370226
1473.000000	21.316414
1474.000000	21.262722
1475.000000	21.210844
1476.000000	21.162654
1477.000000	21.116424
1478.000000	21.072510
1479.000000	21.029380
1480.000000	20.989116
1481.000000	20.952584
1482.000000	20.916908
1483.000000	20.885980
1484.000000	20.857856
1485.000000	20.832568
1486.000000	20.809174
1487.000000	20.788746
1488.000000	20.771820
1489.000000	20.756384
1490.000000	20.743874
1491.000000	20.733280
1492.000000	20.725208
1493.000000	20.719506
1494.000000	20.717166
1495.000000	20.717394
1496.000000	20.720540
1497.000000	20.724646
1498.000000	20.732978
1499.000000	20.745928
1500.000000	20.760626
1501.000000	20.778610
1502.000000	20.800952
1503.000000	20.826550
1504.000000	20.854700
1505.000000	20.885892
1506.000000	20.919958
1507.000000	20.958654
1508.000000	20.999124
1509.000000	21.040522
1510.000000	21.084990
1511.000000	21.131580
1512.000000	21.179270
1513.000000	21.228254
1514.000000	21.278390
1515.000000	21.329690
1516.000000	21.381506
1517.000000	21.433892
1518.000000	21.485828
1519.000000	21.537790
1520.000000	21.589006
1521.000000	21.639118
1522.000000	21.688000
1523.000000	21.736006
1524.000000	21.783768
1525.000000	21.831162
1526.000000	21.878606
1527.000000	21.924546
1528.000000	21.969184
1529.000000	22.013492
1530.000000	22.057202
1531.000000	22.099250
1532.000000	22.141132
1533.000000	22.183166
1534.000000	22.224578
1535.000000	22.264000
1536.000000	22.299896
1537.000000	22.334958
1538.000000	22.370882
1539.000000	22.405216
1540.000000	22.438596
1541.000000	22.471460
1542.000000	22.503714
1543.000000	22.535358
1544.000000	22.566904
1545.000000	22.599636
1546.000000	22.634280
1547.000000	22.669422
1548.000000	22.703924
1549.000000	22.739258
1550.000000	22.775650
1551.000000	22.813850
1552.000000	22.852546
1553.000000	22.890522
1554.000000	22.926958
1555.000000	22.962018
1556.000000	22.996122
1557.000000	23.028416
1558.000000	23.058262
1559.000000	23.085738
1560.000000	23.110238
1561.000000	23.131238
1562.000000	23.148664
1563.000000	23.162764
1564.000000	23.174150
1565.000000	23.182502
1566.000000	23.187414
1567.000000	23.189270
1568.000000	23.189404
1569.000000	23.187784
1570.000000	23.184438
1571.000000	23.180266
1572.000000	23.175924
1573.000000	23.171526
1574.000000	23.167622
1575.000000	23.164440
1576.000000	23.162336
1577.000000	23.163178
1578.000000	23.166052
1579.000000	23.170250
1580.000000	23.175834
1581.000000	23.183936
1582.000000	23.194616
1583.000000	23.207856
1584.000000	23.223934
1585.000000	23.241908
1586.000000	23.262258
1587.000000	23.284818
1588.000000	23.308408
1589.000000	23.335534
1590.000000	23.366024
1591.000000	23.396860
1592.000000	23.428716
1593.000000	23.461424
1594.000000	23.495916
1595.000000	23.532764
1596.000000	23.570988
1597.000000	23.608942
1598.000000	23.648972
1599.000000	23.689818
1600.000000	23.731554
1601.000000	23.775986
1602.000000	23.821488
1603.000000	23.868562
1604.000000	23.915586
1605.000000	23.963008
1606.000000	24.011360
1607.000000	24.060842
1608.000000	24.109670
1609.000000	24.158330
1610.000000	24.206012
1611.000000	24.252032
1612.000000	24.296908
1613.000000	24.341198
1614.000000	24.384910
1615.000000	24.426584
1616.000000	24.466386
1617.000000	24.503988
1618.000000	24.541940
1619.000000	24.578376
1620.000000	24.613182
1621.000000	24.647612
1622.000000	24.680668
1623.000000	24.711818
1624.000000	24.741694
1625.000000	24.771520
1626.000000	24.800356
1627.000000	24.829676
1628.000000	24.857252
1629.000000	24.883520
1630.000000	24.910790
1631.000000	24.936958
1632.000000	24.962146
1633.000000	24.987250
1634.000000	25.011392
1635.000000	25.034128
1636.000000	25.056550
1637.000000	25.076380
1638.000000	25.094720
1639.000000	25.111442
1640.000000	25.126394
1641.000000	25.140120
1642.000000	25.153292
1643.000000	25.165352
1644.000000	25.174662
1645.000000	25.182812
1646.000000	25.188946
1647.000000	25.193686
1648.000000	25.196504
1649.000000	25.197480
1650.000000	25.195422
1651.000000	25.190550
1652.000000	25.181866
1653.000000	25.168992
1654.000000	25.152490
1655.000000	25.131094
1656.000000	25.104802
1657.000000	25.074376
1658.000000	25.038184
1659.000000	24.995748
1660.000000	24.946488
1661.000000	24.890840
1662.000000	24.829500
1663.000000	24.762312
1664.000000	24.691000
1665.000000	24.613180
1666.000000	24.529632
1667.000000	24.440842
1668.000000	24.344310
1669.000000	24.243070
1670.000000	24.138948
1671.000000	24.030976
1672.000000	23.919428
1673.000000	23.804366
1674.000000	23.687076
1675.000000	23.570002
1676.000000	23.452406
1677.000000	23.331908
1678.000000	23.213036
1679.000000	23.094630
1680.000000	22.974956
1681.000000	22.854908
1682.000000	22.736350
1683.000000	22.619460
1684.000000	22.504644
1685.000000	22.392834
1686.000000	22.285106
1687.000000	22.185624
1688.000000	22.096614
1689.000000	22.020342
1690.000000	21.955354
1691.000000	21.903804
1692.000000	21.865652
1693.000000	21.840060
1694.000000	21.824878
1695.000000	21.818386
1696.000000	21.818744
1697.000000	21.822958
1698.000000	21.828792
1699.000000	21.831252
1700.000000	21.832650
1701.000000	21.828844
1702.000000	21.820234
1703.000000	21.805742
1704.000000	21.783726
1705.000000	21.754936
1706.000000	21.719140
1707.000000	21.676118
1708.000000	21.626504
1709.000000	21.569346
1710.000000	21.504204
1711.000000	21.431982
1712.000000	21.351426
1713.000000	21.264028
1714.000000	21.170726
1715.000000	21.070664
1716.000000	20.965906
1717.000000	20.857864
1718.000000	20.744694
1719.000000	20.631868
1720.000000	20.520468
1721.000000	20.412268
1722.000000	20.310992
1723.000000	20.215336
1724.000000	20.130688
1725.000000	20.057996
1726.000000	19.996908
1727.000000	19.948948
1728.000000	19.916302
1729.000000	19.895688
1730.000000	19.888934
1731.000000	19.896186
1732.000000	19.914334
1733.000000	19.944460
1734.000000	19.982112
1735.000000	20.028108
1736.000000	20.081384
1737.000000	20.141900
1738.000000	20.206296
1739.000000	20.275752
1740.000000	20.347268
1741.000000	20.420550
1742.000000	20.492692
1743.000000	20.565366
1744.000000	20.638636
1745.000000	20.710328
1746.000000	20.780080
1747.000000	20.845426
1748.000000	20.906538
1749.000000	20.963576
1750.000000	21.015542
1751.000000	21.062126
1752.000000	21.104174
1753.000000	21.139694
1754.000000	21.168916
1755.000000	21.192408
1756.000000	21.212304
1757.000000	21.228704
1758.000000	21.241994
1759.000000	21.253384
1760.000000	21.264076
1761.000000	21.273316
1762.000000	21.283244
1763.000000	21.293874
1764.000000	21.305504
1765.000000	21.319772
1766.000000	21.336656
1767.000000	21.356936
1768.000000	21.380638
1769.000000	21.407682
1770.000000	21.436348
1771.000000	21.466782
1772.000000	21.499052
1773.000000	21.533514
1774.000000	21.570184
1775.000000	21.607850
1776.000000	21.645744
1777.000000	21.683468
1778.000000	21.720206
1779.000000	21.756022
1780.000000	21.792504
1781.000000	21.828398
1782.000000	21.861940
1783.000000	21.893460
1784.000000	21.923064
1785.000000	21.950172
1786.000000	21.974474
1787.000000	21.994906
1788.000000	22.014222
1789.000000	22.030990
1790.000000	22.045484
1791.000000	22.059560
1792.000000	22.074660
1793.000000	22.090254
1794.000000	22.103710
1795.000000	22.117256
1796.000000	22.131188
1797.000000	22.145528
1798.000000	22.157974
1799.000000	22.170766
1800.000000	22.185902
1801.000000	22.203238
1802.000000	22.219506
1803.000000	22.233644
1804.000000	22.249230
1805.000000	22.265360
1806.000000	22.283284
1807.000000	22.302768
1808.000000	22.321680
1809.000000	22.338868
1810.000000	22.355668
1811.000000	22.371290
1812.000000	22.387724
1813.000000	22.405802
1814.000000	22.423242
1815.000000	22.440356
1816.000000	22.453138
1817.000000	22.461190
1818.000000	22.468530
1819.000000	22.477456
1820.000000	22.490304
1821.000000	22.506854
1822.000000	22.521080
1823.000000	22.528382
1824.000000	22.531400
1825.000000	22.532868
1826.000000	22.538380
1827.000000	22.549438
1828.000000	22.564848
1829.000000	22.579506
1830.000000	22.591242
1831.000000	22.599832
1832.000000	22.606726
1833.000000	22.617138
1834.000000	22.629110
1835.000000	22.643920
1836.000000	22.663210
1837.000000	22.683582
1838.000000	22.702862
1839.000000	22.724692
1840.000000	22.748090
1841.000000	22.777752
1842.000000	22.813936
1843.000000	22.846392
1844.000000	22.871420
1845.000000	22.887432
1846.000000	22.899328
1847.000000	22.918854
1848.000000	22.948236
1849.000000	22.974346
1850.000000	22.985998
1851.000000	22.982802
1852.000000	22.973514
1853.000000	22.970390
1854.000000	22.977920
1855.000000	22.993080
1856.000000	23.000404
1857.000000	22.990810
1858.000000	22.969486
1859.000000	22.951822
1860.000000	22.943882
1861.000000	22.938334
1862.000000	22.925712
1863.000000	22.901268
1864.000000	22.862418
1865.000000	22.812644
1866.000000	22.759320
1867.000000	22.701046
1868.000000	22.633320
1869.000000	22.556000
1870.000000	22.472632
1871.000000	22.383746
1872.000000	22.294586
1873.000000	22.206624
1874.000000	22.116214
1875.000000	22.019474
1876.000000	21.914668
1877.000000	21.803354
1878.000000	21.683412
1879.000000	21.546796
1880.000000	21.391402
1881.000000	21.220144
1882.000000	21.035324
1883.000000	20.840068
1884.000000	20.640076
1885.000000	20.431572
1886.000000	20.212396
1887.000000	19.979758
1888.000000	19.737674
1889.000000	19.490438
1890.000000	19.242306
1891.000000	18.991730
1892.000000	18.737618
1893.000000	18.473614
1894.000000	18.194236
1895.000000	17.903574
1896.000000	17.608618
1897.000000	17.312024
1898.000000	17.014934
1899.000000	16.720552
1900.000000	16.422880
1901.000000	16.121638
1902.000000	15.819892
1903.000000	15.519424
1904.000000	15.229324
1905.000000	14.955728
1906.000000	14.688934
1907.000000	14.431612
1908.000000	14.180430
1909.000000	13.931768
1910.000000	13.688294
1911.000000	13.460364
1912.000000	13.243474
1913.000000	13.044074
1914.000000	12.854634
1915.000000	12.671416
1916.000000	12.499618
1917.000000	12.337800
1918.000000	12.186592
1919.000000	12.048126
1920.000000	11.925722
1921.000000	11.809190
1922.000000	11.700548
1923.000000	11.597592
1924.000000	11.503970
1925.000000	11.414982
1926.000000	11.332642
1927.000000	11.260876
1928.000000	11.197466
1929.000000	11.143246
1930.000000	11.090184
1931.000000	11.046530
1932.000000	11.006694
1933.000000	10.971982
1934.000000	10.941026
1935.000000	10.918314
1936.000000	10.902904
1937.000000	10.891398
1938.000000	10.883742
1939.000000	10.879104
1940.000000	10.884018
1941.000000	10.887532
1942.000000	10.898154
1943.000000	10.914136
1944.000000	10.931598
1945.000000	10.953988
1946.000000	10.978596
1947.000000	11.003254
1948.000000	11.035416
1949.000000	11.069756
1950.000000	11.104388
1951.000000	11.143296
1952.000000	11.184420
1953.000000	11.226062
1954.000000	11.271096
1955.000000	11.317882
1956.000000	11.364362
1957.000000	11.414646
1958.000000	11.460500
1959.000000	11.508770
1960.000000	11.557536
1961.000000	11.608922
1962.000000	11.661594
1963.000000	11.712962
1964.000000	11.764796
1965.000000	11.817824
1966.000000	11.871294
1967.000000	11.921596
1968.000000	11.973706
1969.000000	12.025694
1970.000000	12.077312
1971.000000	12.131526
1972.000000	12.185202
1973.000000	12.239176
1974.000000	12.293004
1975.000000	12.344280
1976.000000	12.396128
1977.000000	12.448304
1978.000000	12.504662
1979.000000	12.559062
1980.000000	12.613352
1981.000000	12.666754
1982.000000	12.718452
1983.000000	12.770106
1984.000000	12.823350
1985.000000	12.881298
1986.000000	12.938606
1987.000000	12.999658
1988.000000	13.055266
1989.000000	13.111878
1990.000000	13.168754
1991.000000	13.218920
1992.000000	13.268848
1993.000000	13.324154
1994.000000	13.373154
1995.000000	13.416698
1996.000000	13.461236
1997.000000	13.499706
1998.000000	13.538478
1999.000000	13.577060
2000.000000	13.612360
2001.000000	13.650644
2002.000000	13.684916
2003.000000	13.712110
2004.000000	13.738860
2005.000000	13.763888
2006.000000	13.785642
2007.000000	13.806228
2008.000000	13.821356
2009.000000	13.830466
2010.000000	13.839092
2011.000000	13.843270
2012.000000	13.846332
2013.000000	13.845042
2014.000000	13.840152
2015.000000	13.831700
2016.000000	13.815494
2017.000000	13.795674
2018.000000	13.776612
2019.000000	13.758170
2020.000000	13.729022
2021.000000	13.694720
2022.000000	13.656280
2023.000000	13.610742
2024.000000	13.566806
2025.000000	13.519012
2026.000000	13.468548
2027.000000	13.417784
2028.000000	13.359764
2029.000000	13.295120
2030.000000	13.234806
2031.000000	13.170242
2032.000000	13.099726
2033.000000	13.031918
2034.000000	12.959552
2035.000000	12.885558
2036.000000	12.809844
2037.000000	12.724394
2038.000000	12.641820
2039.000000	12.557812
2040.000000	12.470236
2041.000000	12.384166
2042.000000	12.293162
2043.000000	12.199044
2044.000000	12.109146
2045.000000	12.019478
2046.000000	11.931082
2047.000000	11.851852
2048.000000	11.772600
2049.000000	11.690762
2050.000000	11.614944
2051.000000	11.544274
2052.000000	11.491148
2053.000000	11.447724
2054.000000	11.408116
2055.000000	11.377096
2056.000000	11.354200
2057.000000	11.333022
2058.000000	11.326244
2059.000000	11.340620
2060.000000	11.360424
2061.000000	11.387132
2062.000000	11.414128
2063.000000	11.447468
2064.000000	11.487040
2065.000000	11.531120
2066.000000	11.589052
2067.000000	11.658208
2068.000000	11.722980
2069.000000	11.781952
2070.000000	11.849398
2071.000000	11.915414
2072.000000	11.980652
2073.000000	12.046570
2074.000000	12.110638
2075.000000	12.170428
2076.000000	12.220216
2077.000000	12.267870
2078.000000	12.318978
2079.000000	12.372528
2080.000000	12.416816
2081.000000	12.460692
2082.000000	12.507152
2083.000000	12.543496
2084.000000	12.574388
2085.000000	12.600736
2086.000000	12.625760
2087.000000	12.646266
2088.000000	12.656588
2089.000000	12.663378
2090.000000	12.669904
2091.000000	12.671766
2092.000000	12.671330
2093.000000	12.670368
2094.000000	12.672624
2095.000000	12.679176
2096.000000	12.681580
2097.000000	12.682366
2098.000000	12.683230
2099.000000	12.682610
2100.000000	12.681518
2101.000000	12.679822
2102.000000	12.676402
2103.000000	12.679168
2104.000000	12.682290
2105.000000	12.681130
2106.000000	12.683280
2107.000000	12.687180
2108.000000	12.693072
2109.000000	12.689190
2110.000000	12.683546
2111.000000	12.687786
2112.000000	12.698560
2113.000000	12.704328
2114.000000	12.707764
2115.000000	12.718832
2116.000000	12.727170
2117.000000	12.725308
2118.000000	12.720816
2119.000000	12.724984
2120.000000	12.728930
2121.000000	12.728818
2122.000000	12.718380
2123.000000	12.705274
2124.000000	12.692272
2125.000000	12.672576
2126.000000	12.652512
2127.000000	12.642524
2128.000000	12.625310
2129.000000	12.605412
2130.000000	12.584222
2131.000000	12.557838
2132.000000	12.527724
2133.000000	12.502480
2134.000000	12.466890
2135.000000	12.432384
2136.000000	12.389280
2137.000000	12.343364
2138.000000	12.303292
2139.000000	12.251238
2140.000000	12.189048
2141.000000	12.122724
2142.000000	12.067516
2143.000000	12.004382
2144.000000	11.938350
2145.000000	11.881250
2146.000000	11.828244
2147.000000	11.760602
2148.000000	11.694684
2149.000000	11.624838
2150.000000	11.563028
2151.000000	11.506282
2152.000000	11.440270
2153.000000	11.381344
2154.000000	11.324096
2155.000000	11.253012
2156.000000	11.174544
2157.000000	11.101354
2158.000000	11.032876
2159.000000	10.974940
2160.000000	10.918858
2161.000000	10.861232
2162.000000	10.810936
2163.000000	10.767476
2164.000000	10.728312
2165.000000	10.681832
2166.000000	10.653638
2167.000000	10.627856
2168.000000	10.602006
2169.000000	10.578560
2170.000000	10.562692
2171.000000	10.535118
2172.000000	10.507744
2173.000000	10.474308
2174.000000	10.441306
2175.000000	10.420202
2176.000000	10.396710
2177.000000	10.381500
2178.000000	10.359888
2179.000000	10.332190
2180.000000	10.299726
2181.000000	10.276638
2182.000000	10.260060
2183.000000	10.241782
2184.000000	10.229786
2185.000000	10.219274
2186.000000	10.206682
2187.000000	10.184688
2188.000000	10.170708
2189.000000	10.155450
2190.000000	10.135562
2191.000000	10.114238
2192.000000	10.080956
2193.000000	10.031586
2194.000000	9.989676
2195.000000	9.950986
2196.000000	9.898332
2197.000000	9.850794
2198.000000	9.793370
2199.000000	9.743848
2200.000000	9.696636
2201.000000	9.662076
2202.000000	9.622434
2203.000000	9.601294
2204.000000	9.560036
2205.000000	9.513712
2206.000000	9.488748
2207.000000	9.472056
2208.000000	9.454204
2209.000000	9.447960
2210.000000	9.443656
2211.000000	9.434504
2212.000000	9.438654
2213.000000	9.444936
2214.000000	9.474204
2215.000000	9.512500
2216.000000	9.540106
2217.000000	9.571532
2218.000000	9.604230
2219.000000	9.635900
2220.000000	9.677824
2221.000000	9.715906
2222.000000	9.752196
2223.000000	9.793936
2224.000000	9.827960
2225.000000	9.855324
2226.000000	9.894214
2227.000000	9.937144
2228.000000	9.987816
2229.000000	10.026820
2230.000000	10.062278
2231.000000	10.106612
2232.000000	10.144890
2233.000000	10.179934
2234.000000	10.212186
2235.000000	10.233296
2236.000000	10.245026
2237.000000	10.244814
2238.000000	10.231872
2239.000000	10.227560
2240.000000	10.218926
2241.000000	10.197364
2242.000000	10.181038
2243.000000	10.154606
2244.000000	10.128590
2245.000000	10.106632
2246.000000	10.073464
2247.000000	10.028394
2248.000000	9.994362
2249.000000	9.940372
2250.000000	9.892070
2251.000000	9.843842
2252.000000	9.788970
2253.000000	9.741262
2254.000000	9.678828
2255.000000	9.609120
2256.000000	9.551352
2257.000000	9.507282
2258.000000	9.450378
2259.000000	9.404622
2260.000000	9.340790
2261.000000	9.292040
2262.000000	9.237630
2263.000000	9.171014
2264.000000	9.122576
2265.000000	9.094904
2266.000000	9.054016
2267.000000	9.018290
2268.000000	9.001116
2269.000000	8.981116
2270.000000	8.966112
2271.000000	8.957502
2272.000000	8.960806
2273.000000	8.972210
2274.000000	8.982298
2275.000000	8.975234
2276.000000	8.974232
2277.000000	8.974284
2278.000000	8.971882
2279.000000	8.980836
2280.000000	8.992200
2281.000000	8.993666
2282.000000	9.004266
2283.000000	9.007354
2284.000000	9.001244
2285.000000	9.005272
2286.000000	9.010802
2287.000000	9.016932
2288.000000	9.028262
2289.000000	9.029272
2290.000000	9.031590
2291.000000	9.021422
2292.000000	9.001012
2293.000000	8.995714
2294.000000	9.002854
2295.000000	9.016568
2296.000000	9.029634
2297.000000	9.021672
2298.000000	9.015422
2299.000000	9.014928
2300.000000	9.014434
2301.000000	9.028162
2302.000000	9.044842
2303.000000	9.066552
2304.000000	9.077884
2305.000000	9.086162
2306.000000	9.100770
2307.000000	9.124874
2308.000000	9.141078
2309.000000	9.161980
2310.000000	9.183406
2311.000000	9.197674
2312.000000	9.222614
2313.000000	9.246314
2314.000000	9.269292
2315.000000	9.298352
2316.000000	9.327512
2317.000000	9.360132
2318.000000	9.390004
2319.000000	9.415748
2320.000000	9.445300
2321.000000	9.481500
2322.000000	9.509022
2323.000000	9.518808
2324.000000	9.546948
2325.000000	9.565936
2326.000000	9.596306
2327.000000	9.626750
2328.000000	9.637470
2329.000000	9.647488
2330.000000	9.661586
2331.000000	9.673930
2332.000000	9.681190
2333.000000	9.706142
2334.000000	9.717828
2335.000000	9.718960
2336.000000	9.714712
2337.000000	9.715926
2338.000000	9.719788
2339.000000	9.721722
2340.000000	9.730090
2341.000000	9.739100
2342.000000	9.749336
2343.000000	9.742854
2344.000000	9.727414
2345.000000	9.720688
2346.000000	9.728132
2347.000000	9.746092
2348.000000	9.780516
2349.000000	9.803468
2350.000000	9.809424
2351.000000	9.820680
2352.000000	9.847190
2353.000000	9.892874
2354.000000	9.932064
2355.000000	9.979270
2356.000000	10.027156
2357.000000	10.048280
2358.000000	10.071922
2359.000000	10.101714
2360.000000	10.136536
2361.000000	10.173500
2362.000000	10.183570
2363.000000	10.176576
2364.000000	10.192998
2365.000000	10.202570
2366.000000	10.193762
2367.000000	10.203828
2368.000000	10.227120
2369.000000	10.259704
2370.000000	10.283348
2371.000000	10.289102
2372.000000	10.299166
2373.000000	10.317196
2374.000000	10.340024
2375.000000	10.366304
2376.000000	10.381034
2377.000000	10.391760
2378.000000	10.398786
2379.000000	10.393078
2380.000000	10.388320
2381.000000	10.407148
2382.000000	10.430086
2383.000000	10.434586
2384.000000	10.436198
2385.000000	10.441892
2386.000000	10.449846
2387.000000	10.440464
2388.000000	10.416764
2389.000000	10.421782
2390.000000	10.450950
2391.000000	10.461620
2392.000000	10.480426
2393.000000	10.506454
2394.000000	10.516018
2395.000000	10.521588
2396.000000	10.527992
2397.000000	10.513730
2398.000000	10.526004
2399.000000	10.520698
2400.000000	10.495588
2401.000000	10.482282
2402.000000	10.469910
2403.000000	10.454870
2404.000000	10.446474
2405.000000	10.412916
2406.000000	10.399746
2407.000000	10.423532
2408.000000	10.435074
2409.000000	10.456110
2410.000000	10.475706
2411.000000	10.462598
2412.000000	10.434502
2413.000000	10.398480
2414.000000	10.361364
2415.000000	10.354422
2416.000000	10.352152
2417.000000	10.339682
2418.000000	10.304472
2419.000000	10.274942
2420.000000	10.216086
2421.000000	10.179554
2422.000000	10.155318
2423.000000	10.138558
2424.000000	10.122786
2425.000000	10.097394
2426.000000	10.066582
2427.000000	10.017546
2428.000000	10.000824
2429.000000	9.963492
2430.000000	9.923880
2431.000000	9.884786
2432.000000	9.824144
2433.000000	9.782734
2434.000000	9.723978
2435.000000	9.658842
2436.000000	9.595752
2437.000000	9.542736
2438.000000	9.448134
2439.000000	9.413648
2440.000000	9.379246
2441.000000	9.367686
2442.000000	9.355554
2443.000000	9.336584
2444.000000	9.302020
2445.000000	9.229470
2446.000000	9.174436
2447.000000	9.137070
2448.000000	9.136128
2449.000000	9.111208
2450.000000	9.093466
2451.000000	9.026224
2452.000000	8.957204
2453.000000	8.916662
2454.000000	8.924792
2455.000000	8.938234
2456.000000	8.932094
2457.000000	8.911374
2458.000000	8.830712
2459.000000	8.800962
2460.000000	8.799988
2461.000000	8.733986
2462.000000	8.746192
2463.000000	8.654772
2464.000000	8.585646
2465.000000	8.606328
2466.000000	8.568458
2467.000000	8.601642
2468.000000	8.617604
2469.000000	8.562178
2470.000000	8.503864
2471.000000	8.566062
2472.000000	8.510676
2473.000000	8.530692
2474.000000	8.512776
2475.000000	8.443130
2476.000000	8.336734
2477.000000	8.201658
2478.000000	7.995552
2479.000000	7.802426
2480.000000	7.721326
2481.000000	7.537120
2482.000000	7.438294
2483.000000	7.233460
2484.000000	6.927318
2485.000000	6.595922
2486.000000	6.223652
2487.000000	5.777322
2488.000000	5.390810
2489.000000	5.056716
2490.000000	4.469480
2491.000000	3.932948
2492.000000	3.250798
2493.000000	2.397192
2494.000000	1.436070
2495.000000	0.133290
2496.000000	-0.703738
2497.000000	-1.516492
2498.000000	-3.338634
2499.000000	-5.806192
2500.000000	-9.413922
2501.000000	-4.265788
2502.000000	0.961532
2503.000000	6.524088
2504.000000	12.265718
2505.000000	18.537074
2506.000000	24.518404
2507.000000	30.487720
2508.000000	37.403402
2509.000000	45.401466
2510.000000	54.905210
2511.000000	55.592240
2512.000000	56.376500
2513.000000	57.602850
2514.000000	58.838710
2515.000000	59.491350
2516.000000	60.021550
2517.000000	60.608460
2518.000000	61.720540
2519.000000	62.123940
2520.000000	62.615890
2521.000000	63.434110
2522.000000	64.376040
2523.000000	64.672890
2524.000000	64.897400
2525.000000	65.881760
2526.000000	67.364290
2527.000000	68.616270
2528.000000	69.611190
2529.000000	70.933170
2530.000000	71.635590
2531.000000	72.542960
2532.000000	73.221010
2533.000000	73.807350
2534.000000	74.982810
2535.000000	75.671990
2536.000000	76.367370
2537.000000	77.979640
2538.000000	79.351840
2539.000000	80.324000
2540.000000	81.872740
2541.000000	82.870820
2542.000000	84.310410
2543.000000	85.689390
2544.000000	86.613320
2545.000000	87.567290
2546.000000	87.811970
2547.000000	87.346500
2548.000000	87.091530
2549.000000	87.041020
2550.000000	86.875740
2551.000000	86.853180
2552.000000	86.727550
2553.000000	87.172390
2554.000000	87.569550
2555.000000	88.300530
2556.000000	89.633170
2557.000000	91.041940
2558.000000	92.125910
2559.000000	93.098680
2560.000000	93.530950
2561.000000	94.073480
2562.000000	94.265580
2563.000000	94.199130
2564.000000	94.171410
2565.000000	93.926830
2566.000000	93.764980
2567.000000	93.530710
2568.000000	93.326900
2569.000000	93.443990
2570.000000	93.900000
2571.000000	94.243380
2572.000000	95.443010
2573.000000	96.379270
2574.000000	97.061590
2575.000000	97.838620
2576.000000	97.929750
2577.000000	98.150190
2578.000000	98.958550
2579.000000	98.983040
2580.000000	99.256800
2581.000000	99.393940
2582.000000	98.373600
2583.000000	98.097380
2584.000000	97.843920
2585.000000	97.315600
2586.000000	97.353410
2587.000000	97.559100
2588.000000	97.316090
2589.000000	97.752650
2590.000000	98.307410
2591.000000	98.990670
2592.000000	99.810540
2593.000000	100.029480
2594.000000	100.592010
2595.000000	101.650630
2596.000000	102.109420
2597.000000	101.700960
2598.000000	101.622510
2599.000000	101.954670
2600.000000	102.143250
2601.000000	101.920970
2602.000000	101.464090
2603.000000	101.335120
2604.000000	100.995160
2605.000000	99.956880
2606.000000	99.579460
2607.000000	99.994780
2608.000000	100.356980
2609.000000	100.159120
2610.000000	99.454070
2611.000000	99.210920
2612.000000	99.418280
2613.000000	99.995490
2614.000000	100.606350
2615.000000	100.808530
2616.000000	100.208230
2617.000000	99.402320
2618.000000	99.325150
2619.000000	99.425580
2620.000000	100.240790
2621.000000	100.691670
2622.000000	100.562200
2623.000000	99.897730
2624.000000	99.597660
2625.000000	100.162810
2626.000000	101.223280
2627.000000	101.876880
2628.000000	101.665320
2629.000000	101.333300
2630.000000	100.866170
2631.000000	100.594400
2632.000000	100.908630
2633.000000	100.981800
2634.000000	101.066260
2635.000000	101.034010
2636.000000	100.549340
2637.000000	101.117980
2638.000000	102.013800
2639.000000	102.469650
2640.000000	102.766270
2641.000000	103.074670
2642.000000	102.896360
2643.000000	102.709850
2644.000000	102.645080
2645.000000	102.569000
2646.000000	102.847940
2647.000000	101.857970
2648.000000	100.302410
2649.000000	100.011530
2650.000000	99.363240
2651.000000	98.343240
2652.000000	98.406170
2653.000000	98.951680
2654.000000	99.163500
2655.000000	99.464180
2656.000000	99.090100
2657.000000	99.536100
2658.000000	100.623130
2659.000000	100.338950
2660.000000	100.469840
2661.000000	100.913830
2662.000000	101.291420
2663.000000	101.050930
2664.000000	100.590130
2665.000000	100.473740
2666.000000	101.090100
2667.000000	101.223300
2668.000000	101.217330
2669.000000	102.494730
2670.000000	102.714790
2671.000000	102.602570
2672.000000	102.281120
2673.000000	102.392180
2674.000000	102.115520
2675.000000	102.039740
2676.000000	102.422690
2677.000000	102.759990
2678.000000	102.397810
2679.000000	101.059530
2680.000000	101.374340
2681.000000	102.011870
2682.000000	101.699880
2683.000000	101.960900
2684.000000	102.514410
2685.000000	101.906640
2686.000000	101.336610
2687.000000	101.235750
2688.000000	101.814360
2689.000000	102.893500
2690.000000	101.948820
2691.000000	101.351500
2692.000000	101.475430
2693.000000	100.919980
2694.000000	100.043440
2695.000000	100.535080
2696.000000	99.989140
2697.000000	100.086590
2698.000000	99.520430
2699.000000	99.408430
2700.000000	99.949360
2701.000000	99.746230
2702.000000	99.397770
2703.000000	99.616330
2704.000000	99.787170
2705.000000	99.211450
2706.000000	100.768640
2707.000000	99.927540
2708.000000	100.065190
2709.000000	99.354310
2710.000000	98.751930
2711.000000	98.886350
2712.000000	98.754590
2713.000000	98.619360
2714.000000	99.769130
2715.000000	100.825880
2716.000000	99.140550
2717.000000	99.530400
2718.000000	99.928400
2719.000000	99.656800
2720.000000	99.694260
2721.000000	100.359300
2722.000000	100.996320
2723.000000	101.752060
2724.000000	101.409570
2725.000000	100.372570
2726.000000	101.000600
2727.000000	101.045670
2728.000000	101.290820
2729.000000	101.044290
2730.000000	101.624940
2731.000000	100.563190
2732.000000	101.013030
2733.000000	100.172960
2734.000000	99.230250
2735.000000	99.174020
2736.000000	99.575030
2737.000000	99.572290
2738.000000	98.858740
2739.000000	99.356150
2740.000000	99.887780
2741.000000	100.882130
2742.000000	100.906720
2743.000000	101.357200
2744.000000	102.682290
2745.000000	102.380300
2746.000000	101.580620
2747.000000	101.107180
2748.000000	100.284530
2749.000000	100.159700
2750.000000	99.957630
2751.000000	100.550290
2752.000000	100.065690
2753.000000	99.935150
2754.000000	99.643260
2755.000000	100.328850
2756.000000	101.259760
2757.000000	102.102440
2758.000000	102.508040
2759.000000	102.459610
2760.000000	101.833600
2761.000000	100.703400
2762.000000	100.644400
2763.000000	99.987330
2764.000000	99.289940
2765.000000	100.035950
2766.000000	99.122030
2767.000000	98.664790
2768.000000	99.201480
2769.000000	99.512010
2770.000000	99.754260
2771.000000	99.669960
2772.000000	99.973780
2773.000000	100.439280
2774.000000	100.069830
2775.000000	100.150060
2776.000000	100.612240
2777.000000	101.094390
2778.000000	100.919830
2779.000000	101.344710
2780.000000	101.782520
2781.000000	102.053620
2782.000000	101.524540
2783.000000	101.371590
2784.000000	102.230950
2785.000000	101.576190
2786.000000	101.763510
2787.000000	101.368310
2788.000000	101.512880
2789.000000	101.982550
2790.000000	101.814060
2791.000000	102.003160
2792.000000	103.226950
2793.000000	103.660610
2794.000000	104.697880
2795.000000	105.750990
2796.000000	105.835620
2797.000000	105.547950
2798.000000	105.088000
2799.000000	104.013590
2800.000000	103.728540
2801.000000	104.127330
2802.000000	103.179000
2803.000000	102.733030
2804.000000	101.802590
2805.000000	100.056240
2806.000000	98.965730
2807.000000	98.796680
2808.000000	99.058920
2809.000000	99.153380
2810.000000	98.956520
2811.000000	98.498130
2812.000000	99.003030
2813.000000	99.106730
2814.000000	98.426770
2815.000000	99.268450
2816.000000	100.260890
2817.000000	100.725090
2818.000000	100.381700
2819.000000	100.340510
2820.000000	101.244570
2821.000000	101.676710
2822.000000	101.213200
2823.000000	101.326920
2824.000000	101.637140
2825.000000	101.584630
2826.000000	101.596070
2827.000000	101.974400
2828.000000	102.185070
2829.000000	101.796860
2830.000000	100.682830
2831.000000	100.168930
2832.000000	100.126120
2833.000000	100.144700
2834.000000	100.294750
2835.000000	100.391740
2836.000000	100.651190
2837.000000	100.429190
2838.000000	100.469320
2839.000000	100.908250
2840.000000	100.842150
2841.000000	100.608980
2842.000000	100.970140
2843.000000	101.126360
2844.000000	100.601600
2845.000000	99.983140
2846.000000	99.761570
2847.000000	100.130010
2848.000000	100.462580
2849.000000	100.243380
2850.000000	100.695840
2851.000000	101.208040
2852.000000	101.214150
2853.000000	101.458060
2854.000000	101.667010
2855.000000	101.513540
2856.000000	101.106560
2857.000000	100.610520
2858.000000	100.174480
2859.000000	99.600210
2860.000000	98.883570
2861.000000	98.527630
2862.000000	98.526290
2863.000000	98.590270
2864.000000	98.975440
2865.000000	99.854220
2866.000000	100.512700
2867.000000	100.278920
2868.000000	100.602580
2869.000000	101.559520
2870.000000	102.315630
2871.000000	102.295020
2872.000000	101.720070
2873.000000	101.268120
2874.000000	101.019500
2875.000000	100.796560
2876.000000	100.344030
2877.000000	100.702630
2878.000000	100.960180
2879.000000	100.804960
2880.000000	100.855850
2881.000000	101.176520
2882.000000	101.309140
2883.000000	101.655490
2884.000000	102.530640
2885.000000	102.450870
2886.000000	102.395810
2887.000000	102.663430
2888.000000	102.698530
2889.000000	102.864720
2890.000000	102.820530
2891.000000	102.746170
2892.000000	103.395980
2893.000000	103.428730
2894.000000	102.694280
2895.000000	102.700310
2896.000000	102.966000
2897.000000	102.612900
2898.000000	102.222050
2899.000000	102.083720
2900.000000	102.089150
2901.000000	101.995260
2902.000000	101.515130
2903.000000	101.573770
2904.000000	101.572950
2905.000000	101.166120
2906.000000	100.632770
2907.000000	101.017010
2908.000000	101.685230
2909.000000	101.662260
2910.000000	101.658920
2911.000000	101.880520
2912.000000	102.653870
2913.000000	102.342050
2914.000000	101.703640
2915.000000	101.894910
2916.000000	102.955150
2917.000000	103.136300
2918.000000	102.502950
2919.000000	103.585810
2920.000000	103.641750
2921.000000	103.409680
2922.000000	102.431160
2923.000000	102.785690
2924.000000	103.329870
2925.000000	103.959460
2926.000000	103.583790
2927.000000	103.068880
2928.000000	103.192950
2929.000000	102.742730
2930.000000	103.252640
2931.000000	103.360500
2932.000000	103.591320
2933.000000	102.598170
2934.000000	102.780270
2935.000000	102.276180
2936.000000	102.640700
2937.000000	102.596920
2938.000000	101.664110
2939.000000	100.234140
2940.000000	99.325190
2941.000000	99.254900
2942.000000	99.271920
2943.000000	100.519360
2944.000000	100.939280
2945.000000	100.594470
2946.000000	99.654010
2947.000000	99.494040
2948.000000	99.870960
2949.000000	100.508340
2950.000000	100.425260
2951.000000	100.486880
2952.000000	100.638530
2953.000000	100.393840
2954.000000	100.689830
2955.000000	101.561640
2956.000000	101.643580
2957.000000	102.580890
2958.000000	103.082150
2959.000000	103.274200
2960.000000	103.997070
2961.000000	104.151270
2962.000000	104.291080
2963.000000	103.911310
2964.000000	103.588990
2965.000000	103.148340
2966.000000	103.330170
2967.000000	102.652260
2968.000000	102.751300
2969.000000	102.183770
2970.000000	101.162840
2971.000000	101.052920
2972.000000	100.912680
2973.000000	100.625360
2974.000000	100.062340
2975.000000	100.105010
2976.000000	101.084050
2977.000000	101.570950
2978.000000	101.479420
2979.000000	101.280600
2980.000000	101.858530
2981.000000	102.109120
2982.000000	102.336140
2983.000000	102.332000
2984.000000	102.337350
2985.000000	102.332130
2986.000000	100.834530
2987.000000	100.585060
2988.000000	100.697680
2989.000000	101.212940
2990.000000	101.133400
2991.000000	101.297510
2992.000000	100.807510
2993.000000	101.341450
2994.000000	101.668540
2995.000000	100.954940
2996.000000	101.666390
2997.000000	100.836220
2998.000000	100.282590
2999.000000	100.557370
3000.000000	100.698240
