PE UV       SUBTECH     SPECTRUM    ASCII       PEDS        4.00        
   -1
INBUCR0415-4.Sample.ASC
24/02/09
12:13:28.00
24/02/09
12:13:28.00
Vinicio Soto Monge
Verde rojo iridiscente. Sin élitro izquierdo. 
250,000000
1
Lambda 1050
1050L1511233
PerkinElmer UV WinLab 6.3.2.0749 / 2.02.05 Lambda 900 UV/VIS/NIR, Aug  7 2015 09:38:08

0
0
3350/servo 860,8/2
0
0
UV/VIS
1
1
1
DoubleDePol,CommonBeamDepol,RBeamAtt,SBeamAtt,60mm sphere, WB InGaAs Detector
0
0
0
0
Program
Program
3350/servo 860,8/2
3350/0,2 860,8/0,2
3350/0,2 860,8/0,2
0
15.00
 
 
 
0
 
860,8
319,2
860,8
Front
100
on
S:100 R:100
0
0
0
0
 
0
 
 
 
0
 
 
0
0
0
0
0
 
 
 
 
0
0


0
0
#HDR
-1
-1
#GR
nm
%R
1.0
0.0
2500,000000
-1,000000
2251
8
19,341800
1,598600
#DATA

250.000000	nan
251.000000	nan
252.000000	nan
253.000000	nan
254.000000	nan
255.000000	nan
256.000000	nan
257.000000	nan
258.000000	nan
259.000000	4.923522
260.000000	4.920805
261.000000	4.918279
262.000000	4.954488
263.000000	4.952456
264.000000	4.949301
265.000000	4.947624
266.000000	4.942378
267.000000	4.938127
268.000000	4.933233
269.000000	4.890809
270.000000	4.886493
271.000000	4.881863
272.000000	4.840569
273.000000	4.837263
274.000000	4.833273
275.000000	4.829709
276.000000	4.827259
277.000000	4.824924
278.000000	4.823352
279.000000	4.821152
280.000000	4.818330
281.000000	4.816327
282.000000	4.813208
283.000000	4.811039
284.000000	4.808282
285.000000	4.805071
286.000000	4.803769
287.000000	4.802087
288.000000	4.800255
289.000000	4.797313
290.000000	4.794617
291.000000	4.792488
292.000000	4.790544
293.000000	4.788196
294.000000	4.786090
295.000000	4.783769
296.000000	4.779338
297.000000	4.774628
298.000000	4.769609
299.000000	4.766169
300.000000	4.763482
301.000000	4.760668
302.000000	4.757689
303.000000	4.754714
304.000000	4.752766
305.000000	4.750716
306.000000	4.785882
307.000000	4.784098
308.000000	4.821376
309.000000	4.856717
310.000000	4.892371
311.000000	4.928756
312.000000	4.964120
313.000000	4.998496
314.000000	5.033572
315.000000	5.068533
316.000000	5.067607
317.000000	5.136388
318.000000	5.152095
319.000000	5.167136
320.000000	5.179474
321.000000	5.187675
322.000000	5.198903
323.000000	5.210588
324.000000	5.224952
325.000000	5.232191
326.000000	5.237877
327.000000	5.214388
328.000000	5.199604
329.000000	5.184372
330.000000	5.174413
331.000000	5.166322
332.000000	5.160142
333.000000	5.145949
334.000000	5.131768
335.000000	5.125172
336.000000	5.122493
337.000000	5.109192
338.000000	5.102141
339.000000	5.103472
340.000000	5.096617
341.000000	5.091860
342.000000	5.085673
343.000000	5.086578
344.000000	5.082539
345.000000	5.079846
346.000000	5.073420
347.000000	5.074582
348.000000	5.076210
349.000000	5.069035
350.000000	5.066991
351.000000	5.064583
352.000000	5.060992
353.000000	5.056322
354.000000	5.052432
355.000000	5.048407
356.000000	5.044109
357.000000	5.039937
358.000000	5.035911
359.000000	5.030784
360.000000	5.027708
361.000000	5.021896
362.000000	5.015000
363.000000	5.011122
364.000000	5.008121
365.000000	5.003916
366.000000	4.999963
367.000000	4.994590
368.000000	4.988832
369.000000	4.983643
370.000000	4.976311
371.000000	4.971006
372.000000	4.965300
373.000000	4.959428
374.000000	4.951843
375.000000	4.944405
376.000000	4.936061
377.000000	4.920794
378.000000	4.904368
379.000000	4.891786
380.000000	4.879931
381.000000	4.867844
382.000000	4.856117
383.000000	4.844301
384.000000	4.834006
385.000000	4.823377
386.000000	4.813859
387.000000	4.811952
388.000000	4.810225
389.000000	4.808421
390.000000	4.806539
391.000000	4.805429
392.000000	4.804369
393.000000	4.803159
394.000000	4.801005
395.000000	4.799125
396.000000	4.797887
397.000000	4.796778
398.000000	4.796021
399.000000	4.795191
400.000000	4.793959
401.000000	4.792529
402.000000	4.791466
403.000000	4.790248
404.000000	4.789492
405.000000	4.789031
406.000000	4.788236
407.000000	4.787333
408.000000	4.786191
409.000000	4.784947
410.000000	4.784107
411.000000	4.783426
412.000000	4.782418
413.000000	4.781519
414.000000	4.780674
415.000000	4.779953
416.000000	4.779195
417.000000	4.778542
418.000000	4.777956
419.000000	4.777321
420.000000	4.776525
421.000000	4.775931
422.000000	4.775445
423.000000	4.774694
424.000000	4.774033
425.000000	4.773157
426.000000	4.772361
427.000000	4.771380
428.000000	4.770384
429.000000	4.769654
430.000000	4.769123
431.000000	4.768410
432.000000	4.767691
433.000000	4.767232
434.000000	4.766782
435.000000	4.766243
436.000000	4.765817
437.000000	4.765567
438.000000	4.765416
439.000000	4.765196
440.000000	4.764926
441.000000	4.764560
442.000000	4.764238
443.000000	4.763780
444.000000	4.763198
445.000000	4.762760
446.000000	4.762310
447.000000	4.762092
448.000000	4.761975
449.000000	4.761873
450.000000	4.761790
451.000000	4.761987
452.000000	4.762176
453.000000	4.762291
454.000000	4.762652
455.000000	4.763045
456.000000	4.763349
457.000000	4.763533
458.000000	4.763729
459.000000	4.763920
460.000000	4.764047
461.000000	4.764102
462.000000	4.764260
463.000000	4.764547
464.000000	4.764848
465.000000	4.765223
466.000000	4.765696
467.000000	4.766156
468.000000	4.766570
469.000000	4.767133
470.000000	4.767849
471.000000	4.768269
472.000000	4.768545
473.000000	4.768720
474.000000	4.768863
475.000000	4.768888
476.000000	4.768689
477.000000	4.768458
478.000000	4.768258
479.000000	4.767749
480.000000	4.766772
481.000000	4.765497
482.000000	4.763876
483.000000	4.762437
484.000000	4.761017
485.000000	4.759884
486.000000	4.759262
487.000000	4.759094
488.000000	4.759311
489.000000	4.759969
490.000000	4.761411
491.000000	4.763668
492.000000	4.766429
493.000000	4.769475
494.000000	4.772849
495.000000	4.776443
496.000000	4.780226
497.000000	4.783841
498.000000	4.787253
499.000000	4.790833
500.000000	4.794308
501.000000	4.797812
502.000000	4.801667
503.000000	4.842982
504.000000	4.884006
505.000000	4.925006
506.000000	4.965699
507.000000	5.006330
508.000000	5.047068
509.000000	5.087587
510.000000	5.127752
511.000000	5.167828
512.000000	5.207451
513.000000	5.209434
514.000000	5.211315
515.000000	5.212660
516.000000	5.213758
517.000000	5.177446
518.000000	5.140814
519.000000	5.103958
520.000000	5.067170
521.000000	5.030401
522.000000	4.993551
523.000000	4.956627
524.000000	4.919984
525.000000	4.883622
526.000000	4.847570
527.000000	4.848898
528.000000	4.850628
529.000000	4.852663
530.000000	4.855063
531.000000	4.857297
532.000000	4.860099
533.000000	4.863086
534.000000	4.866097
535.000000	4.869364
536.000000	4.872699
537.000000	4.876578
538.000000	4.918020
539.000000	4.959567
540.000000	5.001256
541.000000	5.043372
542.000000	5.085217
543.000000	5.127683
544.000000	5.170198
545.000000	5.212738
546.000000	5.255621
547.000000	5.298545
548.000000	5.303981
549.000000	5.309613
550.000000	5.315117
551.000000	5.320930
552.000000	5.327241
553.000000	5.333500
554.000000	5.340227
555.000000	5.347204
556.000000	5.354497
557.000000	5.361904
558.000000	5.369845
559.000000	5.378358
560.000000	5.385368
561.000000	5.392305
562.000000	5.400097
563.000000	5.408931
564.000000	5.419144
565.000000	5.430776
566.000000	5.444140
567.000000	5.459468
568.000000	5.476568
569.000000	5.495989
570.000000	5.520412
571.000000	5.547980
572.000000	5.578215
573.000000	5.611613
574.000000	5.685760
575.000000	5.763707
576.000000	5.846030
577.000000	5.933523
578.000000	6.026628
579.000000	6.125901
580.000000	6.232468
581.000000	6.346813
582.000000	6.470740
583.000000	6.604649
584.000000	6.712232
585.000000	6.868939
586.000000	7.037302
587.000000	7.217453
588.000000	7.408928
589.000000	7.611716
590.000000	7.823579
591.000000	8.042923
592.000000	8.303689
593.000000	8.565977
594.000000	8.826051
595.000000	9.043295
596.000000	9.250184
597.000000	9.443265
598.000000	9.656969
599.000000	9.849865
600.000000	10.019860
601.000000	10.164583
602.000000	10.245016
603.000000	10.297690
604.000000	10.323232
605.000000	10.358869
606.000000	10.370880
607.000000	10.359115
608.000000	10.290406
609.000000	10.203387
610.000000	10.101015
611.000000	9.986745
612.000000	9.901635
613.000000	9.811022
614.000000	9.716980
615.000000	9.586106
616.000000	9.457120
617.000000	9.371362
618.000000	9.291643
619.000000	9.220592
620.000000	9.159727
621.000000	9.147350
622.000000	9.109360
623.000000	9.082970
624.000000	9.068038
625.000000	9.101183
626.000000	9.143970
627.000000	9.157569
628.000000	9.177840
629.000000	9.203693
630.000000	9.233548
631.000000	9.229907
632.000000	9.228445
633.000000	9.229645
634.000000	9.233556
635.000000	9.201663
636.000000	9.134514
637.000000	9.069876
638.000000	9.008114
639.000000	8.911645
640.000000	8.817679
641.000000	8.725551
642.000000	8.598406
643.000000	8.472584
644.000000	8.309959
645.000000	8.148286
646.000000	8.025022
647.000000	7.864788
648.000000	7.704975
649.000000	7.583098
650.000000	7.424418
651.000000	7.266377
652.000000	7.146102
653.000000	6.988955
654.000000	6.870031
655.000000	6.752245
656.000000	6.634510
657.000000	6.554406
658.000000	6.474169
659.000000	6.357022
660.000000	6.277469
661.000000	6.198316
662.000000	6.119041
663.000000	6.077392
664.000000	6.036232
665.000000	5.995067
666.000000	5.954199
667.000000	5.913926
668.000000	5.874553
669.000000	5.872381
670.000000	5.870824
671.000000	5.869146
672.000000	5.868637
673.000000	5.867941
674.000000	5.867400
675.000000	5.866978
676.000000	5.866798
677.000000	5.829209
678.000000	5.791585
679.000000	5.754440
680.000000	5.717476
681.000000	5.680783
682.000000	5.643548
683.000000	5.607278
684.000000	5.571033
685.000000	5.535181
686.000000	5.499411
687.000000	5.500992
688.000000	5.502889
689.000000	5.505152
690.000000	5.507233
691.000000	5.509395
692.000000	5.511807
693.000000	5.514292
694.000000	5.517101
695.000000	5.519960
696.000000	5.522791
697.000000	5.526103
698.000000	5.529583
699.000000	5.532890
700.000000	5.536363
701.000000	5.540297
702.000000	5.544250
703.000000	5.548318
704.000000	5.552397
705.000000	5.556100
706.000000	5.559964
707.000000	5.564029
708.000000	5.568196
709.000000	5.572567
710.000000	5.577098
711.000000	5.581827
712.000000	5.586841
713.000000	5.591639
714.000000	5.596444
715.000000	5.601767
716.000000	5.607298
717.000000	5.612942
718.000000	5.655783
719.000000	5.698701
720.000000	5.741983
721.000000	5.785228
722.000000	5.828427
723.000000	5.871613
724.000000	5.915179
725.000000	5.959109
726.000000	6.003219
727.000000	6.047292
728.000000	6.054270
729.000000	6.061113
730.000000	6.067864
731.000000	6.074555
732.000000	6.081379
733.000000	6.088758
734.000000	6.096085
735.000000	6.103126
736.000000	6.110205
737.000000	6.117742
738.000000	6.125339
739.000000	6.133058
740.000000	6.141237
741.000000	6.149918
742.000000	6.158547
743.000000	6.167020
744.000000	6.175261
745.000000	6.183576
746.000000	6.192221
747.000000	6.200768
748.000000	6.209336
749.000000	6.218570
750.000000	6.227821
751.000000	6.236491
752.000000	6.245823
753.000000	6.255886
754.000000	6.266656
755.000000	6.277742
756.000000	6.288318
757.000000	6.298717
758.000000	6.309641
759.000000	6.319877
760.000000	6.367380
761.000000	6.416038
762.000000	6.464759
763.000000	6.512267
764.000000	6.559552
765.000000	6.607587
766.000000	6.656690
767.000000	6.705425
768.000000	6.753173
769.000000	6.801571
770.000000	6.813028
771.000000	6.824287
772.000000	6.835157
773.000000	6.846592
774.000000	6.858713
775.000000	6.870792
776.000000	6.882011
777.000000	6.894350
778.000000	6.907598
779.000000	6.920990
780.000000	6.933970
781.000000	6.946734
782.000000	6.959883
783.000000	6.973998
784.000000	6.988296
785.000000	7.000942
786.000000	7.014826
787.000000	7.066256
788.000000	7.117550
789.000000	7.169110
790.000000	7.221371
791.000000	7.272760
792.000000	7.324399
793.000000	7.376331
794.000000	7.427961
795.000000	7.480641
796.000000	7.533011
797.000000	7.547494
798.000000	7.561795
799.000000	7.575323
800.000000	7.588589
801.000000	7.603665
802.000000	7.619090
803.000000	7.634653
804.000000	7.649948
805.000000	7.666372
806.000000	7.682201
807.000000	7.698505
808.000000	7.717057
809.000000	7.735693
810.000000	7.753928
811.000000	7.808375
812.000000	7.862390
813.000000	7.915154
814.000000	7.969463
815.000000	8.024147
816.000000	8.078860
817.000000	8.133498
818.000000	8.186572
819.000000	8.240978
820.000000	8.296254
821.000000	8.312954
822.000000	8.329551
823.000000	8.347158
824.000000	8.362917
825.000000	8.378466
826.000000	8.395228
827.000000	8.410067
828.000000	8.423923
829.000000	8.437662
830.000000	8.452152
831.000000	8.468102
832.000000	8.522403
833.000000	8.575294
834.000000	8.628830
835.000000	8.681799
836.000000	8.731806
837.000000	8.785904
838.000000	8.841614
839.000000	8.894695
840.000000	8.945290
841.000000	8.996370
842.000000	9.007992
843.000000	9.022208
844.000000	9.037043
845.000000	9.051194
846.000000	9.066685
847.000000	9.077885
848.000000	9.091656
849.000000	9.107993
850.000000	9.119883
851.000000	9.132934
852.000000	9.147393
853.000000	9.159315
854.000000	9.173003
855.000000	9.180637
856.000000	9.226523
857.000000	9.283520
858.000000	9.710735
859.000000	9.780601
860.000000	9.856798
861.000000	9.932783
862.000000	10.035162
863.000000	10.114274
864.000000	10.192438
865.000000	10.251468
866.000000	10.298808
867.000000	10.288070
868.000000	9.930285
869.000000	9.928887
870.000000	9.927510
871.000000	9.924898
872.000000	9.897333
873.000000	9.869000
874.000000	9.839150
875.000000	9.836685
876.000000	9.807418
877.000000	9.828503
878.000000	9.822767
879.000000	9.817550
880.000000	9.786895
881.000000	9.757090
882.000000	9.727290
883.000000	9.722840
884.000000	9.717622
885.000000	9.686320
886.000000	9.656650
887.000000	9.651143
888.000000	9.646812
889.000000	9.642210
890.000000	9.663375
891.000000	9.683765
892.000000	9.702408
893.000000	9.721900
894.000000	9.743250
895.000000	9.789067
896.000000	9.835205
897.000000	9.831200
898.000000	9.827743
899.000000	9.825318
900.000000	9.821713
901.000000	9.819498
902.000000	9.818560
903.000000	9.816892
904.000000	9.815228
905.000000	9.813627
906.000000	9.813220
907.000000	9.837453
908.000000	9.861415
909.000000	9.884225
910.000000	9.908400
911.000000	9.933027
912.000000	9.956408
913.000000	9.981580
914.000000	10.005855
915.000000	10.031195
916.000000	10.055165
917.000000	10.080147
918.000000	10.104347
919.000000	10.130130
920.000000	10.155438
921.000000	10.180718
922.000000	10.206817
923.000000	10.230168
924.000000	10.253897
925.000000	10.277972
926.000000	10.301980
927.000000	10.325582
928.000000	10.348733
929.000000	10.371280
930.000000	10.394127
931.000000	10.416197
932.000000	10.439262
933.000000	10.462428
934.000000	10.486437
935.000000	10.509488
936.000000	10.533363
937.000000	10.557303
938.000000	10.581355
939.000000	10.606428
940.000000	10.630393
941.000000	10.654140
942.000000	10.676047
943.000000	10.700257
944.000000	10.723065
945.000000	10.745955
946.000000	10.767820
947.000000	10.789710
948.000000	10.836902
949.000000	10.883642
950.000000	10.931772
951.000000	10.979162
952.000000	11.026808
953.000000	11.073680
954.000000	11.121350
955.000000	11.168400
956.000000	11.216585
957.000000	11.265047
958.000000	11.288398
959.000000	11.311080
960.000000	11.333048
961.000000	11.356542
962.000000	11.380043
963.000000	11.402120
964.000000	11.425160
965.000000	11.447612
966.000000	11.469243
967.000000	11.490647
968.000000	11.512692
969.000000	11.534672
970.000000	11.556592
971.000000	11.577390
972.000000	11.623997
973.000000	11.646480
974.000000	11.667620
975.000000	11.714175
976.000000	11.760952
977.000000	11.807987
978.000000	11.854832
979.000000	11.901768
980.000000	11.948740
981.000000	11.995210
982.000000	12.016060
983.000000	12.062397
984.000000	12.109108
985.000000	12.131755
986.000000	12.153627
987.000000	12.174077
988.000000	12.194945
989.000000	12.216205
990.000000	12.237512
991.000000	12.259385
992.000000	12.281927
993.000000	12.302855
994.000000	12.323800
995.000000	12.370370
996.000000	12.416818
997.000000	12.463962
998.000000	12.510638
999.000000	12.556887
1000.000000	12.603497
1001.000000	12.650010
1002.000000	12.695710
1003.000000	12.742510
1004.000000	12.788735
1005.000000	12.808382
1006.000000	12.828442
1007.000000	12.848800
1008.000000	12.869013
1009.000000	12.889333
1010.000000	12.909030
1011.000000	12.928473
1012.000000	12.948060
1013.000000	12.967830
1014.000000	12.988148
1015.000000	13.034377
1016.000000	13.080687
1017.000000	13.126797
1018.000000	13.173100
1019.000000	13.219252
1020.000000	13.265505
1021.000000	13.311677
1022.000000	13.358183
1023.000000	13.404177
1024.000000	13.449727
1025.000000	13.470313
1026.000000	13.490525
1027.000000	13.510422
1028.000000	13.530053
1029.000000	13.549620
1030.000000	13.570125
1031.000000	13.591025
1032.000000	13.611480
1033.000000	13.632520
1034.000000	13.653342
1035.000000	13.698182
1036.000000	13.743377
1037.000000	13.789920
1038.000000	13.836482
1039.000000	13.882095
1040.000000	13.927040
1041.000000	13.971565
1042.000000	14.016220
1043.000000	14.060588
1044.000000	14.105142
1045.000000	14.125430
1046.000000	14.145800
1047.000000	14.164300
1048.000000	14.182735
1049.000000	14.202475
1050.000000	14.221905
1051.000000	14.241565
1052.000000	14.261475
1053.000000	14.306190
1054.000000	14.350480
1055.000000	14.394393
1056.000000	14.438370
1057.000000	14.482608
1058.000000	14.526975
1059.000000	14.571617
1060.000000	14.616380
1061.000000	14.661562
1062.000000	14.706355
1063.000000	14.725655
1064.000000	14.744922
1065.000000	14.764442
1066.000000	14.783027
1067.000000	14.801912
1068.000000	14.821815
1069.000000	14.841505
1070.000000	14.861180
1071.000000	14.904580
1072.000000	14.948418
1073.000000	14.993173
1074.000000	15.038655
1075.000000	15.083558
1076.000000	15.128560
1077.000000	15.173785
1078.000000	15.217398
1079.000000	15.260605
1080.000000	15.303712
1081.000000	15.322310
1082.000000	15.341435
1083.000000	15.359325
1084.000000	15.376790
1085.000000	15.394567
1086.000000	15.412938
1087.000000	15.431332
1088.000000	15.449642
1089.000000	15.468175
1090.000000	15.511323
1091.000000	15.554583
1092.000000	15.597722
1093.000000	15.640985
1094.000000	15.684155
1095.000000	15.727998
1096.000000	15.771907
1097.000000	15.814220
1098.000000	15.857625
1099.000000	15.900108
1100.000000	15.917645
1101.000000	15.935673
1102.000000	15.952243
1103.000000	15.969518
1104.000000	15.987172
1105.000000	16.003860
1106.000000	16.019525
1107.000000	16.036918
1108.000000	16.053795
1109.000000	16.070790
1110.000000	16.087470
1111.000000	16.129393
1112.000000	16.171298
1113.000000	16.212422
1114.000000	16.252643
1115.000000	16.292837
1116.000000	16.334245
1117.000000	16.374830
1118.000000	16.414960
1119.000000	16.455163
1120.000000	16.495405
1121.000000	16.510235
1122.000000	16.526623
1123.000000	16.542875
1124.000000	16.559000
1125.000000	16.574283
1126.000000	16.589347
1127.000000	16.604710
1128.000000	16.619735
1129.000000	16.634625
1130.000000	16.648920
1131.000000	16.659982
1132.000000	16.667935
1133.000000	16.677040
1134.000000	16.688995
1135.000000	16.701660
1136.000000	16.713015
1137.000000	16.722725
1138.000000	16.732067
1139.000000	16.741402
1140.000000	16.751632
1141.000000	16.762665
1142.000000	16.775490
1143.000000	16.786538
1144.000000	16.796035
1145.000000	16.806090
1146.000000	16.841507
1147.000000	16.853082
1148.000000	16.864840
1149.000000	16.901240
1150.000000	16.936438
1151.000000	16.972900
1152.000000	17.010850
1153.000000	17.048645
1154.000000	17.085505
1155.000000	17.120332
1156.000000	17.129342
1157.000000	17.161818
1158.000000	17.194358
1159.000000	17.200567
1160.000000	17.207210
1161.000000	17.212670
1162.000000	17.214950
1163.000000	17.217813
1164.000000	17.218045
1165.000000	17.218653
1166.000000	17.218310
1167.000000	17.218995
1168.000000	17.220100
1169.000000	17.222117
1170.000000	17.222933
1171.000000	17.224515
1172.000000	17.227228
1173.000000	17.229717
1174.000000	17.234560
1175.000000	17.239548
1176.000000	17.246770
1177.000000	17.253567
1178.000000	17.260043
1179.000000	17.266787
1180.000000	17.273470
1181.000000	17.281415
1182.000000	17.290508
1183.000000	17.300082
1184.000000	17.309508
1185.000000	17.319762
1186.000000	17.329817
1187.000000	17.341028
1188.000000	17.351980
1189.000000	17.363830
1190.000000	17.377185
1191.000000	17.390223
1192.000000	17.404040
1193.000000	17.418775
1194.000000	17.435133
1195.000000	17.451605
1196.000000	17.468505
1197.000000	17.484527
1198.000000	17.501985
1199.000000	17.519092
1200.000000	17.561900
1201.000000	17.604418
1202.000000	17.645977
1203.000000	17.687295
1204.000000	17.726745
1205.000000	17.767262
1206.000000	17.807472
1207.000000	17.847927
1208.000000	17.888732
1209.000000	17.929818
1210.000000	17.945038
1211.000000	17.960572
1212.000000	17.975223
1213.000000	17.990783
1214.000000	18.006805
1215.000000	18.022143
1216.000000	18.037273
1217.000000	18.052855
1218.000000	18.067612
1219.000000	18.081177
1220.000000	18.095433
1221.000000	18.109133
1222.000000	18.147692
1223.000000	18.185160
1224.000000	18.222747
1225.000000	18.259570
1226.000000	18.296150
1227.000000	18.332900
1228.000000	18.368905
1229.000000	18.406005
1230.000000	18.442232
1231.000000	18.477083
1232.000000	18.486483
1233.000000	18.496130
1234.000000	18.505213
1235.000000	18.513530
1236.000000	18.521630
1237.000000	18.529640
1238.000000	18.537478
1239.000000	18.545855
1240.000000	18.553972
1241.000000	18.563290
1242.000000	18.573260
1243.000000	18.581645
1244.000000	18.591195
1245.000000	18.601420
1246.000000	18.612642
1247.000000	18.649170
1248.000000	18.686853
1249.000000	18.724750
1250.000000	18.763280
1251.000000	18.801748
1252.000000	18.840680
1253.000000	18.881025
1254.000000	18.921320
1255.000000	18.961468
1256.000000	19.000802
1257.000000	19.014990
1258.000000	19.028078
1259.000000	19.040395
1260.000000	19.053193
1261.000000	19.066080
1262.000000	19.078585
1263.000000	19.090395
1264.000000	19.101630
1265.000000	19.113660
1266.000000	19.126097
1267.000000	19.137035
1268.000000	19.148045
1269.000000	19.158423
1270.000000	19.168052
1271.000000	19.177650
1272.000000	19.187300
1273.000000	19.196972
1274.000000	19.231203
1275.000000	19.264312
1276.000000	19.296215
1277.000000	19.329280
1278.000000	19.362468
1279.000000	19.395418
1280.000000	19.428298
1281.000000	19.461880
1282.000000	19.495637
1283.000000	19.528900
1284.000000	19.536857
1285.000000	19.544800
1286.000000	19.554108
1287.000000	19.563673
1288.000000	19.572567
1289.000000	19.582110
1290.000000	19.592402
1291.000000	19.602825
1292.000000	19.612903
1293.000000	19.623133
1294.000000	19.634453
1295.000000	19.646467
1296.000000	19.658558
1297.000000	19.670635
1298.000000	19.682108
1299.000000	19.693200
1300.000000	19.703402
1301.000000	19.712665
1302.000000	19.722055
1303.000000	19.731338
1304.000000	19.740620
1305.000000	19.750153
1306.000000	19.757730
1307.000000	19.763765
1308.000000	19.770595
1309.000000	19.776453
1310.000000	19.782175
1311.000000	19.787838
1312.000000	19.792473
1313.000000	19.821582
1314.000000	19.848710
1315.000000	19.873957
1316.000000	19.900195
1317.000000	19.926635
1318.000000	19.952018
1319.000000	19.977365
1320.000000	20.002068
1321.000000	20.025910
1322.000000	20.024330
1323.000000	19.998090
1324.000000	19.972310
1325.000000	19.945698
1326.000000	19.917728
1327.000000	19.889630
1328.000000	19.861697
1329.000000	19.832842
1330.000000	19.803715
1331.000000	19.774817
1332.000000	19.769680
1333.000000	19.762945
1334.000000	19.755498
1335.000000	19.748575
1336.000000	19.741265
1337.000000	19.732837
1338.000000	19.723495
1339.000000	19.714765
1340.000000	19.705225
1341.000000	19.692893
1342.000000	19.680578
1343.000000	19.668325
1344.000000	19.654762
1345.000000	19.638550
1346.000000	19.621173
1347.000000	19.604622
1348.000000	19.588365
1349.000000	19.543160
1350.000000	19.495258
1351.000000	19.448277
1352.000000	19.400578
1353.000000	19.352755
1354.000000	19.308008
1355.000000	19.266992
1356.000000	19.226577
1357.000000	19.184070
1358.000000	19.140087
1359.000000	19.120855
1360.000000	19.107295
1361.000000	19.101280
1362.000000	19.071842
1363.000000	19.040958
1364.000000	19.009473
1365.000000	18.975483
1366.000000	18.937490
1367.000000	18.901982
1368.000000	18.865682
1369.000000	18.801610
1370.000000	18.732815
1371.000000	18.655062
1372.000000	18.595192
1373.000000	18.527530
1374.000000	18.448385
1375.000000	18.337910
1376.000000	18.221750
1377.000000	18.096458
1378.000000	17.961980
1379.000000	17.851157
1380.000000	17.738260
1381.000000	17.605835
1382.000000	17.480990
1383.000000	17.366165
1384.000000	17.258085
1385.000000	17.181608
1386.000000	17.113982
1387.000000	17.059360
1388.000000	17.018225
1389.000000	16.958535
1390.000000	16.899302
1391.000000	16.866377
1392.000000	16.836390
1393.000000	16.804880
1394.000000	16.778095
1395.000000	16.762152
1396.000000	16.750393
1397.000000	16.727165
1398.000000	16.696075
1399.000000	16.695013
1400.000000	16.707628
1401.000000	16.713313
1402.000000	16.706567
1403.000000	16.697000
1404.000000	16.662515
1405.000000	16.616670
1406.000000	16.564930
1407.000000	16.518422
1408.000000	16.476638
1409.000000	16.429015
1410.000000	16.366772
1411.000000	16.301403
1412.000000	16.215230
1413.000000	16.133702
1414.000000	16.076285
1415.000000	16.015228
1416.000000	15.951168
1417.000000	15.886800
1418.000000	15.823937
1419.000000	15.762930
1420.000000	15.703040
1421.000000	15.619190
1422.000000	15.563888
1423.000000	15.507923
1424.000000	15.449075
1425.000000	15.391412
1426.000000	15.339400
1427.000000	15.288433
1428.000000	15.235672
1429.000000	15.180875
1430.000000	15.127747
1431.000000	15.105562
1432.000000	15.084160
1433.000000	15.036545
1434.000000	14.989365
1435.000000	14.944795
1436.000000	14.899273
1437.000000	14.855430
1438.000000	14.813888
1439.000000	14.772890
1440.000000	14.733263
1441.000000	14.692715
1442.000000	14.652162
1443.000000	14.636002
1444.000000	14.621508
1445.000000	14.611275
1446.000000	14.602377
1447.000000	14.589970
1448.000000	14.574603
1449.000000	14.561607
1450.000000	14.551327
1451.000000	14.515948
1452.000000	14.478920
1453.000000	14.443138
1454.000000	14.406770
1455.000000	14.367547
1456.000000	14.328590
1457.000000	14.291575
1458.000000	14.254725
1459.000000	14.217243
1460.000000	14.176798
1461.000000	14.160882
1462.000000	14.146675
1463.000000	14.132088
1464.000000	14.116858
1465.000000	14.101575
1466.000000	14.086945
1467.000000	14.071860
1468.000000	14.057323
1469.000000	14.043325
1470.000000	14.030532
1471.000000	14.017675
1472.000000	13.979432
1473.000000	13.941917
1474.000000	13.905030
1475.000000	13.867282
1476.000000	13.829220
1477.000000	13.793065
1478.000000	13.757795
1479.000000	13.721795
1480.000000	13.686283
1481.000000	13.652787
1482.000000	13.645642
1483.000000	13.639197
1484.000000	13.633010
1485.000000	13.628840
1486.000000	13.625835
1487.000000	13.622573
1488.000000	13.619520
1489.000000	13.617615
1490.000000	13.615678
1491.000000	13.612405
1492.000000	13.609460
1493.000000	13.607560
1494.000000	13.607617
1495.000000	13.608380
1496.000000	13.609120
1497.000000	13.610295
1498.000000	13.613460
1499.000000	13.617660
1500.000000	13.622413
1501.000000	13.629378
1502.000000	13.637510
1503.000000	13.646735
1504.000000	13.656948
1505.000000	13.667582
1506.000000	13.680120
1507.000000	13.694070
1508.000000	13.733788
1509.000000	13.775207
1510.000000	13.817953
1511.000000	13.859773
1512.000000	13.901677
1513.000000	13.943468
1514.000000	13.985080
1515.000000	14.026592
1516.000000	14.067180
1517.000000	14.108578
1518.000000	14.125483
1519.000000	14.140820
1520.000000	14.155565
1521.000000	14.170988
1522.000000	14.186438
1523.000000	14.202063
1524.000000	14.217343
1525.000000	14.232542
1526.000000	14.247470
1527.000000	14.261003
1528.000000	14.273442
1529.000000	14.286302
1530.000000	14.298925
1531.000000	14.311018
1532.000000	14.347658
1533.000000	14.383172
1534.000000	14.418975
1535.000000	14.455590
1536.000000	14.491185
1537.000000	14.526712
1538.000000	14.561007
1539.000000	14.593690
1540.000000	14.626170
1541.000000	14.658415
1542.000000	14.665605
1543.000000	14.673368
1544.000000	14.680740
1545.000000	14.686492
1546.000000	14.692975
1547.000000	14.700020
1548.000000	14.708530
1549.000000	14.719202
1550.000000	14.729895
1551.000000	14.740835
1552.000000	14.753040
1553.000000	14.764720
1554.000000	14.776233
1555.000000	14.788552
1556.000000	14.800700
1557.000000	14.812207
1558.000000	14.822672
1559.000000	14.830832
1560.000000	14.837922
1561.000000	14.843790
1562.000000	14.846810
1563.000000	14.848980
1564.000000	14.850463
1565.000000	14.850393
1566.000000	14.848752
1567.000000	14.845560
1568.000000	14.841800
1569.000000	14.837430
1570.000000	14.832982
1571.000000	14.829115
1572.000000	14.825343
1573.000000	14.821442
1574.000000	14.817483
1575.000000	14.813395
1576.000000	14.810303
1577.000000	14.808325
1578.000000	14.806838
1579.000000	14.806335
1580.000000	14.806510
1581.000000	14.806585
1582.000000	14.832600
1583.000000	14.860230
1584.000000	14.888570
1585.000000	14.918245
1586.000000	14.948935
1587.000000	14.980490
1588.000000	15.013375
1589.000000	15.047075
1590.000000	15.080547
1591.000000	15.113987
1592.000000	15.123605
1593.000000	15.132938
1594.000000	15.142540
1595.000000	15.152560
1596.000000	15.163050
1597.000000	15.173997
1598.000000	15.185053
1599.000000	15.195697
1600.000000	15.207463
1601.000000	15.221190
1602.000000	15.234640
1603.000000	15.248627
1604.000000	15.262667
1605.000000	15.277100
1606.000000	15.316985
1607.000000	15.355842
1608.000000	15.393600
1609.000000	15.431588
1610.000000	15.469383
1611.000000	15.506275
1612.000000	15.542753
1613.000000	15.577108
1614.000000	15.611480
1615.000000	15.645657
1616.000000	15.654188
1617.000000	15.661788
1618.000000	15.668690
1619.000000	15.676102
1620.000000	15.682830
1621.000000	15.688070
1622.000000	15.693662
1623.000000	15.700535
1624.000000	15.706945
1625.000000	15.712915
1626.000000	15.718545
1627.000000	15.725275
1628.000000	15.732308
1629.000000	15.738330
1630.000000	15.744180
1631.000000	15.751330
1632.000000	15.757880
1633.000000	15.764002
1634.000000	15.769822
1635.000000	15.774627
1636.000000	15.779015
1637.000000	15.783000
1638.000000	15.786765
1639.000000	15.790045
1640.000000	15.793440
1641.000000	15.795430
1642.000000	15.797570
1643.000000	15.799115
1644.000000	15.800935
1645.000000	15.801660
1646.000000	15.801960
1647.000000	15.802283
1648.000000	15.803065
1649.000000	15.802845
1650.000000	15.802125
1651.000000	15.801145
1652.000000	15.798858
1653.000000	15.795630
1654.000000	15.790302
1655.000000	15.785497
1656.000000	15.778747
1657.000000	15.770297
1658.000000	15.759730
1659.000000	15.747855
1660.000000	15.734045
1661.000000	15.718070
1662.000000	15.699460
1663.000000	15.678680
1664.000000	15.655072
1665.000000	15.629392
1666.000000	15.577318
1667.000000	15.522677
1668.000000	15.462492
1669.000000	15.401050
1670.000000	15.338550
1671.000000	15.273850
1672.000000	15.209040
1673.000000	15.144088
1674.000000	15.080333
1675.000000	14.989878
1676.000000	14.924502
1677.000000	14.858485
1678.000000	14.795035
1679.000000	14.730972
1680.000000	14.664783
1681.000000	14.598730
1682.000000	14.530337
1683.000000	14.460528
1684.000000	14.390460
1685.000000	14.347285
1686.000000	14.278842
1687.000000	14.214365
1688.000000	14.154972
1689.000000	14.102175
1690.000000	14.056113
1691.000000	14.017010
1692.000000	13.985887
1693.000000	13.960925
1694.000000	13.942092
1695.000000	13.926555
1696.000000	13.939452
1697.000000	13.953695
1698.000000	13.967350
1699.000000	13.978868
1700.000000	13.987830
1701.000000	13.994948
1702.000000	13.998210
1703.000000	13.999655
1704.000000	13.997425
1705.000000	13.993668
1706.000000	13.987208
1707.000000	13.977222
1708.000000	13.965425
1709.000000	13.949013
1710.000000	13.931415
1711.000000	13.884347
1712.000000	13.834945
1713.000000	13.781828
1714.000000	13.725957
1715.000000	13.664982
1716.000000	13.601455
1717.000000	13.536312
1718.000000	13.468435
1719.000000	13.399980
1720.000000	13.330795
1721.000000	13.288543
1722.000000	13.249470
1723.000000	13.214680
1724.000000	13.183722
1725.000000	13.159750
1726.000000	13.141942
1727.000000	13.129975
1728.000000	13.123978
1729.000000	13.125522
1730.000000	13.132210
1731.000000	13.143007
1732.000000	13.156615
1733.000000	13.172393
1734.000000	13.190320
1735.000000	13.208655
1736.000000	13.228750
1737.000000	13.250238
1738.000000	13.272858
1739.000000	13.294900
1740.000000	13.318720
1741.000000	13.342747
1742.000000	13.367077
1743.000000	13.391837
1744.000000	13.416438
1745.000000	13.441458
1746.000000	13.490842
1747.000000	13.538815
1748.000000	13.584905
1749.000000	13.629215
1750.000000	13.670640
1751.000000	13.711183
1752.000000	13.749715
1753.000000	13.785593
1754.000000	13.819450
1755.000000	13.850743
1756.000000	13.855205
1757.000000	13.859678
1758.000000	13.863758
1759.000000	13.867950
1760.000000	13.869355
1761.000000	13.870347
1762.000000	13.872022
1763.000000	13.874357
1764.000000	13.877937
1765.000000	13.882863
1766.000000	13.888910
1767.000000	13.895307
1768.000000	13.902758
1769.000000	13.911392
1770.000000	13.923678
1771.000000	13.935950
1772.000000	13.947973
1773.000000	13.961140
1774.000000	13.974947
1775.000000	13.989853
1776.000000	14.005025
1777.000000	14.019775
1778.000000	14.035062
1779.000000	14.050982
1780.000000	14.066440
1781.000000	14.081552
1782.000000	14.096070
1783.000000	14.108980
1784.000000	14.120875
1785.000000	14.157065
1786.000000	14.192222
1787.000000	14.225547
1788.000000	14.256783
1789.000000	14.285340
1790.000000	14.312393
1791.000000	14.339840
1792.000000	14.367757
1793.000000	14.397080
1794.000000	14.426315
1795.000000	14.429697
1796.000000	14.432340
1797.000000	14.435723
1798.000000	14.438937
1799.000000	14.442412
1800.000000	14.447940
1801.000000	14.454697
1802.000000	14.460553
1803.000000	14.463865
1804.000000	14.466205
1805.000000	14.470218
1806.000000	14.476725
1807.000000	14.483935
1808.000000	14.489480
1809.000000	14.493573
1810.000000	14.497675
1811.000000	14.503023
1812.000000	14.508950
1813.000000	14.514473
1814.000000	14.520253
1815.000000	14.525588
1816.000000	14.527293
1817.000000	14.523173
1818.000000	14.517260
1819.000000	14.515892
1820.000000	14.521467
1821.000000	14.530895
1822.000000	14.537763
1823.000000	14.537957
1824.000000	14.532420
1825.000000	14.524677
1826.000000	14.520143
1827.000000	14.523563
1828.000000	14.532815
1829.000000	14.540733
1830.000000	14.543102
1831.000000	14.563707
1832.000000	14.582748
1833.000000	14.604430
1834.000000	14.628685
1835.000000	14.656023
1836.000000	14.687750
1837.000000	14.720102
1838.000000	14.750570
1839.000000	14.781582
1840.000000	14.814603
1841.000000	14.830275
1842.000000	14.852365
1843.000000	14.871850
1844.000000	14.881908
1845.000000	14.882340
1846.000000	14.881755
1847.000000	14.892075
1848.000000	14.913250
1849.000000	14.931438
1850.000000	14.935163
1851.000000	14.924380
1852.000000	14.910727
1853.000000	14.906368
1854.000000	14.917173
1855.000000	14.935540
1856.000000	14.943797
1857.000000	14.934130
1858.000000	14.916337
1859.000000	14.903552
1860.000000	14.901175
1861.000000	14.903980
1862.000000	14.902312
1863.000000	14.891530
1864.000000	14.870075
1865.000000	14.816433
1866.000000	14.761645
1867.000000	14.705800
1868.000000	14.644312
1869.000000	14.581275
1870.000000	14.521805
1871.000000	14.464785
1872.000000	14.415348
1873.000000	14.374112
1874.000000	14.312380
1875.000000	14.280025
1876.000000	14.248633
1877.000000	14.215138
1878.000000	14.177075
1879.000000	14.127887
1880.000000	14.038227
1881.000000	13.938397
1882.000000	13.828967
1883.000000	13.713418
1884.000000	13.594860
1885.000000	13.470740
1886.000000	13.340995
1887.000000	13.203872
1888.000000	13.062023
1889.000000	12.893973
1890.000000	12.753170
1891.000000	12.615217
1892.000000	12.475555
1893.000000	12.330198
1894.000000	12.177405
1895.000000	12.017048
1896.000000	11.851840
1897.000000	11.688800
1898.000000	11.505565
1899.000000	11.351765
1900.000000	11.198612
1901.000000	11.014708
1902.000000	10.828812
1903.000000	10.645900
1904.000000	10.495722
1905.000000	10.334615
1906.000000	10.183420
1907.000000	10.038023
1908.000000	9.915637
1909.000000	9.787522
1910.000000	9.633050
1911.000000	9.511240
1912.000000	9.398930
1913.000000	9.294270
1914.000000	9.193455
1915.000000	9.114185
1916.000000	9.034152
1917.000000	8.951690
1918.000000	8.849195
1919.000000	8.757025
1920.000000	8.699122
1921.000000	8.645295
1922.000000	8.592347
1923.000000	8.537525
1924.000000	8.479548
1925.000000	8.425567
1926.000000	8.376740
1927.000000	8.336335
1928.000000	8.325707
1929.000000	8.316775
1930.000000	8.308180
1931.000000	8.299468
1932.000000	8.289162
1933.000000	8.280665
1934.000000	8.277315
1935.000000	8.273870
1936.000000	8.248292
1937.000000	8.247778
1938.000000	8.249570
1939.000000	8.252770
1940.000000	8.256842
1941.000000	8.262570
1942.000000	8.269402
1943.000000	8.277445
1944.000000	8.287888
1945.000000	8.300535
1946.000000	8.338283
1947.000000	8.353247
1948.000000	8.367345
1949.000000	8.380005
1950.000000	8.392495
1951.000000	8.405670
1952.000000	8.420742
1953.000000	8.438287
1954.000000	8.456180
1955.000000	8.474597
1956.000000	8.491957
1957.000000	8.509113
1958.000000	8.525583
1959.000000	8.542928
1960.000000	8.561382
1961.000000	8.580362
1962.000000	8.599285
1963.000000	8.617890
1964.000000	8.634870
1965.000000	8.677460
1966.000000	8.720625
1967.000000	8.762940
1968.000000	8.804210
1969.000000	8.846017
1970.000000	8.887430
1971.000000	8.927960
1972.000000	8.969043
1973.000000	9.008840
1974.000000	9.049410
1975.000000	9.063802
1976.000000	9.078395
1977.000000	9.093765
1978.000000	9.111430
1979.000000	9.128590
1980.000000	9.145065
1981.000000	9.162178
1982.000000	9.179580
1983.000000	9.197292
1984.000000	9.239330
1985.000000	9.281935
1986.000000	9.324552
1987.000000	9.367685
1988.000000	9.408618
1989.000000	9.449675
1990.000000	9.490770
1991.000000	9.530795
1992.000000	9.569707
1993.000000	9.608200
1994.000000	9.622050
1995.000000	9.635400
1996.000000	9.647198
1997.000000	9.657840
1998.000000	9.669725
1999.000000	9.679525
2000.000000	9.688345
2001.000000	9.696015
2002.000000	9.703557
2003.000000	9.710525
2004.000000	9.716655
2005.000000	9.721405
2006.000000	9.725658
2007.000000	9.728405
2008.000000	9.729020
2009.000000	9.729587
2010.000000	9.729237
2011.000000	9.727615
2012.000000	9.723605
2013.000000	9.718180
2014.000000	9.711218
2015.000000	9.702842
2016.000000	9.693170
2017.000000	9.681840
2018.000000	9.670818
2019.000000	9.658315
2020.000000	9.643415
2021.000000	9.627860
2022.000000	9.611887
2023.000000	9.595425
2024.000000	9.577090
2025.000000	9.557830
2026.000000	9.537660
2027.000000	9.517015
2028.000000	9.494325
2029.000000	9.470207
2030.000000	9.446117
2031.000000	9.421040
2032.000000	9.394845
2033.000000	9.342690
2034.000000	9.290540
2035.000000	9.238437
2036.000000	9.183865
2037.000000	9.128083
2038.000000	9.071382
2039.000000	9.014335
2040.000000	8.956400
2041.000000	8.897647
2042.000000	8.838150
2043.000000	8.802792
2044.000000	8.767680
2045.000000	8.731317
2046.000000	8.696787
2047.000000	8.662273
2048.000000	8.629262
2049.000000	8.573092
2050.000000	8.543458
2051.000000	8.516863
2052.000000	8.493137
2053.000000	8.471377
2054.000000	8.453575
2055.000000	8.440250
2056.000000	8.429670
2057.000000	8.423737
2058.000000	8.420723
2059.000000	8.446137
2060.000000	8.450850
2061.000000	8.458642
2062.000000	8.469225
2063.000000	8.482705
2064.000000	8.496638
2065.000000	8.512058
2066.000000	8.530038
2067.000000	8.548700
2068.000000	8.568020
2069.000000	8.587288
2070.000000	8.606697
2071.000000	8.625713
2072.000000	8.643950
2073.000000	8.661550
2074.000000	8.703938
2075.000000	8.745105
2076.000000	8.784655
2077.000000	8.822942
2078.000000	8.860205
2079.000000	8.895888
2080.000000	8.929635
2081.000000	8.961462
2082.000000	8.992050
2083.000000	9.020732
2084.000000	9.022668
2085.000000	9.023977
2086.000000	9.023752
2087.000000	9.022037
2088.000000	9.019400
2089.000000	9.015755
2090.000000	9.010257
2091.000000	9.003373
2092.000000	8.996087
2093.000000	8.989698
2094.000000	8.983390
2095.000000	8.975395
2096.000000	8.967420
2097.000000	8.959295
2098.000000	8.950672
2099.000000	8.942843
2100.000000	8.936770
2101.000000	8.931000
2102.000000	8.924540
2103.000000	8.918143
2104.000000	8.911650
2105.000000	8.905947
2106.000000	8.900330
2107.000000	8.894485
2108.000000	8.889043
2109.000000	8.883225
2110.000000	8.876342
2111.000000	8.894942
2112.000000	8.914710
2113.000000	8.907967
2114.000000	8.925422
2115.000000	8.917710
2116.000000	8.909885
2117.000000	8.902520
2118.000000	8.894357
2119.000000	8.909940
2120.000000	8.924870
2121.000000	8.914080
2122.000000	8.877830
2123.000000	8.866383
2124.000000	8.829030
2125.000000	8.842115
2126.000000	8.854910
2127.000000	8.842047
2128.000000	8.828655
2129.000000	8.790457
2130.000000	8.751755
2131.000000	8.712490
2132.000000	8.697555
2133.000000	8.682440
2134.000000	8.666743
2135.000000	8.624408
2136.000000	8.581862
2137.000000	8.563363
2138.000000	8.545090
2139.000000	8.526220
2140.000000	8.506842
2141.000000	8.487020
2142.000000	8.466177
2143.000000	8.445135
2144.000000	8.424665
2145.000000	8.403717
2146.000000	8.381953
2147.000000	8.360652
2148.000000	8.338805
2149.000000	8.292100
2150.000000	8.245743
2151.000000	8.199962
2152.000000	8.154670
2153.000000	8.108878
2154.000000	8.063903
2155.000000	8.019348
2156.000000	7.975120
2157.000000	7.931692
2158.000000	7.888622
2159.000000	7.872668
2160.000000	7.856970
2161.000000	7.841910
2162.000000	7.828118
2163.000000	7.815738
2164.000000	7.803685
2165.000000	7.767715
2166.000000	7.733400
2167.000000	7.723727
2168.000000	7.713917
2169.000000	7.703980
2170.000000	7.670418
2171.000000	7.636553
2172.000000	7.602865
2173.000000	7.570410
2174.000000	7.537138
2175.000000	7.529315
2176.000000	7.520378
2177.000000	7.487393
2178.000000	7.455805
2179.000000	7.422833
2180.000000	7.414680
2181.000000	7.381340
2182.000000	7.373177
2183.000000	7.362563
2184.000000	7.351950
2185.000000	7.314280
2186.000000	7.300767
2187.000000	7.260612
2188.000000	7.218067
2189.000000	7.173650
2190.000000	7.126923
2191.000000	7.103297
2192.000000	7.051420
2193.000000	6.972157
2194.000000	6.915840
2195.000000	6.858163
2196.000000	6.773125
2197.000000	6.711017
2198.000000	6.647047
2199.000000	6.582017
2200.000000	6.516865
2201.000000	6.451570
2202.000000	6.387425
2203.000000	6.324618
2204.000000	6.263430
2205.000000	6.230040
2206.000000	6.175355
2207.000000	6.123757
2208.000000	6.076767
2209.000000	6.033727
2210.000000	5.995355
2211.000000	5.961367
2212.000000	5.931138
2213.000000	5.930885
2214.000000	5.910050
2215.000000	5.891933
2216.000000	5.901642
2217.000000	5.939523
2218.000000	5.980703
2219.000000	6.023660
2220.000000	6.067000
2221.000000	6.086790
2222.000000	6.132165
2223.000000	6.179628
2224.000000	6.225297
2225.000000	6.271650
2226.000000	6.317500
2227.000000	6.337505
2228.000000	6.354350
2229.000000	6.371020
2230.000000	6.385565
2231.000000	6.424285
2232.000000	6.435828
2233.000000	6.443955
2234.000000	6.450715
2235.000000	6.456575
2236.000000	6.459813
2237.000000	6.460800
2238.000000	6.485790
2239.000000	6.508080
2240.000000	6.530568
2241.000000	6.550670
2242.000000	6.543885
2243.000000	6.535545
2244.000000	6.551153
2245.000000	6.563600
2246.000000	6.551200
2247.000000	6.538380
2248.000000	6.499110
2249.000000	6.485045
2250.000000	6.469680
2251.000000	6.453902
2252.000000	6.463500
2253.000000	6.473257
2254.000000	6.433043
2255.000000	6.392938
2256.000000	6.378097
2257.000000	6.363078
2258.000000	6.350498
2259.000000	6.313512
2260.000000	6.301357
2261.000000	6.290382
2262.000000	6.255465
2263.000000	6.221568
2264.000000	6.214952
2265.000000	6.234668
2266.000000	6.255963
2267.000000	6.278898
2268.000000	6.277448
2269.000000	6.301998
2270.000000	6.303788
2271.000000	6.305593
2272.000000	6.334117
2273.000000	6.363507
2274.000000	6.393185
2275.000000	6.397245
2276.000000	6.401400
2277.000000	6.405813
2278.000000	6.435815
2279.000000	6.441407
2280.000000	6.445937
2281.000000	6.450360
2282.000000	6.454210
2283.000000	6.456437
2284.000000	6.458215
2285.000000	6.461185
2286.000000	6.464270
2287.000000	6.466275
2288.000000	6.467050
2289.000000	6.467135
2290.000000	6.493502
2291.000000	6.519493
2292.000000	6.545113
2293.000000	6.572510
2294.000000	6.599935
2295.000000	6.627272
2296.000000	6.653440
2297.000000	6.680758
2298.000000	6.708820
2299.000000	6.736767
2300.000000	6.739695
2301.000000	6.768863
2302.000000	6.797735
2303.000000	6.801473
2304.000000	6.805495
2305.000000	6.810162
2306.000000	6.840850
2307.000000	6.872150
2308.000000	6.904358
2309.000000	6.937385
2310.000000	6.970210
2311.000000	6.978238
2312.000000	6.987448
2313.000000	7.021452
2314.000000	7.055100
2315.000000	7.088660
2316.000000	7.097383
2317.000000	7.105825
2318.000000	7.112728
2319.000000	7.118612
2320.000000	7.123902
2321.000000	7.128120
2322.000000	7.155985
2323.000000	7.182835
2324.000000	7.208903
2325.000000	7.209165
2326.000000	7.208740
2327.000000	7.206990
2328.000000	7.229953
2329.000000	7.252970
2330.000000	7.276200
2331.000000	7.299693
2332.000000	7.273163
2333.000000	7.272280
2334.000000	7.272270
2335.000000	7.297300
2336.000000	7.321658
2337.000000	7.371783
2338.000000	7.397110
2339.000000	7.397690
2340.000000	7.398135
2341.000000	7.423542
2342.000000	7.475392
2343.000000	7.502413
2344.000000	7.529110
2345.000000	7.556147
2346.000000	7.585232
2347.000000	7.591102
2348.000000	7.598477
2349.000000	7.630790
2350.000000	7.661082
2351.000000	7.664447
2352.000000	7.666962
2353.000000	7.670655
2354.000000	7.675770
2355.000000	7.680975
2356.000000	7.685065
2357.000000	7.711728
2358.000000	7.712155
2359.000000	7.712662
2360.000000	7.715053
2361.000000	7.720103
2362.000000	7.725523
2363.000000	7.728975
2364.000000	7.756055
2365.000000	7.783123
2366.000000	7.809823
2367.000000	7.786962
2368.000000	7.788930
2369.000000	7.816183
2370.000000	7.843760
2371.000000	7.870725
2372.000000	7.897502
2373.000000	7.925343
2374.000000	7.952930
2375.000000	7.980097
2376.000000	7.982713
2377.000000	8.010927
2378.000000	8.063920
2379.000000	8.066225
2380.000000	8.068065
2381.000000	8.069603
2382.000000	8.071320
2383.000000	8.072937
2384.000000	8.074250
2385.000000	8.075333
2386.000000	8.075592
2387.000000	8.074940
2388.000000	8.074228
2389.000000	8.098785
2390.000000	8.123530
2391.000000	8.148070
2392.000000	8.171133
2393.000000	8.192405
2394.000000	8.188963
2395.000000	8.185880
2396.000000	8.207643
2397.000000	8.230030
2398.000000	8.226765
2399.000000	8.222225
2400.000000	8.192023
2401.000000	8.162313
2402.000000	8.133028
2403.000000	8.129033
2404.000000	8.148707
2405.000000	8.142893
2406.000000	8.136860
2407.000000	8.129873
2408.000000	8.122485
2409.000000	8.115275
2410.000000	8.132563
2411.000000	8.174060
2412.000000	8.190457
2413.000000	8.206883
2414.000000	8.173980
2415.000000	8.214775
2416.000000	8.229703
2417.000000	8.244150
2418.000000	8.258885
2419.000000	8.248605
2420.000000	8.238095
2421.000000	8.201650
2422.000000	8.189213
2423.000000	8.151478
2424.000000	8.163282
2425.000000	8.125462
2426.000000	8.111695
2427.000000	8.098020
2428.000000	8.058962
2429.000000	8.093777
2430.000000	8.128785
2431.000000	8.162950
2432.000000	8.172235
2433.000000	8.181107
2434.000000	8.165723
2435.000000	8.150150
2436.000000	8.160972
2437.000000	8.145402
2438.000000	8.155117
2439.000000	8.115103
2440.000000	8.098615
2441.000000	8.108073
2442.000000	8.168128
2443.000000	8.202925
2444.000000	8.186652
2445.000000	8.195460
2446.000000	8.154338
2447.000000	8.163880
2448.000000	8.223337
2449.000000	8.233475
2450.000000	8.219355
2451.000000	8.230575
2452.000000	8.191218
2453.000000	8.227525
2454.000000	8.315750
2455.000000	8.378223
2456.000000	8.415170
2457.000000	8.453300
2458.000000	8.491682
2459.000000	8.581438
2460.000000	8.646230
2461.000000	8.659565
2462.000000	8.674650
2463.000000	8.664800
2464.000000	8.678273
2465.000000	8.742527
2466.000000	8.858788
2467.000000	8.926292
2468.000000	8.993460
2469.000000	9.034545
2470.000000	9.127690
2471.000000	9.221988
2472.000000	9.340937
2473.000000	9.386637
2474.000000	9.433020
2475.000000	9.505255
2476.000000	9.601992
2477.000000	9.722790
2478.000000	9.795205
2479.000000	9.842027
2480.000000	9.888040
2481.000000	10.015297
2482.000000	10.194195
2483.000000	10.443693
2484.000000	10.644462
2485.000000	10.797500
2486.000000	10.923760
2487.000000	11.048023
2488.000000	11.301092
2489.000000	11.528625
2490.000000	11.737800
2491.000000	11.861975
2492.000000	11.987830
2493.000000	12.115573
2494.000000	12.246227
2495.000000	12.351198
2496.000000	12.457800
2497.000000	12.570733
2498.000000	12.677205
2499.000000	12.882710
2500.000000	13.162828
2501.000000	17.049475
2502.000000	20.782680
2503.000000	24.692820
2504.000000	28.424592
2505.000000	32.355235
2506.000000	36.485993
2507.000000	40.612772
2508.000000	44.816735
2509.000000	48.798703
2510.000000	52.900000
2511.000000	53.700000
2512.000000	54.900000
2513.000000	55.700000
2514.000000	56.500000
2515.000000	57.600000
2516.000000	58.300000
2517.000000	59.200000
2518.000000	60.300000
2519.000000	62.100000
2520.000000	63.000000
2521.000000	63.500000
2522.000000	63.600000
2523.000000	64.400000
2524.000000	66.000000
2525.000000	67.300000
2526.000000	69.000000
2527.000000	70.100000
2528.000000	70.500000
2529.000000	70.700000
2530.000000	72.000000
2531.000000	73.300000
2532.000000	75.000000
2533.000000	76.100000
2534.000000	76.100000
2535.000000	76.400000
2536.000000	76.700000
2537.000000	77.900000
2538.000000	78.900000
2539.000000	79.200000
2540.000000	79.200000
2541.000000	79.600000
2542.000000	80.400000
2543.000000	81.400000
2544.000000	83.100000
2545.000000	83.800000
2546.000000	83.500000
2547.000000	82.900000
2548.000000	83.700000
2549.000000	85.600000
2550.000000	86.800000
2551.000000	87.200000
2552.000000	87.000000
2553.000000	86.800000
2554.000000	86.900000
2555.000000	87.800000
2556.000000	89.400000
2557.000000	90.600000
2558.000000	90.400000
2559.000000	90.200000
2560.000000	90.400000
2561.000000	91.200000
2562.000000	91.700000
2563.000000	91.800000
2564.000000	91.800000
2565.000000	91.600000
2566.000000	91.900000
2567.000000	92.500000
2568.000000	93.600000
2569.000000	94.000000
2570.000000	94.200000
2571.000000	94.300000
2572.000000	95.300000
2573.000000	96.600000
2574.000000	96.800000
2575.000000	97.100000
2576.000000	96.900000
2577.000000	96.600000
2578.000000	96.800000
2579.000000	97.100000
2580.000000	97.200000
2581.000000	97.200000
2582.000000	97.200000
2583.000000	97.300000
2584.000000	98.100000
2585.000000	98.700000
2586.000000	99.100000
2587.000000	99.400000
2588.000000	99.100000
2589.000000	98.800000
2590.000000	99.300000
2591.000000	99.800000
2592.000000	99.600000
2593.000000	99.300000
2594.000000	99.300000
2595.000000	99.400000
2596.000000	99.700000
2597.000000	100.200000
2598.000000	100.200000
2599.000000	99.900000
2600.000000	99.400000
2601.000000	99.300000
2602.000000	99.500000
2603.000000	99.600000
2604.000000	99.100000
2605.000000	98.500000
2606.000000	98.300000
2607.000000	98.200000
2608.000000	98.400000
2609.000000	99.000000
2610.000000	99.400000
2611.000000	99.300000
2612.000000	98.600000
2613.000000	97.700000
2614.000000	97.600000
2615.000000	98.000000
2616.000000	98.300000
2617.000000	98.000000
2618.000000	97.800000
2619.000000	97.300000
2620.000000	97.800000
2621.000000	99.200000
2622.000000	100.100000
2623.000000	100.500000
2624.000000	100.700000
2625.000000	101.000000
2626.000000	101.000000
2627.000000	101.600000
2628.000000	102.200000
2629.000000	102.400000
2630.000000	101.700000
2631.000000	100.900000
2632.000000	101.100000
2633.000000	101.800000
2634.000000	101.500000
2635.000000	100.900000
2636.000000	100.500000
2637.000000	100.400000
2638.000000	100.600000
2639.000000	100.700000
2640.000000	101.100000
2641.000000	100.800000
2642.000000	100.500000
2643.000000	100.700000
2644.000000	101.200000
2645.000000	101.200000
2646.000000	101.300000
2647.000000	100.500000
2648.000000	100.000000
2649.000000	100.400000
2650.000000	100.200000
2651.000000	100.600000
2652.000000	100.200000
2653.000000	99.900000
2654.000000	99.400000
2655.000000	99.300000
2656.000000	99.100000
2657.000000	100.100000
2658.000000	100.400000
2659.000000	99.500000
2660.000000	99.000000
2661.000000	98.700000
2662.000000	99.700000
2663.000000	100.700000
2664.000000	101.400000
2665.000000	101.600000
2666.000000	102.000000
2667.000000	101.700000
2668.000000	101.800000
2669.000000	103.100000
2670.000000	104.100000
2671.000000	103.300000
2672.000000	102.100000
2673.000000	101.300000
2674.000000	101.800000
2675.000000	101.700000
2676.000000	101.000000
2677.000000	100.800000
2678.000000	100.400000
2679.000000	99.400000
2680.000000	99.100000
2681.000000	100.500000
2682.000000	100.600000
2683.000000	99.800000
2684.000000	99.200000
2685.000000	99.100000
2686.000000	100.500000
2687.000000	101.100000
2688.000000	101.700000
2689.000000	101.700000
2690.000000	101.400000
2691.000000	100.000000
2692.000000	99.900000
2693.000000	100.300000
2694.000000	99.700000
2695.000000	100.300000
2696.000000	99.500000
2697.000000	97.700000
2698.000000	97.400000
2699.000000	98.500000
2700.000000	99.600000
2701.000000	100.500000
2702.000000	100.300000
2703.000000	100.100000
2704.000000	100.800000
2705.000000	100.700000
2706.000000	100.700000
2707.000000	101.800000
2708.000000	101.000000
2709.000000	100.500000
2710.000000	99.600000
2711.000000	99.900000
2712.000000	100.800000
2713.000000	100.800000
2714.000000	100.500000
2715.000000	100.400000
2716.000000	100.000000
2717.000000	100.900000
2718.000000	102.200000
2719.000000	102.200000
2720.000000	101.600000
2721.000000	100.900000
2722.000000	100.700000
2723.000000	102.100000
2724.000000	102.500000
2725.000000	102.400000
2726.000000	102.800000
2727.000000	102.500000
2728.000000	102.400000
2729.000000	103.300000
2730.000000	103.900000
2731.000000	103.200000
2732.000000	102.200000
2733.000000	100.700000
2734.000000	101.600000
2735.000000	102.300000
2736.000000	102.500000
2737.000000	101.000000
2738.000000	100.200000
2739.000000	98.800000
2740.000000	99.400000
2741.000000	101.300000
2742.000000	102.900000
2743.000000	102.300000
2744.000000	100.800000
2745.000000	99.900000
2746.000000	100.300000
2747.000000	101.100000
2748.000000	100.700000
2749.000000	100.100000
2750.000000	99.300000
2751.000000	98.600000
2752.000000	98.200000
2753.000000	100.000000
2754.000000	100.300000
2755.000000	99.000000
2756.000000	97.400000
2757.000000	97.400000
2758.000000	98.800000
2759.000000	99.200000
2760.000000	98.600000
2761.000000	98.500000
2762.000000	98.200000
2763.000000	98.000000
2764.000000	99.000000
2765.000000	101.000000
2766.000000	101.600000
2767.000000	102.000000
2768.000000	100.800000
2769.000000	101.600000
2770.000000	103.500000
2771.000000	103.900000
2772.000000	103.800000
2773.000000	102.700000
2774.000000	101.800000
2775.000000	102.000000
2776.000000	103.000000
2777.000000	102.700000
2778.000000	102.100000
2779.000000	101.600000
2780.000000	100.900000
2781.000000	101.400000
2782.000000	101.800000
2783.000000	103.100000
2784.000000	103.600000
2785.000000	102.900000
2786.000000	102.100000
2787.000000	102.300000
2788.000000	103.500000
2789.000000	104.500000
2790.000000	104.400000
2791.000000	103.700000
2792.000000	103.200000
2793.000000	103.000000
2794.000000	102.900000
2795.000000	102.900000
2796.000000	103.100000
2797.000000	102.600000
2798.000000	102.700000
2799.000000	102.500000
2800.000000	102.700000
2801.000000	101.600000
2802.000000	101.100000
2803.000000	100.000000
2804.000000	99.700000
2805.000000	100.000000
2806.000000	99.900000
2807.000000	100.200000
2808.000000	99.900000
2809.000000	99.200000
2810.000000	99.500000
2811.000000	100.200000
2812.000000	100.500000
2813.000000	100.900000
2814.000000	100.300000
2815.000000	100.200000
2816.000000	100.300000
2817.000000	100.300000
2818.000000	100.400000
2819.000000	100.900000
2820.000000	100.100000
2821.000000	100.300000
2822.000000	101.100000
2823.000000	101.500000
2824.000000	102.300000
2825.000000	102.200000
2826.000000	101.800000
2827.000000	101.900000
2828.000000	101.900000
2829.000000	101.900000
2830.000000	102.300000
2831.000000	102.300000
2832.000000	100.900000
2833.000000	99.500000
2834.000000	98.700000
2835.000000	98.500000
2836.000000	99.000000
2837.000000	99.200000
2838.000000	98.700000
2839.000000	97.900000
2840.000000	97.600000
2841.000000	97.900000
2842.000000	99.300000
2843.000000	100.400000
2844.000000	100.600000
2845.000000	100.500000
2846.000000	100.400000
2847.000000	100.200000
2848.000000	100.700000
2849.000000	101.000000
2850.000000	100.600000
2851.000000	99.600000
2852.000000	99.000000
2853.000000	99.000000
2854.000000	99.000000
2855.000000	99.300000
2856.000000	99.000000
2857.000000	98.600000
2858.000000	98.700000
2859.000000	98.800000
2860.000000	99.300000
2861.000000	99.800000
2862.000000	99.400000
2863.000000	98.800000
2864.000000	98.800000
2865.000000	99.200000
2866.000000	100.300000
2867.000000	101.000000
2868.000000	100.300000
2869.000000	99.800000
2870.000000	99.700000
2871.000000	100.300000
2872.000000	101.700000
2873.000000	102.200000
2874.000000	101.700000
2875.000000	101.100000
2876.000000	101.000000
2877.000000	101.200000
2878.000000	101.500000
2879.000000	101.500000
2880.000000	101.200000
2881.000000	100.500000
2882.000000	99.600000
2883.000000	100.000000
2884.000000	101.400000
2885.000000	101.900000
2886.000000	101.100000
2887.000000	100.300000
2888.000000	100.200000
2889.000000	100.900000
2890.000000	101.800000
2891.000000	102.300000
2892.000000	102.600000
2893.000000	102.400000
2894.000000	102.100000
2895.000000	102.700000
2896.000000	103.900000
2897.000000	104.500000
2898.000000	104.600000
2899.000000	104.500000
2900.000000	103.700000
2901.000000	103.400000
2902.000000	103.300000
2903.000000	102.600000
2904.000000	101.500000
2905.000000	100.300000
2906.000000	99.100000
2907.000000	98.700000
2908.000000	98.800000
2909.000000	98.600000
2910.000000	98.500000
2911.000000	98.400000
2912.000000	97.800000
2913.000000	98.200000
2914.000000	98.900000
2915.000000	99.700000
2916.000000	100.000000
2917.000000	99.700000
2918.000000	99.100000
2919.000000	99.400000
2920.000000	100.300000
2921.000000	101.300000
2922.000000	101.400000
2923.000000	100.800000
2924.000000	101.100000
2925.000000	100.900000
2926.000000	100.900000
2927.000000	101.700000
2928.000000	101.600000
2929.000000	101.000000
2930.000000	100.200000
2931.000000	100.000000
2932.000000	100.800000
2933.000000	102.100000
2934.000000	101.800000
2935.000000	100.900000
2936.000000	100.500000
2937.000000	101.100000
2938.000000	102.900000
2939.000000	102.900000
2940.000000	102.400000
2941.000000	101.700000
2942.000000	101.800000
2943.000000	102.200000
2944.000000	102.500000
2945.000000	102.500000
2946.000000	101.900000
2947.000000	100.100000
2948.000000	99.300000
2949.000000	100.500000
2950.000000	101.300000
2951.000000	100.900000
2952.000000	99.500000
2953.000000	98.400000
2954.000000	98.900000
2955.000000	100.000000
2956.000000	101.300000
2957.000000	101.600000
2958.000000	100.900000
2959.000000	100.000000
2960.000000	100.200000
2961.000000	101.300000
2962.000000	102.300000
2963.000000	101.700000
2964.000000	100.000000
2965.000000	98.900000
2966.000000	98.200000
2967.000000	99.600000
2968.000000	100.800000
2969.000000	100.200000
2970.000000	99.400000
2971.000000	98.200000
2972.000000	99.100000
2973.000000	101.300000
2974.000000	103.100000
2975.000000	103.200000
2976.000000	103.300000
2977.000000	101.800000
2978.000000	102.100000
2979.000000	103.500000
2980.000000	103.300000
2981.000000	103.100000
2982.000000	102.100000
2983.000000	100.900000
2984.000000	100.700000
2985.000000	100.900000
2986.000000	100.500000
2987.000000	100.800000
2988.000000	99.900000
2989.000000	100.000000
2990.000000	101.100000
2991.000000	102.000000
2992.000000	101.600000
2993.000000	101.100000
2994.000000	100.700000
2995.000000	101.000000
2996.000000	101.200000
2997.000000	101.800000
2998.000000	101.800000
2999.000000	101.700000
3000.000000	101.500000
