PE UV       SUBTECH     SPECTRUM    ASCII       PEDS        4.00        
   -1
INBUCR0312-4.Sample.ASC
24/02/08
16:14:52.00
24/02/08
16:14:52.00
Vinicio Soto Monge
COSTA RICA. Prov Limón. Sector La Catarata. Orilla de la carretera. 1450 m. MAY1996. R. Delgado. En Flores de Sauravia. L_N_190750_560600 #50826. En Flores de sauravia. INB0003014863 INBIOCRI  COSTA RICA
250,000000
1
Lambda 1050
1050L1511233
PerkinElmer UV WinLab 6.3.2.0749 / 2.02.05 Lambda 900 UV/VIS/NIR, Aug  7 2015 09:38:08

0
0
3350/servo 860,8/2
0
0
UV/VIS
1
1
1
DoubleDePol,CommonBeamDepol,RBeamAtt,SBeamAtt,60mm sphere, WB InGaAs Detector
0
0
0
0
Program
Program
3350/servo 860,8/2
3350/0,2 860,8/0,2
3350/0,2 860,8/0,2
0
15.00
 
 
 
0
 
860,8
319,2
860,8
Front
100
on
S:100 R:100
0
0
0
0
 
0
 
 
 
0
 
 
0
0
0
0
0
 
 
 
 
0
0


0
0
#HDR
-1
-1
#GR
nm
%R
1.0
0.0
2500,000000
-1,000000
2251
8
7,310900
0,734200
#DATA

250.000000	nan
251.000000	nan
252.000000	nan
253.000000	nan
254.000000	nan
255.000000	nan
256.000000	nan
257.000000	nan
258.000000	nan
259.000000	4.432276
260.000000	4.423864
261.000000	4.414694
262.000000	4.408399
263.000000	4.399115
264.000000	4.389983
265.000000	4.379366
266.000000	4.370519
267.000000	4.357214
268.000000	4.343013
269.000000	4.334482
270.000000	4.322731
271.000000	4.315816
272.000000	4.305031
273.000000	4.297081
274.000000	4.288248
275.000000	4.282705
276.000000	4.275328
277.000000	4.272056
278.000000	4.271026
279.000000	4.266865
280.000000	4.263174
281.000000	4.257881
282.000000	4.255801
283.000000	4.251186
284.000000	4.248604
285.000000	4.244411
286.000000	4.242700
287.000000	4.241601
288.000000	4.238477
289.000000	4.237333
290.000000	4.240182
291.000000	4.242395
292.000000	4.243948
293.000000	4.241577
294.000000	4.242469
295.000000	4.244432
296.000000	4.243855
297.000000	4.243264
298.000000	4.243501
299.000000	4.241006
300.000000	4.235635
301.000000	4.235276
302.000000	4.235483
303.000000	4.236324
304.000000	4.236317
305.000000	4.236021
306.000000	4.237585
307.000000	4.238976
308.000000	4.238401
309.000000	4.240450
310.000000	4.245378
311.000000	4.243638
312.000000	4.244554
313.000000	4.251662
314.000000	4.254714
315.000000	4.260664
316.000000	4.266242
317.000000	4.299627
318.000000	4.324251
319.000000	4.340413
320.000000	4.362953
321.000000	4.396466
322.000000	4.407905
323.000000	4.421908
324.000000	4.435412
325.000000	4.450306
326.000000	4.465787
327.000000	4.452637
328.000000	4.447880
329.000000	4.452431
330.000000	4.445878
331.000000	4.432100
332.000000	4.434180
333.000000	4.433724
334.000000	4.432582
335.000000	4.431008
336.000000	4.430524
337.000000	4.430540
338.000000	4.434036
339.000000	4.437685
340.000000	4.439116
341.000000	4.437240
342.000000	4.441031
343.000000	4.445411
344.000000	4.453952
345.000000	4.456988
346.000000	4.459638
347.000000	4.459648
348.000000	4.458440
349.000000	4.452420
350.000000	4.451235
351.000000	4.452745
352.000000	4.454433
353.000000	4.455587
354.000000	4.457261
355.000000	4.458273
356.000000	4.458222
357.000000	4.461202
358.000000	4.466463
359.000000	4.473764
360.000000	4.482128
361.000000	4.486033
362.000000	4.487126
363.000000	4.486461
364.000000	4.484323
365.000000	4.486479
366.000000	4.488185
367.000000	4.489938
368.000000	4.488156
369.000000	4.488751
370.000000	4.489598
371.000000	4.490697
372.000000	4.491334
373.000000	4.488334
374.000000	4.480950
375.000000	4.476465
376.000000	4.476668
377.000000	4.465076
378.000000	4.455009
379.000000	4.443436
380.000000	4.431025
381.000000	4.421339
382.000000	4.411871
383.000000	4.405704
384.000000	4.403900
385.000000	4.397228
386.000000	4.385395
387.000000	4.384339
388.000000	4.383746
389.000000	4.382900
390.000000	4.381985
391.000000	4.381064
392.000000	4.380907
393.000000	4.380858
394.000000	4.380383
395.000000	4.379740
396.000000	4.379673
397.000000	4.379952
398.000000	4.380478
399.000000	4.380774
400.000000	4.381229
401.000000	4.381568
402.000000	4.381308
403.000000	4.381187
404.000000	4.382157
405.000000	4.383355
406.000000	4.384307
407.000000	4.384991
408.000000	4.385624
409.000000	4.386450
410.000000	4.387478
411.000000	4.389090
412.000000	4.391299
413.000000	4.393318
414.000000	4.395313
415.000000	4.397377
416.000000	4.399935
417.000000	4.403052
418.000000	4.406480
419.000000	4.409981
420.000000	4.413676
421.000000	4.417465
422.000000	4.421777
423.000000	4.426325
424.000000	4.431142
425.000000	4.436757
426.000000	4.442930
427.000000	4.449431
428.000000	4.456620
429.000000	4.464765
430.000000	4.473615
431.000000	4.482826
432.000000	4.492117
433.000000	4.502440
434.000000	4.514554
435.000000	4.527270
436.000000	4.540834
437.000000	4.555837
438.000000	4.571846
439.000000	4.588939
440.000000	4.607559
441.000000	4.628532
442.000000	4.651786
443.000000	4.676625
444.000000	4.702218
445.000000	4.729911
446.000000	4.759518
447.000000	4.790381
448.000000	4.822746
449.000000	4.857015
450.000000	4.893339
451.000000	4.931351
452.000000	4.971432
453.000000	5.013896
454.000000	5.059791
455.000000	5.109352
456.000000	5.163253
457.000000	5.222505
458.000000	5.288665
459.000000	5.362402
460.000000	5.445005
461.000000	5.537256
462.000000	5.639850
463.000000	5.753282
464.000000	5.876526
465.000000	6.009176
466.000000	6.150329
467.000000	6.298291
468.000000	6.450274
469.000000	6.604072
470.000000	6.756301
471.000000	6.903729
472.000000	7.042800
473.000000	7.171423
474.000000	7.287100
475.000000	7.386854
476.000000	7.468185
477.000000	7.529077
478.000000	7.569474
479.000000	7.588522
480.000000	7.585670
481.000000	7.561552
482.000000	7.517314
483.000000	7.453608
484.000000	7.372300
485.000000	7.275448
486.000000	7.165840
487.000000	7.046038
488.000000	6.917618
489.000000	6.782498
490.000000	6.643543
491.000000	6.503020
492.000000	6.362578
493.000000	6.223921
494.000000	6.088391
495.000000	5.957530
496.000000	5.831789
497.000000	5.712533
498.000000	5.599980
499.000000	5.494583
500.000000	5.396584
501.000000	5.305866
502.000000	5.222138
503.000000	5.145321
504.000000	5.075347
505.000000	5.011541
506.000000	4.952990
507.000000	4.899816
508.000000	4.851399
509.000000	4.807460
510.000000	4.767244
511.000000	4.730139
512.000000	4.696614
513.000000	4.666016
514.000000	4.637661
515.000000	4.611644
516.000000	4.587927
517.000000	4.565028
518.000000	4.543823
519.000000	4.523908
520.000000	4.505440
521.000000	4.488458
522.000000	4.472307
523.000000	4.456732
524.000000	4.442643
525.000000	4.429145
526.000000	4.416477
527.000000	4.405210
528.000000	4.394409
529.000000	4.384403
530.000000	4.375263
531.000000	4.366747
532.000000	4.358912
533.000000	4.352110
534.000000	4.345533
535.000000	4.339792
536.000000	4.334588
537.000000	4.329931
538.000000	4.325692
539.000000	4.321949
540.000000	4.318629
541.000000	4.315699
542.000000	4.313375
543.000000	4.311046
544.000000	4.308901
545.000000	4.306919
546.000000	4.305259
547.000000	4.303440
548.000000	4.302141
549.000000	4.301066
550.000000	4.299741
551.000000	4.298595
552.000000	4.297230
553.000000	4.296469
554.000000	4.295577
555.000000	4.294496
556.000000	4.294149
557.000000	4.293723
558.000000	4.293285
559.000000	4.292262
560.000000	4.289903
561.000000	4.287395
562.000000	4.285002
563.000000	4.282481
564.000000	4.280081
565.000000	4.277831
566.000000	4.275089
567.000000	4.272819
568.000000	4.270364
569.000000	4.268739
570.000000	4.268333
571.000000	4.268284
572.000000	4.268375
573.000000	4.268414
574.000000	4.269151
575.000000	4.269734
576.000000	4.270329
577.000000	4.270938
578.000000	4.271386
579.000000	4.271984
580.000000	4.273120
581.000000	4.274311
582.000000	4.275384
583.000000	4.276244
584.000000	4.276964
585.000000	4.277949
586.000000	4.278993
587.000000	4.280273
588.000000	4.281996
589.000000	4.283220
590.000000	4.284189
591.000000	4.285389
592.000000	4.286994
593.000000	4.288886
594.000000	4.290865
595.000000	4.292983
596.000000	4.295099
597.000000	4.297479
598.000000	4.299228
599.000000	4.301847
600.000000	4.304459
601.000000	4.306873
602.000000	4.309521
603.000000	4.312636
604.000000	4.315688
605.000000	4.319441
606.000000	4.322728
607.000000	4.325967
608.000000	4.330437
609.000000	4.334638
610.000000	4.339612
611.000000	4.343858
612.000000	4.348931
613.000000	4.354135
614.000000	4.358983
615.000000	4.363396
616.000000	4.368893
617.000000	4.374807
618.000000	4.380571
619.000000	4.386082
620.000000	4.391371
621.000000	4.398309
622.000000	4.404594
623.000000	4.410619
624.000000	4.417364
625.000000	4.424546
626.000000	4.431646
627.000000	4.438387
628.000000	4.445369
629.000000	4.452905
630.000000	4.460772
631.000000	4.468110
632.000000	4.475708
633.000000	4.483968
634.000000	4.492397
635.000000	4.500922
636.000000	4.509667
637.000000	4.518628
638.000000	4.528387
639.000000	4.537803
640.000000	4.547414
641.000000	4.557571
642.000000	4.567821
643.000000	4.578670
644.000000	4.589739
645.000000	4.600466
646.000000	4.611419
647.000000	4.623806
648.000000	4.635043
649.000000	4.646878
650.000000	4.659469
651.000000	4.672176
652.000000	4.684615
653.000000	4.696826
654.000000	4.709876
655.000000	4.723379
656.000000	4.737135
657.000000	4.750456
658.000000	4.764624
659.000000	4.779527
660.000000	4.793779
661.000000	4.808426
662.000000	4.823771
663.000000	4.839567
664.000000	4.854817
665.000000	4.870902
666.000000	4.887080
667.000000	4.902899
668.000000	4.919511
669.000000	4.936114
670.000000	4.953699
671.000000	4.970950
672.000000	4.988542
673.000000	5.005850
674.000000	5.023806
675.000000	5.041723
676.000000	5.060074
677.000000	5.078743
678.000000	5.097221
679.000000	5.116174
680.000000	5.135166
681.000000	5.154517
682.000000	5.174483
683.000000	5.194835
684.000000	5.214851
685.000000	5.235180
686.000000	5.256010
687.000000	5.277055
688.000000	5.298122
689.000000	5.318686
690.000000	5.339768
691.000000	5.361174
692.000000	5.382184
693.000000	5.404232
694.000000	5.426942
695.000000	5.449251
696.000000	5.471038
697.000000	5.493349
698.000000	5.517095
699.000000	5.541796
700.000000	5.566303
701.000000	5.590609
702.000000	5.615141
703.000000	5.640198
704.000000	5.665292
705.000000	5.690448
706.000000	5.716439
707.000000	5.743104
708.000000	5.769158
709.000000	5.794840
710.000000	5.820861
711.000000	5.847677
712.000000	5.874900
713.000000	5.901034
714.000000	5.927671
715.000000	5.955623
716.000000	5.983775
717.000000	6.011935
718.000000	6.040330
719.000000	6.068869
720.000000	6.097571
721.000000	6.127352
722.000000	6.157416
723.000000	6.187288
724.000000	6.217591
725.000000	6.247830
726.000000	6.277960
727.000000	6.308190
728.000000	6.338456
729.000000	6.369608
730.000000	6.401348
731.000000	6.431973
732.000000	6.462162
733.000000	6.494101
734.000000	6.526492
735.000000	6.558570
736.000000	6.591064
737.000000	6.624785
738.000000	6.658513
739.000000	6.691347
740.000000	6.724130
741.000000	6.758421
742.000000	6.794042
743.000000	6.828684
744.000000	6.863447
745.000000	6.899392
746.000000	6.935046
747.000000	6.969050
748.000000	7.004226
749.000000	7.040841
750.000000	7.077451
751.000000	7.113666
752.000000	7.149854
753.000000	7.186290
754.000000	7.222234
755.000000	7.258608
756.000000	7.296224
757.000000	7.334872
758.000000	7.373330
759.000000	7.410619
760.000000	7.448329
761.000000	7.486913
762.000000	7.525869
763.000000	7.566182
764.000000	7.607782
765.000000	7.647974
766.000000	7.687306
767.000000	7.726055
768.000000	7.764880
769.000000	7.806088
770.000000	7.846629
771.000000	7.887156
772.000000	7.928285
773.000000	7.969216
774.000000	8.009583
775.000000	8.052218
776.000000	8.095542
777.000000	8.140242
778.000000	8.185400
779.000000	8.229322
780.000000	8.275043
781.000000	8.320803
782.000000	8.363752
783.000000	8.406935
784.000000	8.450911
785.000000	8.494088
786.000000	8.538922
787.000000	8.582139
788.000000	8.625512
789.000000	8.670581
790.000000	8.713997
791.000000	8.758267
792.000000	8.805819
793.000000	8.854702
794.000000	8.904233
795.000000	8.952412
796.000000	8.999607
797.000000	9.048793
798.000000	9.096566
799.000000	9.143701
800.000000	9.193854
801.000000	9.243081
802.000000	9.293022
803.000000	9.340210
804.000000	9.386766
805.000000	9.434772
806.000000	9.484202
807.000000	9.533930
808.000000	9.585133
809.000000	9.637558
810.000000	9.688129
811.000000	9.738598
812.000000	9.789487
813.000000	9.841442
814.000000	9.893796
815.000000	9.945391
816.000000	9.996558
817.000000	10.048583
818.000000	10.102054
819.000000	10.155037
820.000000	10.205987
821.000000	10.258648
822.000000	10.307973
823.000000	10.358312
824.000000	10.409370
825.000000	10.458622
826.000000	10.511162
827.000000	10.559078
828.000000	10.608623
829.000000	10.657823
830.000000	10.708164
831.000000	10.755987
832.000000	10.806599
833.000000	10.858290
834.000000	10.909493
835.000000	10.962837
836.000000	11.009463
837.000000	11.064527
838.000000	11.113038
839.000000	11.160115
840.000000	11.212928
841.000000	11.267602
842.000000	11.316111
843.000000	11.361687
844.000000	11.411540
845.000000	11.459738
846.000000	11.505348
847.000000	11.546845
848.000000	11.595999
849.000000	11.643969
850.000000	11.690345
851.000000	11.723805
852.000000	11.767968
853.000000	11.812221
854.000000	11.859157
855.000000	11.891420
856.000000	11.943908
857.000000	12.010841
858.000000	12.344355
859.000000	12.437479
860.000000	12.505625
861.000000	12.602928
862.000000	12.677278
863.000000	12.759574
864.000000	12.837932
865.000000	12.929944
866.000000	12.984908
867.000000	13.011075
868.000000	12.763870
869.000000	12.731305
870.000000	12.732522
871.000000	12.717388
872.000000	12.720785
873.000000	12.714405
874.000000	12.694123
875.000000	12.670190
876.000000	12.671468
877.000000	12.662290
878.000000	12.669975
879.000000	12.683620
880.000000	12.684372
881.000000	12.679840
882.000000	12.682435
883.000000	12.676035
884.000000	12.680505
885.000000	12.683393
886.000000	12.679710
887.000000	12.685137
888.000000	12.681955
889.000000	12.697432
890.000000	12.709473
891.000000	12.738783
892.000000	12.738750
893.000000	12.750373
894.000000	12.759803
895.000000	12.774320
896.000000	12.778900
897.000000	12.802200
898.000000	12.823868
899.000000	12.842830
900.000000	12.868180
901.000000	12.874998
902.000000	12.892830
903.000000	12.921762
904.000000	12.943585
905.000000	12.967602
906.000000	13.002857
907.000000	13.033975
908.000000	13.052198
909.000000	13.075463
910.000000	13.099013
911.000000	13.124777
912.000000	13.154503
913.000000	13.177542
914.000000	13.207485
915.000000	13.233818
916.000000	13.260818
917.000000	13.283325
918.000000	13.316258
919.000000	13.352273
920.000000	13.382640
921.000000	13.419573
922.000000	13.458868
923.000000	13.497197
924.000000	13.531400
925.000000	13.566378
926.000000	13.600748
927.000000	13.644573
928.000000	13.684725
929.000000	13.724112
930.000000	13.763475
931.000000	13.798080
932.000000	13.834252
933.000000	13.870030
934.000000	13.907080
935.000000	13.949325
936.000000	13.993715
937.000000	14.034075
938.000000	14.075000
939.000000	14.113247
940.000000	14.156072
941.000000	14.199740
942.000000	14.243087
943.000000	14.282950
944.000000	14.326303
945.000000	14.367435
946.000000	14.410965
947.000000	14.453782
948.000000	14.494665
949.000000	14.535143
950.000000	14.576090
951.000000	14.619200
952.000000	14.664665
953.000000	14.710225
954.000000	14.757990
955.000000	14.809730
956.000000	14.856565
957.000000	14.902490
958.000000	14.951365
959.000000	15.001240
960.000000	15.049765
961.000000	15.097255
962.000000	15.145267
963.000000	15.194405
964.000000	15.241208
965.000000	15.287015
966.000000	15.334868
967.000000	15.384672
968.000000	15.432363
969.000000	15.480620
970.000000	15.532163
971.000000	15.584268
972.000000	15.635468
973.000000	15.685540
974.000000	15.736722
975.000000	15.786618
976.000000	15.836605
977.000000	15.886320
978.000000	15.939730
979.000000	15.993755
980.000000	16.043703
981.000000	16.092470
982.000000	16.142965
983.000000	16.195473
984.000000	16.249350
985.000000	16.303245
986.000000	16.358432
987.000000	16.411825
988.000000	16.463717
989.000000	16.516053
990.000000	16.569835
991.000000	16.625950
992.000000	16.681048
993.000000	16.735707
994.000000	16.790015
995.000000	16.843810
996.000000	16.897353
997.000000	16.951982
998.000000	17.008260
999.000000	17.063320
1000.000000	17.117348
1001.000000	17.171925
1002.000000	17.228153
1003.000000	17.283518
1004.000000	17.338555
1005.000000	17.393437
1006.000000	17.448702
1007.000000	17.504938
1008.000000	17.560762
1009.000000	17.617048
1010.000000	17.674402
1011.000000	17.730425
1012.000000	17.785553
1013.000000	17.841797
1014.000000	17.897820
1015.000000	17.953810
1016.000000	18.010715
1017.000000	18.067777
1018.000000	18.124255
1019.000000	18.181092
1020.000000	18.238400
1021.000000	18.295870
1022.000000	18.354703
1023.000000	18.414068
1024.000000	18.473363
1025.000000	18.533853
1026.000000	18.593003
1027.000000	18.651150
1028.000000	18.710042
1029.000000	18.770545
1030.000000	18.831737
1031.000000	18.893453
1032.000000	18.954612
1033.000000	19.014637
1034.000000	19.075070
1035.000000	19.134792
1036.000000	19.194992
1037.000000	19.256980
1038.000000	19.319472
1039.000000	19.381235
1040.000000	19.442068
1041.000000	19.501745
1042.000000	19.560360
1043.000000	19.619570
1044.000000	19.678830
1045.000000	19.739632
1046.000000	19.800995
1047.000000	19.860665
1048.000000	19.920920
1049.000000	19.981655
1050.000000	20.042500
1051.000000	20.104065
1052.000000	20.166583
1053.000000	20.228717
1054.000000	20.291468
1055.000000	20.353213
1056.000000	20.414683
1057.000000	20.477938
1058.000000	20.540665
1059.000000	20.602465
1060.000000	20.664035
1061.000000	20.725653
1062.000000	20.786495
1063.000000	20.849035
1064.000000	20.911280
1065.000000	20.974607
1066.000000	21.037755
1067.000000	21.099095
1068.000000	21.161497
1069.000000	21.223780
1070.000000	21.287282
1071.000000	21.350887
1072.000000	21.414732
1073.000000	21.477992
1074.000000	21.539995
1075.000000	21.600788
1076.000000	21.663155
1077.000000	21.727462
1078.000000	21.789337
1079.000000	21.851110
1080.000000	21.911780
1081.000000	21.973177
1082.000000	22.035217
1083.000000	22.096393
1084.000000	22.158960
1085.000000	22.221777
1086.000000	22.282833
1087.000000	22.343330
1088.000000	22.404608
1089.000000	22.466120
1090.000000	22.527015
1091.000000	22.587847
1092.000000	22.647742
1093.000000	22.708650
1094.000000	22.770790
1095.000000	22.834355
1096.000000	22.897440
1097.000000	22.959402
1098.000000	23.021033
1099.000000	23.083202
1100.000000	23.146932
1101.000000	23.209120
1102.000000	23.271615
1103.000000	23.333965
1104.000000	23.395028
1105.000000	23.455080
1106.000000	23.514798
1107.000000	23.574960
1108.000000	23.636000
1109.000000	23.696575
1110.000000	23.756550
1111.000000	23.817097
1112.000000	23.876943
1113.000000	23.934958
1114.000000	23.994045
1115.000000	24.051830
1116.000000	24.110032
1117.000000	24.168715
1118.000000	24.225865
1119.000000	24.282755
1120.000000	24.338560
1121.000000	24.395293
1122.000000	24.450725
1123.000000	24.507225
1124.000000	24.560298
1125.000000	24.612452
1126.000000	24.664465
1127.000000	24.713567
1128.000000	24.763770
1129.000000	24.813295
1130.000000	24.861033
1131.000000	24.904132
1132.000000	24.946835
1133.000000	24.987895
1134.000000	25.030657
1135.000000	25.073835
1136.000000	25.113527
1137.000000	25.152310
1138.000000	25.190315
1139.000000	25.226077
1140.000000	25.261960
1141.000000	25.299633
1142.000000	25.336770
1143.000000	25.373242
1144.000000	25.409523
1145.000000	25.445577
1146.000000	25.481020
1147.000000	25.518648
1148.000000	25.555165
1149.000000	25.590843
1150.000000	25.626770
1151.000000	25.662933
1152.000000	25.699570
1153.000000	25.734933
1154.000000	25.767740
1155.000000	25.799160
1156.000000	25.829455
1157.000000	25.856673
1158.000000	25.883015
1159.000000	25.908450
1160.000000	25.931595
1161.000000	25.951150
1162.000000	25.968925
1163.000000	25.985652
1164.000000	25.999630
1165.000000	26.011585
1166.000000	26.025562
1167.000000	26.039403
1168.000000	26.050760
1169.000000	26.062935
1170.000000	26.075695
1171.000000	26.090877
1172.000000	26.105945
1173.000000	26.122550
1174.000000	26.141728
1175.000000	26.161942
1176.000000	26.182785
1177.000000	26.205215
1178.000000	26.230200
1179.000000	26.255480
1180.000000	26.281867
1181.000000	26.309593
1182.000000	26.339120
1183.000000	26.368175
1184.000000	26.399660
1185.000000	26.433332
1186.000000	26.468820
1187.000000	26.505007
1188.000000	26.542510
1189.000000	26.584440
1190.000000	26.629735
1191.000000	26.676657
1192.000000	26.725038
1193.000000	26.778323
1194.000000	26.831755
1195.000000	26.888370
1196.000000	26.946858
1197.000000	27.007455
1198.000000	27.069560
1199.000000	27.131885
1200.000000	27.194028
1201.000000	27.257348
1202.000000	27.320785
1203.000000	27.382050
1204.000000	27.444600
1205.000000	27.506768
1206.000000	27.567275
1207.000000	27.627683
1208.000000	27.687153
1209.000000	27.745787
1210.000000	27.804265
1211.000000	27.862512
1212.000000	27.921052
1213.000000	27.980223
1214.000000	28.038670
1215.000000	28.096528
1216.000000	28.155560
1217.000000	28.213670
1218.000000	28.272528
1219.000000	28.331075
1220.000000	28.389232
1221.000000	28.446182
1222.000000	28.503017
1223.000000	28.559532
1224.000000	28.616035
1225.000000	28.671400
1226.000000	28.726165
1227.000000	28.781385
1228.000000	28.836197
1229.000000	28.890370
1230.000000	28.945107
1231.000000	29.000258
1232.000000	29.054750
1233.000000	29.108843
1234.000000	29.162833
1235.000000	29.217247
1236.000000	29.271860
1237.000000	29.325702
1238.000000	29.380110
1239.000000	29.434322
1240.000000	29.486677
1241.000000	29.539182
1242.000000	29.593610
1243.000000	29.649670
1244.000000	29.706148
1245.000000	29.762950
1246.000000	29.820158
1247.000000	29.878425
1248.000000	29.936640
1249.000000	29.995650
1250.000000	30.056210
1251.000000	30.115795
1252.000000	30.173655
1253.000000	30.229902
1254.000000	30.285157
1255.000000	30.339855
1256.000000	30.393668
1257.000000	30.446773
1258.000000	30.498742
1259.000000	30.549418
1260.000000	30.598262
1261.000000	30.646275
1262.000000	30.693688
1263.000000	30.740763
1264.000000	30.787565
1265.000000	30.833475
1266.000000	30.878355
1267.000000	30.921557
1268.000000	30.963823
1269.000000	31.006077
1270.000000	31.047985
1271.000000	31.089852
1272.000000	31.131972
1273.000000	31.173720
1274.000000	31.215357
1275.000000	31.256588
1276.000000	31.297575
1277.000000	31.339275
1278.000000	31.382235
1279.000000	31.426215
1280.000000	31.471503
1281.000000	31.517905
1282.000000	31.564585
1283.000000	31.611683
1284.000000	31.659197
1285.000000	31.707617
1286.000000	31.756305
1287.000000	31.805563
1288.000000	31.854827
1289.000000	31.903645
1290.000000	31.952427
1291.000000	32.000260
1292.000000	32.048300
1293.000000	32.096502
1294.000000	32.144260
1295.000000	32.191040
1296.000000	32.237775
1297.000000	32.283563
1298.000000	32.327368
1299.000000	32.370093
1300.000000	32.411360
1301.000000	32.451690
1302.000000	32.491183
1303.000000	32.528970
1304.000000	32.565310
1305.000000	32.600950
1306.000000	32.635495
1307.000000	32.669190
1308.000000	32.702100
1309.000000	32.733560
1310.000000	32.763605
1311.000000	32.792020
1312.000000	32.818817
1313.000000	32.844355
1314.000000	32.868962
1315.000000	32.892220
1316.000000	32.912090
1317.000000	32.929740
1318.000000	32.947182
1319.000000	32.963295
1320.000000	32.977930
1321.000000	32.991660
1322.000000	33.003918
1323.000000	33.015392
1324.000000	33.024685
1325.000000	33.031900
1326.000000	33.038665
1327.000000	33.043690
1328.000000	33.046127
1329.000000	33.048145
1330.000000	33.048992
1331.000000	33.047348
1332.000000	33.041855
1333.000000	33.031705
1334.000000	33.020220
1335.000000	33.006813
1336.000000	32.991923
1337.000000	32.974725
1338.000000	32.953785
1339.000000	32.928393
1340.000000	32.899115
1341.000000	32.865425
1342.000000	32.829417
1343.000000	32.791303
1344.000000	32.749018
1345.000000	32.702085
1346.000000	32.652507
1347.000000	32.600340
1348.000000	32.546078
1349.000000	32.487800
1350.000000	32.426935
1351.000000	32.365027
1352.000000	32.301778
1353.000000	32.240970
1354.000000	32.183080
1355.000000	32.128377
1356.000000	32.072735
1357.000000	32.018292
1358.000000	31.965240
1359.000000	31.915117
1360.000000	31.873420
1361.000000	31.841313
1362.000000	31.808465
1363.000000	31.772683
1364.000000	31.737415
1365.000000	31.698597
1366.000000	31.658133
1367.000000	31.617793
1368.000000	31.574955
1369.000000	31.525770
1370.000000	31.467155
1371.000000	31.395252
1372.000000	31.314335
1373.000000	31.220792
1374.000000	31.110382
1375.000000	30.989710
1376.000000	30.857315
1377.000000	30.709640
1378.000000	30.550012
1379.000000	30.386030
1380.000000	30.220070
1381.000000	30.058215
1382.000000	29.905810
1383.000000	29.763918
1384.000000	29.631360
1385.000000	29.505880
1386.000000	29.392357
1387.000000	29.297275
1388.000000	29.214570
1389.000000	29.136283
1390.000000	29.059343
1391.000000	28.984810
1392.000000	28.909745
1393.000000	28.834540
1394.000000	28.765913
1395.000000	28.705980
1396.000000	28.643110
1397.000000	28.564225
1398.000000	28.479890
1399.000000	28.403597
1400.000000	28.329342
1401.000000	28.242382
1402.000000	28.142385
1403.000000	28.037020
1404.000000	27.921258
1405.000000	27.790905
1406.000000	27.653020
1407.000000	27.518372
1408.000000	27.378760
1409.000000	27.225513
1410.000000	27.061237
1411.000000	26.893480
1412.000000	26.730805
1413.000000	26.569660
1414.000000	26.407677
1415.000000	26.244275
1416.000000	26.080113
1417.000000	25.917895
1418.000000	25.761840
1419.000000	25.609610
1420.000000	25.459710
1421.000000	25.316198
1422.000000	25.176678
1423.000000	25.038795
1424.000000	24.903218
1425.000000	24.773685
1426.000000	24.650903
1427.000000	24.530845
1428.000000	24.413428
1429.000000	24.298040
1430.000000	24.190198
1431.000000	24.087917
1432.000000	23.989538
1433.000000	23.893808
1434.000000	23.800148
1435.000000	23.711302
1436.000000	23.626808
1437.000000	23.546782
1438.000000	23.469335
1439.000000	23.396313
1440.000000	23.324348
1441.000000	23.255823
1442.000000	23.187922
1443.000000	23.121745
1444.000000	23.059785
1445.000000	23.001115
1446.000000	22.943153
1447.000000	22.883810
1448.000000	22.824730
1449.000000	22.769000
1450.000000	22.715167
1451.000000	22.660902
1452.000000	22.605973
1453.000000	22.551320
1454.000000	22.497885
1455.000000	22.442263
1456.000000	22.387445
1457.000000	22.333370
1458.000000	22.279750
1459.000000	22.224660
1460.000000	22.168750
1461.000000	22.111810
1462.000000	22.057252
1463.000000	22.002598
1464.000000	21.948110
1465.000000	21.894588
1466.000000	21.840880
1467.000000	21.787285
1468.000000	21.732660
1469.000000	21.677902
1470.000000	21.625540
1471.000000	21.574420
1472.000000	21.523545
1473.000000	21.473513
1474.000000	21.422487
1475.000000	21.371730
1476.000000	21.323837
1477.000000	21.278665
1478.000000	21.237323
1479.000000	21.198180
1480.000000	21.159745
1481.000000	21.124547
1482.000000	21.090745
1483.000000	21.059750
1484.000000	21.033200
1485.000000	21.009572
1486.000000	20.987203
1487.000000	20.966470
1488.000000	20.947575
1489.000000	20.930523
1490.000000	20.915213
1491.000000	20.901315
1492.000000	20.890810
1493.000000	20.882033
1494.000000	20.875138
1495.000000	20.870875
1496.000000	20.869238
1497.000000	20.870835
1498.000000	20.876097
1499.000000	20.884840
1500.000000	20.897208
1501.000000	20.914022
1502.000000	20.935437
1503.000000	20.961882
1504.000000	20.992442
1505.000000	21.026322
1506.000000	21.063600
1507.000000	21.105045
1508.000000	21.148633
1509.000000	21.195532
1510.000000	21.244948
1511.000000	21.295723
1512.000000	21.348005
1513.000000	21.400340
1514.000000	21.452550
1515.000000	21.507052
1516.000000	21.562518
1517.000000	21.617350
1518.000000	21.672950
1519.000000	21.727785
1520.000000	21.782113
1521.000000	21.835700
1522.000000	21.888417
1523.000000	21.941520
1524.000000	21.995033
1525.000000	22.047325
1526.000000	22.099105
1527.000000	22.150130
1528.000000	22.200545
1529.000000	22.250177
1530.000000	22.299377
1531.000000	22.347995
1532.000000	22.395845
1533.000000	22.442890
1534.000000	22.488385
1535.000000	22.531893
1536.000000	22.574625
1537.000000	22.616433
1538.000000	22.656502
1539.000000	22.695250
1540.000000	22.732445
1541.000000	22.768785
1542.000000	22.805042
1543.000000	22.842130
1544.000000	22.879832
1545.000000	22.918675
1546.000000	22.958565
1547.000000	22.998835
1548.000000	23.040715
1549.000000	23.084805
1550.000000	23.130698
1551.000000	23.177925
1552.000000	23.225390
1553.000000	23.272232
1554.000000	23.317845
1555.000000	23.361810
1556.000000	23.404293
1557.000000	23.445452
1558.000000	23.483313
1559.000000	23.517442
1560.000000	23.548152
1561.000000	23.574728
1562.000000	23.596985
1563.000000	23.615212
1564.000000	23.630030
1565.000000	23.640968
1566.000000	23.647633
1567.000000	23.650752
1568.000000	23.651712
1569.000000	23.650703
1570.000000	23.648448
1571.000000	23.645898
1572.000000	23.643570
1573.000000	23.641830
1574.000000	23.641152
1575.000000	23.642022
1576.000000	23.645032
1577.000000	23.649338
1578.000000	23.655507
1579.000000	23.664763
1580.000000	23.676678
1581.000000	23.691185
1582.000000	23.708675
1583.000000	23.728767
1584.000000	23.751763
1585.000000	23.777988
1586.000000	23.807263
1587.000000	23.839532
1588.000000	23.874337
1589.000000	23.910692
1590.000000	23.948047
1591.000000	23.987070
1592.000000	24.027372
1593.000000	24.068303
1594.000000	24.109740
1595.000000	24.152242
1596.000000	24.195763
1597.000000	24.241285
1598.000000	24.289417
1599.000000	24.338207
1600.000000	24.389065
1601.000000	24.441455
1602.000000	24.494625
1603.000000	24.550148
1604.000000	24.607050
1605.000000	24.665120
1606.000000	24.723862
1607.000000	24.782300
1608.000000	24.838760
1609.000000	24.895315
1610.000000	24.951293
1611.000000	25.005510
1612.000000	25.058388
1613.000000	25.108532
1614.000000	25.157290
1615.000000	25.203625
1616.000000	25.249363
1617.000000	25.293140
1618.000000	25.335608
1619.000000	25.377173
1620.000000	25.417540
1621.000000	25.456872
1622.000000	25.495642
1623.000000	25.534805
1624.000000	25.573180
1625.000000	25.611307
1626.000000	25.647860
1627.000000	25.684682
1628.000000	25.721817
1629.000000	25.757065
1630.000000	25.791525
1631.000000	25.826338
1632.000000	25.860230
1633.000000	25.891678
1634.000000	25.923500
1635.000000	25.953632
1636.000000	25.981885
1637.000000	26.007552
1638.000000	26.031948
1639.000000	26.056550
1640.000000	26.078875
1641.000000	26.098835
1642.000000	26.117573
1643.000000	26.136543
1644.000000	26.152787
1645.000000	26.168298
1646.000000	26.183735
1647.000000	26.197515
1648.000000	26.208425
1649.000000	26.216210
1650.000000	26.222337
1651.000000	26.226565
1652.000000	26.227010
1653.000000	26.223888
1654.000000	26.215143
1655.000000	26.203723
1656.000000	26.185848
1657.000000	26.163563
1658.000000	26.136055
1659.000000	26.103105
1660.000000	26.065143
1661.000000	26.019572
1662.000000	25.967593
1663.000000	25.908977
1664.000000	25.844715
1665.000000	25.771812
1666.000000	25.694097
1667.000000	25.612558
1668.000000	25.523735
1669.000000	25.427168
1670.000000	25.324940
1671.000000	25.219683
1672.000000	25.112300
1673.000000	25.000347
1674.000000	24.886447
1675.000000	24.769862
1676.000000	24.649730
1677.000000	24.525965
1678.000000	24.402397
1679.000000	24.278250
1680.000000	24.150613
1681.000000	24.019807
1682.000000	23.885575
1683.000000	23.750933
1684.000000	23.618393
1685.000000	23.488103
1686.000000	23.361445
1687.000000	23.242593
1688.000000	23.135252
1689.000000	23.042875
1690.000000	22.965608
1691.000000	22.906533
1692.000000	22.864530
1693.000000	22.838985
1694.000000	22.827053
1695.000000	22.826795
1696.000000	22.836050
1697.000000	22.850903
1698.000000	22.865208
1699.000000	22.877485
1700.000000	22.887902
1701.000000	22.892997
1702.000000	22.892915
1703.000000	22.885725
1704.000000	22.870190
1705.000000	22.848913
1706.000000	22.821127
1707.000000	22.785928
1708.000000	22.744120
1709.000000	22.694860
1710.000000	22.636590
1711.000000	22.569545
1712.000000	22.494545
1713.000000	22.409688
1714.000000	22.316043
1715.000000	22.215003
1716.000000	22.105862
1717.000000	21.988830
1718.000000	21.867525
1719.000000	21.744070
1720.000000	21.621952
1721.000000	21.501790
1722.000000	21.387757
1723.000000	21.285000
1724.000000	21.195208
1725.000000	21.117950
1726.000000	21.057173
1727.000000	21.012010
1728.000000	20.983205
1729.000000	20.968122
1730.000000	20.965175
1731.000000	20.976707
1732.000000	20.999307
1733.000000	21.030628
1734.000000	21.067855
1735.000000	21.111630
1736.000000	21.161172
1737.000000	21.214958
1738.000000	21.273420
1739.000000	21.336478
1740.000000	21.405577
1741.000000	21.476152
1742.000000	21.547933
1743.000000	21.620278
1744.000000	21.693195
1745.000000	21.764800
1746.000000	21.835242
1747.000000	21.905655
1748.000000	21.972097
1749.000000	22.035587
1750.000000	22.093400
1751.000000	22.146730
1752.000000	22.193370
1753.000000	22.234035
1754.000000	22.270913
1755.000000	22.303985
1756.000000	22.330593
1757.000000	22.352983
1758.000000	22.373020
1759.000000	22.390763
1760.000000	22.406312
1761.000000	22.418510
1762.000000	22.431455
1763.000000	22.446548
1764.000000	22.462540
1765.000000	22.480902
1766.000000	22.503577
1767.000000	22.528623
1768.000000	22.556233
1769.000000	22.585080
1770.000000	22.616545
1771.000000	22.652210
1772.000000	22.689798
1773.000000	22.729233
1774.000000	22.768165
1775.000000	22.807295
1776.000000	22.847173
1777.000000	22.887260
1778.000000	22.925313
1779.000000	22.963383
1780.000000	23.000830
1781.000000	23.035802
1782.000000	23.068282
1783.000000	23.097662
1784.000000	23.125937
1785.000000	23.150882
1786.000000	23.171257
1787.000000	23.188655
1788.000000	23.204575
1789.000000	23.217813
1790.000000	23.230345
1791.000000	23.242787
1792.000000	23.254528
1793.000000	23.265683
1794.000000	23.278010
1795.000000	23.291857
1796.000000	23.305700
1797.000000	23.319620
1798.000000	23.333980
1799.000000	23.350190
1800.000000	23.367270
1801.000000	23.386388
1802.000000	23.406145
1803.000000	23.425587
1804.000000	23.443740
1805.000000	23.463068
1806.000000	23.485158
1807.000000	23.508440
1808.000000	23.529743
1809.000000	23.548927
1810.000000	23.569038
1811.000000	23.589455
1812.000000	23.610230
1813.000000	23.630443
1814.000000	23.650390
1815.000000	23.668318
1816.000000	23.682498
1817.000000	23.692092
1818.000000	23.701147
1819.000000	23.713252
1820.000000	23.729280
1821.000000	23.746690
1822.000000	23.758657
1823.000000	23.765595
1824.000000	23.770508
1825.000000	23.775682
1826.000000	23.784730
1827.000000	23.800500
1828.000000	23.819967
1829.000000	23.838815
1830.000000	23.853247
1831.000000	23.863775
1832.000000	23.875943
1833.000000	23.891320
1834.000000	23.911787
1835.000000	23.936455
1836.000000	23.963738
1837.000000	23.990547
1838.000000	24.017125
1839.000000	24.045117
1840.000000	24.074923
1841.000000	24.111650
1842.000000	24.150108
1843.000000	24.182823
1844.000000	24.203917
1845.000000	24.218320
1846.000000	24.232180
1847.000000	24.255415
1848.000000	24.283625
1849.000000	24.304620
1850.000000	24.312070
1851.000000	24.306313
1852.000000	24.301630
1853.000000	24.306188
1854.000000	24.320475
1855.000000	24.332190
1856.000000	24.333275
1857.000000	24.321035
1858.000000	24.301705
1859.000000	24.284553
1860.000000	24.273542
1861.000000	24.263910
1862.000000	24.245285
1863.000000	24.214295
1864.000000	24.170050
1865.000000	24.120227
1866.000000	24.068252
1867.000000	24.006540
1868.000000	23.934995
1869.000000	23.859132
1870.000000	23.780207
1871.000000	23.692972
1872.000000	23.601590
1873.000000	23.509062
1874.000000	23.410430
1875.000000	23.302528
1876.000000	23.181085
1877.000000	23.049355
1878.000000	22.906107
1879.000000	22.745590
1880.000000	22.564685
1881.000000	22.372113
1882.000000	22.167668
1883.000000	21.949920
1884.000000	21.724083
1885.000000	21.488063
1886.000000	21.243797
1887.000000	20.988025
1888.000000	20.721393
1889.000000	20.447950
1890.000000	20.169677
1891.000000	19.884625
1892.000000	19.589575
1893.000000	19.285892
1894.000000	18.972742
1895.000000	18.651260
1896.000000	18.324140
1897.000000	17.993570
1898.000000	17.663785
1899.000000	17.331347
1900.000000	16.998282
1901.000000	16.663288
1902.000000	16.331630
1903.000000	16.003330
1904.000000	15.683745
1905.000000	15.377675
1906.000000	15.078560
1907.000000	14.787793
1908.000000	14.506193
1909.000000	14.234127
1910.000000	13.969227
1911.000000	13.718827
1912.000000	13.482290
1913.000000	13.260323
1914.000000	13.047285
1915.000000	12.846705
1916.000000	12.656187
1917.000000	12.475117
1918.000000	12.306265
1919.000000	12.151048
1920.000000	12.011947
1921.000000	11.881925
1922.000000	11.759755
1923.000000	11.642818
1924.000000	11.534698
1925.000000	11.429253
1926.000000	11.335115
1927.000000	11.255215
1928.000000	11.183125
1929.000000	11.116900
1930.000000	11.052243
1931.000000	10.996882
1932.000000	10.948827
1933.000000	10.905352
1934.000000	10.870352
1935.000000	10.843322
1936.000000	10.824812
1937.000000	10.807470
1938.000000	10.793973
1939.000000	10.786200
1940.000000	10.787445
1941.000000	10.788505
1942.000000	10.795920
1943.000000	10.812387
1944.000000	10.833140
1945.000000	10.854175
1946.000000	10.878137
1947.000000	10.911700
1948.000000	10.948542
1949.000000	10.987058
1950.000000	11.025477
1951.000000	11.069690
1952.000000	11.114535
1953.000000	11.160927
1954.000000	11.210382
1955.000000	11.265918
1956.000000	11.317560
1957.000000	11.368430
1958.000000	11.420730
1959.000000	11.474565
1960.000000	11.533165
1961.000000	11.586998
1962.000000	11.642850
1963.000000	11.700688
1964.000000	11.757378
1965.000000	11.812417
1966.000000	11.870060
1967.000000	11.928695
1968.000000	11.983665
1969.000000	12.036388
1970.000000	12.086345
1971.000000	12.141057
1972.000000	12.195308
1973.000000	12.248940
1974.000000	12.302293
1975.000000	12.358170
1976.000000	12.414822
1977.000000	12.468700
1978.000000	12.524717
1979.000000	12.581797
1980.000000	12.641760
1981.000000	12.701550
1982.000000	12.759522
1983.000000	12.820035
1984.000000	12.879673
1985.000000	12.936435
1986.000000	12.993430
1987.000000	13.049288
1988.000000	13.108715
1989.000000	13.168613
1990.000000	13.224058
1991.000000	13.280925
1992.000000	13.337015
1993.000000	13.387365
1994.000000	13.438270
1995.000000	13.487575
1996.000000	13.536210
1997.000000	13.586863
1998.000000	13.634297
1999.000000	13.676405
2000.000000	13.715827
2001.000000	13.750495
2002.000000	13.786717
2003.000000	13.821828
2004.000000	13.851810
2005.000000	13.879828
2006.000000	13.903718
2007.000000	13.923670
2008.000000	13.936718
2009.000000	13.949080
2010.000000	13.957413
2011.000000	13.966300
2012.000000	13.967178
2013.000000	13.960700
2014.000000	13.953228
2015.000000	13.942327
2016.000000	13.925352
2017.000000	13.901170
2018.000000	13.874285
2019.000000	13.845915
2020.000000	13.814307
2021.000000	13.775512
2022.000000	13.732390
2023.000000	13.687572
2024.000000	13.636282
2025.000000	13.581848
2026.000000	13.526783
2027.000000	13.468203
2028.000000	13.404972
2029.000000	13.334938
2030.000000	13.266010
2031.000000	13.192345
2032.000000	13.114392
2033.000000	13.035072
2034.000000	12.953678
2035.000000	12.869210
2036.000000	12.778967
2037.000000	12.687710
2038.000000	12.596607
2039.000000	12.503728
2040.000000	12.406835
2041.000000	12.309390
2042.000000	12.212240
2043.000000	12.113182
2044.000000	12.013910
2045.000000	11.914483
2046.000000	11.819615
2047.000000	11.727105
2048.000000	11.637508
2049.000000	11.558005
2050.000000	11.483680
2051.000000	11.416565
2052.000000	11.358950
2053.000000	11.306275
2054.000000	11.262530
2055.000000	11.227488
2056.000000	11.203373
2057.000000	11.193050
2058.000000	11.193587
2059.000000	11.198695
2060.000000	11.208887
2061.000000	11.225165
2062.000000	11.251347
2063.000000	11.288763
2064.000000	11.333428
2065.000000	11.383043
2066.000000	11.438245
2067.000000	11.494400
2068.000000	11.546742
2069.000000	11.604120
2070.000000	11.672023
2071.000000	11.744022
2072.000000	11.814845
2073.000000	11.886318
2074.000000	11.953645
2075.000000	12.015975
2076.000000	12.069553
2077.000000	12.121340
2078.000000	12.178995
2079.000000	12.235112
2080.000000	12.281332
2081.000000	12.318700
2082.000000	12.351040
2083.000000	12.378792
2084.000000	12.403227
2085.000000	12.429398
2086.000000	12.452658
2087.000000	12.469165
2088.000000	12.480740
2089.000000	12.483813
2090.000000	12.490155
2091.000000	12.497077
2092.000000	12.500465
2093.000000	12.501115
2094.000000	12.506092
2095.000000	12.505947
2096.000000	12.504015
2097.000000	12.502408
2098.000000	12.504098
2099.000000	12.505102
2100.000000	12.501458
2101.000000	12.493095
2102.000000	12.484795
2103.000000	12.480707
2104.000000	12.476167
2105.000000	12.479398
2106.000000	12.489235
2107.000000	12.500467
2108.000000	12.498480
2109.000000	12.501595
2110.000000	12.510198
2111.000000	12.521185
2112.000000	12.528678
2113.000000	12.528180
2114.000000	12.530910
2115.000000	12.527513
2116.000000	12.522578
2117.000000	12.517392
2118.000000	12.521033
2119.000000	12.521475
2120.000000	12.516535
2121.000000	12.508582
2122.000000	12.504830
2123.000000	12.496913
2124.000000	12.483538
2125.000000	12.469250
2126.000000	12.454073
2127.000000	12.437265
2128.000000	12.413680
2129.000000	12.389810
2130.000000	12.355828
2131.000000	12.324265
2132.000000	12.294662
2133.000000	12.269575
2134.000000	12.234328
2135.000000	12.201218
2136.000000	12.150660
2137.000000	12.098400
2138.000000	12.041177
2139.000000	11.981215
2140.000000	11.929290
2141.000000	11.875375
2142.000000	11.808415
2143.000000	11.743675
2144.000000	11.682643
2145.000000	11.617548
2146.000000	11.563923
2147.000000	11.500948
2148.000000	11.441365
2149.000000	11.382972
2150.000000	11.312075
2151.000000	11.243080
2152.000000	11.176422
2153.000000	11.120405
2154.000000	11.055705
2155.000000	10.986828
2156.000000	10.914407
2157.000000	10.850257
2158.000000	10.794600
2159.000000	10.735060
2160.000000	10.684003
2161.000000	10.633168
2162.000000	10.579128
2163.000000	10.514043
2164.000000	10.456430
2165.000000	10.408632
2166.000000	10.374375
2167.000000	10.334200
2168.000000	10.291957
2169.000000	10.260665
2170.000000	10.237180
2171.000000	10.208615
2172.000000	10.180158
2173.000000	10.146517
2174.000000	10.132490
2175.000000	10.109815
2176.000000	10.090727
2177.000000	10.085425
2178.000000	10.075650
2179.000000	10.054267
2180.000000	10.034102
2181.000000	10.030460
2182.000000	10.032475
2183.000000	10.030428
2184.000000	10.017383
2185.000000	10.016237
2186.000000	10.003800
2187.000000	9.986740
2188.000000	9.968818
2189.000000	9.953915
2190.000000	9.938520
2191.000000	9.905275
2192.000000	9.893283
2193.000000	9.880258
2194.000000	9.857915
2195.000000	9.834188
2196.000000	9.803122
2197.000000	9.767163
2198.000000	9.730992
2199.000000	9.696167
2200.000000	9.658112
2201.000000	9.624267
2202.000000	9.573455
2203.000000	9.536150
2204.000000	9.494915
2205.000000	9.459805
2206.000000	9.441308
2207.000000	9.418687
2208.000000	9.410870
2209.000000	9.418318
2210.000000	9.412617
2211.000000	9.421318
2212.000000	9.434715
2213.000000	9.456635
2214.000000	9.493920
2215.000000	9.523445
2216.000000	9.562530
2217.000000	9.610923
2218.000000	9.650772
2219.000000	9.689547
2220.000000	9.743208
2221.000000	9.799702
2222.000000	9.860798
2223.000000	9.913740
2224.000000	9.975758
2225.000000	10.035372
2226.000000	10.075678
2227.000000	10.128747
2228.000000	10.180875
2229.000000	10.221025
2230.000000	10.270625
2231.000000	10.303105
2232.000000	10.330813
2233.000000	10.359655
2234.000000	10.370245
2235.000000	10.382727
2236.000000	10.404507
2237.000000	10.403803
2238.000000	10.408393
2239.000000	10.405398
2240.000000	10.396202
2241.000000	10.380535
2242.000000	10.360745
2243.000000	10.335065
2244.000000	10.306817
2245.000000	10.272603
2246.000000	10.225352
2247.000000	10.186468
2248.000000	10.135752
2249.000000	10.092330
2250.000000	10.032635
2251.000000	9.979570
2252.000000	9.922477
2253.000000	9.863590
2254.000000	9.798153
2255.000000	9.737732
2256.000000	9.668365
2257.000000	9.599585
2258.000000	9.537102
2259.000000	9.456885
2260.000000	9.392577
2261.000000	9.326887
2262.000000	9.271663
2263.000000	9.214710
2264.000000	9.169847
2265.000000	9.121250
2266.000000	9.092628
2267.000000	9.054265
2268.000000	9.017275
2269.000000	9.004145
2270.000000	8.986755
2271.000000	8.976970
2272.000000	8.942422
2273.000000	8.914998
2274.000000	8.889847
2275.000000	8.869552
2276.000000	8.844853
2277.000000	8.838847
2278.000000	8.836110
2279.000000	8.825603
2280.000000	8.825155
2281.000000	8.809395
2282.000000	8.818975
2283.000000	8.827702
2284.000000	8.836365
2285.000000	8.846448
2286.000000	8.864110
2287.000000	8.879875
2288.000000	8.893363
2289.000000	8.897380
2290.000000	8.883573
2291.000000	8.876805
2292.000000	8.864755
2293.000000	8.852367
2294.000000	8.854345
2295.000000	8.861270
2296.000000	8.859508
2297.000000	8.851645
2298.000000	8.839975
2299.000000	8.838133
2300.000000	8.847500
2301.000000	8.873725
2302.000000	8.908880
2303.000000	8.943770
2304.000000	8.963605
2305.000000	8.979660
2306.000000	9.001922
2307.000000	9.018640
2308.000000	9.039793
2309.000000	9.065948
2310.000000	9.093580
2311.000000	9.121107
2312.000000	9.140627
2313.000000	9.160920
2314.000000	9.190378
2315.000000	9.210447
2316.000000	9.230875
2317.000000	9.258013
2318.000000	9.286505
2319.000000	9.309260
2320.000000	9.328618
2321.000000	9.350645
2322.000000	9.369730
2323.000000	9.386960
2324.000000	9.401872
2325.000000	9.424803
2326.000000	9.447563
2327.000000	9.467865
2328.000000	9.482067
2329.000000	9.483155
2330.000000	9.489178
2331.000000	9.492862
2332.000000	9.489747
2333.000000	9.496450
2334.000000	9.496120
2335.000000	9.499977
2336.000000	9.509730
2337.000000	9.530785
2338.000000	9.550358
2339.000000	9.581695
2340.000000	9.619552
2341.000000	9.647868
2342.000000	9.683048
2343.000000	9.711123
2344.000000	9.732188
2345.000000	9.739508
2346.000000	9.740663
2347.000000	9.744745
2348.000000	9.760210
2349.000000	9.771495
2350.000000	9.776355
2351.000000	9.789355
2352.000000	9.805160
2353.000000	9.819413
2354.000000	9.847257
2355.000000	9.894440
2356.000000	9.938690
2357.000000	9.974880
2358.000000	10.003995
2359.000000	10.041920
2360.000000	10.076857
2361.000000	10.107328
2362.000000	10.127910
2363.000000	10.141475
2364.000000	10.148363
2365.000000	10.143410
2366.000000	10.149415
2367.000000	10.159707
2368.000000	10.160318
2369.000000	10.166815
2370.000000	10.170845
2371.000000	10.168762
2372.000000	10.179193
2373.000000	10.205850
2374.000000	10.228447
2375.000000	10.256937
2376.000000	10.266542
2377.000000	10.270622
2378.000000	10.298287
2379.000000	10.348323
2380.000000	10.395480
2381.000000	10.429050
2382.000000	10.464655
2383.000000	10.503685
2384.000000	10.527415
2385.000000	10.556498
2386.000000	10.597250
2387.000000	10.632682
2388.000000	10.666918
2389.000000	10.674330
2390.000000	10.668790
2391.000000	10.691195
2392.000000	10.706188
2393.000000	10.700267
2394.000000	10.707438
2395.000000	10.693060
2396.000000	10.674682
2397.000000	10.659693
2398.000000	10.647803
2399.000000	10.638005
2400.000000	10.630427
2401.000000	10.602433
2402.000000	10.578320
2403.000000	10.573247
2404.000000	10.577797
2405.000000	10.588605
2406.000000	10.586870
2407.000000	10.593465
2408.000000	10.575040
2409.000000	10.546278
2410.000000	10.560793
2411.000000	10.555135
2412.000000	10.552772
2413.000000	10.550237
2414.000000	10.544272
2415.000000	10.530930
2416.000000	10.536140
2417.000000	10.532675
2418.000000	10.531170
2419.000000	10.542285
2420.000000	10.496135
2421.000000	10.481060
2422.000000	10.461003
2423.000000	10.430015
2424.000000	10.387940
2425.000000	10.369178
2426.000000	10.354373
2427.000000	10.339273
2428.000000	10.331630
2429.000000	10.296720
2430.000000	10.284765
2431.000000	10.251048
2432.000000	10.223772
2433.000000	10.205993
2434.000000	10.219880
2435.000000	10.216660
2436.000000	10.176875
2437.000000	10.139200
2438.000000	10.118610
2439.000000	10.073327
2440.000000	10.045865
2441.000000	10.040450
2442.000000	10.040115
2443.000000	9.991370
2444.000000	9.934902
2445.000000	9.887380
2446.000000	9.848555
2447.000000	9.813382
2448.000000	9.782720
2449.000000	9.796183
2450.000000	9.827185
2451.000000	9.838822
2452.000000	9.833043
2453.000000	9.839065
2454.000000	9.864952
2455.000000	9.837450
2456.000000	9.865580
2457.000000	9.877267
2458.000000	9.901655
2459.000000	9.954477
2460.000000	9.943815
2461.000000	9.946098
2462.000000	9.975910
2463.000000	10.008655
2464.000000	10.009313
2465.000000	10.154793
2466.000000	10.199617
2467.000000	10.242857
2468.000000	10.279237
2469.000000	10.273397
2470.000000	10.405157
2471.000000	10.442222
2472.000000	10.528488
2473.000000	10.627740
2474.000000	10.681727
2475.000000	10.703595
2476.000000	10.766210
2477.000000	10.881857
2478.000000	10.992852
2479.000000	11.148720
2480.000000	11.154228
2481.000000	11.323285
2482.000000	11.445080
2483.000000	11.645587
2484.000000	11.877145
2485.000000	11.985252
2486.000000	12.105325
2487.000000	12.149075
2488.000000	12.327305
2489.000000	12.426585
2490.000000	12.638003
2491.000000	12.810425
2492.000000	12.942600
2493.000000	12.951380
2494.000000	13.101440
2495.000000	13.289528
2496.000000	13.568248
2497.000000	13.815518
2498.000000	13.969043
2499.000000	14.129972
2500.000000	14.192042
2501.000000	17.835942
2502.000000	21.726728
2503.000000	25.911788
2504.000000	29.826988
2505.000000	33.759658
2506.000000	37.687660
2507.000000	41.583940
2508.000000	45.961105
2509.000000	50.265368
2510.000000	54.680560
2511.000000	55.664270
2512.000000	56.625680
2513.000000	57.281130
2514.000000	58.027090
2515.000000	58.936160
2516.000000	59.816340
2517.000000	60.892830
2518.000000	61.471330
2519.000000	62.341230
2520.000000	63.123790
2521.000000	63.904580
2522.000000	64.449670
2523.000000	65.070740
2524.000000	66.130640
2525.000000	67.014260
2526.000000	68.064460
2527.000000	69.339990
2528.000000	70.677230
2529.000000	71.922810
2530.000000	73.568920
2531.000000	74.578000
2532.000000	75.237960
2533.000000	76.017480
2534.000000	76.725560
2535.000000	77.322130
2536.000000	78.204570
2537.000000	79.051070
2538.000000	80.014080
2539.000000	80.447220
2540.000000	80.596230
2541.000000	81.477150
2542.000000	82.402850
2543.000000	83.042130
2544.000000	83.315320
2545.000000	83.958200
2546.000000	84.289860
2547.000000	84.659700
2548.000000	84.719720
2549.000000	85.091780
2550.000000	85.628450
2551.000000	86.021290
2552.000000	86.637220
2553.000000	87.291940
2554.000000	87.744510
2555.000000	87.771960
2556.000000	88.029640
2557.000000	88.627100
2558.000000	89.140810
2559.000000	90.161370
2560.000000	90.776920
2561.000000	90.728110
2562.000000	91.280540
2563.000000	91.644340
2564.000000	92.491490
2565.000000	93.959470
2566.000000	94.195530
2567.000000	94.592010
2568.000000	95.200050
2569.000000	94.837620
2570.000000	94.663270
2571.000000	95.137610
2572.000000	95.225010
2573.000000	95.788910
2574.000000	96.200110
2575.000000	96.236760
2576.000000	97.005490
2577.000000	96.648370
2578.000000	96.088540
2579.000000	95.895730
2580.000000	95.757810
2581.000000	95.798250
2582.000000	96.012210
2583.000000	96.614770
2584.000000	96.908180
2585.000000	96.957760
2586.000000	97.075550
2587.000000	97.222870
2588.000000	97.915170
2589.000000	98.497990
2590.000000	98.896240
2591.000000	99.789900
2592.000000	99.874520
2593.000000	98.855510
2594.000000	98.610550
2595.000000	98.863040
2596.000000	99.124540
2597.000000	100.118630
2598.000000	100.866590
2599.000000	101.416790
2600.000000	101.758300
2601.000000	100.981850
2602.000000	100.521100
2603.000000	101.332780
2604.000000	101.357920
2605.000000	100.607200
2606.000000	100.152110
2607.000000	99.556470
2608.000000	98.495510
2609.000000	97.874900
2610.000000	97.956370
2611.000000	98.535030
2612.000000	99.315140
2613.000000	99.051830
2614.000000	98.599360
2615.000000	98.497130
2616.000000	98.153180
2617.000000	97.481990
2618.000000	97.559440
2619.000000	97.971390
2620.000000	97.497710
2621.000000	97.033060
2622.000000	96.863100
2623.000000	96.959330
2624.000000	97.234850
2625.000000	97.525580
2626.000000	98.397600
2627.000000	99.094570
2628.000000	99.249020
2629.000000	98.882840
2630.000000	98.953340
2631.000000	99.703880
2632.000000	99.921900
2633.000000	100.043900
2634.000000	100.238880
2635.000000	100.582040
2636.000000	100.947510
2637.000000	101.280070
2638.000000	101.730870
2639.000000	101.886210
2640.000000	102.115090
2641.000000	102.344660
2642.000000	102.753770
2643.000000	103.004760
2644.000000	103.079620
2645.000000	102.856300
2646.000000	101.932930
2647.000000	101.116520
2648.000000	100.750930
2649.000000	101.313790
2650.000000	101.564570
2651.000000	101.011350
2652.000000	100.985550
2653.000000	100.295070
2654.000000	100.029710
2655.000000	100.697120
2656.000000	101.158690
2657.000000	102.270240
2658.000000	101.636370
2659.000000	101.327180
2660.000000	101.570950
2661.000000	100.931430
2662.000000	99.957180
2663.000000	100.037530
2664.000000	100.577960
2665.000000	99.939060
2666.000000	99.529180
2667.000000	98.665120
2668.000000	99.312070
2669.000000	98.944210
2670.000000	98.454940
2671.000000	98.658300
2672.000000	99.014540
2673.000000	99.049170
2674.000000	98.963390
2675.000000	99.017010
2676.000000	99.176780
2677.000000	99.535910
2678.000000	99.264590
2679.000000	100.175330
2680.000000	99.998800
2681.000000	99.497480
2682.000000	98.924150
2683.000000	98.909950
2684.000000	98.333630
2685.000000	98.801670
2686.000000	99.566280
2687.000000	99.477010
2688.000000	99.321520
2689.000000	99.099590
2690.000000	99.613150
2691.000000	100.732340
2692.000000	101.712480
2693.000000	101.662720
2694.000000	102.079480
2695.000000	101.015250
2696.000000	100.313760
2697.000000	100.712960
2698.000000	100.763970
2699.000000	100.275750
2700.000000	100.034900
2701.000000	99.654580
2702.000000	98.602390
2703.000000	98.785460
2704.000000	99.259690
2705.000000	100.342820
2706.000000	101.295640
2707.000000	100.603190
2708.000000	99.996300
2709.000000	99.826280
2710.000000	99.545750
2711.000000	99.661410
2712.000000	100.152860
2713.000000	100.098770
2714.000000	98.811050
2715.000000	98.681980
2716.000000	98.006520
2717.000000	97.795500
2718.000000	98.303300
2719.000000	98.007890
2720.000000	97.726710
2721.000000	97.729380
2722.000000	97.574320
2723.000000	98.481170
2724.000000	99.428310
2725.000000	100.053400
2726.000000	99.951470
2727.000000	100.077250
2728.000000	100.752960
2729.000000	101.585380
2730.000000	102.579480
2731.000000	102.039610
2732.000000	101.379940
2733.000000	100.152260
2734.000000	100.613800
2735.000000	99.084380
2736.000000	99.366510
2737.000000	100.361780
2738.000000	99.932450
2739.000000	99.031650
2740.000000	97.687020
2741.000000	98.530240
2742.000000	99.318290
2743.000000	100.094770
2744.000000	99.440090
2745.000000	99.713160
2746.000000	98.717590
2747.000000	97.328160
2748.000000	97.972000
2749.000000	97.757160
2750.000000	98.959920
2751.000000	98.557480
2752.000000	98.942590
2753.000000	97.699780
2754.000000	97.255330
2755.000000	97.156280
2756.000000	98.067950
2757.000000	98.343480
2758.000000	97.562030
2759.000000	98.042670
2760.000000	97.987490
2761.000000	97.586700
2762.000000	97.316080
2763.000000	98.027280
2764.000000	98.914560
2765.000000	99.644610
2766.000000	98.835260
2767.000000	100.709190
2768.000000	100.768280
2769.000000	101.172930
2770.000000	100.538890
2771.000000	100.722830
2772.000000	100.234500
2773.000000	99.854950
2774.000000	100.796400
2775.000000	100.733170
2776.000000	101.270660
2777.000000	99.561250
2778.000000	99.378540
2779.000000	99.178600
2780.000000	99.600670
2781.000000	100.107410
2782.000000	101.555690
2783.000000	102.173270
2784.000000	100.888980
2785.000000	100.577860
2786.000000	100.262160
2787.000000	100.400620
2788.000000	100.657790
2789.000000	101.214190
2790.000000	101.520870
2791.000000	101.670830
2792.000000	101.103030
2793.000000	101.438180
2794.000000	102.089650
2795.000000	101.603180
2796.000000	101.365970
2797.000000	101.083920
2798.000000	100.783040
2799.000000	100.115460
2800.000000	99.717890
2801.000000	99.049560
2802.000000	98.579230
2803.000000	97.935710
2804.000000	97.635640
2805.000000	99.419620
2806.000000	100.379240
2807.000000	100.686570
2808.000000	101.218730
2809.000000	101.773040
2810.000000	101.375970
2811.000000	101.179240
2812.000000	100.912150
2813.000000	100.728020
2814.000000	99.881260
2815.000000	98.437640
2816.000000	97.645260
2817.000000	97.379880
2818.000000	96.934910
2819.000000	96.272670
2820.000000	96.386570
2821.000000	96.708740
2822.000000	97.358320
2823.000000	97.501410
2824.000000	97.811120
2825.000000	97.958700
2826.000000	97.750770
2827.000000	97.560230
2828.000000	97.635770
2829.000000	98.036380
2830.000000	98.744800
2831.000000	99.228610
2832.000000	98.576000
2833.000000	98.297490
2834.000000	98.219690
2835.000000	98.382600
2836.000000	98.823860
2837.000000	99.591860
2838.000000	100.355930
2839.000000	100.003180
2840.000000	99.351320
2841.000000	98.601390
2842.000000	99.350290
2843.000000	101.013490
2844.000000	101.683650
2845.000000	102.086230
2846.000000	101.780620
2847.000000	101.734040
2848.000000	101.992840
2849.000000	102.123110
2850.000000	102.292520
2851.000000	102.294980
2852.000000	101.816690
2853.000000	100.713300
2854.000000	100.089240
2855.000000	99.788780
2856.000000	100.136470
2857.000000	100.053440
2858.000000	99.270950
2859.000000	99.146870
2860.000000	98.584950
2861.000000	98.328330
2862.000000	98.648020
2863.000000	99.099050
2864.000000	99.078520
2865.000000	98.536250
2866.000000	98.120430
2867.000000	97.781990
2868.000000	98.001070
2869.000000	97.985120
2870.000000	98.091190
2871.000000	98.113980
2872.000000	97.459330
2873.000000	96.757160
2874.000000	97.088630
2875.000000	97.669990
2876.000000	97.872760
2877.000000	98.217770
2878.000000	98.249550
2879.000000	98.262160
2880.000000	98.440440
2881.000000	99.404310
2882.000000	100.347720
2883.000000	100.439060
2884.000000	99.453910
2885.000000	98.684690
2886.000000	98.967340
2887.000000	98.717210
2888.000000	98.182980
2889.000000	98.530200
2890.000000	99.541250
2891.000000	99.770910
2892.000000	99.663040
2893.000000	100.009800
2894.000000	100.460030
2895.000000	100.496250
2896.000000	100.110520
2897.000000	100.145570
2898.000000	99.957690
2899.000000	99.209620
2900.000000	98.468000
2901.000000	97.912300
2902.000000	97.518620
2903.000000	97.684400
2904.000000	98.019640
2905.000000	98.495920
2906.000000	98.330170
2907.000000	98.116630
2908.000000	98.743930
2909.000000	99.297950
2910.000000	99.025520
2911.000000	99.243350
2912.000000	99.168140
2913.000000	98.334120
2914.000000	98.285680
2915.000000	98.764660
2916.000000	99.968120
2917.000000	100.403200
2918.000000	100.370450
2919.000000	100.268080
2920.000000	100.541520
2921.000000	99.714670
2922.000000	99.332940
2923.000000	100.204870
2924.000000	100.235200
2925.000000	99.883010
2926.000000	98.246570
2927.000000	97.705250
2928.000000	97.094510
2929.000000	96.480320
2930.000000	97.054390
2931.000000	98.229710
2932.000000	98.593390
2933.000000	98.277180
2934.000000	99.074170
2935.000000	99.006860
2936.000000	99.626910
2937.000000	100.521970
2938.000000	101.137310
2939.000000	101.847540
2940.000000	101.491480
2941.000000	101.141660
2942.000000	101.550210
2943.000000	101.707580
2944.000000	101.105880
2945.000000	101.055550
2946.000000	101.087470
2947.000000	100.387130
2948.000000	100.658790
2949.000000	100.788310
2950.000000	101.406940
2951.000000	100.852630
2952.000000	100.431510
2953.000000	100.121440
2954.000000	100.076290
2955.000000	100.435120
2956.000000	101.241700
2957.000000	101.650840
2958.000000	101.605810
2959.000000	101.408470
2960.000000	101.074640
2961.000000	100.697450
2962.000000	100.539740
2963.000000	99.927460
2964.000000	99.037010
2965.000000	98.818610
2966.000000	97.671790
2967.000000	95.927910
2968.000000	94.773990
2969.000000	95.402650
2970.000000	95.389930
2971.000000	97.273230
2972.000000	97.688530
2973.000000	99.016490
2974.000000	99.576680
2975.000000	98.636430
2976.000000	99.541270
2977.000000	101.836440
2978.000000	102.760820
2979.000000	102.344420
2980.000000	102.152940
2981.000000	100.942530
2982.000000	100.628590
2983.000000	99.702020
2984.000000	99.755580
2985.000000	100.791680
2986.000000	100.509410
2987.000000	100.016180
2988.000000	99.626380
2989.000000	98.757690
2990.000000	97.971650
2991.000000	97.133370
2992.000000	97.120240
2993.000000	96.853510
2994.000000	96.701070
2995.000000	96.562880
2996.000000	96.238710
2997.000000	95.781830
2998.000000	96.393870
2999.000000	97.411480
3000.000000	97.721990
