PE UV       SUBTECH     SPECTRUM    ASCII       PEDS        4.00        
   -1
INBUCR0134-4.Sample.ASC
24/02/07
13:42:53.00
24/02/07
13:42:53.00
Vinicio Soto Monge
Pelidnota fromeri. Color café con ambos élitros (Det: A. Solís) COSTA RICA Prov. Guanacaste. Cañas. P.N. Volcán Tenorio. Río Martirio. La Rejolla. 1000-1100m 14-15 JUN 2007.  Tp. Luz Mercurio. L_N_292650_422850 #91628 INB0004090474 
250,000000
1
Lambda 1050
1050L1511233
PerkinElmer UV WinLab 6.3.2.0749 / 2.02.05 Lambda 900 UV/VIS/NIR, Aug  7 2015 09:38:08

0
0
3350/servo 860,8/2
0
0
UV/VIS
1
1
1
DoubleDePol,CommonBeamDepol,RBeamAtt,SBeamAtt,60mm sphere, WB InGaAs Detector
0
0
0
0
Program
Program
3350/servo 860,8/2
3350/0,2 860,8/0,2
3350/0,2 860,8/0,2
0
15.00
 
 
 
0
 
860,8
319,2
860,8
Front
100
on
S:100 R:100
0
0
0
0
 
0
 
 
 
0
 
 
0
0
0
0
0
 
 
 
 
0
0


0
0
#HDR
-1
-1
#GR
nm
%R
1.0
0.0
2500,000000
-1,000000
2251
8
15,650000
1,122000
#DATA

250.000000	nan
251.000000	nan
252.000000	nan
253.000000	nan
254.000000	nan
255.000000	nan
256.000000	nan
257.000000	nan
258.000000	nan
259.000000	3.050915
260.000000	3.042986
261.000000	3.035260
262.000000	3.025424
263.000000	3.015927
264.000000	3.004033
265.000000	2.992651
266.000000	2.979544
267.000000	2.967529
268.000000	2.953814
269.000000	2.941616
270.000000	2.927938
271.000000	2.915524
272.000000	2.902456
273.000000	2.889660
274.000000	2.879398
275.000000	2.871102
276.000000	2.863237
277.000000	2.855334
278.000000	2.849750
279.000000	2.843710
280.000000	2.837540
281.000000	2.831621
282.000000	2.825711
283.000000	2.822237
284.000000	2.817065
285.000000	2.810342
286.000000	2.803280
287.000000	2.798710
288.000000	2.795763
289.000000	2.792516
290.000000	2.788622
291.000000	2.784494
292.000000	2.783045
293.000000	2.778186
294.000000	2.776110
295.000000	2.772758
296.000000	2.774071
297.000000	2.774022
298.000000	2.769150
299.000000	2.768174
300.000000	2.768214
301.000000	2.768089
302.000000	2.765617
303.000000	2.763536
304.000000	2.761001
305.000000	2.760163
306.000000	2.755567
307.000000	2.750290
308.000000	2.746809
309.000000	2.741649
310.000000	2.736894
311.000000	2.731187
312.000000	2.729902
313.000000	2.728273
314.000000	2.725714
315.000000	2.721895
316.000000	2.721178
317.000000	2.740663
318.000000	2.761064
319.000000	2.783867
320.000000	2.802634
321.000000	2.822415
322.000000	2.842013
323.000000	2.858973
324.000000	2.877140
325.000000	2.893530
326.000000	2.911057
327.000000	2.903701
328.000000	2.888740
329.000000	2.875224
330.000000	2.869745
331.000000	2.861119
332.000000	2.845835
333.000000	2.837008
334.000000	2.828587
335.000000	2.820217
336.000000	2.809872
337.000000	2.806793
338.000000	2.814459
339.000000	2.812974
340.000000	2.805014
341.000000	2.801688
342.000000	2.803680
343.000000	2.803034
344.000000	2.801560
345.000000	2.800359
346.000000	2.794837
347.000000	2.791586
348.000000	2.781016
349.000000	2.774044
350.000000	2.770430
351.000000	2.765963
352.000000	2.761616
353.000000	2.756289
354.000000	2.753832
355.000000	2.750939
356.000000	2.750592
357.000000	2.746250
358.000000	2.746696
359.000000	2.746738
360.000000	2.743997
361.000000	2.745442
362.000000	2.740811
363.000000	2.738027
364.000000	2.733972
365.000000	2.733635
366.000000	2.732020
367.000000	2.729786
368.000000	2.728481
369.000000	2.727983
370.000000	2.727783
371.000000	2.721405
372.000000	2.719306
373.000000	2.715028
374.000000	2.707651
375.000000	2.700158
376.000000	2.698866
377.000000	2.690713
378.000000	2.679392
379.000000	2.669771
380.000000	2.661576
381.000000	2.654776
382.000000	2.648264
383.000000	2.644109
384.000000	2.640244
385.000000	2.635534
386.000000	2.626537
387.000000	2.625437
388.000000	2.624922
389.000000	2.623790
390.000000	2.623195
391.000000	2.623289
392.000000	2.622345
393.000000	2.621148
394.000000	2.620838
395.000000	2.620963
396.000000	2.620913
397.000000	2.620726
398.000000	2.620560
399.000000	2.620509
400.000000	2.620353
401.000000	2.620119
402.000000	2.620685
403.000000	2.621307
404.000000	2.621816
405.000000	2.622132
406.000000	2.623068
407.000000	2.624313
408.000000	2.625375
409.000000	2.626908
410.000000	2.628488
411.000000	2.630033
412.000000	2.631458
413.000000	2.633281
414.000000	2.635456
415.000000	2.637746
416.000000	2.640084
417.000000	2.642922
418.000000	2.646138
419.000000	2.649625
420.000000	2.653690
421.000000	2.658059
422.000000	2.662975
423.000000	2.668309
424.000000	2.673899
425.000000	2.679661
426.000000	2.685901
427.000000	2.692363
428.000000	2.699061
429.000000	2.706020
430.000000	2.712927
431.000000	2.720196
432.000000	2.727655
433.000000	2.735019
434.000000	2.742626
435.000000	2.750684
436.000000	2.758817
437.000000	2.767049
438.000000	2.775731
439.000000	2.784573
440.000000	2.793553
441.000000	2.802848
442.000000	2.812592
443.000000	2.822740
444.000000	2.833160
445.000000	2.843521
446.000000	2.853786
447.000000	2.864030
448.000000	2.874432
449.000000	2.885018
450.000000	2.895978
451.000000	2.906949
452.000000	2.917599
453.000000	2.928534
454.000000	2.939676
455.000000	2.951283
456.000000	2.963242
457.000000	2.975414
458.000000	2.987759
459.000000	2.999897
460.000000	3.012012
461.000000	3.024397
462.000000	3.037285
463.000000	3.050282
464.000000	3.063266
465.000000	3.076362
466.000000	3.089402
467.000000	3.103061
468.000000	3.116917
469.000000	3.131024
470.000000	3.145298
471.000000	3.159915
472.000000	3.174719
473.000000	3.189555
474.000000	3.204971
475.000000	3.220829
476.000000	3.237237
477.000000	3.253582
478.000000	3.270100
479.000000	3.287036
480.000000	3.304413
481.000000	3.321987
482.000000	3.340259
483.000000	3.359293
484.000000	3.378317
485.000000	3.397784
486.000000	3.417429
487.000000	3.437412
488.000000	3.457913
489.000000	3.478697
490.000000	3.500029
491.000000	3.522122
492.000000	3.544237
493.000000	3.566552
494.000000	3.588913
495.000000	3.611472
496.000000	3.634778
497.000000	3.658422
498.000000	3.682664
499.000000	3.707330
500.000000	3.732352
501.000000	3.757509
502.000000	3.783274
503.000000	3.809093
504.000000	3.836355
505.000000	3.863853
506.000000	3.891716
507.000000	3.920449
508.000000	3.949597
509.000000	3.979349
510.000000	4.009019
511.000000	4.039156
512.000000	4.070121
513.000000	4.101578
514.000000	4.133078
515.000000	4.165213
516.000000	4.197552
517.000000	4.230128
518.000000	4.263124
519.000000	4.296792
520.000000	4.331302
521.000000	4.366252
522.000000	4.401442
523.000000	4.437412
524.000000	4.473692
525.000000	4.510877
526.000000	4.548821
527.000000	4.587469
528.000000	4.626467
529.000000	4.666112
530.000000	4.706639
531.000000	4.747653
532.000000	4.789167
533.000000	4.831224
534.000000	4.874154
535.000000	4.917823
536.000000	4.962023
537.000000	5.006429
538.000000	5.051496
539.000000	5.097136
540.000000	5.143037
541.000000	5.189309
542.000000	5.236191
543.000000	5.283527
544.000000	5.331322
545.000000	5.379237
546.000000	5.427850
547.000000	5.477092
548.000000	5.526854
549.000000	5.576421
550.000000	5.626693
551.000000	5.677448
552.000000	5.728430
553.000000	5.780113
554.000000	5.832123
555.000000	5.884790
556.000000	5.937309
557.000000	5.990704
558.000000	6.044244
559.000000	6.097801
560.000000	6.147221
561.000000	6.196800
562.000000	6.246765
563.000000	6.296783
564.000000	6.347392
565.000000	6.397988
566.000000	6.449443
567.000000	6.501028
568.000000	6.553188
569.000000	6.607022
570.000000	6.665694
571.000000	6.725342
572.000000	6.785394
573.000000	6.846234
574.000000	6.907517
575.000000	6.969128
576.000000	7.031460
577.000000	7.094026
578.000000	7.156693
579.000000	7.219854
580.000000	7.283835
581.000000	7.348147
582.000000	7.413384
583.000000	7.478493
584.000000	7.543816
585.000000	7.610653
586.000000	7.678042
587.000000	7.745874
588.000000	7.814531
589.000000	7.883988
590.000000	7.953485
591.000000	8.023373
592.000000	8.093144
593.000000	8.164143
594.000000	8.236075
595.000000	8.307811
596.000000	8.379989
597.000000	8.452207
598.000000	8.525536
599.000000	8.598852
600.000000	8.673134
601.000000	8.748201
602.000000	8.824049
603.000000	8.900060
604.000000	8.976072
605.000000	9.052965
606.000000	9.130063
607.000000	9.208254
608.000000	9.286654
609.000000	9.365030
610.000000	9.443410
611.000000	9.522117
612.000000	9.601427
613.000000	9.681121
614.000000	9.761823
615.000000	9.842154
616.000000	9.923134
617.000000	10.004441
618.000000	10.085904
619.000000	10.169015
620.000000	10.251786
621.000000	10.335200
622.000000	10.419966
623.000000	10.503907
624.000000	10.588421
625.000000	10.672957
626.000000	10.757596
627.000000	10.842779
628.000000	10.929102
629.000000	11.014522
630.000000	11.101366
631.000000	11.188361
632.000000	11.274813
633.000000	11.363581
634.000000	11.452309
635.000000	11.542600
636.000000	11.633531
637.000000	11.725052
638.000000	11.817008
639.000000	11.909744
640.000000	12.003155
641.000000	12.097238
642.000000	12.191704
643.000000	12.285864
644.000000	12.380831
645.000000	12.476256
646.000000	12.572868
647.000000	12.669788
648.000000	12.766628
649.000000	12.864549
650.000000	12.962697
651.000000	13.060700
652.000000	13.159989
653.000000	13.260531
654.000000	13.361577
655.000000	13.462597
656.000000	13.563611
657.000000	13.664814
658.000000	13.767120
659.000000	13.869517
660.000000	13.971642
661.000000	14.075658
662.000000	14.179133
663.000000	14.282657
664.000000	14.386416
665.000000	14.490366
666.000000	14.594824
667.000000	14.699031
668.000000	14.802317
669.000000	14.905785
670.000000	15.010286
671.000000	15.113704
672.000000	15.217050
673.000000	15.319614
674.000000	15.421159
675.000000	15.524063
676.000000	15.626195
677.000000	15.729412
678.000000	15.833624
679.000000	15.937360
680.000000	16.040144
681.000000	16.143059
682.000000	16.246686
683.000000	16.350559
684.000000	16.454502
685.000000	16.557482
686.000000	16.660927
687.000000	16.765124
688.000000	16.868786
689.000000	16.972647
690.000000	17.078418
691.000000	17.184916
692.000000	17.291090
693.000000	17.398078
694.000000	17.505328
695.000000	17.611925
696.000000	17.717195
697.000000	17.821510
698.000000	17.925013
699.000000	18.028901
700.000000	18.131493
701.000000	18.233089
702.000000	18.335516
703.000000	18.437303
704.000000	18.538702
705.000000	18.642146
706.000000	18.748893
707.000000	18.854202
708.000000	18.958341
709.000000	19.062640
710.000000	19.168221
711.000000	19.275799
712.000000	19.382807
713.000000	19.489721
714.000000	19.597183
715.000000	19.703487
716.000000	19.808159
717.000000	19.913208
718.000000	20.019456
719.000000	20.127283
720.000000	20.235655
721.000000	20.341049
722.000000	20.446778
723.000000	20.554348
724.000000	20.663673
725.000000	20.773063
726.000000	20.881983
727.000000	20.992495
728.000000	21.103986
729.000000	21.213749
730.000000	21.322230
731.000000	21.432691
732.000000	21.542964
733.000000	21.652692
734.000000	21.762168
735.000000	21.871529
736.000000	21.981876
737.000000	22.091832
738.000000	22.201523
739.000000	22.311999
740.000000	22.421845
741.000000	22.533475
742.000000	22.645972
743.000000	22.757709
744.000000	22.868373
745.000000	22.978982
746.000000	23.089804
747.000000	23.200741
748.000000	23.312453
749.000000	23.424523
750.000000	23.537074
751.000000	23.648196
752.000000	23.760167
753.000000	23.872705
754.000000	23.985003
755.000000	24.097859
756.000000	24.209483
757.000000	24.320962
758.000000	24.434052
759.000000	24.545068
760.000000	24.655183
761.000000	24.764266
762.000000	24.872761
763.000000	24.981684
764.000000	25.090762
765.000000	25.199790
766.000000	25.309740
767.000000	25.419331
768.000000	25.526053
769.000000	25.634083
770.000000	25.743084
771.000000	25.852312
772.000000	25.958036
773.000000	26.064892
774.000000	26.171610
775.000000	26.278667
776.000000	26.384701
777.000000	26.489774
778.000000	26.595389
779.000000	26.698105
780.000000	26.801008
781.000000	26.903926
782.000000	27.006248
783.000000	27.104082
784.000000	27.201869
785.000000	27.297957
786.000000	27.395193
787.000000	27.493793
788.000000	27.592537
789.000000	27.689779
790.000000	27.786315
791.000000	27.884668
792.000000	27.983006
793.000000	28.080110
794.000000	28.173915
795.000000	28.268644
796.000000	28.364449
797.000000	28.455711
798.000000	28.546602
799.000000	28.640317
800.000000	28.732423
801.000000	28.820281
802.000000	28.909895
803.000000	29.002124
804.000000	29.093303
805.000000	29.181157
806.000000	29.265340
807.000000	29.356146
808.000000	29.449334
809.000000	29.541733
810.000000	29.629854
811.000000	29.718169
812.000000	29.804412
813.000000	29.890880
814.000000	29.977847
815.000000	30.064041
816.000000	30.151916
817.000000	30.235908
818.000000	30.315201
819.000000	30.391169
820.000000	30.469826
821.000000	30.548865
822.000000	30.626011
823.000000	30.702954
824.000000	30.783449
825.000000	30.865628
826.000000	30.943166
827.000000	31.018115
828.000000	31.089919
829.000000	31.164851
830.000000	31.238084
831.000000	31.316027
832.000000	31.396287
833.000000	31.475425
834.000000	31.543242
835.000000	31.604606
836.000000	31.672832
837.000000	31.743352
838.000000	31.811303
839.000000	31.877007
840.000000	31.947042
841.000000	32.005108
842.000000	32.067603
843.000000	32.130571
844.000000	32.200686
845.000000	32.263755
846.000000	32.314897
847.000000	32.369631
848.000000	32.438352
849.000000	32.495309
850.000000	32.555958
851.000000	32.625814
852.000000	32.688869
853.000000	32.742655
854.000000	32.777614
855.000000	32.840761
856.000000	32.902675
857.000000	32.976840
858.000000	33.140632
859.000000	33.269976
860.000000	33.391000
861.000000	33.491523
862.000000	33.612974
863.000000	33.726631
864.000000	33.875706
865.000000	34.014459
866.000000	34.146440
867.000000	34.265867
868.000000	34.283127
869.000000	34.330633
870.000000	34.387815
871.000000	34.455438
872.000000	34.502652
873.000000	34.554590
874.000000	34.594417
875.000000	34.634203
876.000000	34.677670
877.000000	34.702942
878.000000	34.750410
879.000000	34.789530
880.000000	34.829680
881.000000	34.856605
882.000000	34.894447
883.000000	34.930025
884.000000	34.965052
885.000000	34.989333
886.000000	35.011482
887.000000	35.045788
888.000000	35.069047
889.000000	35.101085
890.000000	35.113122
891.000000	35.148855
892.000000	35.163548
893.000000	35.185385
894.000000	35.210538
895.000000	35.220760
896.000000	35.237872
897.000000	35.261938
898.000000	35.268242
899.000000	35.284797
900.000000	35.314810
901.000000	35.332168
902.000000	35.355567
903.000000	35.381650
904.000000	35.398038
905.000000	35.431612
906.000000	35.461845
907.000000	35.482390
908.000000	35.509618
909.000000	35.544495
910.000000	35.568008
911.000000	35.596322
912.000000	35.624310
913.000000	35.654138
914.000000	35.680862
915.000000	35.706962
916.000000	35.740955
917.000000	35.769578
918.000000	35.796080
919.000000	35.818108
920.000000	35.848833
921.000000	35.885153
922.000000	35.920330
923.000000	35.951352
924.000000	35.983097
925.000000	36.011795
926.000000	36.038297
927.000000	36.070828
928.000000	36.105452
929.000000	36.135330
930.000000	36.164532
931.000000	36.188442
932.000000	36.212580
933.000000	36.237808
934.000000	36.263842
935.000000	36.290610
936.000000	36.318243
937.000000	36.344580
938.000000	36.365378
939.000000	36.391145
940.000000	36.413262
941.000000	36.433020
942.000000	36.452645
943.000000	36.473303
944.000000	36.494575
945.000000	36.518012
946.000000	36.537807
947.000000	36.556090
948.000000	36.580432
949.000000	36.602002
950.000000	36.621813
951.000000	36.643070
952.000000	36.667113
953.000000	36.688125
954.000000	36.710658
955.000000	36.731243
956.000000	36.751075
957.000000	36.772135
958.000000	36.791618
959.000000	36.810768
960.000000	36.831902
961.000000	36.852955
962.000000	36.871088
963.000000	36.891518
964.000000	36.908998
965.000000	36.926092
966.000000	36.943687
967.000000	36.961045
968.000000	36.976545
969.000000	36.992195
970.000000	37.006970
971.000000	37.022137
972.000000	37.038832
973.000000	37.055112
974.000000	37.070770
975.000000	37.086585
976.000000	37.102080
977.000000	37.118932
978.000000	37.137532
979.000000	37.154677
980.000000	37.171887
981.000000	37.187762
982.000000	37.202962
983.000000	37.215860
984.000000	37.229872
985.000000	37.245305
986.000000	37.260585
987.000000	37.273215
988.000000	37.284575
989.000000	37.297537
990.000000	37.310412
991.000000	37.323690
992.000000	37.336665
993.000000	37.350723
994.000000	37.364590
995.000000	37.377648
996.000000	37.393068
997.000000	37.408433
998.000000	37.422713
999.000000	37.437382
1000.000000	37.451900
1001.000000	37.465657
1002.000000	37.479658
1003.000000	37.493623
1004.000000	37.507327
1005.000000	37.520555
1006.000000	37.532583
1007.000000	37.546093
1008.000000	37.561355
1009.000000	37.575823
1010.000000	37.590645
1011.000000	37.606147
1012.000000	37.621427
1013.000000	37.636095
1014.000000	37.651605
1015.000000	37.668465
1016.000000	37.686045
1017.000000	37.702685
1018.000000	37.718857
1019.000000	37.736283
1020.000000	37.754593
1021.000000	37.773743
1022.000000	37.793700
1023.000000	37.814705
1024.000000	37.836382
1025.000000	37.856778
1026.000000	37.876838
1027.000000	37.898730
1028.000000	37.921590
1029.000000	37.943470
1030.000000	37.965542
1031.000000	37.988172
1032.000000	38.011562
1033.000000	38.033990
1034.000000	38.056010
1035.000000	38.079032
1036.000000	38.103430
1037.000000	38.127510
1038.000000	38.151280
1039.000000	38.175513
1040.000000	38.199420
1041.000000	38.221357
1042.000000	38.242733
1043.000000	38.265905
1044.000000	38.288215
1045.000000	38.310395
1046.000000	38.331743
1047.000000	38.352510
1048.000000	38.372775
1049.000000	38.393597
1050.000000	38.414812
1051.000000	38.436327
1052.000000	38.457605
1053.000000	38.478572
1054.000000	38.501523
1055.000000	38.524877
1056.000000	38.548232
1057.000000	38.571620
1058.000000	38.595060
1059.000000	38.618655
1060.000000	38.641307
1061.000000	38.665432
1062.000000	38.689473
1063.000000	38.713138
1064.000000	38.735898
1065.000000	38.758907
1066.000000	38.782235
1067.000000	38.805600
1068.000000	38.829165
1069.000000	38.852230
1070.000000	38.876115
1071.000000	38.898265
1072.000000	38.921837
1073.000000	38.945500
1074.000000	38.969395
1075.000000	38.991855
1076.000000	39.013793
1077.000000	39.035505
1078.000000	39.058915
1079.000000	39.081837
1080.000000	39.103307
1081.000000	39.126263
1082.000000	39.147660
1083.000000	39.167795
1084.000000	39.187558
1085.000000	39.206862
1086.000000	39.226008
1087.000000	39.245310
1088.000000	39.263027
1089.000000	39.280530
1090.000000	39.297725
1091.000000	39.314610
1092.000000	39.331527
1093.000000	39.349070
1094.000000	39.364820
1095.000000	39.381007
1096.000000	39.396820
1097.000000	39.412185
1098.000000	39.428058
1099.000000	39.444333
1100.000000	39.459918
1101.000000	39.473422
1102.000000	39.485127
1103.000000	39.496575
1104.000000	39.510080
1105.000000	39.522458
1106.000000	39.534775
1107.000000	39.545970
1108.000000	39.556630
1109.000000	39.564055
1110.000000	39.572405
1111.000000	39.580523
1112.000000	39.588723
1113.000000	39.596205
1114.000000	39.601332
1115.000000	39.606210
1116.000000	39.609855
1117.000000	39.614002
1118.000000	39.616488
1119.000000	39.620745
1120.000000	39.621673
1121.000000	39.622505
1122.000000	39.622625
1123.000000	39.619495
1124.000000	39.613360
1125.000000	39.605795
1126.000000	39.595285
1127.000000	39.580877
1128.000000	39.564230
1129.000000	39.545003
1130.000000	39.523545
1131.000000	39.497600
1132.000000	39.467835
1133.000000	39.437140
1134.000000	39.405650
1135.000000	39.371130
1136.000000	39.335572
1137.000000	39.297803
1138.000000	39.258480
1139.000000	39.218512
1140.000000	39.177270
1141.000000	39.136840
1142.000000	39.095240
1143.000000	39.054418
1144.000000	39.014795
1145.000000	38.975557
1146.000000	38.936385
1147.000000	38.897287
1148.000000	38.858150
1149.000000	38.816920
1150.000000	38.777777
1151.000000	38.737300
1152.000000	38.698008
1153.000000	38.657702
1154.000000	38.612782
1155.000000	38.565480
1156.000000	38.515068
1157.000000	38.462608
1158.000000	38.406292
1159.000000	38.348737
1160.000000	38.287397
1161.000000	38.223290
1162.000000	38.157010
1163.000000	38.086182
1164.000000	38.015653
1165.000000	37.945330
1166.000000	37.873582
1167.000000	37.802320
1168.000000	37.731365
1169.000000	37.660810
1170.000000	37.593288
1171.000000	37.528283
1172.000000	37.464705
1173.000000	37.405132
1174.000000	37.348535
1175.000000	37.294090
1176.000000	37.245603
1177.000000	37.200200
1178.000000	37.158605
1179.000000	37.119588
1180.000000	37.083787
1181.000000	37.051745
1182.000000	37.022457
1183.000000	36.996928
1184.000000	36.974720
1185.000000	36.956895
1186.000000	36.941677
1187.000000	36.929725
1188.000000	36.921618
1189.000000	36.918028
1190.000000	36.918380
1191.000000	36.922197
1192.000000	36.931403
1193.000000	36.944897
1194.000000	36.962215
1195.000000	36.981817
1196.000000	37.004130
1197.000000	37.029300
1198.000000	37.056355
1199.000000	37.084875
1200.000000	37.114555
1201.000000	37.145117
1202.000000	37.175857
1203.000000	37.205057
1204.000000	37.233715
1205.000000	37.263125
1206.000000	37.292227
1207.000000	37.320920
1208.000000	37.349110
1209.000000	37.377468
1210.000000	37.404803
1211.000000	37.432340
1212.000000	37.459632
1213.000000	37.487013
1214.000000	37.514157
1215.000000	37.540602
1216.000000	37.567737
1217.000000	37.596533
1218.000000	37.626085
1219.000000	37.655378
1220.000000	37.684940
1221.000000	37.714245
1222.000000	37.743653
1223.000000	37.773252
1224.000000	37.803430
1225.000000	37.833077
1226.000000	37.862868
1227.000000	37.891163
1228.000000	37.919835
1229.000000	37.948985
1230.000000	37.978075
1231.000000	38.006698
1232.000000	38.034660
1233.000000	38.062050
1234.000000	38.088225
1235.000000	38.115395
1236.000000	38.140902
1237.000000	38.165990
1238.000000	38.189647
1239.000000	38.212170
1240.000000	38.234085
1241.000000	38.256997
1242.000000	38.279805
1243.000000	38.303752
1244.000000	38.328797
1245.000000	38.353545
1246.000000	38.378455
1247.000000	38.404303
1248.000000	38.431000
1249.000000	38.458177
1250.000000	38.485298
1251.000000	38.511230
1252.000000	38.536682
1253.000000	38.560790
1254.000000	38.584185
1255.000000	38.606920
1256.000000	38.629227
1257.000000	38.651598
1258.000000	38.672632
1259.000000	38.691295
1260.000000	38.708658
1261.000000	38.725203
1262.000000	38.741265
1263.000000	38.755962
1264.000000	38.769658
1265.000000	38.782163
1266.000000	38.793690
1267.000000	38.803695
1268.000000	38.812583
1269.000000	38.821880
1270.000000	38.830465
1271.000000	38.838532
1272.000000	38.846035
1273.000000	38.854053
1274.000000	38.861468
1275.000000	38.868580
1276.000000	38.876170
1277.000000	38.884275
1278.000000	38.893453
1279.000000	38.902923
1280.000000	38.913780
1281.000000	38.925195
1282.000000	38.936752
1283.000000	38.948687
1284.000000	38.961762
1285.000000	38.976242
1286.000000	38.991005
1287.000000	39.005643
1288.000000	39.021163
1289.000000	39.037000
1290.000000	39.051533
1291.000000	39.065375
1292.000000	39.079742
1293.000000	39.094255
1294.000000	39.107593
1295.000000	39.119270
1296.000000	39.129938
1297.000000	39.140090
1298.000000	39.149160
1299.000000	39.157902
1300.000000	39.166618
1301.000000	39.174320
1302.000000	39.180405
1303.000000	39.184585
1304.000000	39.188147
1305.000000	39.191003
1306.000000	39.193222
1307.000000	39.194268
1308.000000	39.193663
1309.000000	39.190623
1310.000000	39.184785
1311.000000	39.178735
1312.000000	39.171532
1313.000000	39.163050
1314.000000	39.152560
1315.000000	39.140293
1316.000000	39.126753
1317.000000	39.110833
1318.000000	39.093077
1319.000000	39.074380
1320.000000	39.055250
1321.000000	39.033683
1322.000000	39.010602
1323.000000	38.985493
1324.000000	38.958917
1325.000000	38.930690
1326.000000	38.899400
1327.000000	38.865895
1328.000000	38.830760
1329.000000	38.793250
1330.000000	38.753352
1331.000000	38.711015
1332.000000	38.665498
1333.000000	38.617632
1334.000000	38.566788
1335.000000	38.514232
1336.000000	38.458610
1337.000000	38.400215
1338.000000	38.338730
1339.000000	38.274920
1340.000000	38.207903
1341.000000	38.138153
1342.000000	38.065957
1343.000000	37.991350
1344.000000	37.913612
1345.000000	37.831587
1346.000000	37.748140
1347.000000	37.663995
1348.000000	37.577072
1349.000000	37.486385
1350.000000	37.394550
1351.000000	37.300900
1352.000000	37.206708
1353.000000	37.113875
1354.000000	37.023295
1355.000000	36.935165
1356.000000	36.847468
1357.000000	36.759953
1358.000000	36.674123
1359.000000	36.592505
1360.000000	36.517187
1361.000000	36.448120
1362.000000	36.378380
1363.000000	36.307835
1364.000000	36.238285
1365.000000	36.166275
1366.000000	36.093023
1367.000000	36.019847
1368.000000	35.943345
1369.000000	35.859920
1370.000000	35.768928
1371.000000	35.666168
1372.000000	35.552670
1373.000000	35.425953
1374.000000	35.284878
1375.000000	35.132513
1376.000000	34.968120
1377.000000	34.788765
1378.000000	34.599927
1379.000000	34.405328
1380.000000	34.207338
1381.000000	34.013840
1382.000000	33.828500
1383.000000	33.653913
1384.000000	33.485730
1385.000000	33.327937
1386.000000	33.182305
1387.000000	33.053100
1388.000000	32.935915
1389.000000	32.825185
1390.000000	32.718167
1391.000000	32.616112
1392.000000	32.516948
1393.000000	32.417132
1394.000000	32.325815
1395.000000	32.236920
1396.000000	32.142930
1397.000000	32.038470
1398.000000	31.930742
1399.000000	31.828875
1400.000000	31.726172
1401.000000	31.609262
1402.000000	31.482422
1403.000000	31.349410
1404.000000	31.207645
1405.000000	31.055905
1406.000000	30.900097
1407.000000	30.743505
1408.000000	30.581378
1409.000000	30.406275
1410.000000	30.220295
1411.000000	30.034387
1412.000000	29.850635
1413.000000	29.670545
1414.000000	29.487518
1415.000000	29.302245
1416.000000	29.116635
1417.000000	28.934217
1418.000000	28.758575
1419.000000	28.586545
1420.000000	28.419117
1421.000000	28.256435
1422.000000	28.098222
1423.000000	27.941188
1424.000000	27.788735
1425.000000	27.644060
1426.000000	27.506477
1427.000000	27.372087
1428.000000	27.237615
1429.000000	27.108438
1430.000000	26.988380
1431.000000	26.873955
1432.000000	26.763265
1433.000000	26.655627
1434.000000	26.552022
1435.000000	26.452295
1436.000000	26.356540
1437.000000	26.264612
1438.000000	26.176640
1439.000000	26.092670
1440.000000	26.010405
1441.000000	25.929635
1442.000000	25.852010
1443.000000	25.776275
1444.000000	25.704850
1445.000000	25.637077
1446.000000	25.570248
1447.000000	25.501635
1448.000000	25.433595
1449.000000	25.367847
1450.000000	25.302362
1451.000000	25.238672
1452.000000	25.173477
1453.000000	25.110368
1454.000000	25.044773
1455.000000	24.979283
1456.000000	24.913715
1457.000000	24.849792
1458.000000	24.786088
1459.000000	24.721077
1460.000000	24.656992
1461.000000	24.591352
1462.000000	24.527845
1463.000000	24.462512
1464.000000	24.398883
1465.000000	24.334960
1466.000000	24.271735
1467.000000	24.209275
1468.000000	24.147748
1469.000000	24.086720
1470.000000	24.026082
1471.000000	23.967005
1472.000000	23.908562
1473.000000	23.852605
1474.000000	23.796802
1475.000000	23.741735
1476.000000	23.689673
1477.000000	23.641137
1478.000000	23.594327
1479.000000	23.549195
1480.000000	23.506110
1481.000000	23.466227
1482.000000	23.428202
1483.000000	23.391705
1484.000000	23.358055
1485.000000	23.328302
1486.000000	23.299997
1487.000000	23.273263
1488.000000	23.248435
1489.000000	23.226310
1490.000000	23.206257
1491.000000	23.188730
1492.000000	23.173768
1493.000000	23.160520
1494.000000	23.149152
1495.000000	23.140532
1496.000000	23.134660
1497.000000	23.132400
1498.000000	23.134675
1499.000000	23.140600
1500.000000	23.150875
1501.000000	23.165090
1502.000000	23.182660
1503.000000	23.205482
1504.000000	23.232780
1505.000000	23.263027
1506.000000	23.297210
1507.000000	23.333818
1508.000000	23.373195
1509.000000	23.415740
1510.000000	23.459520
1511.000000	23.504908
1512.000000	23.552232
1513.000000	23.601868
1514.000000	23.653925
1515.000000	23.705255
1516.000000	23.757103
1517.000000	23.809748
1518.000000	23.861915
1519.000000	23.914645
1520.000000	23.968177
1521.000000	24.020415
1522.000000	24.071820
1523.000000	24.122045
1524.000000	24.170488
1525.000000	24.218855
1526.000000	24.266393
1527.000000	24.312967
1528.000000	24.359675
1529.000000	24.404040
1530.000000	24.447398
1531.000000	24.492315
1532.000000	24.536540
1533.000000	24.579215
1534.000000	24.620753
1535.000000	24.660522
1536.000000	24.699180
1537.000000	24.737333
1538.000000	24.774063
1539.000000	24.810738
1540.000000	24.845775
1541.000000	24.878467
1542.000000	24.911107
1543.000000	24.944290
1544.000000	24.977892
1545.000000	25.012612
1546.000000	25.048075
1547.000000	25.084418
1548.000000	25.121668
1549.000000	25.160018
1550.000000	25.199670
1551.000000	25.239643
1552.000000	25.279152
1553.000000	25.318690
1554.000000	25.358258
1555.000000	25.396960
1556.000000	25.433528
1557.000000	25.467140
1558.000000	25.498513
1559.000000	25.527178
1560.000000	25.552660
1561.000000	25.575820
1562.000000	25.596075
1563.000000	25.611535
1564.000000	25.622490
1565.000000	25.630633
1566.000000	25.636208
1567.000000	25.638763
1568.000000	25.638540
1569.000000	25.635857
1570.000000	25.632135
1571.000000	25.627412
1572.000000	25.622823
1573.000000	25.619277
1574.000000	25.616130
1575.000000	25.613482
1576.000000	25.613005
1577.000000	25.614707
1578.000000	25.618133
1579.000000	25.623368
1580.000000	25.630277
1581.000000	25.640015
1582.000000	25.651420
1583.000000	25.663660
1584.000000	25.679073
1585.000000	25.696983
1586.000000	25.716877
1587.000000	25.738770
1588.000000	25.761990
1589.000000	25.787905
1590.000000	25.815323
1591.000000	25.842990
1592.000000	25.872895
1593.000000	25.905467
1594.000000	25.938975
1595.000000	25.972970
1596.000000	26.008290
1597.000000	26.044540
1598.000000	26.082853
1599.000000	26.122483
1600.000000	26.162975
1601.000000	26.205338
1602.000000	26.249813
1603.000000	26.295890
1604.000000	26.342883
1605.000000	26.390387
1606.000000	26.437265
1607.000000	26.485503
1608.000000	26.533250
1609.000000	26.579222
1610.000000	26.625960
1611.000000	26.671222
1612.000000	26.713088
1613.000000	26.754270
1614.000000	26.794458
1615.000000	26.833498
1616.000000	26.870902
1617.000000	26.905700
1618.000000	26.940430
1619.000000	26.973788
1620.000000	27.004503
1621.000000	27.034060
1622.000000	27.063505
1623.000000	27.091490
1624.000000	27.118695
1625.000000	27.145283
1626.000000	27.171418
1627.000000	27.197432
1628.000000	27.221157
1629.000000	27.246733
1630.000000	27.273195
1631.000000	27.300297
1632.000000	27.325968
1633.000000	27.350002
1634.000000	27.373687
1635.000000	27.396360
1636.000000	27.418662
1637.000000	27.439302
1638.000000	27.460357
1639.000000	27.478305
1640.000000	27.493960
1641.000000	27.507918
1642.000000	27.521197
1643.000000	27.534367
1644.000000	27.545690
1645.000000	27.555380
1646.000000	27.564132
1647.000000	27.572132
1648.000000	27.576293
1649.000000	27.579650
1650.000000	27.579228
1651.000000	27.576698
1652.000000	27.569867
1653.000000	27.560087
1654.000000	27.544770
1655.000000	27.525053
1656.000000	27.499330
1657.000000	27.467980
1658.000000	27.432035
1659.000000	27.387660
1660.000000	27.337830
1661.000000	27.282060
1662.000000	27.220775
1663.000000	27.152913
1664.000000	27.078865
1665.000000	26.999325
1666.000000	26.914578
1667.000000	26.826218
1668.000000	26.728127
1669.000000	26.626400
1670.000000	26.519647
1671.000000	26.407550
1672.000000	26.291933
1673.000000	26.171112
1674.000000	26.049150
1675.000000	25.924150
1676.000000	25.798278
1677.000000	25.668322
1678.000000	25.540218
1679.000000	25.410272
1680.000000	25.279982
1681.000000	25.149540
1682.000000	25.018757
1683.000000	24.887940
1684.000000	24.757725
1685.000000	24.633565
1686.000000	24.513468
1687.000000	24.401987
1688.000000	24.302470
1689.000000	24.215732
1690.000000	24.142868
1691.000000	24.084782
1692.000000	24.041742
1693.000000	24.014180
1694.000000	23.999377
1695.000000	23.992468
1696.000000	23.992570
1697.000000	23.997692
1698.000000	24.004245
1699.000000	24.009855
1700.000000	24.013970
1701.000000	24.014700
1702.000000	24.009117
1703.000000	23.998838
1704.000000	23.982048
1705.000000	23.958830
1706.000000	23.929462
1707.000000	23.891610
1708.000000	23.845290
1709.000000	23.791857
1710.000000	23.729745
1711.000000	23.657775
1712.000000	23.578425
1713.000000	23.490327
1714.000000	23.393300
1715.000000	23.287138
1716.000000	23.175445
1717.000000	23.057960
1718.000000	22.936698
1719.000000	22.813645
1720.000000	22.690472
1721.000000	22.571515
1722.000000	22.458180
1723.000000	22.351582
1724.000000	22.257615
1725.000000	22.177885
1726.000000	22.110285
1727.000000	22.059532
1728.000000	22.025225
1729.000000	22.003972
1730.000000	21.999098
1731.000000	22.006413
1732.000000	22.026302
1733.000000	22.055760
1734.000000	22.093007
1735.000000	22.138002
1736.000000	22.190720
1737.000000	22.248345
1738.000000	22.310057
1739.000000	22.377738
1740.000000	22.447040
1741.000000	22.518525
1742.000000	22.590405
1743.000000	22.663118
1744.000000	22.736520
1745.000000	22.809980
1746.000000	22.880630
1747.000000	22.947212
1748.000000	23.010370
1749.000000	23.069012
1750.000000	23.123753
1751.000000	23.173730
1752.000000	23.217730
1753.000000	23.257170
1754.000000	23.290278
1755.000000	23.317168
1756.000000	23.339820
1757.000000	23.359725
1758.000000	23.377188
1759.000000	23.392547
1760.000000	23.404888
1761.000000	23.417217
1762.000000	23.430587
1763.000000	23.443993
1764.000000	23.459587
1765.000000	23.477990
1766.000000	23.499363
1767.000000	23.522655
1768.000000	23.548032
1769.000000	23.575183
1770.000000	23.605072
1771.000000	23.635948
1772.000000	23.669497
1773.000000	23.705775
1774.000000	23.743597
1775.000000	23.781482
1776.000000	23.818740
1777.000000	23.856618
1778.000000	23.893702
1779.000000	23.930798
1780.000000	23.966695
1781.000000	24.000005
1782.000000	24.030818
1783.000000	24.059823
1784.000000	24.086115
1785.000000	24.111275
1786.000000	24.134242
1787.000000	24.153797
1788.000000	24.171115
1789.000000	24.185968
1790.000000	24.199115
1791.000000	24.212498
1792.000000	24.225613
1793.000000	24.237705
1794.000000	24.250513
1795.000000	24.261810
1796.000000	24.272480
1797.000000	24.283955
1798.000000	24.295313
1799.000000	24.308173
1800.000000	24.323725
1801.000000	24.340025
1802.000000	24.355290
1803.000000	24.369733
1804.000000	24.383177
1805.000000	24.398048
1806.000000	24.414542
1807.000000	24.431465
1808.000000	24.448493
1809.000000	24.464570
1810.000000	24.481230
1811.000000	24.498258
1812.000000	24.515195
1813.000000	24.532330
1814.000000	24.549675
1815.000000	24.565407
1816.000000	24.577875
1817.000000	24.588190
1818.000000	24.598805
1819.000000	24.611575
1820.000000	24.625073
1821.000000	24.637332
1822.000000	24.646633
1823.000000	24.651857
1824.000000	24.654700
1825.000000	24.658502
1826.000000	24.666193
1827.000000	24.677590
1828.000000	24.690258
1829.000000	24.702080
1830.000000	24.712417
1831.000000	24.721530
1832.000000	24.732405
1833.000000	24.748192
1834.000000	24.768045
1835.000000	24.789175
1836.000000	24.810417
1837.000000	24.831500
1838.000000	24.854100
1839.000000	24.879318
1840.000000	24.907010
1841.000000	24.939485
1842.000000	24.971798
1843.000000	24.998780
1844.000000	25.017500
1845.000000	25.033150
1846.000000	25.053375
1847.000000	25.077605
1848.000000	25.101290
1849.000000	25.116748
1850.000000	25.121523
1851.000000	25.118640
1852.000000	25.116635
1853.000000	25.118472
1854.000000	25.124958
1855.000000	25.130800
1856.000000	25.125110
1857.000000	25.110048
1858.000000	25.091092
1859.000000	25.074168
1860.000000	25.058563
1861.000000	25.039613
1862.000000	25.012015
1863.000000	24.977032
1864.000000	24.935122
1865.000000	24.885635
1866.000000	24.833098
1867.000000	24.775337
1868.000000	24.706747
1869.000000	24.632685
1870.000000	24.554905
1871.000000	24.472357
1872.000000	24.386182
1873.000000	24.293813
1874.000000	24.193697
1875.000000	24.085505
1876.000000	23.966143
1877.000000	23.837532
1878.000000	23.701030
1879.000000	23.545862
1880.000000	23.375072
1881.000000	23.193425
1882.000000	23.000160
1883.000000	22.794705
1884.000000	22.577635
1885.000000	22.349788
1886.000000	22.111588
1887.000000	21.858512
1888.000000	21.595325
1889.000000	21.327105
1890.000000	21.052300
1891.000000	20.767118
1892.000000	20.469200
1893.000000	20.164893
1894.000000	19.852213
1895.000000	19.531238
1896.000000	19.205745
1897.000000	18.879890
1898.000000	18.549015
1899.000000	18.214875
1900.000000	17.878240
1901.000000	17.541508
1902.000000	17.212288
1903.000000	16.883720
1904.000000	16.563128
1905.000000	16.248947
1906.000000	15.941883
1907.000000	15.639140
1908.000000	15.347400
1909.000000	15.069690
1910.000000	14.800952
1911.000000	14.547198
1912.000000	14.304580
1913.000000	14.075630
1914.000000	13.855250
1915.000000	13.650565
1916.000000	13.454217
1917.000000	13.274310
1918.000000	13.105152
1919.000000	12.946812
1920.000000	12.799473
1921.000000	12.659315
1922.000000	12.528602
1923.000000	12.407830
1924.000000	12.297915
1925.000000	12.192420
1926.000000	12.100468
1927.000000	12.014735
1928.000000	11.938313
1929.000000	11.867203
1930.000000	11.805017
1931.000000	11.751662
1932.000000	11.703735
1933.000000	11.661995
1934.000000	11.627298
1935.000000	11.598533
1936.000000	11.572910
1937.000000	11.554862
1938.000000	11.540440
1939.000000	11.533893
1940.000000	11.532650
1941.000000	11.536505
1942.000000	11.542442
1943.000000	11.550460
1944.000000	11.564175
1945.000000	11.588497
1946.000000	11.617278
1947.000000	11.646297
1948.000000	11.680540
1949.000000	11.717325
1950.000000	11.753545
1951.000000	11.791873
1952.000000	11.837060
1953.000000	11.889940
1954.000000	11.940608
1955.000000	11.987810
1956.000000	12.038277
1957.000000	12.092873
1958.000000	12.148120
1959.000000	12.202657
1960.000000	12.258105
1961.000000	12.313870
1962.000000	12.369000
1963.000000	12.422815
1964.000000	12.480227
1965.000000	12.537375
1966.000000	12.593908
1967.000000	12.647610
1968.000000	12.703155
1969.000000	12.756823
1970.000000	12.815390
1971.000000	12.873893
1972.000000	12.931600
1973.000000	12.987130
1974.000000	13.042575
1975.000000	13.097717
1976.000000	13.151537
1977.000000	13.206287
1978.000000	13.260980
1979.000000	13.318465
1980.000000	13.372452
1981.000000	13.426405
1982.000000	13.480650
1983.000000	13.539483
1984.000000	13.595727
1985.000000	13.651608
1986.000000	13.712868
1987.000000	13.776272
1988.000000	13.838490
1989.000000	13.897285
1990.000000	13.955780
1991.000000	14.013143
1992.000000	14.070792
1993.000000	14.124478
1994.000000	14.180113
1995.000000	14.234798
1996.000000	14.282865
1997.000000	14.325485
1998.000000	14.367507
1999.000000	14.410537
2000.000000	14.452393
2001.000000	14.492878
2002.000000	14.528878
2003.000000	14.564887
2004.000000	14.592722
2005.000000	14.620290
2006.000000	14.647090
2007.000000	14.671623
2008.000000	14.690663
2009.000000	14.706103
2010.000000	14.718390
2011.000000	14.725652
2012.000000	14.731075
2013.000000	14.731572
2014.000000	14.731037
2015.000000	14.722245
2016.000000	14.708955
2017.000000	14.693067
2018.000000	14.673827
2019.000000	14.649398
2020.000000	14.619598
2021.000000	14.585640
2022.000000	14.547425
2023.000000	14.504715
2024.000000	14.459232
2025.000000	14.412810
2026.000000	14.360917
2027.000000	14.303248
2028.000000	14.241085
2029.000000	14.176208
2030.000000	14.110805
2031.000000	14.041563
2032.000000	13.967063
2033.000000	13.889038
2034.000000	13.807282
2035.000000	13.725470
2036.000000	13.642477
2037.000000	13.554425
2038.000000	13.461865
2039.000000	13.363755
2040.000000	13.262185
2041.000000	13.160368
2042.000000	13.060425
2043.000000	12.960665
2044.000000	12.858655
2045.000000	12.752797
2046.000000	12.649297
2047.000000	12.554075
2048.000000	12.465280
2049.000000	12.383460
2050.000000	12.304350
2051.000000	12.230457
2052.000000	12.165245
2053.000000	12.105735
2054.000000	12.056315
2055.000000	12.021370
2056.000000	11.999705
2057.000000	11.985622
2058.000000	11.979760
2059.000000	11.983225
2060.000000	11.997915
2061.000000	12.022645
2062.000000	12.054438
2063.000000	12.097627
2064.000000	12.149085
2065.000000	12.203805
2066.000000	12.263158
2067.000000	12.330353
2068.000000	12.397123
2069.000000	12.466103
2070.000000	12.542285
2071.000000	12.613765
2072.000000	12.677692
2073.000000	12.739202
2074.000000	12.804835
2075.000000	12.874645
2076.000000	12.939195
2077.000000	12.997285
2078.000000	13.057723
2079.000000	13.110868
2080.000000	13.154280
2081.000000	13.202370
2082.000000	13.251103
2083.000000	13.291143
2084.000000	13.324355
2085.000000	13.348667
2086.000000	13.366668
2087.000000	13.384412
2088.000000	13.395192
2089.000000	13.409428
2090.000000	13.424330
2091.000000	13.431598
2092.000000	13.438925
2093.000000	13.447755
2094.000000	13.451503
2095.000000	13.454100
2096.000000	13.455040
2097.000000	13.454073
2098.000000	13.453405
2099.000000	13.448775
2100.000000	13.439660
2101.000000	13.435005
2102.000000	13.433990
2103.000000	13.430555
2104.000000	13.428608
2105.000000	13.427783
2106.000000	13.428355
2107.000000	13.427520
2108.000000	13.432562
2109.000000	13.438862
2110.000000	13.447213
2111.000000	13.458010
2112.000000	13.465690
2113.000000	13.468800
2114.000000	13.466978
2115.000000	13.466778
2116.000000	13.469245
2117.000000	13.473370
2118.000000	13.475220
2119.000000	13.471478
2120.000000	13.467410
2121.000000	13.451650
2122.000000	13.439238
2123.000000	13.429882
2124.000000	13.423493
2125.000000	13.409130
2126.000000	13.384572
2127.000000	13.358583
2128.000000	13.334490
2129.000000	13.309725
2130.000000	13.275737
2131.000000	13.238955
2132.000000	13.189690
2133.000000	13.142908
2134.000000	13.098683
2135.000000	13.057712
2136.000000	13.015845
2137.000000	12.958810
2138.000000	12.894375
2139.000000	12.832643
2140.000000	12.772987
2141.000000	12.709020
2142.000000	12.653875
2143.000000	12.594348
2144.000000	12.525123
2145.000000	12.448535
2146.000000	12.368865
2147.000000	12.304205
2148.000000	12.229710
2149.000000	12.150248
2150.000000	12.069838
2151.000000	11.998783
2152.000000	11.917055
2153.000000	11.844667
2154.000000	11.770480
2155.000000	11.695908
2156.000000	11.623110
2157.000000	11.548258
2158.000000	11.483863
2159.000000	11.419420
2160.000000	11.354318
2161.000000	11.291438
2162.000000	11.235680
2163.000000	11.175948
2164.000000	11.125158
2165.000000	11.083422
2166.000000	11.042965
2167.000000	10.995172
2168.000000	10.953425
2169.000000	10.917950
2170.000000	10.895012
2171.000000	10.868723
2172.000000	10.841865
2173.000000	10.813870
2174.000000	10.779898
2175.000000	10.746485
2176.000000	10.723758
2177.000000	10.710115
2178.000000	10.692955
2179.000000	10.676210
2180.000000	10.648330
2181.000000	10.635098
2182.000000	10.620305
2183.000000	10.607860
2184.000000	10.600882
2185.000000	10.591262
2186.000000	10.572527
2187.000000	10.549535
2188.000000	10.524345
2189.000000	10.499178
2190.000000	10.485555
2191.000000	10.467950
2192.000000	10.443538
2193.000000	10.418502
2194.000000	10.373100
2195.000000	10.338580
2196.000000	10.302173
2197.000000	10.266177
2198.000000	10.227302
2199.000000	10.191940
2200.000000	10.143168
2201.000000	10.098255
2202.000000	10.051330
2203.000000	10.005413
2204.000000	9.983195
2205.000000	9.945145
2206.000000	9.910017
2207.000000	9.882988
2208.000000	9.865548
2209.000000	9.837830
2210.000000	9.822565
2211.000000	9.803298
2212.000000	9.807820
2213.000000	9.821030
2214.000000	9.840718
2215.000000	9.862488
2216.000000	9.894493
2217.000000	9.936835
2218.000000	9.996272
2219.000000	10.054605
2220.000000	10.115627
2221.000000	10.174277
2222.000000	10.221480
2223.000000	10.279312
2224.000000	10.325575
2225.000000	10.393065
2226.000000	10.457920
2227.000000	10.504333
2228.000000	10.545730
2229.000000	10.596127
2230.000000	10.645293
2231.000000	10.682737
2232.000000	10.723958
2233.000000	10.747305
2234.000000	10.777560
2235.000000	10.789648
2236.000000	10.801837
2237.000000	10.823292
2238.000000	10.820663
2239.000000	10.807607
2240.000000	10.781495
2241.000000	10.764947
2242.000000	10.743658
2243.000000	10.718262
2244.000000	10.690107
2245.000000	10.652542
2246.000000	10.612655
2247.000000	10.565855
2248.000000	10.512330
2249.000000	10.459447
2250.000000	10.407620
2251.000000	10.343402
2252.000000	10.274630
2253.000000	10.202470
2254.000000	10.119578
2255.000000	10.041530
2256.000000	9.965183
2257.000000	9.883960
2258.000000	9.816595
2259.000000	9.761722
2260.000000	9.702580
2261.000000	9.649105
2262.000000	9.598667
2263.000000	9.539750
2264.000000	9.492532
2265.000000	9.447295
2266.000000	9.410505
2267.000000	9.379452
2268.000000	9.356327
2269.000000	9.322273
2270.000000	9.290965
2271.000000	9.272723
2272.000000	9.263235
2273.000000	9.264357
2274.000000	9.258070
2275.000000	9.253497
2276.000000	9.240578
2277.000000	9.231645
2278.000000	9.219365
2279.000000	9.211535
2280.000000	9.222100
2281.000000	9.220722
2282.000000	9.216635
2283.000000	9.222072
2284.000000	9.229780
2285.000000	9.233940
2286.000000	9.229228
2287.000000	9.230953
2288.000000	9.222750
2289.000000	9.219088
2290.000000	9.212805
2291.000000	9.215390
2292.000000	9.220055
2293.000000	9.215435
2294.000000	9.202742
2295.000000	9.205065
2296.000000	9.220982
2297.000000	9.222362
2298.000000	9.234775
2299.000000	9.243443
2300.000000	9.241435
2301.000000	9.245800
2302.000000	9.258472
2303.000000	9.272047
2304.000000	9.299490
2305.000000	9.320115
2306.000000	9.329878
2307.000000	9.337130
2308.000000	9.345523
2309.000000	9.362555
2310.000000	9.392827
2311.000000	9.416885
2312.000000	9.423393
2313.000000	9.431580
2314.000000	9.454937
2315.000000	9.479623
2316.000000	9.514400
2317.000000	9.557970
2318.000000	9.594300
2319.000000	9.622700
2320.000000	9.644240
2321.000000	9.672672
2322.000000	9.712877
2323.000000	9.758723
2324.000000	9.782725
2325.000000	9.803105
2326.000000	9.823315
2327.000000	9.829683
2328.000000	9.842190
2329.000000	9.869910
2330.000000	9.891848
2331.000000	9.903390
2332.000000	9.903083
2333.000000	9.896578
2334.000000	9.901035
2335.000000	9.920515
2336.000000	9.934423
2337.000000	9.953290
2338.000000	9.965515
2339.000000	9.969375
2340.000000	9.982605
2341.000000	9.997972
2342.000000	10.022898
2343.000000	10.043490
2344.000000	10.056075
2345.000000	10.060695
2346.000000	10.072880
2347.000000	10.098650
2348.000000	10.133642
2349.000000	10.169158
2350.000000	10.197585
2351.000000	10.218167
2352.000000	10.232970
2353.000000	10.248898
2354.000000	10.273720
2355.000000	10.298835
2356.000000	10.322665
2357.000000	10.342210
2358.000000	10.347660
2359.000000	10.361035
2360.000000	10.387173
2361.000000	10.420625
2362.000000	10.449682
2363.000000	10.481107
2364.000000	10.500248
2365.000000	10.507343
2366.000000	10.517180
2367.000000	10.528598
2368.000000	10.555535
2369.000000	10.577608
2370.000000	10.586700
2371.000000	10.591287
2372.000000	10.595660
2373.000000	10.601315
2374.000000	10.627575
2375.000000	10.666405
2376.000000	10.685768
2377.000000	10.697097
2378.000000	10.706395
2379.000000	10.721715
2380.000000	10.750387
2381.000000	10.775388
2382.000000	10.815777
2383.000000	10.853257
2384.000000	10.871828
2385.000000	10.878002
2386.000000	10.893370
2387.000000	10.915918
2388.000000	10.932742
2389.000000	10.933235
2390.000000	10.930072
2391.000000	10.926087
2392.000000	10.927620
2393.000000	10.907383
2394.000000	10.896335
2395.000000	10.882682
2396.000000	10.873745
2397.000000	10.878025
2398.000000	10.885300
2399.000000	10.904505
2400.000000	10.916458
2401.000000	10.949795
2402.000000	10.950582
2403.000000	10.980735
2404.000000	10.991988
2405.000000	11.003745
2406.000000	10.998302
2407.000000	10.985173
2408.000000	10.988493
2409.000000	10.989840
2410.000000	10.972212
2411.000000	10.911552
2412.000000	10.874525
2413.000000	10.832540
2414.000000	10.830860
2415.000000	10.816688
2416.000000	10.830095
2417.000000	10.838075
2418.000000	10.786312
2419.000000	10.730377
2420.000000	10.708773
2421.000000	10.714098
2422.000000	10.696555
2423.000000	10.705110
2424.000000	10.688160
2425.000000	10.663605
2426.000000	10.641122
2427.000000	10.604463
2428.000000	10.613030
2429.000000	10.609280
2430.000000	10.614752
2431.000000	10.618723
2432.000000	10.607125
2433.000000	10.561305
2434.000000	10.505463
2435.000000	10.466805
2436.000000	10.448325
2437.000000	10.452280
2438.000000	10.409330
2439.000000	10.401555
2440.000000	10.373740
2441.000000	10.304295
2442.000000	10.276628
2443.000000	10.262213
2444.000000	10.239253
2445.000000	10.220490
2446.000000	10.207165
2447.000000	10.136760
2448.000000	10.124797
2449.000000	10.080305
2450.000000	10.004383
2451.000000	9.985515
2452.000000	9.973553
2453.000000	9.987960
2454.000000	10.000290
2455.000000	10.023635
2456.000000	10.008863
2457.000000	10.055040
2458.000000	10.080863
2459.000000	10.105085
2460.000000	10.175450
2461.000000	10.234798
2462.000000	10.270338
2463.000000	10.261402
2464.000000	10.335625
2465.000000	10.382155
2466.000000	10.392618
2467.000000	10.454585
2468.000000	10.503333
2469.000000	10.558910
2470.000000	10.595113
2471.000000	10.620448
2472.000000	10.706240
2473.000000	10.818630
2474.000000	10.859472
2475.000000	10.949863
2476.000000	11.039015
2477.000000	11.105257
2478.000000	11.210595
2479.000000	11.363085
2480.000000	11.443412
2481.000000	11.610622
2482.000000	11.754378
2483.000000	11.887595
2484.000000	11.999593
2485.000000	12.153915
2486.000000	12.373677
2487.000000	12.544085
2488.000000	12.702410
2489.000000	12.853325
2490.000000	13.083087
2491.000000	13.245995
2492.000000	13.325740
2493.000000	13.454035
2494.000000	13.647873
2495.000000	13.831075
2496.000000	13.962127
2497.000000	14.083300
2498.000000	14.257753
2499.000000	14.393503
2500.000000	14.539507
2501.000000	18.495102
2502.000000	22.457130
2503.000000	26.005090
2504.000000	29.988550
2505.000000	33.691938
2506.000000	37.295693
2507.000000	41.663110
2508.000000	45.494455
2509.000000	49.688625
2510.000000	54.215900
2511.000000	54.990250
2512.000000	55.724800
2513.000000	56.764620
2514.000000	57.327260
2515.000000	58.208460
2516.000000	59.425080
2517.000000	60.068380
2518.000000	61.446970
2519.000000	62.793740
2520.000000	63.977930
2521.000000	64.663450
2522.000000	65.791140
2523.000000	67.087570
2524.000000	68.410120
2525.000000	69.561730
2526.000000	70.688360
2527.000000	71.682510
2528.000000	72.725180
2529.000000	73.522960
2530.000000	73.964760
2531.000000	74.903420
2532.000000	75.930180
2533.000000	76.583730
2534.000000	77.400700
2535.000000	78.045940
2536.000000	78.039140
2537.000000	78.218660
2538.000000	78.449560
2539.000000	79.178180
2540.000000	80.246560
2541.000000	81.302890
2542.000000	81.066730
2543.000000	81.886770
2544.000000	82.494490
2545.000000	83.604640
2546.000000	85.007720
2547.000000	86.074710
2548.000000	87.041750
2549.000000	87.860680
2550.000000	88.210040
2551.000000	88.031460
2552.000000	89.535800
2553.000000	89.510560
2554.000000	89.738180
2555.000000	89.829160
2556.000000	90.434890
2557.000000	90.969200
2558.000000	90.648990
2559.000000	90.192800
2560.000000	91.047630
2561.000000	91.586050
2562.000000	91.290290
2563.000000	91.427410
2564.000000	91.907790
2565.000000	92.656340
2566.000000	92.974610
2567.000000	93.562330
2568.000000	94.702120
2569.000000	94.921830
2570.000000	94.179820
2571.000000	94.862220
2572.000000	95.278060
2573.000000	95.674580
2574.000000	95.382950
2575.000000	95.387570
2576.000000	95.623880
2577.000000	95.432870
2578.000000	95.427810
2579.000000	96.411620
2580.000000	97.575300
2581.000000	97.911940
2582.000000	97.962920
2583.000000	98.499940
2584.000000	99.263120
2585.000000	99.823400
2586.000000	100.238960
2587.000000	100.307690
2588.000000	100.220360
2589.000000	100.209040
2590.000000	100.060200
2591.000000	99.678120
2592.000000	99.272810
2593.000000	98.965470
2594.000000	98.844710
2595.000000	98.240860
2596.000000	97.475430
2597.000000	97.962790
2598.000000	98.311520
2599.000000	97.590670
2600.000000	97.362800
2601.000000	98.136270
2602.000000	99.034120
2603.000000	99.253230
2604.000000	99.632050
2605.000000	100.241600
2606.000000	101.580750
2607.000000	102.238220
2608.000000	102.106270
2609.000000	102.621500
2610.000000	102.669870
2611.000000	102.174630
2612.000000	102.367780
2613.000000	102.668220
2614.000000	102.901310
2615.000000	102.757610
2616.000000	102.186460
2617.000000	102.386510
2618.000000	103.424840
2619.000000	103.931890
2620.000000	104.107440
2621.000000	103.977700
2622.000000	103.779440
2623.000000	103.428830
2624.000000	103.117220
2625.000000	103.281960
2626.000000	102.954630
2627.000000	101.829520
2628.000000	101.758450
2629.000000	101.935600
2630.000000	101.806020
2631.000000	102.008580
2632.000000	101.857290
2633.000000	102.491040
2634.000000	102.903630
2635.000000	102.853930
2636.000000	102.688310
2637.000000	103.166390
2638.000000	102.407120
2639.000000	102.220170
2640.000000	102.324260
2641.000000	102.515780
2642.000000	102.664940
2643.000000	102.751260
2644.000000	102.170200
2645.000000	101.649370
2646.000000	101.929890
2647.000000	101.931260
2648.000000	102.286680
2649.000000	102.516600
2650.000000	102.552380
2651.000000	102.205530
2652.000000	101.807570
2653.000000	100.822900
2654.000000	100.697410
2655.000000	100.855500
2656.000000	100.464440
2657.000000	99.670420
2658.000000	98.564760
2659.000000	97.817400
2660.000000	97.726280
2661.000000	97.552780
2662.000000	97.358960
2663.000000	97.818740
2664.000000	97.546690
2665.000000	97.628460
2666.000000	98.314480
2667.000000	98.838210
2668.000000	99.358300
2669.000000	99.298790
2670.000000	99.342150
2671.000000	99.967340
2672.000000	100.885940
2673.000000	101.470080
2674.000000	102.155310
2675.000000	101.893640
2676.000000	101.889220
2677.000000	102.575600
2678.000000	103.227970
2679.000000	103.903920
2680.000000	103.826940
2681.000000	103.970450
2682.000000	105.087370
2683.000000	104.365860
2684.000000	103.898920
2685.000000	104.168110
2686.000000	104.711300
2687.000000	104.110330
2688.000000	104.223540
2689.000000	103.595670
2690.000000	102.711630
2691.000000	101.848290
2692.000000	99.479000
2693.000000	100.457700
2694.000000	100.630770
2695.000000	100.498000
2696.000000	99.619940
2697.000000	99.077340
2698.000000	99.050780
2699.000000	98.621500
2700.000000	99.730370
2701.000000	100.425810
2702.000000	101.406010
2703.000000	101.139710
2704.000000	101.005210
2705.000000	101.151610
2706.000000	100.416340
2707.000000	100.535120
2708.000000	100.965770
2709.000000	101.754400
2710.000000	100.631950
2711.000000	99.366850
2712.000000	99.524640
2713.000000	100.799980
2714.000000	101.594600
2715.000000	102.248940
2716.000000	103.401850
2717.000000	103.899950
2718.000000	102.859580
2719.000000	103.008380
2720.000000	104.112450
2721.000000	105.372710
2722.000000	106.330750
2723.000000	104.831210
2724.000000	103.783510
2725.000000	102.750530
2726.000000	102.448030
2727.000000	102.605390
2728.000000	103.078720
2729.000000	103.132350
2730.000000	102.683520
2731.000000	103.303370
2732.000000	102.786880
2733.000000	102.439800
2734.000000	103.206970
2735.000000	103.790400
2736.000000	103.859260
2737.000000	103.701360
2738.000000	103.067590
2739.000000	102.471110
2740.000000	103.317380
2741.000000	102.427160
2742.000000	101.542190
2743.000000	102.602600
2744.000000	101.936350
2745.000000	102.206590
2746.000000	102.628330
2747.000000	102.863290
2748.000000	102.593170
2749.000000	102.983570
2750.000000	102.318280
2751.000000	103.096560
2752.000000	104.204640
2753.000000	103.480960
2754.000000	103.031860
2755.000000	102.076410
2756.000000	101.679590
2757.000000	101.589170
2758.000000	102.325590
2759.000000	102.617960
2760.000000	102.682490
2761.000000	101.604090
2762.000000	100.714490
2763.000000	101.405250
2764.000000	101.670700
2765.000000	101.499910
2766.000000	101.549630
2767.000000	101.047840
2768.000000	101.028260
2769.000000	99.720560
2770.000000	99.604450
2771.000000	99.845870
2772.000000	100.299250
2773.000000	99.135770
2774.000000	99.582610
2775.000000	100.653020
2776.000000	99.930300
2777.000000	100.860280
2778.000000	100.688040
2779.000000	101.512070
2780.000000	101.284170
2781.000000	101.213390
2782.000000	100.762330
2783.000000	101.015170
2784.000000	101.095890
2785.000000	100.827190
2786.000000	100.804020
2787.000000	100.433640
2788.000000	100.635910
2789.000000	100.890280
2790.000000	101.007030
2791.000000	100.557030
2792.000000	100.480390
2793.000000	100.743040
2794.000000	101.106870
2795.000000	100.590320
2796.000000	101.194760
2797.000000	100.588970
2798.000000	100.731840
2799.000000	99.773720
2800.000000	99.820660
2801.000000	99.732140
2802.000000	99.835760
2803.000000	100.001470
2804.000000	99.873490
2805.000000	100.840060
2806.000000	101.166170
2807.000000	101.846170
2808.000000	101.481420
2809.000000	102.669220
2810.000000	102.619230
2811.000000	103.360740
2812.000000	103.836130
2813.000000	103.590360
2814.000000	103.497150
2815.000000	102.895150
2816.000000	102.170000
2817.000000	101.260190
2818.000000	102.489210
2819.000000	102.271950
2820.000000	102.569250
2821.000000	102.741330
2822.000000	102.852550
2823.000000	103.415770
2824.000000	103.610560
2825.000000	103.921450
2826.000000	104.761420
2827.000000	105.871050
2828.000000	105.013160
2829.000000	104.574930
2830.000000	104.293860
2831.000000	103.922110
2832.000000	103.264490
2833.000000	103.119780
2834.000000	102.607930
2835.000000	101.722290
2836.000000	100.956030
2837.000000	100.028890
2838.000000	99.268820
2839.000000	99.571420
2840.000000	99.380890
2841.000000	99.564240
2842.000000	99.337960
2843.000000	98.730680
2844.000000	99.318090
2845.000000	100.461620
2846.000000	101.174160
2847.000000	101.847960
2848.000000	102.066600
2849.000000	101.542850
2850.000000	102.024020
2851.000000	102.193980
2852.000000	102.453470
2853.000000	102.129860
2854.000000	101.348710
2855.000000	100.804060
2856.000000	100.144980
2857.000000	99.311210
2858.000000	99.758470
2859.000000	100.474740
2860.000000	100.727840
2861.000000	100.873030
2862.000000	100.492630
2863.000000	100.689220
2864.000000	101.517270
2865.000000	101.979690
2866.000000	102.363430
2867.000000	102.688140
2868.000000	102.167020
2869.000000	101.778460
2870.000000	101.485780
2871.000000	101.449460
2872.000000	102.410730
2873.000000	103.137490
2874.000000	102.791270
2875.000000	102.256970
2876.000000	102.137360
2877.000000	102.203410
2878.000000	102.255750
2879.000000	102.334550
2880.000000	102.523820
2881.000000	102.217170
2882.000000	101.369410
2883.000000	100.583570
2884.000000	100.850010
2885.000000	101.193740
2886.000000	100.929280
2887.000000	101.147570
2888.000000	101.827300
2889.000000	102.078930
2890.000000	102.323050
2891.000000	102.797990
2892.000000	103.256940
2893.000000	103.736490
2894.000000	103.700640
2895.000000	103.330520
2896.000000	103.565770
2897.000000	103.455460
2898.000000	103.567280
2899.000000	103.962350
2900.000000	104.295640
2901.000000	104.189750
2902.000000	103.955210
2903.000000	103.974730
2904.000000	103.741450
2905.000000	103.663610
2906.000000	103.649950
2907.000000	103.582310
2908.000000	103.346680
2909.000000	103.178240
2910.000000	102.622430
2911.000000	102.356610
2912.000000	102.227090
2913.000000	102.272050
2914.000000	102.295410
2915.000000	102.295750
2916.000000	102.539980
2917.000000	102.740950
2918.000000	103.435430
2919.000000	103.295830
2920.000000	103.422900
2921.000000	103.693280
2922.000000	104.139490
2923.000000	103.704890
2924.000000	103.872400
2925.000000	104.067090
2926.000000	103.512900
2927.000000	103.592780
2928.000000	102.887390
2929.000000	102.678050
2930.000000	102.506910
2931.000000	102.154780
2932.000000	101.818440
2933.000000	102.420580
2934.000000	102.539020
2935.000000	102.256580
2936.000000	102.508670
2937.000000	101.753180
2938.000000	101.264130
2939.000000	100.655020
2940.000000	100.418240
2941.000000	100.872890
2942.000000	101.228920
2943.000000	100.310750
2944.000000	100.211390
2945.000000	100.465050
2946.000000	100.816520
2947.000000	101.064770
2948.000000	100.684600
2949.000000	101.131590
2950.000000	100.639580
2951.000000	100.233660
2952.000000	100.049960
2953.000000	100.171650
2954.000000	100.168220
2955.000000	100.245280
2956.000000	100.152030
2957.000000	100.927060
2958.000000	101.205270
2959.000000	101.112420
2960.000000	101.641630
2961.000000	101.299180
2962.000000	102.223350
2963.000000	102.477340
2964.000000	102.887320
2965.000000	103.162840
2966.000000	102.601250
2967.000000	101.908330
2968.000000	102.918920
2969.000000	103.585200
2970.000000	103.176170
2971.000000	102.799000
2972.000000	102.135000
2973.000000	102.000270
2974.000000	101.277720
2975.000000	101.085840
2976.000000	101.599430
2977.000000	100.979810
2978.000000	100.496990
2979.000000	100.379100
2980.000000	100.590230
2981.000000	101.047870
2982.000000	100.719940
2983.000000	101.543370
2984.000000	101.618840
2985.000000	101.472390
2986.000000	101.372470
2987.000000	102.910450
2988.000000	103.459420
2989.000000	103.136900
2990.000000	103.084470
2991.000000	102.230700
2992.000000	102.195920
2993.000000	102.827180
2994.000000	103.716030
2995.000000	104.435620
2996.000000	104.202810
2997.000000	104.057550
2998.000000	103.552770
2999.000000	103.522210
3000.000000	103.653410
