PE UV       SUBTECH     SPECTRUM    ASCII       PEDS        4.00        
   -1
INBUCR0314-4.Sample.ASC
24/02/08
16:46:19.00
24/02/08
16:46:19.00
Vinicio Soto Monge
Estac. Pitilla, 700 m. 9 km S Santa Cecilia Guanacaste.  Pr. COSTA RICA 21 MAR -  21 APR 1989. GNP Blod Sur. 330200, 380200. INBIOCRI001036310. Sin élitro derecho
250,000000
1
Lambda 1050
1050L1511233
PerkinElmer UV WinLab 6.3.2.0749 / 2.02.05 Lambda 900 UV/VIS/NIR, Aug  7 2015 09:38:08

0
0
3350/servo 860,8/2
0
0
UV/VIS
1
1
1
DoubleDePol,CommonBeamDepol,RBeamAtt,SBeamAtt,60mm sphere, WB InGaAs Detector
0
0
0
0
Program
Program
3350/servo 860,8/2
3350/0,2 860,8/0,2
3350/0,2 860,8/0,2
0
15.00
 
 
 
0
 
860,8
319,2
860,8
Front
100
on
S:100 R:100
0
0
0
0
 
0
 
 
 
0
 
 
0
0
0
0
0
 
 
 
 
0
0


0
0
#HDR
-1
-1
#GR
nm
%R
1.0
0.0
2500,000000
-1,000000
2251
8
8,449500
0,592800
#DATA

250.000000	nan
251.000000	nan
252.000000	nan
253.000000	nan
254.000000	nan
255.000000	nan
256.000000	nan
257.000000	nan
258.000000	nan
259.000000	4.270732
260.000000	4.257504
261.000000	4.243664
262.000000	4.231960
263.000000	4.215672
264.000000	4.198881
265.000000	4.181057
266.000000	4.165241
267.000000	4.147636
268.000000	4.125573
269.000000	4.108691
270.000000	4.093364
271.000000	4.076596
272.000000	4.061664
273.000000	4.047676
274.000000	4.034620
275.000000	4.024101
276.000000	4.012407
277.000000	3.999984
278.000000	3.992321
279.000000	3.984425
280.000000	3.979516
281.000000	3.975408
282.000000	3.969989
283.000000	3.965070
284.000000	3.961688
285.000000	3.959710
286.000000	3.957955
287.000000	3.960815
288.000000	3.965501
289.000000	3.970479
290.000000	3.976009
291.000000	3.983075
292.000000	3.989683
293.000000	4.001107
294.000000	4.013829
295.000000	4.024896
296.000000	4.039970
297.000000	4.055999
298.000000	4.067799
299.000000	4.078892
300.000000	4.091567
301.000000	4.103029
302.000000	4.114289
303.000000	4.125576
304.000000	4.137918
305.000000	4.148355
306.000000	4.155642
307.000000	4.163523
308.000000	4.175362
309.000000	4.187154
310.000000	4.192744
311.000000	4.198924
312.000000	4.208347
313.000000	4.214071
314.000000	4.218456
315.000000	4.227427
316.000000	4.236749
317.000000	4.271482
318.000000	4.298296
319.000000	4.336614
320.000000	4.371133
321.000000	4.380390
322.000000	4.408807
323.000000	4.450863
324.000000	4.468180
325.000000	4.491064
326.000000	4.501392
327.000000	4.477219
328.000000	4.465073
329.000000	4.438661
330.000000	4.416237
331.000000	4.420360
332.000000	4.394766
333.000000	4.353873
334.000000	4.335068
335.000000	4.302888
336.000000	4.282312
337.000000	4.266333
338.000000	4.243976
339.000000	4.226451
340.000000	4.213625
341.000000	4.199451
342.000000	4.186690
343.000000	4.179283
344.000000	4.170591
345.000000	4.168281
346.000000	4.165860
347.000000	4.163128
348.000000	4.157594
349.000000	4.156687
350.000000	4.151548
351.000000	4.145303
352.000000	4.140874
353.000000	4.134770
354.000000	4.129173
355.000000	4.122256
356.000000	4.117707
357.000000	4.114599
358.000000	4.112925
359.000000	4.103158
360.000000	4.093095
361.000000	4.085447
362.000000	4.083560
363.000000	4.080533
364.000000	4.077540
365.000000	4.075690
366.000000	4.071110
367.000000	4.063483
368.000000	4.058815
369.000000	4.050356
370.000000	4.044193
371.000000	4.039710
372.000000	4.027765
373.000000	4.013038
374.000000	3.996233
375.000000	3.979876
376.000000	3.970929
377.000000	3.956679
378.000000	3.940396
379.000000	3.927856
380.000000	3.914938
381.000000	3.897631
382.000000	3.886391
383.000000	3.878529
384.000000	3.874257
385.000000	3.867685
386.000000	3.854204
387.000000	3.849147
388.000000	3.844365
389.000000	3.838982
390.000000	3.833966
391.000000	3.829327
392.000000	3.824692
393.000000	3.819846
394.000000	3.814261
395.000000	3.809027
396.000000	3.803881
397.000000	3.798419
398.000000	3.792779
399.000000	3.787882
400.000000	3.783304
401.000000	3.779456
402.000000	3.775794
403.000000	3.771628
404.000000	3.767581
405.000000	3.763819
406.000000	3.760557
407.000000	3.757185
408.000000	3.754184
409.000000	3.751207
410.000000	3.747751
411.000000	3.744017
412.000000	3.740586
413.000000	3.737396
414.000000	3.734681
415.000000	3.731924
416.000000	3.728825
417.000000	3.725543
418.000000	3.722369
419.000000	3.719598
420.000000	3.716267
421.000000	3.712902
422.000000	3.709594
423.000000	3.706628
424.000000	3.703512
425.000000	3.700790
426.000000	3.698242
427.000000	3.695701
428.000000	3.692993
429.000000	3.690043
430.000000	3.687738
431.000000	3.685917
432.000000	3.684017
433.000000	3.681731
434.000000	3.679546
435.000000	3.677189
436.000000	3.674887
437.000000	3.673056
438.000000	3.671340
439.000000	3.669774
440.000000	3.668107
441.000000	3.666175
442.000000	3.664411
443.000000	3.662906
444.000000	3.661452
445.000000	3.659874
446.000000	3.658070
447.000000	3.656243
448.000000	3.654749
449.000000	3.653493
450.000000	3.652374
451.000000	3.651094
452.000000	3.649530
453.000000	3.648307
454.000000	3.647509
455.000000	3.647033
456.000000	3.646707
457.000000	3.646503
458.000000	3.646102
459.000000	3.645806
460.000000	3.645475
461.000000	3.645806
462.000000	3.646583
463.000000	3.647485
464.000000	3.648193
465.000000	3.648887
466.000000	3.650418
467.000000	3.652076
468.000000	3.653873
469.000000	3.655813
470.000000	3.658468
471.000000	3.661080
472.000000	3.663843
473.000000	3.667030
474.000000	3.670869
475.000000	3.675229
476.000000	3.679397
477.000000	3.683871
478.000000	3.688966
479.000000	3.694323
480.000000	3.699733
481.000000	3.705501
482.000000	3.711989
483.000000	3.718697
484.000000	3.725781
485.000000	3.733394
486.000000	3.741767
487.000000	3.751726
488.000000	3.762471
489.000000	3.774411
490.000000	3.787095
491.000000	3.801195
492.000000	3.816828
493.000000	3.833819
494.000000	3.852629
495.000000	3.873524
496.000000	3.896660
497.000000	3.921303
498.000000	3.948072
499.000000	3.977497
500.000000	4.010326
501.000000	4.046178
502.000000	4.084850
503.000000	4.127740
504.000000	4.174001
505.000000	4.224041
506.000000	4.278104
507.000000	4.336477
508.000000	4.400489
509.000000	4.469837
510.000000	4.544991
511.000000	4.625996
512.000000	4.714055
513.000000	4.809470
514.000000	4.912751
515.000000	5.023817
516.000000	5.143683
517.000000	5.272084
518.000000	5.408955
519.000000	5.554741
520.000000	5.709388
521.000000	5.873547
522.000000	6.046285
523.000000	6.226684
524.000000	6.414746
525.000000	6.610622
526.000000	6.812303
527.000000	7.019744
528.000000	7.231483
529.000000	7.447599
530.000000	7.666500
531.000000	7.887074
532.000000	8.108542
533.000000	8.329844
534.000000	8.550311
535.000000	8.768060
536.000000	8.982736
537.000000	9.192320
538.000000	9.396290
539.000000	9.593030
540.000000	9.781035
541.000000	9.959719
542.000000	10.127664
543.000000	10.283187
544.000000	10.426372
545.000000	10.556751
546.000000	10.673464
547.000000	10.777247
548.000000	10.866870
549.000000	10.940818
550.000000	10.998086
551.000000	11.036596
552.000000	11.054148
553.000000	11.050365
554.000000	11.020315
555.000000	10.963863
556.000000	10.879734
557.000000	10.766506
558.000000	10.623530
559.000000	10.451708
560.000000	10.248346
561.000000	10.018565
562.000000	9.766684
563.000000	9.494960
564.000000	9.209202
565.000000	8.912002
566.000000	8.607800
567.000000	8.300666
568.000000	7.995722
569.000000	7.696741
570.000000	7.411027
571.000000	7.138886
572.000000	6.882278
573.000000	6.643607
574.000000	6.424995
575.000000	6.227266
576.000000	6.050466
577.000000	5.894701
578.000000	5.758274
579.000000	5.640285
580.000000	5.538909
581.000000	5.453097
582.000000	5.379974
583.000000	5.318781
584.000000	5.266402
585.000000	5.221074
586.000000	5.181814
587.000000	5.146530
588.000000	5.114772
589.000000	5.085034
590.000000	5.057591
591.000000	5.031358
592.000000	5.006637
593.000000	4.982396
594.000000	4.959637
595.000000	4.938766
596.000000	4.919186
597.000000	4.901788
598.000000	4.886376
599.000000	4.872915
600.000000	4.861673
601.000000	4.852073
602.000000	4.844744
603.000000	4.839104
604.000000	4.833799
605.000000	4.829639
606.000000	4.826208
607.000000	4.823106
608.000000	4.820768
609.000000	4.818647
610.000000	4.815869
611.000000	4.814186
612.000000	4.812175
613.000000	4.810246
614.000000	4.809199
615.000000	4.808304
616.000000	4.807444
617.000000	4.806426
618.000000	4.805402
619.000000	4.804420
620.000000	4.804359
621.000000	4.803707
622.000000	4.803285
623.000000	4.802752
624.000000	4.803089
625.000000	4.803583
626.000000	4.804962
627.000000	4.807360
628.000000	4.810434
629.000000	4.814884
630.000000	4.820980
631.000000	4.828748
632.000000	4.839008
633.000000	4.852139
634.000000	4.867403
635.000000	4.885873
636.000000	4.908242
637.000000	4.934120
638.000000	4.964367
639.000000	4.999655
640.000000	5.039802
641.000000	5.085808
642.000000	5.137450
643.000000	5.195873
644.000000	5.261498
645.000000	5.335089
646.000000	5.416319
647.000000	5.505683
648.000000	5.603210
649.000000	5.709023
650.000000	5.823986
651.000000	5.947278
652.000000	6.079309
653.000000	6.220399
654.000000	6.370651
655.000000	6.528111
656.000000	6.693032
657.000000	6.865431
658.000000	7.045686
659.000000	7.232277
660.000000	7.424874
661.000000	7.623253
662.000000	7.827859
663.000000	8.035818
664.000000	8.246464
665.000000	8.460775
666.000000	8.677225
667.000000	8.895337
668.000000	9.113581
669.000000	9.333250
670.000000	9.551954
671.000000	9.770198
672.000000	9.986542
673.000000	10.201188
674.000000	10.413599
675.000000	10.623190
676.000000	10.829238
677.000000	11.031990
678.000000	11.232447
679.000000	11.429723
680.000000	11.624625
681.000000	11.814525
682.000000	12.000836
683.000000	12.184917
684.000000	12.366414
685.000000	12.545077
686.000000	12.720963
687.000000	12.894774
688.000000	13.066212
689.000000	13.235273
690.000000	13.401932
691.000000	13.567871
692.000000	13.731021
693.000000	13.891664
694.000000	14.049907
695.000000	14.206284
696.000000	14.362549
697.000000	14.518077
698.000000	14.670647
699.000000	14.821433
700.000000	14.970469
701.000000	15.118467
702.000000	15.266081
703.000000	15.412378
704.000000	15.558445
705.000000	15.703091
706.000000	15.846237
707.000000	15.986612
708.000000	16.126738
709.000000	16.265858
710.000000	16.405447
711.000000	16.544243
712.000000	16.682403
713.000000	16.819996
714.000000	16.955856
715.000000	17.090869
716.000000	17.224736
717.000000	17.359043
718.000000	17.493565
719.000000	17.628859
720.000000	17.763189
721.000000	17.895353
722.000000	18.026006
723.000000	18.156474
724.000000	18.287007
725.000000	18.418121
726.000000	18.549476
727.000000	18.680380
728.000000	18.809365
729.000000	18.935514
730.000000	19.061605
731.000000	19.188923
732.000000	19.314740
733.000000	19.438905
734.000000	19.564329
735.000000	19.689720
736.000000	19.815372
737.000000	19.939991
738.000000	20.063591
739.000000	20.187098
740.000000	20.308684
741.000000	20.430601
742.000000	20.552981
743.000000	20.674698
744.000000	20.795684
745.000000	20.915706
746.000000	21.033800
747.000000	21.149816
748.000000	21.266647
749.000000	21.386330
750.000000	21.506018
751.000000	21.623749
752.000000	21.742179
753.000000	21.859662
754.000000	21.977852
755.000000	22.094693
756.000000	22.209013
757.000000	22.325972
758.000000	22.440913
759.000000	22.554333
760.000000	22.668100
761.000000	22.779833
762.000000	22.891308
763.000000	23.007411
764.000000	23.120234
765.000000	23.232820
766.000000	23.346033
767.000000	23.458498
768.000000	23.571951
769.000000	23.684447
770.000000	23.796472
771.000000	23.908962
772.000000	24.021089
773.000000	24.128832
774.000000	24.236001
775.000000	24.341879
776.000000	24.452951
777.000000	24.561404
778.000000	24.671018
779.000000	24.779770
780.000000	24.886127
781.000000	24.992539
782.000000	25.099520
783.000000	25.209258
784.000000	25.318402
785.000000	25.431034
786.000000	25.535961
787.000000	25.642293
788.000000	25.748664
789.000000	25.854837
790.000000	25.961068
791.000000	26.065072
792.000000	26.168144
793.000000	26.268081
794.000000	26.372116
795.000000	26.474182
796.000000	26.578863
797.000000	26.677313
798.000000	26.777087
799.000000	26.875905
800.000000	26.973476
801.000000	27.073655
802.000000	27.168932
803.000000	27.268035
804.000000	27.367315
805.000000	27.461848
806.000000	27.553102
807.000000	27.647379
808.000000	27.742830
809.000000	27.841102
810.000000	27.942073
811.000000	28.040172
812.000000	28.137650
813.000000	28.231785
814.000000	28.321965
815.000000	28.415800
816.000000	28.505731
817.000000	28.598124
818.000000	28.691254
819.000000	28.778179
820.000000	28.858013
821.000000	28.941591
822.000000	29.027278
823.000000	29.106864
824.000000	29.189269
825.000000	29.272620
826.000000	29.353874
827.000000	29.435564
828.000000	29.505955
829.000000	29.581057
830.000000	29.654900
831.000000	29.724084
832.000000	29.786893
833.000000	29.860229
834.000000	29.928904
835.000000	29.995172
836.000000	30.062386
837.000000	30.126281
838.000000	30.191301
839.000000	30.251505
840.000000	30.317534
841.000000	30.385295
842.000000	30.446949
843.000000	30.509188
844.000000	30.564718
845.000000	30.630720
846.000000	30.694210
847.000000	30.759722
848.000000	30.829519
849.000000	30.892138
850.000000	30.929006
851.000000	30.976326
852.000000	31.016542
853.000000	31.058839
854.000000	31.115992
855.000000	31.157018
856.000000	31.192329
857.000000	31.245109
858.000000	31.721271
859.000000	31.858400
860.000000	31.984893
861.000000	32.105398
862.000000	32.273402
863.000000	32.391650
864.000000	32.480889
865.000000	32.576922
866.000000	32.679600
867.000000	32.761129
868.000000	32.383375
869.000000	32.320568
870.000000	32.283017
871.000000	32.238540
872.000000	32.164262
873.000000	32.133780
874.000000	32.117120
875.000000	32.099573
876.000000	32.048203
877.000000	31.983980
878.000000	31.977900
879.000000	31.977180
880.000000	31.973630
881.000000	31.962428
882.000000	31.943580
883.000000	31.909010
884.000000	31.869700
885.000000	31.812670
886.000000	31.799765
887.000000	31.791332
888.000000	31.752045
889.000000	31.747170
890.000000	31.718412
891.000000	31.704282
892.000000	31.693885
893.000000	31.673572
894.000000	31.646173
895.000000	31.639817
896.000000	31.628155
897.000000	31.621540
898.000000	31.616973
899.000000	31.580663
900.000000	31.579172
901.000000	31.564707
902.000000	31.542422
903.000000	31.536352
904.000000	31.536587
905.000000	31.535028
906.000000	31.519985
907.000000	31.492960
908.000000	31.469027
909.000000	31.469820
910.000000	31.462120
911.000000	31.453925
912.000000	31.455915
913.000000	31.450170
914.000000	31.458350
915.000000	31.462833
916.000000	31.470548
917.000000	31.478285
918.000000	31.476290
919.000000	31.478462
920.000000	31.479035
921.000000	31.482592
922.000000	31.482835
923.000000	31.487720
924.000000	31.487362
925.000000	31.479030
926.000000	31.471700
927.000000	31.481645
928.000000	31.494630
929.000000	31.497988
930.000000	31.509020
931.000000	31.518730
932.000000	31.536570
933.000000	31.549100
934.000000	31.561340
935.000000	31.570855
936.000000	31.587538
937.000000	31.600635
938.000000	31.616505
939.000000	31.627362
940.000000	31.637295
941.000000	31.642993
942.000000	31.642488
943.000000	31.649020
944.000000	31.653590
945.000000	31.666375
946.000000	31.677617
947.000000	31.690300
948.000000	31.695070
949.000000	31.708290
950.000000	31.720318
951.000000	31.737502
952.000000	31.754795
953.000000	31.770765
954.000000	31.789055
955.000000	31.805100
956.000000	31.819825
957.000000	31.834353
958.000000	31.856125
959.000000	31.872218
960.000000	31.887138
961.000000	31.904405
962.000000	31.923675
963.000000	31.941260
964.000000	31.956493
965.000000	31.971535
966.000000	31.985035
967.000000	31.994280
968.000000	32.007710
969.000000	32.023680
970.000000	32.045323
971.000000	32.067785
972.000000	32.088107
973.000000	32.110350
974.000000	32.129000
975.000000	32.144607
976.000000	32.161597
977.000000	32.182567
978.000000	32.202430
979.000000	32.220598
980.000000	32.236033
981.000000	32.248450
982.000000	32.259878
983.000000	32.274942
984.000000	32.297120
985.000000	32.321072
986.000000	32.343840
987.000000	32.365650
988.000000	32.386945
989.000000	32.408102
990.000000	32.427532
991.000000	32.446877
992.000000	32.467780
993.000000	32.486775
994.000000	32.502403
995.000000	32.521735
996.000000	32.544615
997.000000	32.566058
998.000000	32.585485
999.000000	32.604870
1000.000000	32.626902
1001.000000	32.650430
1002.000000	32.672812
1003.000000	32.694473
1004.000000	32.715308
1005.000000	32.733908
1006.000000	32.753010
1007.000000	32.773365
1008.000000	32.794890
1009.000000	32.819367
1010.000000	32.841835
1011.000000	32.860905
1012.000000	32.878563
1013.000000	32.897888
1014.000000	32.921395
1015.000000	32.945387
1016.000000	32.966577
1017.000000	32.988157
1018.000000	33.010883
1019.000000	33.031860
1020.000000	33.055157
1021.000000	33.080933
1022.000000	33.107357
1023.000000	33.134925
1024.000000	33.159110
1025.000000	33.183515
1026.000000	33.213043
1027.000000	33.241088
1028.000000	33.266830
1029.000000	33.294057
1030.000000	33.319665
1031.000000	33.344637
1032.000000	33.371527
1033.000000	33.397405
1034.000000	33.422645
1035.000000	33.448580
1036.000000	33.472165
1037.000000	33.498487
1038.000000	33.525067
1039.000000	33.550285
1040.000000	33.574360
1041.000000	33.598895
1042.000000	33.623823
1043.000000	33.648743
1044.000000	33.676345
1045.000000	33.703218
1046.000000	33.731420
1047.000000	33.758790
1048.000000	33.786093
1049.000000	33.813722
1050.000000	33.842155
1051.000000	33.872605
1052.000000	33.902718
1053.000000	33.932933
1054.000000	33.963133
1055.000000	33.992902
1056.000000	34.021170
1057.000000	34.046765
1058.000000	34.072660
1059.000000	34.098950
1060.000000	34.128258
1061.000000	34.154510
1062.000000	34.179247
1063.000000	34.205090
1064.000000	34.229597
1065.000000	34.254535
1066.000000	34.281300
1067.000000	34.309987
1068.000000	34.340410
1069.000000	34.369425
1070.000000	34.396770
1071.000000	34.425638
1072.000000	34.456105
1073.000000	34.487315
1074.000000	34.515990
1075.000000	34.547403
1076.000000	34.577210
1077.000000	34.605775
1078.000000	34.633592
1079.000000	34.661960
1080.000000	34.689802
1081.000000	34.718490
1082.000000	34.747417
1083.000000	34.773162
1084.000000	34.801460
1085.000000	34.827650
1086.000000	34.854188
1087.000000	34.880798
1088.000000	34.907978
1089.000000	34.934390
1090.000000	34.959578
1091.000000	34.985703
1092.000000	35.012750
1093.000000	35.040510
1094.000000	35.066980
1095.000000	35.092627
1096.000000	35.118065
1097.000000	35.143302
1098.000000	35.168560
1099.000000	35.194972
1100.000000	35.221882
1101.000000	35.248672
1102.000000	35.272235
1103.000000	35.296470
1104.000000	35.322810
1105.000000	35.348665
1106.000000	35.375250
1107.000000	35.401920
1108.000000	35.428278
1109.000000	35.452765
1110.000000	35.477435
1111.000000	35.500815
1112.000000	35.526145
1113.000000	35.550380
1114.000000	35.571922
1115.000000	35.594955
1116.000000	35.617947
1117.000000	35.641148
1118.000000	35.663545
1119.000000	35.686745
1120.000000	35.708238
1121.000000	35.729343
1122.000000	35.750350
1123.000000	35.771670
1124.000000	35.792192
1125.000000	35.809230
1126.000000	35.824905
1127.000000	35.837365
1128.000000	35.850228
1129.000000	35.863797
1130.000000	35.873717
1131.000000	35.879368
1132.000000	35.882070
1133.000000	35.884900
1134.000000	35.887868
1135.000000	35.890155
1136.000000	35.889790
1137.000000	35.889902
1138.000000	35.885753
1139.000000	35.876947
1140.000000	35.870942
1141.000000	35.866858
1142.000000	35.861290
1143.000000	35.851965
1144.000000	35.843475
1145.000000	35.836685
1146.000000	35.831520
1147.000000	35.824213
1148.000000	35.818422
1149.000000	35.813617
1150.000000	35.809848
1151.000000	35.804412
1152.000000	35.802375
1153.000000	35.800767
1154.000000	35.794163
1155.000000	35.784345
1156.000000	35.773280
1157.000000	35.761148
1158.000000	35.747970
1159.000000	35.732435
1160.000000	35.714055
1161.000000	35.694587
1162.000000	35.669385
1163.000000	35.641802
1164.000000	35.614465
1165.000000	35.587477
1166.000000	35.557522
1167.000000	35.528185
1168.000000	35.497205
1169.000000	35.466955
1170.000000	35.438047
1171.000000	35.410427
1172.000000	35.384528
1173.000000	35.360367
1174.000000	35.339505
1175.000000	35.320242
1176.000000	35.303983
1177.000000	35.291570
1178.000000	35.279813
1179.000000	35.269970
1180.000000	35.261257
1181.000000	35.253943
1182.000000	35.248818
1183.000000	35.245790
1184.000000	35.243457
1185.000000	35.244112
1186.000000	35.246440
1187.000000	35.250752
1188.000000	35.258110
1189.000000	35.270255
1190.000000	35.286095
1191.000000	35.306440
1192.000000	35.330388
1193.000000	35.358350
1194.000000	35.389482
1195.000000	35.423470
1196.000000	35.461838
1197.000000	35.500892
1198.000000	35.543045
1199.000000	35.586313
1200.000000	35.630310
1201.000000	35.673707
1202.000000	35.717168
1203.000000	35.760810
1204.000000	35.803962
1205.000000	35.846960
1206.000000	35.888980
1207.000000	35.930627
1208.000000	35.971725
1209.000000	36.011128
1210.000000	36.050825
1211.000000	36.089765
1212.000000	36.128295
1213.000000	36.165345
1214.000000	36.203823
1215.000000	36.240770
1216.000000	36.274768
1217.000000	36.308837
1218.000000	36.342700
1219.000000	36.376825
1220.000000	36.407665
1221.000000	36.438890
1222.000000	36.470202
1223.000000	36.500372
1224.000000	36.528182
1225.000000	36.555498
1226.000000	36.582905
1227.000000	36.609750
1228.000000	36.636215
1229.000000	36.661470
1230.000000	36.687465
1231.000000	36.712547
1232.000000	36.736348
1233.000000	36.761445
1234.000000	36.786860
1235.000000	36.811745
1236.000000	36.838140
1237.000000	36.863800
1238.000000	36.888325
1239.000000	36.912850
1240.000000	36.938010
1241.000000	36.963420
1242.000000	36.989575
1243.000000	37.016045
1244.000000	37.043070
1245.000000	37.070330
1246.000000	37.097893
1247.000000	37.127408
1248.000000	37.158552
1249.000000	37.191327
1250.000000	37.224935
1251.000000	37.258892
1252.000000	37.292212
1253.000000	37.324957
1254.000000	37.357465
1255.000000	37.388607
1256.000000	37.418867
1257.000000	37.448092
1258.000000	37.474873
1259.000000	37.499905
1260.000000	37.523345
1261.000000	37.546048
1262.000000	37.568937
1263.000000	37.590747
1264.000000	37.611838
1265.000000	37.633095
1266.000000	37.652783
1267.000000	37.671760
1268.000000	37.691277
1269.000000	37.709720
1270.000000	37.727198
1271.000000	37.744425
1272.000000	37.761602
1273.000000	37.778283
1274.000000	37.794088
1275.000000	37.809970
1276.000000	37.827013
1277.000000	37.844450
1278.000000	37.861845
1279.000000	37.880745
1280.000000	37.900875
1281.000000	37.921405
1282.000000	37.941755
1283.000000	37.963805
1284.000000	37.987805
1285.000000	38.011938
1286.000000	38.035758
1287.000000	38.059728
1288.000000	38.084273
1289.000000	38.108420
1290.000000	38.131665
1291.000000	38.155158
1292.000000	38.178697
1293.000000	38.201420
1294.000000	38.223805
1295.000000	38.245740
1296.000000	38.265855
1297.000000	38.285322
1298.000000	38.304550
1299.000000	38.323338
1300.000000	38.342555
1301.000000	38.359600
1302.000000	38.374723
1303.000000	38.389738
1304.000000	38.402425
1305.000000	38.414120
1306.000000	38.426480
1307.000000	38.437960
1308.000000	38.447697
1309.000000	38.455780
1310.000000	38.462355
1311.000000	38.467853
1312.000000	38.472718
1313.000000	38.475248
1314.000000	38.476868
1315.000000	38.477620
1316.000000	38.476038
1317.000000	38.472440
1318.000000	38.468055
1319.000000	38.462767
1320.000000	38.455377
1321.000000	38.446800
1322.000000	38.437225
1323.000000	38.428107
1324.000000	38.417240
1325.000000	38.403182
1326.000000	38.388707
1327.000000	38.371885
1328.000000	38.353000
1329.000000	38.332325
1330.000000	38.310578
1331.000000	38.288272
1332.000000	38.263505
1333.000000	38.234280
1334.000000	38.202602
1335.000000	38.170838
1336.000000	38.135737
1337.000000	38.099833
1338.000000	38.061702
1339.000000	38.020902
1340.000000	37.976488
1341.000000	37.927007
1342.000000	37.875883
1343.000000	37.823625
1344.000000	37.769130
1345.000000	37.708817
1346.000000	37.647782
1347.000000	37.585722
1348.000000	37.521890
1349.000000	37.453322
1350.000000	37.383815
1351.000000	37.314303
1352.000000	37.242303
1353.000000	37.170295
1354.000000	37.102095
1355.000000	37.038495
1356.000000	36.974738
1357.000000	36.910195
1358.000000	36.846140
1359.000000	36.785273
1360.000000	36.733447
1361.000000	36.689550
1362.000000	36.646788
1363.000000	36.602050
1364.000000	36.557145
1365.000000	36.507660
1366.000000	36.454087
1367.000000	36.402315
1368.000000	36.346205
1369.000000	36.284180
1370.000000	36.208557
1371.000000	36.117675
1372.000000	36.014005
1373.000000	35.895378
1374.000000	35.756845
1375.000000	35.606105
1376.000000	35.442380
1377.000000	35.259042
1378.000000	35.065010
1379.000000	34.863447
1380.000000	34.662053
1381.000000	34.469300
1382.000000	34.287233
1383.000000	34.119412
1384.000000	33.963935
1385.000000	33.817940
1386.000000	33.687245
1387.000000	33.580163
1388.000000	33.486852
1389.000000	33.401403
1390.000000	33.320955
1391.000000	33.242250
1392.000000	33.166142
1393.000000	33.089760
1394.000000	33.020112
1395.000000	32.962945
1396.000000	32.901393
1397.000000	32.824148
1398.000000	32.741725
1399.000000	32.669185
1400.000000	32.600378
1401.000000	32.516713
1402.000000	32.418545
1403.000000	32.313515
1404.000000	32.202318
1405.000000	32.076937
1406.000000	31.946765
1407.000000	31.817197
1408.000000	31.685115
1409.000000	31.541155
1410.000000	31.381132
1411.000000	31.220657
1412.000000	31.064187
1413.000000	30.913685
1414.000000	30.759350
1415.000000	30.601605
1416.000000	30.441775
1417.000000	30.285158
1418.000000	30.133435
1419.000000	29.983443
1420.000000	29.836947
1421.000000	29.695290
1422.000000	29.559927
1423.000000	29.421533
1424.000000	29.287535
1425.000000	29.157987
1426.000000	29.037503
1427.000000	28.920835
1428.000000	28.803712
1429.000000	28.687955
1430.000000	28.580808
1431.000000	28.480435
1432.000000	28.382665
1433.000000	28.289395
1434.000000	28.197925
1435.000000	28.111995
1436.000000	28.028343
1437.000000	27.947135
1438.000000	27.869527
1439.000000	27.796265
1440.000000	27.725090
1441.000000	27.654940
1442.000000	27.588360
1443.000000	27.521975
1444.000000	27.459610
1445.000000	27.401155
1446.000000	27.345145
1447.000000	27.286170
1448.000000	27.228375
1449.000000	27.175415
1450.000000	27.123520
1451.000000	27.072967
1452.000000	27.019615
1453.000000	26.970027
1454.000000	26.917285
1455.000000	26.862705
1456.000000	26.808940
1457.000000	26.757527
1458.000000	26.706948
1459.000000	26.654908
1460.000000	26.601480
1461.000000	26.546495
1462.000000	26.492962
1463.000000	26.438123
1464.000000	26.386015
1465.000000	26.334992
1466.000000	26.283677
1467.000000	26.234177
1468.000000	26.184590
1469.000000	26.134080
1470.000000	26.085525
1471.000000	26.040200
1472.000000	25.994630
1473.000000	25.949820
1474.000000	25.903995
1475.000000	25.858467
1476.000000	25.815525
1477.000000	25.775123
1478.000000	25.736477
1479.000000	25.699295
1480.000000	25.661790
1481.000000	25.625640
1482.000000	25.592237
1483.000000	25.562477
1484.000000	25.535690
1485.000000	25.510753
1486.000000	25.486510
1487.000000	25.462383
1488.000000	25.438840
1489.000000	25.417112
1490.000000	25.396892
1491.000000	25.379048
1492.000000	25.363690
1493.000000	25.347935
1494.000000	25.334712
1495.000000	25.324230
1496.000000	25.316382
1497.000000	25.311280
1498.000000	25.310130
1499.000000	25.311528
1500.000000	25.317687
1501.000000	25.327455
1502.000000	25.340063
1503.000000	25.357067
1504.000000	25.378110
1505.000000	25.402648
1506.000000	25.430243
1507.000000	25.462010
1508.000000	25.497695
1509.000000	25.536782
1510.000000	25.576763
1511.000000	25.617745
1512.000000	25.660598
1513.000000	25.704945
1514.000000	25.749608
1515.000000	25.794290
1516.000000	25.839697
1517.000000	25.884867
1518.000000	25.929740
1519.000000	25.974393
1520.000000	26.020055
1521.000000	26.064400
1522.000000	26.109208
1523.000000	26.153868
1524.000000	26.197717
1525.000000	26.242100
1526.000000	26.285475
1527.000000	26.327330
1528.000000	26.368500
1529.000000	26.408727
1530.000000	26.448250
1531.000000	26.488617
1532.000000	26.527838
1533.000000	26.566130
1534.000000	26.603903
1535.000000	26.640093
1536.000000	26.675887
1537.000000	26.712160
1538.000000	26.747148
1539.000000	26.781613
1540.000000	26.815350
1541.000000	26.847683
1542.000000	26.880110
1543.000000	26.912532
1544.000000	26.945880
1545.000000	26.980665
1546.000000	27.017057
1547.000000	27.054242
1548.000000	27.093020
1549.000000	27.133780
1550.000000	27.175957
1551.000000	27.220320
1552.000000	27.265373
1553.000000	27.310710
1554.000000	27.355548
1555.000000	27.399425
1556.000000	27.441455
1557.000000	27.481405
1558.000000	27.518810
1559.000000	27.552675
1560.000000	27.583772
1561.000000	27.611665
1562.000000	27.635282
1563.000000	27.654185
1564.000000	27.669250
1565.000000	27.681240
1566.000000	27.689798
1567.000000	27.694412
1568.000000	27.696838
1569.000000	27.698615
1570.000000	27.696885
1571.000000	27.693520
1572.000000	27.690410
1573.000000	27.689898
1574.000000	27.691053
1575.000000	27.692192
1576.000000	27.693667
1577.000000	27.697525
1578.000000	27.704118
1579.000000	27.711140
1580.000000	27.720783
1581.000000	27.733335
1582.000000	27.748425
1583.000000	27.764653
1584.000000	27.783510
1585.000000	27.805167
1586.000000	27.830122
1587.000000	27.857855
1588.000000	27.885343
1589.000000	27.915865
1590.000000	27.948627
1591.000000	27.982635
1592.000000	28.017120
1593.000000	28.053753
1594.000000	28.089405
1595.000000	28.125800
1596.000000	28.164753
1597.000000	28.204603
1598.000000	28.246272
1599.000000	28.289375
1600.000000	28.333990
1601.000000	28.379515
1602.000000	28.426605
1603.000000	28.473463
1604.000000	28.522107
1605.000000	28.571217
1606.000000	28.618025
1607.000000	28.664265
1608.000000	28.710658
1609.000000	28.756790
1610.000000	28.803322
1611.000000	28.849125
1612.000000	28.891745
1613.000000	28.933850
1614.000000	28.973707
1615.000000	29.012090
1616.000000	29.049475
1617.000000	29.086958
1618.000000	29.123635
1619.000000	29.156515
1620.000000	29.185935
1621.000000	29.214730
1622.000000	29.244735
1623.000000	29.273187
1624.000000	29.302168
1625.000000	29.331657
1626.000000	29.362203
1627.000000	29.390408
1628.000000	29.418245
1629.000000	29.448637
1630.000000	29.481340
1631.000000	29.512477
1632.000000	29.542615
1633.000000	29.573507
1634.000000	29.601740
1635.000000	29.627670
1636.000000	29.652542
1637.000000	29.677817
1638.000000	29.701265
1639.000000	29.722090
1640.000000	29.739840
1641.000000	29.758590
1642.000000	29.776920
1643.000000	29.793935
1644.000000	29.812055
1645.000000	29.830325
1646.000000	29.846320
1647.000000	29.860847
1648.000000	29.873382
1649.000000	29.886385
1650.000000	29.898575
1651.000000	29.907460
1652.000000	29.913590
1653.000000	29.916127
1654.000000	29.913897
1655.000000	29.909455
1656.000000	29.900468
1657.000000	29.889765
1658.000000	29.875018
1659.000000	29.851765
1660.000000	29.822308
1661.000000	29.787490
1662.000000	29.747458
1663.000000	29.701708
1664.000000	29.651193
1665.000000	29.592692
1666.000000	29.528398
1667.000000	29.456140
1668.000000	29.374370
1669.000000	29.290520
1670.000000	29.198937
1671.000000	29.100140
1672.000000	28.995495
1673.000000	28.888622
1674.000000	28.774790
1675.000000	28.656240
1676.000000	28.533747
1677.000000	28.406202
1678.000000	28.279045
1679.000000	28.146583
1680.000000	28.013140
1681.000000	27.875538
1682.000000	27.736498
1683.000000	27.594182
1684.000000	27.454645
1685.000000	27.317790
1686.000000	27.187675
1687.000000	27.066385
1688.000000	26.951945
1689.000000	26.850502
1690.000000	26.764575
1691.000000	26.696595
1692.000000	26.643085
1693.000000	26.605157
1694.000000	26.580622
1695.000000	26.568012
1696.000000	26.560955
1697.000000	26.556812
1698.000000	26.559828
1699.000000	26.564827
1700.000000	26.570485
1701.000000	26.571262
1702.000000	26.569865
1703.000000	26.564185
1704.000000	26.553052
1705.000000	26.537178
1706.000000	26.518300
1707.000000	26.497442
1708.000000	26.468528
1709.000000	26.431333
1710.000000	26.386118
1711.000000	26.333855
1712.000000	26.273825
1713.000000	26.203385
1714.000000	26.124680
1715.000000	26.039342
1716.000000	25.946520
1717.000000	25.847075
1718.000000	25.743735
1719.000000	25.637122
1720.000000	25.527730
1721.000000	25.422640
1722.000000	25.321787
1723.000000	25.231697
1724.000000	25.153525
1725.000000	25.086280
1726.000000	25.030368
1727.000000	24.985723
1728.000000	24.954867
1729.000000	24.939295
1730.000000	24.935150
1731.000000	24.938003
1732.000000	24.949205
1733.000000	24.964863
1734.000000	24.985788
1735.000000	25.011310
1736.000000	25.041290
1737.000000	25.076450
1738.000000	25.115605
1739.000000	25.156550
1740.000000	25.200072
1741.000000	25.249645
1742.000000	25.302698
1743.000000	25.358713
1744.000000	25.414327
1745.000000	25.471398
1746.000000	25.529667
1747.000000	25.586733
1748.000000	25.641702
1749.000000	25.695330
1750.000000	25.746870
1751.000000	25.793918
1752.000000	25.836650
1753.000000	25.876047
1754.000000	25.912043
1755.000000	25.943220
1756.000000	25.971905
1757.000000	25.996840
1758.000000	26.020283
1759.000000	26.039073
1760.000000	26.057412
1761.000000	26.075588
1762.000000	26.091595
1763.000000	26.108335
1764.000000	26.127020
1765.000000	26.147480
1766.000000	26.169455
1767.000000	26.194103
1768.000000	26.220238
1769.000000	26.249333
1770.000000	26.278155
1771.000000	26.306980
1772.000000	26.339995
1773.000000	26.372613
1774.000000	26.405833
1775.000000	26.439030
1776.000000	26.471233
1777.000000	26.501800
1778.000000	26.531613
1779.000000	26.560838
1780.000000	26.590257
1781.000000	26.619207
1782.000000	26.643633
1783.000000	26.665740
1784.000000	26.687340
1785.000000	26.707065
1786.000000	26.724912
1787.000000	26.741203
1788.000000	26.755217
1789.000000	26.767005
1790.000000	26.778225
1791.000000	26.788767
1792.000000	26.799937
1793.000000	26.812407
1794.000000	26.823470
1795.000000	26.834155
1796.000000	26.844047
1797.000000	26.854493
1798.000000	26.865227
1799.000000	26.877497
1800.000000	26.893080
1801.000000	26.910765
1802.000000	26.929380
1803.000000	26.944943
1804.000000	26.959208
1805.000000	26.975195
1806.000000	26.993000
1807.000000	27.011823
1808.000000	27.030170
1809.000000	27.047618
1810.000000	27.063923
1811.000000	27.081207
1812.000000	27.098395
1813.000000	27.115970
1814.000000	27.134555
1815.000000	27.151255
1816.000000	27.165350
1817.000000	27.174530
1818.000000	27.182008
1819.000000	27.195885
1820.000000	27.214948
1821.000000	27.233922
1822.000000	27.246828
1823.000000	27.254115
1824.000000	27.259755
1825.000000	27.266170
1826.000000	27.276518
1827.000000	27.293350
1828.000000	27.313950
1829.000000	27.331455
1830.000000	27.343525
1831.000000	27.351747
1832.000000	27.363955
1833.000000	27.380018
1834.000000	27.398095
1835.000000	27.421385
1836.000000	27.451533
1837.000000	27.481095
1838.000000	27.507613
1839.000000	27.531858
1840.000000	27.560282
1841.000000	27.597570
1842.000000	27.634730
1843.000000	27.664045
1844.000000	27.683248
1845.000000	27.692765
1846.000000	27.700320
1847.000000	27.720770
1848.000000	27.746235
1849.000000	27.762000
1850.000000	27.761633
1851.000000	27.747115
1852.000000	27.733210
1853.000000	27.731772
1854.000000	27.738958
1855.000000	27.747900
1856.000000	27.743075
1857.000000	27.721328
1858.000000	27.695478
1859.000000	27.679718
1860.000000	27.666403
1861.000000	27.648573
1862.000000	27.624227
1863.000000	27.589297
1864.000000	27.538695
1865.000000	27.481055
1866.000000	27.421923
1867.000000	27.355270
1868.000000	27.281218
1869.000000	27.197752
1870.000000	27.115423
1871.000000	27.032932
1872.000000	26.946165
1873.000000	26.854375
1874.000000	26.759820
1875.000000	26.655748
1876.000000	26.535987
1877.000000	26.404775
1878.000000	26.259240
1879.000000	26.094973
1880.000000	25.912427
1881.000000	25.713060
1882.000000	25.500350
1883.000000	25.279045
1884.000000	25.048493
1885.000000	24.803638
1886.000000	24.551710
1887.000000	24.290025
1888.000000	24.017260
1889.000000	23.736785
1890.000000	23.450012
1891.000000	23.161730
1892.000000	22.865695
1893.000000	22.555855
1894.000000	22.234765
1895.000000	21.910357
1896.000000	21.580487
1897.000000	21.243153
1898.000000	20.909237
1899.000000	20.576880
1900.000000	20.244495
1901.000000	19.907675
1902.000000	19.566225
1903.000000	19.233820
1904.000000	18.915880
1905.000000	18.605457
1906.000000	18.304900
1907.000000	18.015698
1908.000000	17.729795
1909.000000	17.449030
1910.000000	17.173685
1911.000000	16.908812
1912.000000	16.663970
1913.000000	16.432143
1914.000000	16.203360
1915.000000	15.982105
1916.000000	15.768825
1917.000000	15.564100
1918.000000	15.373160
1919.000000	15.197643
1920.000000	15.035335
1921.000000	14.881220
1922.000000	14.737340
1923.000000	14.593410
1924.000000	14.463478
1925.000000	14.343780
1926.000000	14.234337
1927.000000	14.133957
1928.000000	14.042570
1929.000000	13.959560
1930.000000	13.885890
1931.000000	13.819810
1932.000000	13.757640
1933.000000	13.704812
1934.000000	13.656450
1935.000000	13.614777
1936.000000	13.577873
1937.000000	13.553420
1938.000000	13.533907
1939.000000	13.521575
1940.000000	13.513590
1941.000000	13.515617
1942.000000	13.517525
1943.000000	13.525960
1944.000000	13.537377
1945.000000	13.560140
1946.000000	13.585883
1947.000000	13.613900
1948.000000	13.648900
1949.000000	13.682485
1950.000000	13.716610
1951.000000	13.752435
1952.000000	13.794393
1953.000000	13.843740
1954.000000	13.899087
1955.000000	13.955027
1956.000000	14.013150
1957.000000	14.069450
1958.000000	14.124712
1959.000000	14.180528
1960.000000	14.236178
1961.000000	14.294645
1962.000000	14.356345
1963.000000	14.414320
1964.000000	14.475525
1965.000000	14.534512
1966.000000	14.593965
1967.000000	14.654305
1968.000000	14.713730
1969.000000	14.772918
1970.000000	14.836430
1971.000000	14.899735
1972.000000	14.961670
1973.000000	15.025080
1974.000000	15.082323
1975.000000	15.145137
1976.000000	15.210832
1977.000000	15.279095
1978.000000	15.343075
1979.000000	15.409657
1980.000000	15.474677
1981.000000	15.538158
1982.000000	15.602643
1983.000000	15.666447
1984.000000	15.730587
1985.000000	15.790660
1986.000000	15.850153
1987.000000	15.911030
1988.000000	15.973683
1989.000000	16.037008
1990.000000	16.095650
1991.000000	16.158435
1992.000000	16.219310
1993.000000	16.276333
1994.000000	16.339690
1995.000000	16.397182
1996.000000	16.450545
1997.000000	16.501893
1998.000000	16.552635
1999.000000	16.600267
2000.000000	16.652783
2001.000000	16.703453
2002.000000	16.749772
2003.000000	16.792605
2004.000000	16.827300
2005.000000	16.863040
2006.000000	16.899458
2007.000000	16.931240
2008.000000	16.958317
2009.000000	16.980542
2010.000000	16.995613
2011.000000	17.003395
2012.000000	17.008495
2013.000000	17.013045
2014.000000	17.012770
2015.000000	17.003732
2016.000000	16.990147
2017.000000	16.972718
2018.000000	16.953672
2019.000000	16.935128
2020.000000	16.915218
2021.000000	16.888850
2022.000000	16.861370
2023.000000	16.826645
2024.000000	16.788293
2025.000000	16.751115
2026.000000	16.711750
2027.000000	16.665345
2028.000000	16.616172
2029.000000	16.562110
2030.000000	16.495922
2031.000000	16.424485
2032.000000	16.352152
2033.000000	16.282765
2034.000000	16.211078
2035.000000	16.135457
2036.000000	16.059470
2037.000000	15.973553
2038.000000	15.878678
2039.000000	15.778372
2040.000000	15.684780
2041.000000	15.590835
2042.000000	15.493512
2043.000000	15.393477
2044.000000	15.291450
2045.000000	15.183913
2046.000000	15.079117
2047.000000	14.990548
2048.000000	14.905050
2049.000000	14.824703
2050.000000	14.749073
2051.000000	14.679395
2052.000000	14.614230
2053.000000	14.558520
2054.000000	14.515545
2055.000000	14.484385
2056.000000	14.455445
2057.000000	14.432042
2058.000000	14.427652
2059.000000	14.433443
2060.000000	14.447793
2061.000000	14.469917
2062.000000	14.498448
2063.000000	14.532995
2064.000000	14.576442
2065.000000	14.634117
2066.000000	14.703183
2067.000000	14.778160
2068.000000	14.852230
2069.000000	14.925838
2070.000000	15.000105
2071.000000	15.079128
2072.000000	15.163255
2073.000000	15.248658
2074.000000	15.328580
2075.000000	15.401518
2076.000000	15.469773
2077.000000	15.536177
2078.000000	15.600313
2079.000000	15.665162
2080.000000	15.730042
2081.000000	15.788110
2082.000000	15.839468
2083.000000	15.888885
2084.000000	15.933078
2085.000000	15.972323
2086.000000	16.009382
2087.000000	16.040160
2088.000000	16.069135
2089.000000	16.090528
2090.000000	16.102643
2091.000000	16.115302
2092.000000	16.136862
2093.000000	16.152910
2094.000000	16.166412
2095.000000	16.174307
2096.000000	16.179187
2097.000000	16.186120
2098.000000	16.189425
2099.000000	16.195750
2100.000000	16.208548
2101.000000	16.222473
2102.000000	16.222125
2103.000000	16.221992
2104.000000	16.227818
2105.000000	16.226755
2106.000000	16.217667
2107.000000	16.210985
2108.000000	16.214832
2109.000000	16.223945
2110.000000	16.227507
2111.000000	16.229937
2112.000000	16.236822
2113.000000	16.235618
2114.000000	16.224567
2115.000000	16.232997
2116.000000	16.248393
2117.000000	16.248922
2118.000000	16.238477
2119.000000	16.219120
2120.000000	16.209988
2121.000000	16.195985
2122.000000	16.184213
2123.000000	16.184687
2124.000000	16.171708
2125.000000	16.147492
2126.000000	16.119188
2127.000000	16.087860
2128.000000	16.062155
2129.000000	16.037672
2130.000000	15.998055
2131.000000	15.956027
2132.000000	15.913528
2133.000000	15.863293
2134.000000	15.821920
2135.000000	15.772268
2136.000000	15.719265
2137.000000	15.679055
2138.000000	15.617540
2139.000000	15.565823
2140.000000	15.507205
2141.000000	15.435742
2142.000000	15.360857
2143.000000	15.292818
2144.000000	15.225645
2145.000000	15.155775
2146.000000	15.092510
2147.000000	15.012775
2148.000000	14.932117
2149.000000	14.855262
2150.000000	14.777990
2151.000000	14.714337
2152.000000	14.633975
2153.000000	14.538090
2154.000000	14.446167
2155.000000	14.365825
2156.000000	14.274408
2157.000000	14.194950
2158.000000	14.132037
2159.000000	14.044788
2160.000000	13.971652
2161.000000	13.902850
2162.000000	13.844670
2163.000000	13.804020
2164.000000	13.770480
2165.000000	13.720707
2166.000000	13.674243
2167.000000	13.636925
2168.000000	13.602632
2169.000000	13.579695
2170.000000	13.546592
2171.000000	13.507383
2172.000000	13.475435
2173.000000	13.429950
2174.000000	13.395128
2175.000000	13.362852
2176.000000	13.336847
2177.000000	13.317380
2178.000000	13.291425
2179.000000	13.256295
2180.000000	13.238772
2181.000000	13.232407
2182.000000	13.218178
2183.000000	13.208460
2184.000000	13.179395
2185.000000	13.175675
2186.000000	13.160502
2187.000000	13.137537
2188.000000	13.095567
2189.000000	13.073108
2190.000000	13.036885
2191.000000	12.998530
2192.000000	12.953363
2193.000000	12.926048
2194.000000	12.891552
2195.000000	12.824352
2196.000000	12.764630
2197.000000	12.696925
2198.000000	12.647073
2199.000000	12.587120
2200.000000	12.531280
2201.000000	12.468150
2202.000000	12.404853
2203.000000	12.321583
2204.000000	12.247682
2205.000000	12.207398
2206.000000	12.169140
2207.000000	12.137185
2208.000000	12.116995
2209.000000	12.102955
2210.000000	12.084630
2211.000000	12.068528
2212.000000	12.076425
2213.000000	12.096442
2214.000000	12.126080
2215.000000	12.163778
2216.000000	12.206545
2217.000000	12.243447
2218.000000	12.286117
2219.000000	12.322192
2220.000000	12.378763
2221.000000	12.450273
2222.000000	12.522770
2223.000000	12.590810
2224.000000	12.667015
2225.000000	12.727332
2226.000000	12.779307
2227.000000	12.841915
2228.000000	12.893287
2229.000000	12.948998
2230.000000	13.000842
2231.000000	13.041588
2232.000000	13.083615
2233.000000	13.126262
2234.000000	13.146503
2235.000000	13.174333
2236.000000	13.200275
2237.000000	13.214435
2238.000000	13.223003
2239.000000	13.228895
2240.000000	13.218825
2241.000000	13.200660
2242.000000	13.188233
2243.000000	13.151455
2244.000000	13.119837
2245.000000	13.063395
2246.000000	13.019893
2247.000000	12.979968
2248.000000	12.932050
2249.000000	12.870957
2250.000000	12.822195
2251.000000	12.782912
2252.000000	12.713880
2253.000000	12.655418
2254.000000	12.595118
2255.000000	12.548652
2256.000000	12.478520
2257.000000	12.414705
2258.000000	12.350170
2259.000000	12.294430
2260.000000	12.227910
2261.000000	12.152825
2262.000000	12.085513
2263.000000	12.030315
2264.000000	11.985352
2265.000000	11.928320
2266.000000	11.884810
2267.000000	11.839173
2268.000000	11.817190
2269.000000	11.799755
2270.000000	11.787850
2271.000000	11.765553
2272.000000	11.758370
2273.000000	11.752530
2274.000000	11.739997
2275.000000	11.743390
2276.000000	11.755498
2277.000000	11.753925
2278.000000	11.741522
2279.000000	11.725472
2280.000000	11.706683
2281.000000	11.714147
2282.000000	11.719170
2283.000000	11.723205
2284.000000	11.730015
2285.000000	11.737378
2286.000000	11.745450
2287.000000	11.755715
2288.000000	11.761908
2289.000000	11.773875
2290.000000	11.782633
2291.000000	11.781057
2292.000000	11.765040
2293.000000	11.749373
2294.000000	11.757615
2295.000000	11.752170
2296.000000	11.744160
2297.000000	11.744130
2298.000000	11.758160
2299.000000	11.780018
2300.000000	11.810012
2301.000000	11.840692
2302.000000	11.879030
2303.000000	11.912463
2304.000000	11.925567
2305.000000	11.962230
2306.000000	11.982350
2307.000000	12.000855
2308.000000	12.018038
2309.000000	12.033917
2310.000000	12.060040
2311.000000	12.098902
2312.000000	12.132302
2313.000000	12.165075
2314.000000	12.199795
2315.000000	12.222815
2316.000000	12.254800
2317.000000	12.289758
2318.000000	12.332890
2319.000000	12.368135
2320.000000	12.381815
2321.000000	12.387973
2322.000000	12.405900
2323.000000	12.420638
2324.000000	12.436122
2325.000000	12.471475
2326.000000	12.507750
2327.000000	12.529307
2328.000000	12.534260
2329.000000	12.540387
2330.000000	12.557807
2331.000000	12.577303
2332.000000	12.581345
2333.000000	12.596930
2334.000000	12.612963
2335.000000	12.603558
2336.000000	12.608118
2337.000000	12.649625
2338.000000	12.700292
2339.000000	12.729048
2340.000000	12.749033
2341.000000	12.763658
2342.000000	12.791855
2343.000000	12.830760
2344.000000	12.852718
2345.000000	12.878240
2346.000000	12.902595
2347.000000	12.910012
2348.000000	12.914722
2349.000000	12.928995
2350.000000	12.959718
2351.000000	13.014875
2352.000000	13.061108
2353.000000	13.082393
2354.000000	13.112013
2355.000000	13.156080
2356.000000	13.191505
2357.000000	13.223958
2358.000000	13.247243
2359.000000	13.277285
2360.000000	13.304123
2361.000000	13.291875
2362.000000	13.299445
2363.000000	13.331580
2364.000000	13.363547
2365.000000	13.376178
2366.000000	13.399480
2367.000000	13.412637
2368.000000	13.439260
2369.000000	13.468572
2370.000000	13.485153
2371.000000	13.523763
2372.000000	13.530753
2373.000000	13.515635
2374.000000	13.517825
2375.000000	13.535275
2376.000000	13.561080
2377.000000	13.587238
2378.000000	13.595562
2379.000000	13.594155
2380.000000	13.625260
2381.000000	13.655633
2382.000000	13.688798
2383.000000	13.707618
2384.000000	13.730253
2385.000000	13.752725
2386.000000	13.744637
2387.000000	13.758635
2388.000000	13.798200
2389.000000	13.826210
2390.000000	13.829030
2391.000000	13.835538
2392.000000	13.858093
2393.000000	13.894065
2394.000000	13.926485
2395.000000	13.926955
2396.000000	13.948332
2397.000000	13.957073
2398.000000	13.926387
2399.000000	13.925840
2400.000000	13.937493
2401.000000	13.922355
2402.000000	13.893058
2403.000000	13.885497
2404.000000	13.864575
2405.000000	13.845052
2406.000000	13.851510
2407.000000	13.841795
2408.000000	13.847620
2409.000000	13.874590
2410.000000	13.864685
2411.000000	13.871082
2412.000000	13.879990
2413.000000	13.849505
2414.000000	13.849920
2415.000000	13.867088
2416.000000	13.825340
2417.000000	13.790477
2418.000000	13.785255
2419.000000	13.751397
2420.000000	13.727635
2421.000000	13.662242
2422.000000	13.631125
2423.000000	13.627455
2424.000000	13.604600
2425.000000	13.563973
2426.000000	13.550188
2427.000000	13.564693
2428.000000	13.566553
2429.000000	13.537885
2430.000000	13.503135
2431.000000	13.508630
2432.000000	13.419950
2433.000000	13.345250
2434.000000	13.261930
2435.000000	13.190947
2436.000000	13.127158
2437.000000	13.054985
2438.000000	12.973040
2439.000000	12.886080
2440.000000	12.819595
2441.000000	12.830035
2442.000000	12.858780
2443.000000	12.854352
2444.000000	12.821120
2445.000000	12.817760
2446.000000	12.814732
2447.000000	12.782502
2448.000000	12.765683
2449.000000	12.813940
2450.000000	12.827715
2451.000000	12.738150
2452.000000	12.734398
2453.000000	12.750305
2454.000000	12.759733
2455.000000	12.775715
2456.000000	12.772182
2457.000000	12.799515
2458.000000	12.788208
2459.000000	12.807430
2460.000000	12.861465
2461.000000	12.908390
2462.000000	12.931845
2463.000000	12.974673
2464.000000	13.023360
2465.000000	13.048530
2466.000000	13.150018
2467.000000	13.239833
2468.000000	13.332198
2469.000000	13.363710
2470.000000	13.415338
2471.000000	13.506415
2472.000000	13.583153
2473.000000	13.671750
2474.000000	13.779368
2475.000000	13.837270
2476.000000	13.923480
2477.000000	13.953653
2478.000000	14.028203
2479.000000	14.152775
2480.000000	14.280498
2481.000000	14.384360
2482.000000	14.510188
2483.000000	14.626830
2484.000000	14.654715
2485.000000	14.813190
2486.000000	14.903870
2487.000000	15.068420
2488.000000	15.266832
2489.000000	15.376535
2490.000000	15.513623
2491.000000	15.730508
2492.000000	16.003100
2493.000000	16.117065
2494.000000	16.373932
2495.000000	16.573540
2496.000000	16.779988
2497.000000	16.870150
2498.000000	17.038725
2499.000000	17.268640
2500.000000	17.438070
2501.000000	20.972880
2502.000000	24.884835
2503.000000	29.306383
2504.000000	33.609210
2505.000000	38.264765
2506.000000	42.646920
2507.000000	47.187493
2508.000000	51.525395
2509.000000	55.991780
2510.000000	60.807100
2511.000000	61.845280
2512.000000	62.449090
2513.000000	62.579510
2514.000000	62.934520
2515.000000	63.513870
2516.000000	64.193760
2517.000000	65.221080
2518.000000	66.360140
2519.000000	67.413760
2520.000000	67.973520
2521.000000	69.208080
2522.000000	70.715710
2523.000000	71.599170
2524.000000	72.749770
2525.000000	73.175250
2526.000000	73.936970
2527.000000	74.508660
2528.000000	75.416740
2529.000000	76.142290
2530.000000	77.541200
2531.000000	78.572570
2532.000000	78.700720
2533.000000	79.844260
2534.000000	80.509170
2535.000000	81.419560
2536.000000	82.348620
2537.000000	82.776180
2538.000000	82.976260
2539.000000	83.000000
2540.000000	82.874270
2541.000000	83.389520
2542.000000	84.419070
2543.000000	84.615890
2544.000000	85.183320
2545.000000	85.466360
2546.000000	85.667520
2547.000000	86.276210
2548.000000	86.636790
2549.000000	87.405590
2550.000000	88.185680
2551.000000	88.391240
2552.000000	88.636030
2553.000000	89.376390
2554.000000	89.946070
2555.000000	90.817010
2556.000000	91.743420
2557.000000	92.544490
2558.000000	93.318300
2559.000000	93.915220
2560.000000	93.973830
2561.000000	94.320210
2562.000000	94.261460
2563.000000	94.294330
2564.000000	94.380940
2565.000000	94.410730
2566.000000	94.615920
2567.000000	95.244170
2568.000000	95.817800
2569.000000	96.300830
2570.000000	96.514250
2571.000000	96.141520
2572.000000	96.655210
2573.000000	96.805980
2574.000000	97.029750
2575.000000	97.792890
2576.000000	97.023420
2577.000000	95.983460
2578.000000	96.046440
2579.000000	95.994200
2580.000000	96.187440
2581.000000	96.796720
2582.000000	97.285570
2583.000000	98.105340
2584.000000	98.149980
2585.000000	98.055890
2586.000000	99.066100
2587.000000	100.201840
2588.000000	99.958890
2589.000000	99.200510
2590.000000	99.689030
2591.000000	100.689230
2592.000000	100.757040
2593.000000	100.140930
2594.000000	100.014420
2595.000000	99.569980
2596.000000	99.194240
2597.000000	98.909140
2598.000000	99.101590
2599.000000	99.757790
2600.000000	99.197570
2601.000000	97.894900
2602.000000	98.353060
2603.000000	100.073550
2604.000000	100.902960
2605.000000	101.826290
2606.000000	102.857590
2607.000000	102.772010
2608.000000	102.586770
2609.000000	102.708370
2610.000000	102.268620
2611.000000	102.004650
2612.000000	101.250860
2613.000000	99.889070
2614.000000	99.448690
2615.000000	99.081900
2616.000000	98.552790
2617.000000	98.234750
2618.000000	98.585200
2619.000000	99.437060
2620.000000	100.691720
2621.000000	101.456270
2622.000000	101.297130
2623.000000	101.261680
2624.000000	101.641090
2625.000000	101.484970
2626.000000	100.976480
2627.000000	100.739440
2628.000000	100.301450
2629.000000	99.614180
2630.000000	98.830400
2631.000000	99.004210
2632.000000	99.809330
2633.000000	100.441100
2634.000000	100.332820
2635.000000	99.730500
2636.000000	100.207070
2637.000000	100.460540
2638.000000	100.410680
2639.000000	100.611550
2640.000000	101.350020
2641.000000	101.183850
2642.000000	100.142020
2643.000000	98.798650
2644.000000	98.603910
2645.000000	99.686910
2646.000000	99.929860
2647.000000	100.144410
2648.000000	100.263910
2649.000000	100.223200
2650.000000	99.677640
2651.000000	99.505890
2652.000000	100.186890
2653.000000	100.999230
2654.000000	101.058380
2655.000000	100.639530
2656.000000	100.636890
2657.000000	100.779130
2658.000000	100.629290
2659.000000	100.964390
2660.000000	101.488640
2661.000000	102.765430
2662.000000	102.974390
2663.000000	103.579480
2664.000000	103.851130
2665.000000	103.500040
2666.000000	103.259910
2667.000000	103.168850
2668.000000	103.245700
2669.000000	102.635640
2670.000000	102.005360
2671.000000	100.765660
2672.000000	100.205830
2673.000000	99.457540
2674.000000	99.657420
2675.000000	99.613170
2676.000000	99.198430
2677.000000	99.640540
2678.000000	100.911100
2679.000000	101.340200
2680.000000	101.266710
2681.000000	101.254790
2682.000000	101.029430
2683.000000	101.724220
2684.000000	100.515680
2685.000000	100.405240
2686.000000	100.358630
2687.000000	99.903250
2688.000000	98.938870
2689.000000	98.289400
2690.000000	98.396540
2691.000000	97.941980
2692.000000	98.342250
2693.000000	97.836970
2694.000000	98.670080
2695.000000	100.226390
2696.000000	100.574300
2697.000000	101.034610
2698.000000	101.101280
2699.000000	101.100390
2700.000000	101.267690
2701.000000	102.134710
2702.000000	102.427190
2703.000000	101.530220
2704.000000	100.815560
2705.000000	100.211610
2706.000000	101.164750
2707.000000	101.585640
2708.000000	101.462780
2709.000000	101.463700
2710.000000	100.946500
2711.000000	100.570340
2712.000000	99.632720
2713.000000	101.888290
2714.000000	102.567050
2715.000000	101.805830
2716.000000	101.425900
2717.000000	101.137490
2718.000000	101.090030
2719.000000	101.351600
2720.000000	102.574050
2721.000000	102.052840
2722.000000	103.122310
2723.000000	101.594180
2724.000000	100.520250
2725.000000	100.793060
2726.000000	101.193570
2727.000000	100.687730
2728.000000	100.654060
2729.000000	100.209830
2730.000000	99.372720
2731.000000	100.105790
2732.000000	99.814870
2733.000000	100.128500
2734.000000	102.037080
2735.000000	101.526830
2736.000000	100.146870
2737.000000	99.745580
2738.000000	99.587220
2739.000000	100.390290
2740.000000	101.850200
2741.000000	102.349880
2742.000000	101.990180
2743.000000	102.019460
2744.000000	101.984960
2745.000000	102.233920
2746.000000	103.204710
2747.000000	103.147020
2748.000000	103.455660
2749.000000	102.800760
2750.000000	101.058900
2751.000000	100.400370
2752.000000	100.536010
2753.000000	99.511650
2754.000000	98.279360
2755.000000	98.240050
2756.000000	97.556150
2757.000000	97.370760
2758.000000	97.278710
2759.000000	98.273490
2760.000000	99.600570
2761.000000	100.000540
2762.000000	99.612230
2763.000000	100.257250
2764.000000	101.730810
2765.000000	103.022860
2766.000000	104.364080
2767.000000	104.928730
2768.000000	105.618170
2769.000000	104.404140
2770.000000	103.950630
2771.000000	104.021520
2772.000000	103.854440
2773.000000	104.860090
2774.000000	103.718010
2775.000000	102.761340
2776.000000	101.540440
2777.000000	101.275360
2778.000000	101.034670
2779.000000	100.927430
2780.000000	100.489260
2781.000000	100.420390
2782.000000	100.332380
2783.000000	99.272970
2784.000000	99.396220
2785.000000	98.652400
2786.000000	98.786000
2787.000000	98.775330
2788.000000	98.087190
2789.000000	98.460960
2790.000000	98.064320
2791.000000	97.662330
2792.000000	98.360350
2793.000000	98.631440
2794.000000	98.542390
2795.000000	98.780900
2796.000000	98.298490
2797.000000	98.455960
2798.000000	97.971300
2799.000000	97.538710
2800.000000	97.192810
2801.000000	97.712280
2802.000000	97.756240
2803.000000	97.984160
2804.000000	98.234120
2805.000000	98.118630
2806.000000	97.639520
2807.000000	97.427150
2808.000000	98.092980
2809.000000	98.827590
2810.000000	99.729990
2811.000000	99.585990
2812.000000	100.688210
2813.000000	100.741220
2814.000000	99.979390
2815.000000	100.711470
2816.000000	102.053640
2817.000000	102.257310
2818.000000	101.875130
2819.000000	101.105200
2820.000000	100.751350
2821.000000	100.354530
2822.000000	98.626800
2823.000000	98.367890
2824.000000	98.997060
2825.000000	98.766850
2826.000000	97.853490
2827.000000	98.031860
2828.000000	99.138700
2829.000000	99.998960
2830.000000	100.588620
2831.000000	100.810240
2832.000000	101.107160
2833.000000	100.877510
2834.000000	100.885980
2835.000000	100.357260
2836.000000	100.496300
2837.000000	99.770730
2838.000000	98.935970
2839.000000	98.552990
2840.000000	97.960310
2841.000000	97.863180
2842.000000	98.896470
2843.000000	99.201680
2844.000000	98.516700
2845.000000	98.928750
2846.000000	99.097480
2847.000000	100.099550
2848.000000	100.670950
2849.000000	101.145360
2850.000000	101.424260
2851.000000	101.547550
2852.000000	100.873090
2853.000000	101.160470
2854.000000	102.216960
2855.000000	102.165110
2856.000000	101.904380
2857.000000	101.728360
2858.000000	101.108370
2859.000000	100.877930
2860.000000	100.949760
2861.000000	100.798680
2862.000000	100.915340
2863.000000	100.101010
2864.000000	99.412000
2865.000000	100.027030
2866.000000	100.303770
2867.000000	100.198420
2868.000000	100.080550
2869.000000	99.913550
2870.000000	99.998160
2871.000000	99.740260
2872.000000	99.969420
2873.000000	100.280070
2874.000000	99.897660
2875.000000	99.492450
2876.000000	99.367750
2877.000000	99.184790
2878.000000	99.461390
2879.000000	100.566970
2880.000000	101.150710
2881.000000	101.060080
2882.000000	100.415090
2883.000000	100.599620
2884.000000	101.198390
2885.000000	101.018460
2886.000000	100.685680
2887.000000	100.685830
2888.000000	101.161740
2889.000000	100.297990
2890.000000	98.826750
2891.000000	98.852510
2892.000000	99.056460
2893.000000	99.097190
2894.000000	99.281940
2895.000000	99.839640
2896.000000	100.660240
2897.000000	101.451920
2898.000000	100.807270
2899.000000	99.954140
2900.000000	100.609350
2901.000000	101.018000
2902.000000	101.305020
2903.000000	100.836090
2904.000000	100.005540
2905.000000	99.267250
2906.000000	99.229890
2907.000000	98.692620
2908.000000	98.783010
2909.000000	99.932480
2910.000000	99.248070
2911.000000	99.072560
2912.000000	98.386300
2913.000000	98.515990
2914.000000	99.014530
2915.000000	98.941250
2916.000000	99.238160
2917.000000	99.650260
2918.000000	99.925050
2919.000000	100.092120
2920.000000	101.006660
2921.000000	100.753210
2922.000000	100.766410
2923.000000	100.252480
2924.000000	99.139610
2925.000000	98.971880
2926.000000	98.139150
2927.000000	96.873700
2928.000000	96.955180
2929.000000	97.096720
2930.000000	96.920580
2931.000000	96.352060
2932.000000	95.950950
2933.000000	96.031180
2934.000000	96.494090
2935.000000	97.321730
2936.000000	96.589690
2937.000000	96.214900
2938.000000	94.869970
2939.000000	93.523180
2940.000000	93.200080
2941.000000	93.722750
2942.000000	94.130420
2943.000000	94.829950
2944.000000	95.242950
2945.000000	94.663910
2946.000000	94.460860
2947.000000	95.976770
2948.000000	97.036050
2949.000000	96.869970
2950.000000	97.375740
2951.000000	98.254030
2952.000000	98.275600
2953.000000	98.804800
2954.000000	98.808540
2955.000000	97.483020
2956.000000	99.699870
2957.000000	101.042010
2958.000000	101.150680
2959.000000	101.450900
2960.000000	101.487720
2961.000000	100.803380
2962.000000	101.564140
2963.000000	101.036650
2964.000000	100.936540
2965.000000	102.887120
2966.000000	101.692250
2967.000000	99.075530
2968.000000	98.666030
2969.000000	99.340760
2970.000000	99.301840
2971.000000	98.871330
2972.000000	97.411570
2973.000000	96.999060
2974.000000	98.388620
2975.000000	96.766920
2976.000000	96.576360
2977.000000	98.189820
2978.000000	97.559190
2979.000000	97.316400
2980.000000	96.316810
2981.000000	98.011180
2982.000000	98.610680
2983.000000	99.104250
2984.000000	97.905930
2985.000000	99.767370
2986.000000	99.596030
2987.000000	99.481650
2988.000000	99.362730
2989.000000	98.938440
2990.000000	99.489200
2991.000000	98.335920
2992.000000	98.386830
2993.000000	99.316380
2994.000000	98.812820
2995.000000	96.887050
2996.000000	96.972490
2997.000000	95.401280
2998.000000	97.006400
2999.000000	96.504500
3000.000000	96.264380
