PE UV       SUBTECH     SPECTRUM    ASCII       PEDS        4.00        
   -1
INBUCR0215-4.Sample.ASC
24/02/08
09:39:13.00
24/02/08
09:39:13.00
Vinicio Soto Monge
INBIOCR1002437563 C. batesi Est Cuerici. Sendero al mirador. 4,6 km al E. de Villa Mills, San José, Costa Rica. 2640 m. 19-20 Abr 1996. A. Picado de Luz L_S_389700_499600 #7030
250,000000
1
Lambda 1050
1050L1511233
PerkinElmer UV WinLab 6.3.2.0749 / 2.02.05 Lambda 900 UV/VIS/NIR, Aug  7 2015 09:38:08

0
0
3350/servo 860,8/2
0
0
UV/VIS
1
1
1
DoubleDePol,CommonBeamDepol,RBeamAtt,SBeamAtt,60mm sphere, WB InGaAs Detector
0
0
0
0
Program
Program
3350/servo 860,8/2
3350/0,2 860,8/0,2
3350/0,2 860,8/0,2
0
15.00
 
 
 
0
 
860,8
319,2
860,8
Front
100
on
S:100 R:100
0
0
0
0
 
0
 
 
 
0
 
 
0
0
0
0
0
 
 
 
 
0
0


0
0
#HDR
-1
-1
#GR
nm
%R
1.0
0.0
2500,000000
-1,000000
2251
8
14,276900
1,492300
#DATA

250.000000	nan
251.000000	nan
252.000000	nan
253.000000	nan
254.000000	nan
255.000000	nan
256.000000	nan
257.000000	nan
258.000000	nan
259.000000	4.011138
260.000000	3.999069
261.000000	3.986450
262.000000	3.972687
263.000000	3.960408
264.000000	3.945720
265.000000	3.930277
266.000000	3.913673
267.000000	3.896375
268.000000	3.881625
269.000000	3.865969
270.000000	3.850069
271.000000	3.834331
272.000000	3.820916
273.000000	3.808403
274.000000	3.795982
275.000000	3.785012
276.000000	3.776415
277.000000	3.771175
278.000000	3.761535
279.000000	3.752536
280.000000	3.744834
281.000000	3.739575
282.000000	3.733537
283.000000	3.724399
284.000000	3.720134
285.000000	3.715242
286.000000	3.709873
287.000000	3.702899
288.000000	3.700202
289.000000	3.698799
290.000000	3.699503
291.000000	3.697294
292.000000	3.694749
293.000000	3.695183
294.000000	3.692777
295.000000	3.691122
296.000000	3.690373
297.000000	3.689023
298.000000	3.685221
299.000000	3.683768
300.000000	3.680351
301.000000	3.677125
302.000000	3.672035
303.000000	3.669354
304.000000	3.666293
305.000000	3.662965
306.000000	3.657881
307.000000	3.656554
308.000000	3.654688
309.000000	3.648132
310.000000	3.645250
311.000000	3.643881
312.000000	3.643231
313.000000	3.638730
314.000000	3.637650
315.000000	3.637767
316.000000	3.638130
317.000000	3.652648
318.000000	3.673842
319.000000	3.700170
320.000000	3.717520
321.000000	3.730088
322.000000	3.748559
323.000000	3.764778
324.000000	3.783988
325.000000	3.797750
326.000000	3.811471
327.000000	3.803934
328.000000	3.797178
329.000000	3.787251
330.000000	3.776952
331.000000	3.773740
332.000000	3.759858
333.000000	3.752626
334.000000	3.741029
335.000000	3.733676
336.000000	3.728022
337.000000	3.725144
338.000000	3.712929
339.000000	3.706050
340.000000	3.704592
341.000000	3.699934
342.000000	3.706586
343.000000	3.709858
344.000000	3.713164
345.000000	3.715745
346.000000	3.718001
347.000000	3.720619
348.000000	3.730189
349.000000	3.733611
350.000000	3.734727
351.000000	3.736592
352.000000	3.735997
353.000000	3.735046
354.000000	3.733877
355.000000	3.735942
356.000000	3.737317
357.000000	3.739553
358.000000	3.739815
359.000000	3.741385
360.000000	3.745903
361.000000	3.754522
362.000000	3.759382
363.000000	3.766759
364.000000	3.775850
365.000000	3.785508
366.000000	3.796896
367.000000	3.812577
368.000000	3.826623
369.000000	3.839853
370.000000	3.856722
371.000000	3.874563
372.000000	3.893553
373.000000	3.913861
374.000000	3.936994
375.000000	3.962393
376.000000	3.998297
377.000000	4.033173
378.000000	4.076794
379.000000	4.130103
380.000000	4.190667
381.000000	4.258701
382.000000	4.339443
383.000000	4.432355
384.000000	4.536358
385.000000	4.653434
386.000000	4.779036
387.000000	4.923189
388.000000	5.082986
389.000000	5.259264
390.000000	5.454943
391.000000	5.669301
392.000000	5.902968
393.000000	6.157285
394.000000	6.433599
395.000000	6.731592
396.000000	7.050312
397.000000	7.390163
398.000000	7.750722
399.000000	8.131496
400.000000	8.530250
401.000000	8.946405
402.000000	9.379069
403.000000	9.825082
404.000000	10.281371
405.000000	10.746015
406.000000	11.217291
407.000000	11.693248
408.000000	12.170343
409.000000	12.645926
410.000000	13.118157
411.000000	13.584749
412.000000	14.042400
413.000000	14.490111
414.000000	14.927484
415.000000	15.350742
416.000000	15.758899
417.000000	16.151412
418.000000	16.527679
419.000000	16.887013
420.000000	17.227790
421.000000	17.550921
422.000000	17.856697
423.000000	18.143573
424.000000	18.410882
425.000000	18.661527
426.000000	18.894769
427.000000	19.109888
428.000000	19.307443
429.000000	19.487130
430.000000	19.650131
431.000000	19.795811
432.000000	19.924511
433.000000	20.037201
434.000000	20.133649
435.000000	20.213080
436.000000	20.276376
437.000000	20.323149
438.000000	20.352953
439.000000	20.365869
440.000000	20.359933
441.000000	20.334677
442.000000	20.289749
443.000000	20.223761
444.000000	20.136656
445.000000	20.028392
446.000000	19.898451
447.000000	19.747140
448.000000	19.573184
449.000000	19.377888
450.000000	19.163437
451.000000	18.929238
452.000000	18.676076
453.000000	18.406865
454.000000	18.124381
455.000000	17.831256
456.000000	17.530755
457.000000	17.225634
458.000000	16.921093
459.000000	16.620710
460.000000	16.328122
461.000000	16.048355
462.000000	15.784811
463.000000	15.541223
464.000000	15.319498
465.000000	15.120844
466.000000	14.946759
467.000000	14.799477
468.000000	14.678507
469.000000	14.582972
470.000000	14.510668
471.000000	14.460728
472.000000	14.432393
473.000000	14.422583
474.000000	14.429091
475.000000	14.449244
476.000000	14.480643
477.000000	14.519411
478.000000	14.563042
479.000000	14.609149
480.000000	14.655001
481.000000	14.695346
482.000000	14.728229
483.000000	14.751496
484.000000	14.764361
485.000000	14.765097
486.000000	14.751459
487.000000	14.722439
488.000000	14.678151
489.000000	14.617075
490.000000	14.540890
491.000000	14.452927
492.000000	14.352424
493.000000	14.242649
494.000000	14.124944
495.000000	14.002621
496.000000	13.880291
497.000000	13.764209
498.000000	13.661203
499.000000	13.578391
500.000000	13.521859
501.000000	13.498481
502.000000	13.512956
503.000000	13.567010
504.000000	13.663197
505.000000	13.803119
506.000000	13.987638
507.000000	14.217106
508.000000	14.491346
509.000000	14.811433
510.000000	15.180365
511.000000	15.599221
512.000000	16.070156
513.000000	16.596437
514.000000	17.176865
515.000000	17.808041
516.000000	18.482792
517.000000	19.191781
518.000000	19.921678
519.000000	20.659657
520.000000	21.390463
521.000000	22.099509
522.000000	22.774265
523.000000	23.401980
524.000000	23.975486
525.000000	24.489539
526.000000	24.943289
527.000000	25.337003
528.000000	25.675168
529.000000	25.961622
530.000000	26.200681
531.000000	26.397633
532.000000	26.558372
533.000000	26.688573
534.000000	26.791856
535.000000	26.874461
536.000000	26.942415
537.000000	26.998389
538.000000	27.045190
539.000000	27.085114
540.000000	27.121408
541.000000	27.155705
542.000000	27.187837
543.000000	27.218392
544.000000	27.248579
545.000000	27.277954
546.000000	27.305409
547.000000	27.332606
548.000000	27.360936
549.000000	27.390450
550.000000	27.420339
551.000000	27.451754
552.000000	27.484792
553.000000	27.519939
554.000000	27.558134
555.000000	27.597403
556.000000	27.637158
557.000000	27.676584
558.000000	27.714571
559.000000	27.749652
560.000000	27.769844
561.000000	27.781219
562.000000	27.785826
563.000000	27.781395
564.000000	27.767522
565.000000	27.743800
566.000000	27.708930
567.000000	27.664825
568.000000	27.610535
569.000000	27.546405
570.000000	27.485709
571.000000	27.420027
572.000000	27.347313
573.000000	27.269866
574.000000	27.184689
575.000000	27.095463
576.000000	27.003988
577.000000	26.908810
578.000000	26.812346
579.000000	26.715809
580.000000	26.618669
581.000000	26.522763
582.000000	26.426699
583.000000	26.333202
584.000000	26.245894
585.000000	26.164058
586.000000	26.086071
587.000000	26.009909
588.000000	25.933026
589.000000	25.852578
590.000000	25.769744
591.000000	25.681813
592.000000	25.592537
593.000000	25.499259
594.000000	25.399792
595.000000	25.293249
596.000000	25.181645
597.000000	25.067501
598.000000	24.951949
599.000000	24.839078
600.000000	24.728362
601.000000	24.621556
602.000000	24.514601
603.000000	24.404899
604.000000	24.293353
605.000000	24.181046
606.000000	24.068251
607.000000	23.957948
608.000000	23.849725
609.000000	23.742150
610.000000	23.633702
611.000000	23.522871
612.000000	23.412848
613.000000	23.306274
614.000000	23.204540
615.000000	23.108230
616.000000	23.015551
617.000000	22.924218
618.000000	22.835075
619.000000	22.748585
620.000000	22.664542
621.000000	22.585746
622.000000	22.513643
623.000000	22.446697
624.000000	22.383959
625.000000	22.321749
626.000000	22.259868
627.000000	22.196619
628.000000	22.130017
629.000000	22.060700
630.000000	21.991187
631.000000	21.921056
632.000000	21.847982
633.000000	21.773276
634.000000	21.698206
635.000000	21.624875
636.000000	21.556022
637.000000	21.493988
638.000000	21.438922
639.000000	21.392779
640.000000	21.350831
641.000000	21.312507
642.000000	21.276277
643.000000	21.239594
644.000000	21.201547
645.000000	21.161805
646.000000	21.117910
647.000000	21.070759
648.000000	21.022971
649.000000	20.970800
650.000000	20.918495
651.000000	20.867557
652.000000	20.820970
653.000000	20.781296
654.000000	20.748995
655.000000	20.724843
656.000000	20.710282
657.000000	20.701877
658.000000	20.696721
659.000000	20.694183
660.000000	20.692118
661.000000	20.687652
662.000000	20.680446
663.000000	20.669286
664.000000	20.653666
665.000000	20.633610
666.000000	20.610701
667.000000	20.588067
668.000000	20.567614
669.000000	20.552404
670.000000	20.544021
671.000000	20.544956
672.000000	20.554331
673.000000	20.572603
674.000000	20.597648
675.000000	20.629503
676.000000	20.663513
677.000000	20.695993
678.000000	20.725059
679.000000	20.750900
680.000000	20.772919
681.000000	20.791683
682.000000	20.806248
683.000000	20.817882
684.000000	20.829878
685.000000	20.844306
686.000000	20.862509
687.000000	20.888100
688.000000	20.922349
689.000000	20.964746
690.000000	21.014246
691.000000	21.068995
692.000000	21.128762
693.000000	21.191399
694.000000	21.254525
695.000000	21.314587
696.000000	21.371844
697.000000	21.424664
698.000000	21.474755
699.000000	21.520120
700.000000	21.562945
701.000000	21.602380
702.000000	21.640791
703.000000	21.682296
704.000000	21.726925
705.000000	21.775001
706.000000	21.829832
707.000000	21.890471
708.000000	21.955314
709.000000	22.025776
710.000000	22.100763
711.000000	22.176945
712.000000	22.254597
713.000000	22.331695
714.000000	22.406792
715.000000	22.480608
716.000000	22.550574
717.000000	22.620224
718.000000	22.690109
719.000000	22.756238
720.000000	22.819178
721.000000	22.885446
722.000000	22.954434
723.000000	23.025291
724.000000	23.099483
725.000000	23.177979
726.000000	23.261376
727.000000	23.347003
728.000000	23.433420
729.000000	23.523103
730.000000	23.614479
731.000000	23.704324
732.000000	23.792308
733.000000	23.877607
734.000000	23.961288
735.000000	24.041976
736.000000	24.119342
737.000000	24.193926
738.000000	24.265779
739.000000	24.336552
740.000000	24.408230
741.000000	24.481764
742.000000	24.558047
743.000000	24.635794
744.000000	24.713292
745.000000	24.792869
746.000000	24.874673
747.000000	24.957165
748.000000	25.042442
749.000000	25.126723
750.000000	25.209651
751.000000	25.292276
752.000000	25.370251
753.000000	25.446677
754.000000	25.526322
755.000000	25.606762
756.000000	25.687384
757.000000	25.768378
758.000000	25.847662
759.000000	25.930566
760.000000	26.017939
761.000000	26.106683
762.000000	26.199424
763.000000	26.295172
764.000000	26.390799
765.000000	26.487017
766.000000	26.584418
767.000000	26.684660
768.000000	26.786365
769.000000	26.889652
770.000000	26.989474
771.000000	27.088993
772.000000	27.188379
773.000000	27.287732
774.000000	27.386835
775.000000	27.486181
776.000000	27.583577
777.000000	27.678579
778.000000	27.774468
779.000000	27.868981
780.000000	27.964088
781.000000	28.059948
782.000000	28.154742
783.000000	28.246494
784.000000	28.336691
785.000000	28.425300
786.000000	28.514092
787.000000	28.599760
788.000000	28.679726
789.000000	28.756446
790.000000	28.832058
791.000000	28.900993
792.000000	28.966443
793.000000	29.031431
794.000000	29.094187
795.000000	29.151733
796.000000	29.202781
797.000000	29.255286
798.000000	29.310572
799.000000	29.360463
800.000000	29.403379
801.000000	29.447997
802.000000	29.490096
803.000000	29.530662
804.000000	29.565542
805.000000	29.600659
806.000000	29.637467
807.000000	29.667329
808.000000	29.694039
809.000000	29.723166
810.000000	29.749380
811.000000	29.770352
812.000000	29.788111
813.000000	29.801458
814.000000	29.817602
815.000000	29.826304
816.000000	29.833425
817.000000	29.838333
818.000000	29.838500
819.000000	29.832803
820.000000	29.830704
821.000000	29.821066
822.000000	29.809820
823.000000	29.801824
824.000000	29.785554
825.000000	29.770459
826.000000	29.751791
827.000000	29.730404
828.000000	29.703608
829.000000	29.675578
830.000000	29.644563
831.000000	29.613027
832.000000	29.583039
833.000000	29.539258
834.000000	29.489138
835.000000	29.435339
836.000000	29.376033
837.000000	29.306514
838.000000	29.250564
839.000000	29.181580
840.000000	29.107152
841.000000	29.031210
842.000000	28.942148
843.000000	28.857512
844.000000	28.773616
845.000000	28.686745
846.000000	28.593270
847.000000	28.510056
848.000000	28.394730
849.000000	28.294817
850.000000	28.182890
851.000000	28.066039
852.000000	27.937514
853.000000	27.799826
854.000000	27.677218
855.000000	27.546227
856.000000	27.418833
857.000000	27.291779
858.000000	27.248605
859.000000	27.227621
860.000000	27.181490
861.000000	27.149719
862.000000	27.117782
863.000000	27.094680
864.000000	27.057521
865.000000	27.015406
866.000000	26.978682
867.000000	26.920084
868.000000	26.792225
869.000000	26.640127
870.000000	26.520018
871.000000	26.367200
872.000000	26.206540
873.000000	26.020735
874.000000	25.846000
875.000000	25.680903
876.000000	25.480875
877.000000	25.302218
878.000000	25.140585
879.000000	24.969340
880.000000	24.790173
881.000000	24.628217
882.000000	24.469928
883.000000	24.332670
884.000000	24.171602
885.000000	24.007583
886.000000	23.863225
887.000000	23.713542
888.000000	23.547905
889.000000	23.376825
890.000000	23.202043
891.000000	23.035365
892.000000	22.877410
893.000000	22.719788
894.000000	22.562655
895.000000	22.426155
896.000000	22.294285
897.000000	22.157440
898.000000	22.012617
899.000000	21.875298
900.000000	21.751035
901.000000	21.624478
902.000000	21.511487
903.000000	21.401657
904.000000	21.307185
905.000000	21.198410
906.000000	21.095153
907.000000	20.995648
908.000000	20.911323
909.000000	20.828972
910.000000	20.742975
911.000000	20.669142
912.000000	20.598308
913.000000	20.531128
914.000000	20.464783
915.000000	20.406865
916.000000	20.356618
917.000000	20.316167
918.000000	20.271397
919.000000	20.237858
920.000000	20.217790
921.000000	20.192222
922.000000	20.165668
923.000000	20.139455
924.000000	20.124788
925.000000	20.114988
926.000000	20.108112
927.000000	20.103305
928.000000	20.107018
929.000000	20.108327
930.000000	20.114323
931.000000	20.123728
932.000000	20.138768
933.000000	20.160660
934.000000	20.180405
935.000000	20.200205
936.000000	20.221308
937.000000	20.247470
938.000000	20.277358
939.000000	20.311060
940.000000	20.343612
941.000000	20.381995
942.000000	20.424350
943.000000	20.467160
944.000000	20.510445
945.000000	20.555175
946.000000	20.603362
947.000000	20.650730
948.000000	20.695613
949.000000	20.744835
950.000000	20.797510
951.000000	20.850150
952.000000	20.904428
953.000000	20.960870
954.000000	21.021297
955.000000	21.082257
956.000000	21.144680
957.000000	21.206810
958.000000	21.272435
959.000000	21.337687
960.000000	21.402662
961.000000	21.467352
962.000000	21.534365
963.000000	21.604520
964.000000	21.673158
965.000000	21.741660
966.000000	21.811083
967.000000	21.885900
968.000000	21.960113
969.000000	22.033538
970.000000	22.108620
971.000000	22.184963
972.000000	22.259205
973.000000	22.331880
974.000000	22.406562
975.000000	22.484430
976.000000	22.561125
977.000000	22.633703
978.000000	22.708863
979.000000	22.785420
980.000000	22.863827
981.000000	22.942177
982.000000	23.021718
983.000000	23.101517
984.000000	23.181458
985.000000	23.259810
986.000000	23.339838
987.000000	23.421298
988.000000	23.501658
989.000000	23.581075
990.000000	23.658915
991.000000	23.737565
992.000000	23.817383
993.000000	23.897292
994.000000	23.976727
995.000000	24.057640
996.000000	24.138168
997.000000	24.218785
998.000000	24.299230
999.000000	24.380572
1000.000000	24.462507
1001.000000	24.544148
1002.000000	24.625857
1003.000000	24.708067
1004.000000	24.789735
1005.000000	24.871080
1006.000000	24.954092
1007.000000	25.036838
1008.000000	25.118407
1009.000000	25.199932
1010.000000	25.280797
1011.000000	25.362110
1012.000000	25.444455
1013.000000	25.526243
1014.000000	25.608592
1015.000000	25.691188
1016.000000	25.772443
1017.000000	25.856122
1018.000000	25.941203
1019.000000	26.026578
1020.000000	26.113545
1021.000000	26.200770
1022.000000	26.286840
1023.000000	26.372328
1024.000000	26.458488
1025.000000	26.545472
1026.000000	26.632137
1027.000000	26.717737
1028.000000	26.804060
1029.000000	26.890332
1030.000000	26.975500
1031.000000	27.061310
1032.000000	27.148240
1033.000000	27.235778
1034.000000	27.322118
1035.000000	27.407812
1036.000000	27.494063
1037.000000	27.580800
1038.000000	27.667452
1039.000000	27.754577
1040.000000	27.843427
1041.000000	27.931092
1042.000000	28.016460
1043.000000	28.101715
1044.000000	28.188772
1045.000000	28.275405
1046.000000	28.361190
1047.000000	28.446792
1048.000000	28.532120
1049.000000	28.616672
1050.000000	28.699652
1051.000000	28.783007
1052.000000	28.868192
1053.000000	28.953988
1054.000000	29.039500
1055.000000	29.125315
1056.000000	29.211987
1057.000000	29.297888
1058.000000	29.384242
1059.000000	29.470342
1060.000000	29.555925
1061.000000	29.641777
1062.000000	29.728063
1063.000000	29.813777
1064.000000	29.898845
1065.000000	29.983570
1066.000000	30.068452
1067.000000	30.154520
1068.000000	30.240335
1069.000000	30.325743
1070.000000	30.410900
1071.000000	30.495722
1072.000000	30.580392
1073.000000	30.664463
1074.000000	30.747740
1075.000000	30.830443
1076.000000	30.912070
1077.000000	30.992280
1078.000000	31.072197
1079.000000	31.153295
1080.000000	31.234550
1081.000000	31.316613
1082.000000	31.397585
1083.000000	31.477965
1084.000000	31.558628
1085.000000	31.639140
1086.000000	31.720785
1087.000000	31.801597
1088.000000	31.882535
1089.000000	31.961168
1090.000000	32.040160
1091.000000	32.117667
1092.000000	32.194778
1093.000000	32.272195
1094.000000	32.349713
1095.000000	32.427435
1096.000000	32.501400
1097.000000	32.575892
1098.000000	32.648935
1099.000000	32.722735
1100.000000	32.794938
1101.000000	32.865462
1102.000000	32.936992
1103.000000	33.008255
1104.000000	33.078920
1105.000000	33.147342
1106.000000	33.218545
1107.000000	33.288328
1108.000000	33.357937
1109.000000	33.425775
1110.000000	33.493980
1111.000000	33.562767
1112.000000	33.627965
1113.000000	33.691295
1114.000000	33.753480
1115.000000	33.816490
1116.000000	33.877260
1117.000000	33.939335
1118.000000	33.999837
1119.000000	34.060457
1120.000000	34.118713
1121.000000	34.175500
1122.000000	34.233283
1123.000000	34.290840
1124.000000	34.346060
1125.000000	34.398590
1126.000000	34.449870
1127.000000	34.498643
1128.000000	34.544485
1129.000000	34.588000
1130.000000	34.628503
1131.000000	34.664240
1132.000000	34.695312
1133.000000	34.723607
1134.000000	34.751378
1135.000000	34.777620
1136.000000	34.801175
1137.000000	34.819320
1138.000000	34.833640
1139.000000	34.846265
1140.000000	34.858480
1141.000000	34.871767
1142.000000	34.886288
1143.000000	34.898705
1144.000000	34.910140
1145.000000	34.922013
1146.000000	34.933205
1147.000000	34.947365
1148.000000	34.962485
1149.000000	34.976965
1150.000000	34.990372
1151.000000	35.003975
1152.000000	35.016290
1153.000000	35.029420
1154.000000	35.040043
1155.000000	35.047130
1156.000000	35.050700
1157.000000	35.050365
1158.000000	35.047832
1159.000000	35.041635
1160.000000	35.032315
1161.000000	35.018942
1162.000000	35.000937
1163.000000	34.978597
1164.000000	34.953065
1165.000000	34.925943
1166.000000	34.898235
1167.000000	34.869062
1168.000000	34.839900
1169.000000	34.810983
1170.000000	34.784240
1171.000000	34.758945
1172.000000	34.734495
1173.000000	34.713867
1174.000000	34.695878
1175.000000	34.681238
1176.000000	34.669810
1177.000000	34.662378
1178.000000	34.658780
1179.000000	34.658280
1180.000000	34.659082
1181.000000	34.661655
1182.000000	34.667820
1183.000000	34.676985
1184.000000	34.688708
1185.000000	34.702997
1186.000000	34.720377
1187.000000	34.740395
1188.000000	34.764130
1189.000000	34.793298
1190.000000	34.827595
1191.000000	34.867815
1192.000000	34.914205
1193.000000	34.964402
1194.000000	35.020637
1195.000000	35.080517
1196.000000	35.143693
1197.000000	35.210325
1198.000000	35.278312
1199.000000	35.346215
1200.000000	35.415160
1201.000000	35.483765
1202.000000	35.552885
1203.000000	35.619928
1204.000000	35.685293
1205.000000	35.750373
1206.000000	35.815695
1207.000000	35.879158
1208.000000	35.942118
1209.000000	36.004632
1210.000000	36.065805
1211.000000	36.126435
1212.000000	36.184997
1213.000000	36.244213
1214.000000	36.302778
1215.000000	36.360608
1216.000000	36.415840
1217.000000	36.470613
1218.000000	36.525443
1219.000000	36.579845
1220.000000	36.633410
1221.000000	36.685190
1222.000000	36.736030
1223.000000	36.784328
1224.000000	36.831680
1225.000000	36.877245
1226.000000	36.923315
1227.000000	36.969605
1228.000000	37.014323
1229.000000	37.057703
1230.000000	37.100880
1231.000000	37.144985
1232.000000	37.188995
1233.000000	37.232870
1234.000000	37.274510
1235.000000	37.315580
1236.000000	37.355980
1237.000000	37.395890
1238.000000	37.436413
1239.000000	37.476695
1240.000000	37.516630
1241.000000	37.557115
1242.000000	37.597860
1243.000000	37.640293
1244.000000	37.685357
1245.000000	37.731375
1246.000000	37.777998
1247.000000	37.824843
1248.000000	37.872348
1249.000000	37.920945
1250.000000	37.970490
1251.000000	38.019595
1252.000000	38.068092
1253.000000	38.115423
1254.000000	38.161120
1255.000000	38.206153
1256.000000	38.249935
1257.000000	38.292645
1258.000000	38.333057
1259.000000	38.371380
1260.000000	38.408028
1261.000000	38.443170
1262.000000	38.477200
1263.000000	38.510573
1264.000000	38.543093
1265.000000	38.574067
1266.000000	38.604105
1267.000000	38.632690
1268.000000	38.660870
1269.000000	38.688680
1270.000000	38.715558
1271.000000	38.741860
1272.000000	38.767970
1273.000000	38.793345
1274.000000	38.818600
1275.000000	38.843390
1276.000000	38.867920
1277.000000	38.893648
1278.000000	38.920078
1279.000000	38.947420
1280.000000	38.975517
1281.000000	39.004602
1282.000000	39.034528
1283.000000	39.065237
1284.000000	39.097088
1285.000000	39.130808
1286.000000	39.165418
1287.000000	39.199080
1288.000000	39.233002
1289.000000	39.267227
1290.000000	39.301395
1291.000000	39.335055
1292.000000	39.368072
1293.000000	39.400932
1294.000000	39.432760
1295.000000	39.463095
1296.000000	39.493142
1297.000000	39.522710
1298.000000	39.550007
1299.000000	39.575403
1300.000000	39.599805
1301.000000	39.623235
1302.000000	39.645260
1303.000000	39.665505
1304.000000	39.684242
1305.000000	39.701952
1306.000000	39.717610
1307.000000	39.731530
1308.000000	39.744585
1309.000000	39.755782
1310.000000	39.764365
1311.000000	39.771360
1312.000000	39.776460
1313.000000	39.779533
1314.000000	39.780667
1315.000000	39.779162
1316.000000	39.775530
1317.000000	39.769777
1318.000000	39.761807
1319.000000	39.751913
1320.000000	39.740920
1321.000000	39.727958
1322.000000	39.712640
1323.000000	39.695605
1324.000000	39.676063
1325.000000	39.653557
1326.000000	39.628923
1327.000000	39.602992
1328.000000	39.574268
1329.000000	39.542695
1330.000000	39.508057
1331.000000	39.470905
1332.000000	39.431062
1333.000000	39.386993
1334.000000	39.340155
1335.000000	39.290717
1336.000000	39.237400
1337.000000	39.180280
1338.000000	39.119523
1339.000000	39.055298
1340.000000	38.987143
1341.000000	38.913910
1342.000000	38.836843
1343.000000	38.757157
1344.000000	38.673928
1345.000000	38.586365
1346.000000	38.495960
1347.000000	38.402182
1348.000000	38.305633
1349.000000	38.206955
1350.000000	38.104120
1351.000000	37.998640
1352.000000	37.890822
1353.000000	37.783783
1354.000000	37.681370
1355.000000	37.584330
1356.000000	37.488937
1357.000000	37.395565
1358.000000	37.305200
1359.000000	37.216138
1360.000000	37.135227
1361.000000	37.065260
1362.000000	37.002313
1363.000000	36.937450
1364.000000	36.869692
1365.000000	36.801313
1366.000000	36.730193
1367.000000	36.658878
1368.000000	36.586327
1369.000000	36.508562
1370.000000	36.420452
1371.000000	36.318945
1372.000000	36.202685
1373.000000	36.072572
1374.000000	35.926250
1375.000000	35.763013
1376.000000	35.585620
1377.000000	35.391665
1378.000000	35.182930
1379.000000	34.965447
1380.000000	34.743903
1381.000000	34.521892
1382.000000	34.307092
1383.000000	34.105065
1384.000000	33.912775
1385.000000	33.729520
1386.000000	33.558753
1387.000000	33.404747
1388.000000	33.263665
1389.000000	33.134393
1390.000000	33.009410
1391.000000	32.888640
1392.000000	32.770922
1393.000000	32.651567
1394.000000	32.535252
1395.000000	32.427820
1396.000000	32.319920
1397.000000	32.201313
1398.000000	32.074565
1399.000000	31.944370
1400.000000	31.821352
1401.000000	31.688800
1402.000000	31.541560
1403.000000	31.381597
1404.000000	31.215788
1405.000000	31.036967
1406.000000	30.849353
1407.000000	30.658390
1408.000000	30.465042
1409.000000	30.265060
1410.000000	30.050113
1411.000000	29.829492
1412.000000	29.611250
1413.000000	29.400678
1414.000000	29.190135
1415.000000	28.977368
1416.000000	28.764297
1417.000000	28.555065
1418.000000	28.352065
1419.000000	28.154885
1420.000000	27.962530
1421.000000	27.778135
1422.000000	27.598740
1423.000000	27.424495
1424.000000	27.254318
1425.000000	27.089900
1426.000000	26.933700
1427.000000	26.783812
1428.000000	26.639047
1429.000000	26.497620
1430.000000	26.361770
1431.000000	26.235030
1432.000000	26.115400
1433.000000	25.997978
1434.000000	25.884610
1435.000000	25.777688
1436.000000	25.675690
1437.000000	25.578065
1438.000000	25.483938
1439.000000	25.393700
1440.000000	25.307595
1441.000000	25.222347
1442.000000	25.139913
1443.000000	25.061560
1444.000000	24.986170
1445.000000	24.915790
1446.000000	24.847445
1447.000000	24.779598
1448.000000	24.710490
1449.000000	24.643155
1450.000000	24.579342
1451.000000	24.517378
1452.000000	24.454540
1453.000000	24.391552
1454.000000	24.328675
1455.000000	24.262605
1456.000000	24.197370
1457.000000	24.132570
1458.000000	24.068572
1459.000000	24.004645
1460.000000	23.940213
1461.000000	23.875352
1462.000000	23.811077
1463.000000	23.747007
1464.000000	23.682467
1465.000000	23.618610
1466.000000	23.556740
1467.000000	23.495282
1468.000000	23.434100
1469.000000	23.374128
1470.000000	23.315280
1471.000000	23.257168
1472.000000	23.201028
1473.000000	23.146418
1474.000000	23.092058
1475.000000	23.037783
1476.000000	22.984223
1477.000000	22.933628
1478.000000	22.886343
1479.000000	22.841838
1480.000000	22.798620
1481.000000	22.758862
1482.000000	22.720858
1483.000000	22.684802
1484.000000	22.653437
1485.000000	22.627075
1486.000000	22.602677
1487.000000	22.579433
1488.000000	22.558440
1489.000000	22.537768
1490.000000	22.518862
1491.000000	22.501682
1492.000000	22.486460
1493.000000	22.474882
1494.000000	22.465415
1495.000000	22.457070
1496.000000	22.451540
1497.000000	22.450270
1498.000000	22.452897
1499.000000	22.460572
1500.000000	22.471335
1501.000000	22.486713
1502.000000	22.507403
1503.000000	22.532060
1504.000000	22.561165
1505.000000	22.594350
1506.000000	22.631082
1507.000000	22.672403
1508.000000	22.716532
1509.000000	22.762797
1510.000000	22.812595
1511.000000	22.864020
1512.000000	22.916767
1513.000000	22.970815
1514.000000	23.024852
1515.000000	23.080333
1516.000000	23.137090
1517.000000	23.194332
1518.000000	23.251950
1519.000000	23.309620
1520.000000	23.367397
1521.000000	23.424727
1522.000000	23.481235
1523.000000	23.536848
1524.000000	23.593300
1525.000000	23.649980
1526.000000	23.704898
1527.000000	23.757835
1528.000000	23.810333
1529.000000	23.862790
1530.000000	23.914452
1531.000000	23.965177
1532.000000	24.014827
1533.000000	24.064598
1534.000000	24.112582
1535.000000	24.158133
1536.000000	24.203395
1537.000000	24.247393
1538.000000	24.288987
1539.000000	24.328620
1540.000000	24.366960
1541.000000	24.404243
1542.000000	24.440748
1543.000000	24.476598
1544.000000	24.513305
1545.000000	24.550458
1546.000000	24.588603
1547.000000	24.628473
1548.000000	24.670347
1549.000000	24.713952
1550.000000	24.758840
1551.000000	24.805428
1552.000000	24.854177
1553.000000	24.903597
1554.000000	24.952100
1555.000000	25.000252
1556.000000	25.046893
1557.000000	25.090435
1558.000000	25.130703
1559.000000	25.168232
1560.000000	25.202445
1561.000000	25.231973
1562.000000	25.256493
1563.000000	25.276633
1564.000000	25.293467
1565.000000	25.306538
1566.000000	25.315820
1567.000000	25.321890
1568.000000	25.325453
1569.000000	25.325900
1570.000000	25.323715
1571.000000	25.320293
1572.000000	25.316305
1573.000000	25.313045
1574.000000	25.309860
1575.000000	25.307462
1576.000000	25.306357
1577.000000	25.307675
1578.000000	25.310625
1579.000000	25.316755
1580.000000	25.326197
1581.000000	25.339080
1582.000000	25.354945
1583.000000	25.371775
1584.000000	25.390742
1585.000000	25.413435
1586.000000	25.439365
1587.000000	25.466712
1588.000000	25.496073
1589.000000	25.526810
1590.000000	25.559397
1591.000000	25.593117
1592.000000	25.628098
1593.000000	25.665345
1594.000000	25.704338
1595.000000	25.742917
1596.000000	25.781842
1597.000000	25.823052
1598.000000	25.866667
1599.000000	25.911297
1600.000000	25.957605
1601.000000	26.005460
1602.000000	26.054845
1603.000000	26.105430
1604.000000	26.157502
1605.000000	26.210208
1606.000000	26.264465
1607.000000	26.319408
1608.000000	26.373432
1609.000000	26.428090
1610.000000	26.480973
1611.000000	26.532095
1612.000000	26.582465
1613.000000	26.631165
1614.000000	26.678440
1615.000000	26.724328
1616.000000	26.767795
1617.000000	26.808155
1618.000000	26.846275
1619.000000	26.882652
1620.000000	26.917653
1621.000000	26.951935
1622.000000	26.983595
1623.000000	27.014580
1624.000000	27.044272
1625.000000	27.073377
1626.000000	27.103117
1627.000000	27.135087
1628.000000	27.168140
1629.000000	27.200750
1630.000000	27.232353
1631.000000	27.263768
1632.000000	27.295990
1633.000000	27.328015
1634.000000	27.358873
1635.000000	27.389443
1636.000000	27.416852
1637.000000	27.441945
1638.000000	27.465297
1639.000000	27.487275
1640.000000	27.508270
1641.000000	27.527688
1642.000000	27.545495
1643.000000	27.561990
1644.000000	27.577818
1645.000000	27.592192
1646.000000	27.606142
1647.000000	27.617117
1648.000000	27.627353
1649.000000	27.636905
1650.000000	27.643590
1651.000000	27.648347
1652.000000	27.649790
1653.000000	27.646528
1654.000000	27.639162
1655.000000	27.628203
1656.000000	27.612372
1657.000000	27.592328
1658.000000	27.564028
1659.000000	27.529100
1660.000000	27.489112
1661.000000	27.440880
1662.000000	27.386515
1663.000000	27.326985
1664.000000	27.260692
1665.000000	27.186982
1666.000000	27.107243
1667.000000	27.022458
1668.000000	26.930250
1669.000000	26.830395
1670.000000	26.725610
1671.000000	26.615312
1672.000000	26.501280
1673.000000	26.382388
1674.000000	26.260698
1675.000000	26.135883
1676.000000	26.007928
1677.000000	25.876067
1678.000000	25.745703
1679.000000	25.614133
1680.000000	25.480292
1681.000000	25.345640
1682.000000	25.207308
1683.000000	25.067820
1684.000000	24.928638
1685.000000	24.792725
1686.000000	24.661397
1687.000000	24.536898
1688.000000	24.422553
1689.000000	24.321915
1690.000000	24.235048
1691.000000	24.165585
1692.000000	24.116402
1693.000000	24.085287
1694.000000	24.067320
1695.000000	24.062667
1696.000000	24.068870
1697.000000	24.083757
1698.000000	24.102093
1699.000000	24.120182
1700.000000	24.137773
1701.000000	24.152493
1702.000000	24.160148
1703.000000	24.161920
1704.000000	24.158220
1705.000000	24.147730
1706.000000	24.129867
1707.000000	24.104048
1708.000000	24.069610
1709.000000	24.026317
1710.000000	23.975980
1711.000000	23.916127
1712.000000	23.846978
1713.000000	23.767028
1714.000000	23.677640
1715.000000	23.579415
1716.000000	23.470958
1717.000000	23.354897
1718.000000	23.233790
1719.000000	23.109292
1720.000000	22.981255
1721.000000	22.854370
1722.000000	22.734748
1723.000000	22.624155
1724.000000	22.525210
1725.000000	22.437323
1726.000000	22.366840
1727.000000	22.312107
1728.000000	22.272460
1729.000000	22.249275
1730.000000	22.241960
1731.000000	22.247457
1732.000000	22.261347
1733.000000	22.283442
1734.000000	22.311885
1735.000000	22.346655
1736.000000	22.385370
1737.000000	22.427725
1738.000000	22.474097
1739.000000	22.523080
1740.000000	22.574572
1741.000000	22.630178
1742.000000	22.688795
1743.000000	22.749085
1744.000000	22.810493
1745.000000	22.873360
1746.000000	22.935758
1747.000000	22.997705
1748.000000	23.059078
1749.000000	23.118707
1750.000000	23.174365
1751.000000	23.224943
1752.000000	23.270722
1753.000000	23.311928
1754.000000	23.348535
1755.000000	23.380280
1756.000000	23.406668
1757.000000	23.428992
1758.000000	23.447422
1759.000000	23.462480
1760.000000	23.475610
1761.000000	23.487427
1762.000000	23.499057
1763.000000	23.510215
1764.000000	23.522228
1765.000000	23.535600
1766.000000	23.552235
1767.000000	23.568668
1768.000000	23.586190
1769.000000	23.606750
1770.000000	23.630475
1771.000000	23.656585
1772.000000	23.683767
1773.000000	23.712400
1774.000000	23.742622
1775.000000	23.773272
1776.000000	23.804152
1777.000000	23.836198
1778.000000	23.868453
1779.000000	23.900150
1780.000000	23.929590
1781.000000	23.956180
1782.000000	23.980348
1783.000000	24.003565
1784.000000	24.024870
1785.000000	24.044288
1786.000000	24.060873
1787.000000	24.074927
1788.000000	24.086950
1789.000000	24.096287
1790.000000	24.103997
1791.000000	24.112872
1792.000000	24.123290
1793.000000	24.133110
1794.000000	24.142833
1795.000000	24.152635
1796.000000	24.164090
1797.000000	24.176040
1798.000000	24.187418
1799.000000	24.200402
1800.000000	24.216370
1801.000000	24.233512
1802.000000	24.249987
1803.000000	24.266010
1804.000000	24.281740
1805.000000	24.299080
1806.000000	24.317020
1807.000000	24.336105
1808.000000	24.356047
1809.000000	24.373912
1810.000000	24.390950
1811.000000	24.408950
1812.000000	24.426965
1813.000000	24.444478
1814.000000	24.462142
1815.000000	24.477995
1816.000000	24.491663
1817.000000	24.501767
1818.000000	24.508078
1819.000000	24.518018
1820.000000	24.532823
1821.000000	24.547512
1822.000000	24.560750
1823.000000	24.569075
1824.000000	24.571973
1825.000000	24.573647
1826.000000	24.576828
1827.000000	24.585327
1828.000000	24.599505
1829.000000	24.613862
1830.000000	24.625733
1831.000000	24.635983
1832.000000	24.645430
1833.000000	24.657755
1834.000000	24.673660
1835.000000	24.693025
1836.000000	24.715583
1837.000000	24.741200
1838.000000	24.768078
1839.000000	24.793672
1840.000000	24.818760
1841.000000	24.848200
1842.000000	24.882080
1843.000000	24.914510
1844.000000	24.940522
1845.000000	24.957080
1846.000000	24.968843
1847.000000	24.984740
1848.000000	25.007780
1849.000000	25.029618
1850.000000	25.040255
1851.000000	25.035635
1852.000000	25.023502
1853.000000	25.015940
1854.000000	25.015920
1855.000000	25.020430
1856.000000	25.019560
1857.000000	25.004455
1858.000000	24.975462
1859.000000	24.945528
1860.000000	24.920525
1861.000000	24.900288
1862.000000	24.876432
1863.000000	24.841190
1864.000000	24.793500
1865.000000	24.736027
1866.000000	24.674168
1867.000000	24.608630
1868.000000	24.534498
1869.000000	24.451500
1870.000000	24.363660
1871.000000	24.269100
1872.000000	24.168183
1873.000000	24.063652
1874.000000	23.952995
1875.000000	23.836378
1876.000000	23.710660
1877.000000	23.572367
1878.000000	23.423267
1879.000000	23.259765
1880.000000	23.077033
1881.000000	22.878585
1882.000000	22.668022
1883.000000	22.444455
1884.000000	22.212790
1885.000000	21.969035
1886.000000	21.712790
1887.000000	21.444240
1888.000000	21.166105
1889.000000	20.879505
1890.000000	20.585255
1891.000000	20.282590
1892.000000	19.972028
1893.000000	19.654985
1894.000000	19.327785
1895.000000	18.993832
1896.000000	18.655887
1897.000000	18.311977
1898.000000	17.967680
1899.000000	17.623050
1900.000000	17.278075
1901.000000	16.933592
1902.000000	16.587128
1903.000000	16.242102
1904.000000	15.905423
1905.000000	15.579865
1906.000000	15.263527
1907.000000	14.958935
1908.000000	14.659572
1909.000000	14.369510
1910.000000	14.089237
1911.000000	13.823235
1912.000000	13.573933
1913.000000	13.339630
1914.000000	13.116180
1915.000000	12.902185
1916.000000	12.699220
1917.000000	12.506897
1918.000000	12.327317
1919.000000	12.156878
1920.000000	12.003832
1921.000000	11.857698
1922.000000	11.725485
1923.000000	11.598313
1924.000000	11.479055
1925.000000	11.369660
1926.000000	11.269327
1927.000000	11.179125
1928.000000	11.099610
1929.000000	11.029985
1930.000000	10.964145
1931.000000	10.904240
1932.000000	10.848228
1933.000000	10.800580
1934.000000	10.761755
1935.000000	10.728647
1936.000000	10.699820
1937.000000	10.677767
1938.000000	10.662727
1939.000000	10.655295
1940.000000	10.651128
1941.000000	10.653105
1942.000000	10.658047
1943.000000	10.669215
1944.000000	10.685750
1945.000000	10.704100
1946.000000	10.732470
1947.000000	10.762815
1948.000000	10.793098
1949.000000	10.821727
1950.000000	10.857000
1951.000000	10.897220
1952.000000	10.940632
1953.000000	10.990810
1954.000000	11.040895
1955.000000	11.092747
1956.000000	11.142620
1957.000000	11.195148
1958.000000	11.251225
1959.000000	11.307875
1960.000000	11.362027
1961.000000	11.418257
1962.000000	11.474782
1963.000000	11.530650
1964.000000	11.587138
1965.000000	11.645548
1966.000000	11.702402
1967.000000	11.758053
1968.000000	11.811050
1969.000000	11.869710
1970.000000	11.928350
1971.000000	11.984983
1972.000000	12.043085
1973.000000	12.098792
1974.000000	12.151487
1975.000000	12.206617
1976.000000	12.261045
1977.000000	12.317277
1978.000000	12.375317
1979.000000	12.431695
1980.000000	12.487485
1981.000000	12.545167
1982.000000	12.601333
1983.000000	12.657093
1984.000000	12.718578
1985.000000	12.778420
1986.000000	12.836742
1987.000000	12.895432
1988.000000	12.953762
1989.000000	13.010200
1990.000000	13.067902
1991.000000	13.124125
1992.000000	13.182875
1993.000000	13.239548
1994.000000	13.291177
1995.000000	13.340700
1996.000000	13.391435
1997.000000	13.441840
1998.000000	13.490105
1999.000000	13.536107
2000.000000	13.582820
2001.000000	13.626170
2002.000000	13.663757
2003.000000	13.700865
2004.000000	13.736142
2005.000000	13.769430
2006.000000	13.801720
2007.000000	13.827810
2008.000000	13.851163
2009.000000	13.872360
2010.000000	13.888732
2011.000000	13.904718
2012.000000	13.914597
2013.000000	13.923130
2014.000000	13.926370
2015.000000	13.924420
2016.000000	13.916778
2017.000000	13.904008
2018.000000	13.890498
2019.000000	13.873478
2020.000000	13.850658
2021.000000	13.826553
2022.000000	13.799040
2023.000000	13.762963
2024.000000	13.725853
2025.000000	13.686822
2026.000000	13.645008
2027.000000	13.600778
2028.000000	13.549815
2029.000000	13.496425
2030.000000	13.438928
2031.000000	13.371505
2032.000000	13.306570
2033.000000	13.238675
2034.000000	13.168015
2035.000000	13.093953
2036.000000	13.015630
2037.000000	12.935517
2038.000000	12.851872
2039.000000	12.764283
2040.000000	12.673903
2041.000000	12.585138
2042.000000	12.494432
2043.000000	12.401325
2044.000000	12.304960
2045.000000	12.206442
2046.000000	12.109540
2047.000000	12.015762
2048.000000	11.926337
2049.000000	11.840615
2050.000000	11.765010
2051.000000	11.696410
2052.000000	11.631970
2053.000000	11.577693
2054.000000	11.531710
2055.000000	11.494975
2056.000000	11.470743
2057.000000	11.457630
2058.000000	11.453040
2059.000000	11.456865
2060.000000	11.468977
2061.000000	11.489150
2062.000000	11.519865
2063.000000	11.559945
2064.000000	11.606948
2065.000000	11.661027
2066.000000	11.717073
2067.000000	11.773330
2068.000000	11.837347
2069.000000	11.905910
2070.000000	11.977032
2071.000000	12.050745
2072.000000	12.117532
2073.000000	12.180398
2074.000000	12.245555
2075.000000	12.307717
2076.000000	12.370332
2077.000000	12.435660
2078.000000	12.494950
2079.000000	12.550330
2080.000000	12.601558
2081.000000	12.647345
2082.000000	12.692895
2083.000000	12.730817
2084.000000	12.762290
2085.000000	12.791932
2086.000000	12.815152
2087.000000	12.833028
2088.000000	12.844415
2089.000000	12.854662
2090.000000	12.861375
2091.000000	12.863890
2092.000000	12.861230
2093.000000	12.859903
2094.000000	12.860865
2095.000000	12.861110
2096.000000	12.852685
2097.000000	12.844795
2098.000000	12.842517
2099.000000	12.839985
2100.000000	12.834880
2101.000000	12.831885
2102.000000	12.838915
2103.000000	12.844800
2104.000000	12.844938
2105.000000	12.843318
2106.000000	12.847085
2107.000000	12.849670
2108.000000	12.851995
2109.000000	12.853370
2110.000000	12.859458
2111.000000	12.861730
2112.000000	12.855285
2113.000000	12.847632
2114.000000	12.843748
2115.000000	12.848917
2116.000000	12.863000
2117.000000	12.871235
2118.000000	12.871560
2119.000000	12.869350
2120.000000	12.861273
2121.000000	12.847620
2122.000000	12.840365
2123.000000	12.836427
2124.000000	12.829515
2125.000000	12.807573
2126.000000	12.778628
2127.000000	12.754815
2128.000000	12.730733
2129.000000	12.701427
2130.000000	12.670875
2131.000000	12.649427
2132.000000	12.610527
2133.000000	12.569933
2134.000000	12.532307
2135.000000	12.490655
2136.000000	12.444610
2137.000000	12.395333
2138.000000	12.350092
2139.000000	12.306045
2140.000000	12.256735
2141.000000	12.200912
2142.000000	12.144570
2143.000000	12.085922
2144.000000	12.018708
2145.000000	11.947650
2146.000000	11.883892
2147.000000	11.817435
2148.000000	11.748500
2149.000000	11.672887
2150.000000	11.603150
2151.000000	11.525823
2152.000000	11.461202
2153.000000	11.398253
2154.000000	11.327325
2155.000000	11.269295
2156.000000	11.203315
2157.000000	11.135642
2158.000000	11.064805
2159.000000	11.004615
2160.000000	10.947420
2161.000000	10.893495
2162.000000	10.836520
2163.000000	10.769050
2164.000000	10.718073
2165.000000	10.669275
2166.000000	10.618353
2167.000000	10.574578
2168.000000	10.536272
2169.000000	10.503095
2170.000000	10.465600
2171.000000	10.426098
2172.000000	10.400683
2173.000000	10.387885
2174.000000	10.372040
2175.000000	10.345553
2176.000000	10.330097
2177.000000	10.309372
2178.000000	10.298732
2179.000000	10.285737
2180.000000	10.267043
2181.000000	10.264600
2182.000000	10.250200
2183.000000	10.233733
2184.000000	10.209115
2185.000000	10.192673
2186.000000	10.179530
2187.000000	10.168213
2188.000000	10.146458
2189.000000	10.118222
2190.000000	10.093235
2191.000000	10.068403
2192.000000	10.051782
2193.000000	10.015503
2194.000000	9.984695
2195.000000	9.952777
2196.000000	9.911995
2197.000000	9.877253
2198.000000	9.835855
2199.000000	9.793905
2200.000000	9.752415
2201.000000	9.699193
2202.000000	9.631168
2203.000000	9.593130
2204.000000	9.556435
2205.000000	9.514070
2206.000000	9.472850
2207.000000	9.434170
2208.000000	9.404528
2209.000000	9.386520
2210.000000	9.378737
2211.000000	9.382793
2212.000000	9.396000
2213.000000	9.405035
2214.000000	9.416140
2215.000000	9.440020
2216.000000	9.480152
2217.000000	9.518078
2218.000000	9.559720
2219.000000	9.611315
2220.000000	9.659525
2221.000000	9.701023
2222.000000	9.748543
2223.000000	9.809473
2224.000000	9.877213
2225.000000	9.936007
2226.000000	9.986205
2227.000000	10.047470
2228.000000	10.105718
2229.000000	10.150300
2230.000000	10.192790
2231.000000	10.235297
2232.000000	10.284540
2233.000000	10.312012
2234.000000	10.333967
2235.000000	10.361187
2236.000000	10.388443
2237.000000	10.400673
2238.000000	10.403408
2239.000000	10.406900
2240.000000	10.402477
2241.000000	10.392700
2242.000000	10.364220
2243.000000	10.345322
2244.000000	10.320520
2245.000000	10.304720
2246.000000	10.266115
2247.000000	10.226025
2248.000000	10.185475
2249.000000	10.140503
2250.000000	10.101192
2251.000000	10.061340
2252.000000	10.019190
2253.000000	9.969593
2254.000000	9.915707
2255.000000	9.838855
2256.000000	9.772675
2257.000000	9.700893
2258.000000	9.632558
2259.000000	9.568695
2260.000000	9.506110
2261.000000	9.442625
2262.000000	9.386330
2263.000000	9.329973
2264.000000	9.282435
2265.000000	9.241447
2266.000000	9.205165
2267.000000	9.180025
2268.000000	9.152385
2269.000000	9.126547
2270.000000	9.105025
2271.000000	9.095130
2272.000000	9.080403
2273.000000	9.070555
2274.000000	9.063905
2275.000000	9.058885
2276.000000	9.057613
2277.000000	9.053837
2278.000000	9.059923
2279.000000	9.064018
2280.000000	9.060210
2281.000000	9.055320
2282.000000	9.053627
2283.000000	9.051472
2284.000000	9.051190
2285.000000	9.054060
2286.000000	9.050493
2287.000000	9.042850
2288.000000	9.034920
2289.000000	9.034052
2290.000000	9.042440
2291.000000	9.054323
2292.000000	9.059230
2293.000000	9.062380
2294.000000	9.059285
2295.000000	9.057030
2296.000000	9.060035
2297.000000	9.071425
2298.000000	9.082260
2299.000000	9.079363
2300.000000	9.078835
2301.000000	9.079140
2302.000000	9.086035
2303.000000	9.097107
2304.000000	9.122760
2305.000000	9.153740
2306.000000	9.185393
2307.000000	9.224270
2308.000000	9.265187
2309.000000	9.305135
2310.000000	9.339455
2311.000000	9.375625
2312.000000	9.421873
2313.000000	9.462727
2314.000000	9.483345
2315.000000	9.511585
2316.000000	9.545445
2317.000000	9.557355
2318.000000	9.561320
2319.000000	9.572912
2320.000000	9.597335
2321.000000	9.624902
2322.000000	9.638535
2323.000000	9.646242
2324.000000	9.659248
2325.000000	9.666760
2326.000000	9.667275
2327.000000	9.675048
2328.000000	9.698570
2329.000000	9.721170
2330.000000	9.728955
2331.000000	9.727570
2332.000000	9.735048
2333.000000	9.748625
2334.000000	9.757665
2335.000000	9.765207
2336.000000	9.775660
2337.000000	9.792195
2338.000000	9.804037
2339.000000	9.813975
2340.000000	9.822775
2341.000000	9.827440
2342.000000	9.841170
2343.000000	9.865690
2344.000000	9.892510
2345.000000	9.915083
2346.000000	9.941365
2347.000000	9.958005
2348.000000	9.956930
2349.000000	9.967997
2350.000000	9.989905
2351.000000	10.014548
2352.000000	10.038853
2353.000000	10.067657
2354.000000	10.093590
2355.000000	10.098300
2356.000000	10.100975
2357.000000	10.111265
2358.000000	10.134113
2359.000000	10.157690
2360.000000	10.180623
2361.000000	10.212760
2362.000000	10.245275
2363.000000	10.261413
2364.000000	10.270810
2365.000000	10.294780
2366.000000	10.319120
2367.000000	10.345995
2368.000000	10.377368
2369.000000	10.405447
2370.000000	10.417768
2371.000000	10.426663
2372.000000	10.421043
2373.000000	10.415555
2374.000000	10.426580
2375.000000	10.438575
2376.000000	10.450692
2377.000000	10.469315
2378.000000	10.503052
2379.000000	10.520915
2380.000000	10.532790
2381.000000	10.537467
2382.000000	10.549193
2383.000000	10.560975
2384.000000	10.580455
2385.000000	10.607108
2386.000000	10.626595
2387.000000	10.651020
2388.000000	10.633875
2389.000000	10.621460
2390.000000	10.632425
2391.000000	10.638958
2392.000000	10.642168
2393.000000	10.658123
2394.000000	10.667295
2395.000000	10.651822
2396.000000	10.656760
2397.000000	10.663205
2398.000000	10.671902
2399.000000	10.662190
2400.000000	10.669813
2401.000000	10.707643
2402.000000	10.721850
2403.000000	10.710838
2404.000000	10.685495
2405.000000	10.705357
2406.000000	10.718485
2407.000000	10.695647
2408.000000	10.695052
2409.000000	10.712835
2410.000000	10.687492
2411.000000	10.641105
2412.000000	10.630138
2413.000000	10.623323
2414.000000	10.589683
2415.000000	10.553205
2416.000000	10.529438
2417.000000	10.518340
2418.000000	10.490405
2419.000000	10.470453
2420.000000	10.473192
2421.000000	10.447202
2422.000000	10.407575
2423.000000	10.406152
2424.000000	10.442728
2425.000000	10.457825
2426.000000	10.428405
2427.000000	10.394333
2428.000000	10.351420
2429.000000	10.297845
2430.000000	10.247265
2431.000000	10.231080
2432.000000	10.187630
2433.000000	10.072163
2434.000000	10.001380
2435.000000	9.956985
2436.000000	9.909958
2437.000000	9.875515
2438.000000	9.847743
2439.000000	9.825858
2440.000000	9.766597
2441.000000	9.693635
2442.000000	9.679222
2443.000000	9.704883
2444.000000	9.706715
2445.000000	9.647398
2446.000000	9.620300
2447.000000	9.598730
2448.000000	9.641005
2449.000000	9.648917
2450.000000	9.696305
2451.000000	9.697065
2452.000000	9.689300
2453.000000	9.716888
2454.000000	9.686290
2455.000000	9.707595
2456.000000	9.731330
2457.000000	9.751798
2458.000000	9.690653
2459.000000	9.668212
2460.000000	9.645605
2461.000000	9.692530
2462.000000	9.724888
2463.000000	9.739372
2464.000000	9.738447
2465.000000	9.777205
2466.000000	9.804245
2467.000000	9.848640
2468.000000	9.934440
2469.000000	9.982730
2470.000000	10.016195
2471.000000	10.091817
2472.000000	10.143123
2473.000000	10.212610
2474.000000	10.383928
2475.000000	10.442622
2476.000000	10.542060
2477.000000	10.604397
2478.000000	10.685295
2479.000000	10.845128
2480.000000	11.007530
2481.000000	11.174770
2482.000000	11.326775
2483.000000	11.423895
2484.000000	11.516655
2485.000000	11.682590
2486.000000	11.838560
2487.000000	11.954363
2488.000000	12.006740
2489.000000	12.096140
2490.000000	12.251627
2491.000000	12.368507
2492.000000	12.506728
2493.000000	12.718053
2494.000000	12.939238
2495.000000	13.080230
2496.000000	13.196273
2497.000000	13.417757
2498.000000	13.687988
2499.000000	13.816035
2500.000000	14.025098
2501.000000	17.642633
2502.000000	21.257943
2503.000000	24.937172
2504.000000	28.717830
2505.000000	32.387680
2506.000000	36.124627
2507.000000	40.071363
2508.000000	44.062028
2509.000000	48.152558
2510.000000	51.881950
2511.000000	52.796680
2512.000000	54.167330
2513.000000	55.205510
2514.000000	56.092230
2515.000000	57.105650
2516.000000	58.000220
2517.000000	58.716800
2518.000000	59.533650
2519.000000	60.345250
2520.000000	61.995460
2521.000000	63.233490
2522.000000	64.280480
2523.000000	65.535280
2524.000000	66.331120
2525.000000	67.799440
2526.000000	68.835080
2527.000000	69.781290
2528.000000	70.547930
2529.000000	71.555420
2530.000000	72.227910
2531.000000	72.685310
2532.000000	73.217210
2533.000000	74.114450
2534.000000	75.664100
2535.000000	76.308470
2536.000000	77.073410
2537.000000	77.878840
2538.000000	78.814040
2539.000000	79.767600
2540.000000	80.107500
2541.000000	81.081850
2542.000000	82.030350
2543.000000	82.544760
2544.000000	82.623970
2545.000000	83.270280
2546.000000	84.216490
2547.000000	84.640140
2548.000000	85.395990
2549.000000	85.649090
2550.000000	86.272250
2551.000000	86.440550
2552.000000	86.473430
2553.000000	87.127330
2554.000000	88.040370
2555.000000	88.724810
2556.000000	88.943550
2557.000000	89.724130
2558.000000	90.327900
2559.000000	91.001750
2560.000000	91.814870
2561.000000	92.787260
2562.000000	93.771460
2563.000000	94.263060
2564.000000	94.688950
2565.000000	94.633820
2566.000000	94.800790
2567.000000	94.931120
2568.000000	94.940360
2569.000000	95.304790
2570.000000	95.731300
2571.000000	96.305300
2572.000000	96.664500
2573.000000	96.760430
2574.000000	96.509030
2575.000000	96.605660
2576.000000	96.868870
2577.000000	97.089520
2578.000000	97.041920
2579.000000	97.175490
2580.000000	97.392890
2581.000000	97.316870
2582.000000	97.229360
2583.000000	97.274080
2584.000000	98.492870
2585.000000	99.553820
2586.000000	99.874850
2587.000000	100.078470
2588.000000	100.073460
2589.000000	99.960870
2590.000000	100.264240
2591.000000	100.154340
2592.000000	100.345930
2593.000000	101.075590
2594.000000	100.354130
2595.000000	99.890090
2596.000000	100.077950
2597.000000	100.351530
2598.000000	100.717900
2599.000000	100.815100
2600.000000	100.804920
2601.000000	100.891440
2602.000000	100.970140
2603.000000	100.989110
2604.000000	101.421680
2605.000000	101.616870
2606.000000	101.927480
2607.000000	101.338230
2608.000000	101.127280
2609.000000	101.323160
2610.000000	101.047840
2611.000000	101.461640
2612.000000	101.688360
2613.000000	101.262840
2614.000000	101.288790
2615.000000	101.075260
2616.000000	100.225350
2617.000000	100.431080
2618.000000	100.796980
2619.000000	100.366810
2620.000000	99.577800
2621.000000	98.288390
2622.000000	97.339540
2623.000000	97.196200
2624.000000	96.881130
2625.000000	96.827060
2626.000000	98.110150
2627.000000	99.068360
2628.000000	99.102280
2629.000000	98.984520
2630.000000	99.218770
2631.000000	100.086420
2632.000000	100.736020
2633.000000	100.978890
2634.000000	101.497080
2635.000000	102.590260
2636.000000	102.332950
2637.000000	101.577740
2638.000000	101.321840
2639.000000	102.049030
2640.000000	102.421650
2641.000000	102.425960
2642.000000	102.767300
2643.000000	102.760190
2644.000000	102.089120
2645.000000	101.233800
2646.000000	101.270960
2647.000000	101.523600
2648.000000	102.189990
2649.000000	101.944030
2650.000000	101.825590
2651.000000	102.044260
2652.000000	101.175510
2653.000000	101.012240
2654.000000	101.449930
2655.000000	101.406240
2656.000000	101.347530
2657.000000	101.625970
2658.000000	102.004160
2659.000000	102.067860
2660.000000	101.278930
2661.000000	100.326030
2662.000000	100.111610
2663.000000	99.787540
2664.000000	99.865960
2665.000000	100.375460
2666.000000	101.043670
2667.000000	101.702080
2668.000000	101.993670
2669.000000	102.719450
2670.000000	104.011470
2671.000000	104.180150
2672.000000	104.002090
2673.000000	103.760990
2674.000000	103.104670
2675.000000	102.718810
2676.000000	101.906480
2677.000000	102.597210
2678.000000	101.993320
2679.000000	102.389760
2680.000000	102.815370
2681.000000	103.547110
2682.000000	104.436700
2683.000000	104.983990
2684.000000	105.327490
2685.000000	104.888790
2686.000000	104.305900
2687.000000	102.313720
2688.000000	101.169410
2689.000000	99.922250
2690.000000	99.997240
2691.000000	100.317700
2692.000000	100.829570
2693.000000	100.929330
2694.000000	101.214590
2695.000000	101.243880
2696.000000	101.340090
2697.000000	101.849040
2698.000000	102.269450
2699.000000	101.883510
2700.000000	100.953570
2701.000000	99.880820
2702.000000	99.007560
2703.000000	99.009240
2704.000000	98.598640
2705.000000	99.072810
2706.000000	99.636060
2707.000000	100.125860
2708.000000	100.342290
2709.000000	100.473980
2710.000000	100.479770
2711.000000	100.757380
2712.000000	100.529990
2713.000000	100.260460
2714.000000	99.968680
2715.000000	100.788400
2716.000000	101.324830
2717.000000	102.062460
2718.000000	103.161460
2719.000000	104.164810
2720.000000	104.258460
2721.000000	104.156850
2722.000000	104.122930
2723.000000	103.857050
2724.000000	103.961770
2725.000000	102.987690
2726.000000	103.159890
2727.000000	102.320260
2728.000000	102.228560
2729.000000	101.932120
2730.000000	103.059610
2731.000000	102.622430
2732.000000	102.503760
2733.000000	102.962600
2734.000000	102.827360
2735.000000	101.653560
2736.000000	100.789720
2737.000000	101.688720
2738.000000	102.093570
2739.000000	102.237170
2740.000000	102.632390
2741.000000	103.895230
2742.000000	104.341480
2743.000000	104.317020
2744.000000	103.758210
2745.000000	104.073280
2746.000000	103.470330
2747.000000	101.872040
2748.000000	101.594120
2749.000000	101.960510
2750.000000	100.199800
2751.000000	100.333990
2752.000000	100.824240
2753.000000	101.423470
2754.000000	102.200450
2755.000000	101.624180
2756.000000	101.804190
2757.000000	102.057110
2758.000000	101.485670
2759.000000	100.649360
2760.000000	101.012160
2761.000000	101.940340
2762.000000	102.228090
2763.000000	102.230220
2764.000000	102.653120
2765.000000	104.558160
2766.000000	105.546110
2767.000000	105.707440
2768.000000	105.738860
2769.000000	105.931470
2770.000000	105.346630
2771.000000	104.126460
2772.000000	103.474070
2773.000000	102.790450
2774.000000	102.959470
2775.000000	103.013970
2776.000000	102.201890
2777.000000	102.120300
2778.000000	101.487130
2779.000000	100.775570
2780.000000	101.236850
2781.000000	100.998940
2782.000000	101.232040
2783.000000	101.659660
2784.000000	101.431170
2785.000000	101.008990
2786.000000	101.842480
2787.000000	101.905570
2788.000000	102.629470
2789.000000	104.129670
2790.000000	103.684910
2791.000000	103.519170
2792.000000	103.668250
2793.000000	103.102440
2794.000000	103.001960
2795.000000	103.194970
2796.000000	103.259270
2797.000000	103.222040
2798.000000	103.307360
2799.000000	102.713690
2800.000000	102.824250
2801.000000	102.294440
2802.000000	101.489540
2803.000000	101.434920
2804.000000	100.476110
2805.000000	99.253960
2806.000000	99.086890
2807.000000	99.380840
2808.000000	99.536750
2809.000000	99.825720
2810.000000	100.496630
2811.000000	100.837750
2812.000000	100.555530
2813.000000	100.174240
2814.000000	100.430100
2815.000000	100.350380
2816.000000	99.388370
2817.000000	99.015490
2818.000000	98.990260
2819.000000	98.484630
2820.000000	98.085100
2821.000000	98.593480
2822.000000	99.710670
2823.000000	100.226950
2824.000000	100.633120
2825.000000	101.155100
2826.000000	101.003260
2827.000000	100.365670
2828.000000	99.534480
2829.000000	99.426260
2830.000000	99.407800
2831.000000	99.080100
2832.000000	99.265830
2833.000000	99.503150
2834.000000	99.883600
2835.000000	100.425650
2836.000000	101.174560
2837.000000	101.752650
2838.000000	101.785780
2839.000000	101.652500
2840.000000	101.531080
2841.000000	101.520280
2842.000000	101.377370
2843.000000	101.755400
2844.000000	102.986060
2845.000000	103.660430
2846.000000	103.663620
2847.000000	104.206570
2848.000000	104.956430
2849.000000	105.350370
2850.000000	105.243780
2851.000000	104.959630
2852.000000	104.218180
2853.000000	102.940550
2854.000000	100.883750
2855.000000	99.968270
2856.000000	99.550940
2857.000000	99.266000
2858.000000	99.239270
2859.000000	99.845380
2860.000000	100.863960
2861.000000	101.214380
2862.000000	101.059900
2863.000000	101.163700
2864.000000	101.372970
2865.000000	100.978420
2866.000000	101.325760
2867.000000	101.445900
2868.000000	101.267750
2869.000000	100.999610
2870.000000	100.714730
2871.000000	100.981390
2872.000000	101.527020
2873.000000	102.092250
2874.000000	102.194430
2875.000000	102.101020
2876.000000	101.433670
2877.000000	100.326280
2878.000000	99.796480
2879.000000	99.414080
2880.000000	99.107680
2881.000000	98.832110
2882.000000	98.694990
2883.000000	98.602510
2884.000000	98.873390
2885.000000	99.601710
2886.000000	100.104920
2887.000000	100.600190
2888.000000	100.309920
2889.000000	100.075550
2890.000000	99.883280
2891.000000	99.298270
2892.000000	99.145550
2893.000000	100.652410
2894.000000	101.369660
2895.000000	101.059160
2896.000000	101.641640
2897.000000	101.486960
2898.000000	100.889620
2899.000000	100.400600
2900.000000	100.141940
2901.000000	100.135780
2902.000000	99.438890
2903.000000	97.855950
2904.000000	96.603980
2905.000000	96.072980
2906.000000	95.939430
2907.000000	97.064470
2908.000000	98.264330
2909.000000	99.305130
2910.000000	100.076260
2911.000000	100.869720
2912.000000	101.723350
2913.000000	101.081280
2914.000000	100.838960
2915.000000	101.627470
2916.000000	101.554900
2917.000000	101.503590
2918.000000	101.643450
2919.000000	101.521410
2920.000000	102.471900
2921.000000	102.723850
2922.000000	102.392590
2923.000000	102.545860
2924.000000	102.866090
2925.000000	101.942440
2926.000000	100.784710
2927.000000	99.699000
2928.000000	99.712000
2929.000000	99.155890
2930.000000	97.943200
2931.000000	97.714440
2932.000000	98.596370
2933.000000	100.331510
2934.000000	100.961770
2935.000000	101.885470
2936.000000	103.030240
2937.000000	103.869670
2938.000000	103.483430
2939.000000	102.842930
2940.000000	102.105860
2941.000000	101.704250
2942.000000	100.805970
2943.000000	99.387160
2944.000000	99.345850
2945.000000	99.267650
2946.000000	99.004790
2947.000000	98.595080
2948.000000	98.965040
2949.000000	99.684120
2950.000000	100.294270
2951.000000	101.262720
2952.000000	101.342770
2953.000000	100.830600
2954.000000	100.232840
2955.000000	100.780350
2956.000000	100.803570
2957.000000	101.565830
2958.000000	101.229570
2959.000000	101.589520
2960.000000	102.775310
2961.000000	102.014560
2962.000000	102.732330
2963.000000	104.056280
2964.000000	103.727330
2965.000000	102.848480
2966.000000	102.554030
2967.000000	101.484110
2968.000000	101.702080
2969.000000	102.343600
2970.000000	101.861280
2971.000000	103.495040
2972.000000	104.276400
2973.000000	103.528500
2974.000000	103.734090
2975.000000	104.529640
2976.000000	104.325800
2977.000000	104.173330
2978.000000	103.758070
2979.000000	102.897020
2980.000000	101.588230
2981.000000	99.434740
2982.000000	98.066630
2983.000000	99.184530
2984.000000	100.140370
2985.000000	98.859340
2986.000000	99.990740
2987.000000	101.233340
2988.000000	101.452730
2989.000000	101.046440
2990.000000	101.552520
2991.000000	102.291410
2992.000000	102.191160
2993.000000	101.191440
2994.000000	100.806200
2995.000000	102.158850
2996.000000	102.190340
2997.000000	102.359540
2998.000000	103.562640
2999.000000	104.467490
3000.000000	104.483930
