PE UV       SUBTECH     SPECTRUM    ASCII       PEDS        4.00        
   -1
INBUCR0412-4.Sample.ASC
24/02/09
11:02:18.00
24/02/09
11:02:18.00
Vinicio Soto Monge
R. B Hitoy Cerere, Valle La Estrella. Prov. Limón. COSTA RICA. 100m. 19 a 29 Abr 1992. E. López. L_N 643400_184600 #1443. INBIOCRI001716561. (Aparentemente Phanaeus pyrois). Sin cabeza
250,000000
1
Lambda 1050
1050L1511233
PerkinElmer UV WinLab 6.3.2.0749 / 2.02.05 Lambda 900 UV/VIS/NIR, Aug  7 2015 09:38:08

0
0
3350/servo 860,8/2
0
0
UV/VIS
1
1
1
DoubleDePol,CommonBeamDepol,RBeamAtt,SBeamAtt,60mm sphere, WB InGaAs Detector
0
0
0
0
Program
Program
3350/servo 860,8/2
3350/0,2 860,8/0,2
3350/0,2 860,8/0,2
0
15.00
 
 
 
0
 
860,8
319,2
860,8
Front
100
on
S:100 R:100
0
0
0
0
 
0
 
 
 
0
 
 
0
0
0
0
0
 
 
 
 
0
0


0
0
#HDR
-1
-1
#GR
nm
%R
1.0
0.0
2500,000000
-1,000000
2251
8
16,828800
1,141000
#DATA

250.000000	nan
251.000000	nan
252.000000	nan
253.000000	nan
254.000000	nan
255.000000	nan
256.000000	nan
257.000000	nan
258.000000	nan
259.000000	4.587564
260.000000	4.586747
261.000000	4.585482
262.000000	4.586011
263.000000	4.586234
264.000000	4.555055
265.000000	4.554019
266.000000	4.521521
267.000000	4.487570
268.000000	4.452733
269.000000	4.416380
270.000000	4.381085
271.000000	4.347452
272.000000	4.312831
273.000000	4.276447
274.000000	4.271713
275.000000	4.237011
276.000000	4.233727
277.000000	4.233160
278.000000	4.230110
279.000000	4.226213
280.000000	4.224448
281.000000	4.219017
282.000000	4.216472
283.000000	4.214539
284.000000	4.215146
285.000000	4.212754
286.000000	4.210254
287.000000	4.207703
288.000000	4.207255
289.000000	4.208051
290.000000	4.205170
291.000000	4.205201
292.000000	4.204169
293.000000	4.203164
294.000000	4.201551
295.000000	4.199672
296.000000	4.199695
297.000000	4.196878
298.000000	4.196487
299.000000	4.196439
300.000000	4.197594
301.000000	4.198116
302.000000	4.193894
303.000000	4.192028
304.000000	4.190708
305.000000	4.191812
306.000000	4.190515
307.000000	4.220058
308.000000	4.249148
309.000000	4.277082
310.000000	4.306618
311.000000	4.334876
312.000000	4.397261
313.000000	4.457896
314.000000	4.521309
315.000000	4.583951
316.000000	4.649840
317.000000	4.749712
318.000000	4.883642
319.000000	5.020611
320.000000	5.142557
321.000000	5.249380
322.000000	5.325033
323.000000	5.381869
324.000000	5.435173
325.000000	5.493069
326.000000	5.548425
327.000000	5.534876
328.000000	5.483084
329.000000	5.419581
330.000000	5.379997
331.000000	5.354676
332.000000	5.336653
333.000000	5.348689
334.000000	5.342509
335.000000	5.322822
336.000000	5.312629
337.000000	5.292759
338.000000	5.279967
339.000000	5.286779
340.000000	5.280740
341.000000	5.279729
342.000000	5.295568
343.000000	5.295620
344.000000	5.316259
345.000000	5.349770
346.000000	5.372708
347.000000	5.412379
348.000000	5.454593
349.000000	5.477249
350.000000	5.505410
351.000000	5.523892
352.000000	5.518319
353.000000	5.553108
354.000000	5.583156
355.000000	5.613797
356.000000	5.643856
357.000000	5.672300
358.000000	5.692903
359.000000	5.750454
360.000000	5.805424
361.000000	5.861507
362.000000	5.920468
363.000000	5.947093
364.000000	5.976522
365.000000	6.034724
366.000000	6.093026
367.000000	6.147179
368.000000	6.199079
369.000000	6.220257
370.000000	6.237163
371.000000	6.295692
372.000000	6.347768
373.000000	6.392417
374.000000	6.439508
375.000000	6.455403
376.000000	6.479134
377.000000	6.505119
378.000000	6.533599
379.000000	6.566505
380.000000	6.602280
381.000000	6.601785
382.000000	6.605400
383.000000	6.613693
384.000000	6.618937
385.000000	6.622423
386.000000	6.619876
387.000000	6.651221
388.000000	6.682356
389.000000	6.713628
390.000000	6.745350
391.000000	6.777187
392.000000	6.808363
393.000000	6.839465
394.000000	6.870742
395.000000	6.902175
396.000000	6.934042
397.000000	6.933080
398.000000	6.932218
399.000000	6.931826
400.000000	6.931562
401.000000	6.931079
402.000000	6.962996
403.000000	6.995073
404.000000	7.027283
405.000000	7.059255
406.000000	7.090704
407.000000	7.122443
408.000000	7.154313
409.000000	7.186046
410.000000	7.217416
411.000000	7.281507
412.000000	7.313641
413.000000	7.345616
414.000000	7.377230
415.000000	7.409069
416.000000	7.441056
417.000000	7.472748
418.000000	7.504318
419.000000	7.536012
420.000000	7.600223
421.000000	7.632068
422.000000	7.663680
423.000000	7.695264
424.000000	7.727414
425.000000	7.759465
426.000000	7.791274
427.000000	7.823174
428.000000	7.855385
429.000000	7.887711
430.000000	7.887651
431.000000	7.887497
432.000000	7.887153
433.000000	7.886885
434.000000	7.886383
435.000000	7.885743
436.000000	7.885286
437.000000	7.885088
438.000000	7.884657
439.000000	7.884256
440.000000	7.916347
441.000000	7.948384
442.000000	7.980758
443.000000	8.012953
444.000000	8.045001
445.000000	8.077266
446.000000	8.109714
447.000000	8.141982
448.000000	8.174449
449.000000	8.206758
450.000000	8.206751
451.000000	8.207030
452.000000	8.206953
453.000000	8.206961
454.000000	8.207151
455.000000	8.207338
456.000000	8.207442
457.000000	8.207478
458.000000	8.207450
459.000000	8.207545
460.000000	8.207591
461.000000	8.207610
462.000000	8.207994
463.000000	8.208485
464.000000	8.208976
465.000000	8.209379
466.000000	8.209758
467.000000	8.210441
468.000000	8.211233
469.000000	8.211978
470.000000	8.212604
471.000000	8.213008
472.000000	8.213306
473.000000	8.213527
474.000000	8.213636
475.000000	8.213710
476.000000	8.213914
477.000000	8.213976
478.000000	8.213783
479.000000	8.213416
480.000000	8.212846
481.000000	8.212023
482.000000	8.210929
483.000000	8.209770
484.000000	8.208868
485.000000	8.208154
486.000000	8.207434
487.000000	8.206890
488.000000	8.206863
489.000000	8.207260
490.000000	8.208254
491.000000	8.209930
492.000000	8.212053
493.000000	8.214432
494.000000	8.216965
495.000000	8.219661
496.000000	8.222469
497.000000	8.225429
498.000000	8.228277
499.000000	8.231002
500.000000	8.233521
501.000000	8.236005
502.000000	8.238561
503.000000	8.241270
504.000000	8.243572
505.000000	8.245485
506.000000	8.247397
507.000000	8.249084
508.000000	8.250504
509.000000	8.251789
510.000000	8.253033
511.000000	8.253904
512.000000	8.254351
513.000000	8.254282
514.000000	8.286695
515.000000	8.319094
516.000000	8.351117
517.000000	8.382642
518.000000	8.414041
519.000000	8.445280
520.000000	8.476168
521.000000	8.506724
522.000000	8.537392
523.000000	8.568260
524.000000	8.566764
525.000000	8.565047
526.000000	8.563321
527.000000	8.561906
528.000000	8.560578
529.000000	8.559259
530.000000	8.558167
531.000000	8.557451
532.000000	8.556847
533.000000	8.556130
534.000000	8.555126
535.000000	8.554391
536.000000	8.553839
537.000000	8.553358
538.000000	8.552854
539.000000	8.552418
540.000000	8.551900
541.000000	8.551326
542.000000	8.550632
543.000000	8.550082
544.000000	8.549718
545.000000	8.549469
546.000000	8.549112
547.000000	8.548663
548.000000	8.548243
549.000000	8.547887
550.000000	8.547729
551.000000	8.579673
552.000000	8.611529
553.000000	8.643208
554.000000	8.674987
555.000000	8.706658
556.000000	8.738316
557.000000	8.769858
558.000000	8.801359
559.000000	8.832712
560.000000	8.862314
561.000000	8.859571
562.000000	8.856933
563.000000	8.854441
564.000000	8.851696
565.000000	8.848780
566.000000	8.845778
567.000000	8.843023
568.000000	8.840213
569.000000	8.837395
570.000000	8.836457
571.000000	8.835700
572.000000	8.834890
573.000000	8.833900
574.000000	8.832793
575.000000	8.832080
576.000000	8.831337
577.000000	8.830386
578.000000	8.829493
579.000000	8.828696
580.000000	8.827807
581.000000	8.827059
582.000000	8.826161
583.000000	8.825494
584.000000	8.825048
585.000000	8.824069
586.000000	8.823165
587.000000	8.822518
588.000000	8.822017
589.000000	8.821512
590.000000	8.820768
591.000000	8.819953
592.000000	8.819215
593.000000	8.818553
594.000000	8.817828
595.000000	8.817241
596.000000	8.817011
597.000000	8.816669
598.000000	8.816046
599.000000	8.815568
600.000000	8.815059
601.000000	8.814571
602.000000	8.814157
603.000000	8.813753
604.000000	8.813577
605.000000	8.813447
606.000000	8.813121
607.000000	8.812408
608.000000	8.812024
609.000000	8.811593
610.000000	8.811575
611.000000	8.811529
612.000000	8.811120
613.000000	8.810641
614.000000	8.810141
615.000000	8.809740
616.000000	8.809471
617.000000	8.809546
618.000000	8.809610
619.000000	8.809386
620.000000	8.808948
621.000000	8.808350
622.000000	8.808413
623.000000	8.808257
624.000000	8.808166
625.000000	8.807866
626.000000	8.807508
627.000000	8.807523
628.000000	8.807333
629.000000	8.807330
630.000000	8.807518
631.000000	8.807925
632.000000	8.807943
633.000000	8.808154
634.000000	8.807983
635.000000	8.808191
636.000000	8.808551
637.000000	8.808465
638.000000	8.808461
639.000000	8.808495
640.000000	8.808651
641.000000	8.808671
642.000000	8.808745
643.000000	8.808816
644.000000	8.809289
645.000000	8.809636
646.000000	8.809863
647.000000	8.810318
648.000000	8.811165
649.000000	8.811837
650.000000	8.812273
651.000000	8.812805
652.000000	8.813652
653.000000	8.814590
654.000000	8.815407
655.000000	8.816315
656.000000	8.817216
657.000000	8.818231
658.000000	8.818940
659.000000	8.819711
660.000000	8.820639
661.000000	8.821615
662.000000	8.822495
663.000000	8.823244
664.000000	8.824176
665.000000	8.825152
666.000000	8.826508
667.000000	8.827423
668.000000	8.828356
669.000000	8.829653
670.000000	8.831003
671.000000	8.832616
672.000000	8.834019
673.000000	8.835363
674.000000	8.836941
675.000000	8.838327
676.000000	8.839541
677.000000	8.841123
678.000000	8.842698
679.000000	8.876694
680.000000	8.910644
681.000000	8.944453
682.000000	8.978489
683.000000	9.013375
684.000000	9.047763
685.000000	9.082425
686.000000	9.116810
687.000000	9.151326
688.000000	9.186422
689.000000	9.188852
690.000000	9.191050
691.000000	9.193609
692.000000	9.196523
693.000000	9.198746
694.000000	9.200925
695.000000	9.203549
696.000000	9.206771
697.000000	9.209953
698.000000	9.212419
699.000000	9.215445
700.000000	9.219062
701.000000	9.221889
702.000000	9.224237
703.000000	9.227269
704.000000	9.231120
705.000000	9.234795
706.000000	9.237707
707.000000	9.240631
708.000000	9.244425
709.000000	9.248243
710.000000	9.251791
711.000000	9.255809
712.000000	9.260375
713.000000	9.264613
714.000000	9.268416
715.000000	9.272400
716.000000	9.277170
717.000000	9.282052
718.000000	9.286559
719.000000	9.291145
720.000000	9.295868
721.000000	9.300781
722.000000	9.305906
723.000000	9.311445
724.000000	9.317189
725.000000	9.322537
726.000000	9.327963
727.000000	9.333658
728.000000	9.339142
729.000000	9.344601
730.000000	9.350799
731.000000	9.357132
732.000000	9.362977
733.000000	9.368737
734.000000	9.374635
735.000000	9.381205
736.000000	9.387531
737.000000	9.393811
738.000000	9.400809
739.000000	9.407837
740.000000	9.414030
741.000000	9.420277
742.000000	9.427846
743.000000	9.435963
744.000000	9.443462
745.000000	9.450878
746.000000	9.491235
747.000000	9.531215
748.000000	9.571498
749.000000	9.612437
750.000000	9.653491
751.000000	9.694536
752.000000	9.734843
753.000000	9.774897
754.000000	9.815921
755.000000	9.857178
756.000000	9.865810
757.000000	9.874805
758.000000	9.883256
759.000000	9.891986
760.000000	9.901556
761.000000	9.910973
762.000000	9.920172
763.000000	9.929817
764.000000	9.939286
765.000000	9.948745
766.000000	9.959015
767.000000	9.969547
768.000000	9.979159
769.000000	9.988582
770.000000	9.998816
771.000000	10.009303
772.000000	10.020485
773.000000	10.032035
774.000000	10.043650
775.000000	10.055178
776.000000	10.065857
777.000000	10.076724
778.000000	10.089263
779.000000	10.101570
780.000000	10.112529
781.000000	10.123943
782.000000	10.135477
783.000000	10.148200
784.000000	10.160659
785.000000	10.172753
786.000000	10.185997
787.000000	10.198453
788.000000	10.211539
789.000000	10.225822
790.000000	10.239746
791.000000	10.286399
792.000000	10.332310
793.000000	10.377223
794.000000	10.423026
795.000000	10.468086
796.000000	10.513877
797.000000	10.561705
798.000000	10.608147
799.000000	10.654485
800.000000	10.701942
801.000000	10.716737
802.000000	10.732828
803.000000	10.748631
804.000000	10.763039
805.000000	10.778763
806.000000	10.795311
807.000000	10.811291
808.000000	10.828019
809.000000	10.843477
810.000000	10.860023
811.000000	10.876268
812.000000	10.891966
813.000000	10.908504
814.000000	10.925797
815.000000	10.941608
816.000000	10.957134
817.000000	10.970721
818.000000	10.982991
819.000000	10.999833
820.000000	11.014406
821.000000	11.031308
822.000000	11.048290
823.000000	11.062637
824.000000	11.079158
825.000000	11.097261
826.000000	11.111017
827.000000	11.126496
828.000000	11.145238
829.000000	11.156134
830.000000	11.171404
831.000000	11.184186
832.000000	11.197257
833.000000	11.213670
834.000000	11.226767
835.000000	11.236036
836.000000	11.248674
837.000000	11.258985
838.000000	11.262881
839.000000	11.278483
840.000000	11.288437
841.000000	11.297608
842.000000	11.311577
843.000000	11.315752
844.000000	11.317612
845.000000	11.328158
846.000000	11.340935
847.000000	11.349896
848.000000	11.356899
849.000000	11.358555
850.000000	11.369033
851.000000	11.369422
852.000000	11.359186
853.000000	11.353990
854.000000	11.344557
855.000000	11.342534
856.000000	11.333001
857.000000	11.372427
858.000000	11.728947
859.000000	11.791789
860.000000	11.849737
861.000000	11.944128
862.000000	12.019960
863.000000	12.099995
864.000000	12.189750
865.000000	12.268030
866.000000	12.351726
867.000000	12.369060
868.000000	12.076325
869.000000	12.074983
870.000000	12.048800
871.000000	11.997845
872.000000	11.971345
873.000000	11.944450
874.000000	11.916123
875.000000	11.889003
876.000000	11.861890
877.000000	11.858840
878.000000	11.855590
879.000000	11.852170
880.000000	11.849307
881.000000	11.821777
882.000000	11.794825
883.000000	11.767570
884.000000	11.765977
885.000000	11.764053
886.000000	11.736282
887.000000	11.733450
888.000000	11.731835
889.000000	11.706568
890.000000	11.703755
891.000000	11.726862
892.000000	11.724997
893.000000	11.722843
894.000000	11.696588
895.000000	11.669158
896.000000	11.668032
897.000000	11.642038
898.000000	11.615078
899.000000	11.613545
900.000000	11.613278
901.000000	11.611548
902.000000	11.635265
903.000000	11.659047
904.000000	11.657872
905.000000	11.657077
906.000000	11.657065
907.000000	11.657095
908.000000	11.657177
909.000000	11.657108
910.000000	11.656500
911.000000	11.657262
912.000000	11.656900
913.000000	11.658202
914.000000	11.683852
915.000000	11.710522
916.000000	11.735297
917.000000	11.736470
918.000000	11.762818
919.000000	11.788273
920.000000	11.814085
921.000000	11.839202
922.000000	11.865280
923.000000	11.865425
924.000000	11.891225
925.000000	11.891495
926.000000	11.891445
927.000000	11.915605
928.000000	11.915185
929.000000	11.912828
930.000000	11.911388
931.000000	11.910363
932.000000	11.908590
933.000000	11.931850
934.000000	11.930722
935.000000	11.953275
936.000000	11.978222
937.000000	12.002785
938.000000	12.026550
939.000000	12.051752
940.000000	12.075587
941.000000	12.099095
942.000000	12.123610
943.000000	12.148325
944.000000	12.171658
945.000000	12.196160
946.000000	12.219173
947.000000	12.242585
948.000000	12.266195
949.000000	12.289568
950.000000	12.312912
951.000000	12.312183
952.000000	12.336085
953.000000	12.334145
954.000000	12.357733
955.000000	12.380420
956.000000	12.378922
957.000000	12.376822
958.000000	12.374648
959.000000	12.372947
960.000000	12.371317
961.000000	12.394130
962.000000	12.390860
963.000000	12.413260
964.000000	12.410977
965.000000	12.409758
966.000000	12.432417
967.000000	12.454997
968.000000	12.477692
969.000000	12.500758
970.000000	12.523670
971.000000	12.546130
972.000000	12.569095
973.000000	12.592398
974.000000	12.614140
975.000000	12.635053
976.000000	12.656855
977.000000	12.679153
978.000000	12.700920
979.000000	12.722812
980.000000	12.744530
981.000000	12.767012
982.000000	12.789578
983.000000	12.811802
984.000000	12.834117
985.000000	12.856070
986.000000	12.877788
987.000000	12.899798
988.000000	12.922197
989.000000	12.944292
990.000000	12.966630
991.000000	12.988317
992.000000	13.010302
993.000000	13.032370
994.000000	13.055017
995.000000	13.077740
996.000000	13.099255
997.000000	13.120107
998.000000	13.141342
999.000000	13.162347
1000.000000	13.183362
1001.000000	13.204327
1002.000000	13.225658
1003.000000	13.246675
1004.000000	13.267040
1005.000000	13.287598
1006.000000	13.309070
1007.000000	13.330883
1008.000000	13.352263
1009.000000	13.373965
1010.000000	13.396175
1011.000000	13.418482
1012.000000	13.439562
1013.000000	13.460297
1014.000000	13.481100
1015.000000	13.502508
1016.000000	13.523155
1017.000000	13.543285
1018.000000	13.563830
1019.000000	13.583835
1020.000000	13.604280
1021.000000	13.625540
1022.000000	13.646627
1023.000000	13.667440
1024.000000	13.688585
1025.000000	13.709848
1026.000000	13.731670
1027.000000	13.753110
1028.000000	13.774023
1029.000000	13.795517
1030.000000	13.816622
1031.000000	13.836962
1032.000000	13.857942
1033.000000	13.878942
1034.000000	13.899865
1035.000000	13.920385
1036.000000	13.941108
1037.000000	13.962463
1038.000000	13.983335
1039.000000	14.003960
1040.000000	14.024645
1041.000000	14.045180
1042.000000	14.065498
1043.000000	14.085650
1044.000000	14.106182
1045.000000	14.127148
1046.000000	14.147905
1047.000000	14.167687
1048.000000	14.187832
1049.000000	14.208192
1050.000000	14.228407
1051.000000	14.249107
1052.000000	14.269297
1053.000000	14.289392
1054.000000	14.309637
1055.000000	14.329672
1056.000000	14.349345
1057.000000	14.369655
1058.000000	14.390630
1059.000000	14.411050
1060.000000	14.431020
1061.000000	14.449885
1062.000000	14.469238
1063.000000	14.489752
1064.000000	14.509848
1065.000000	14.529185
1066.000000	14.548723
1067.000000	14.568185
1068.000000	14.587293
1069.000000	14.606808
1070.000000	14.626245
1071.000000	14.646357
1072.000000	14.666673
1073.000000	14.686357
1074.000000	14.705795
1075.000000	14.725942
1076.000000	14.746182
1077.000000	14.766325
1078.000000	14.786427
1079.000000	14.806575
1080.000000	14.826798
1081.000000	14.846467
1082.000000	14.866505
1083.000000	14.886458
1084.000000	14.905573
1085.000000	14.923700
1086.000000	14.941895
1087.000000	14.960182
1088.000000	14.978390
1089.000000	14.996525
1090.000000	15.014077
1091.000000	15.031905
1092.000000	15.049240
1093.000000	15.066250
1094.000000	15.084195
1095.000000	15.102887
1096.000000	15.120110
1097.000000	15.137755
1098.000000	15.155950
1099.000000	15.173805
1100.000000	15.191703
1101.000000	15.208980
1102.000000	15.225575
1103.000000	15.242555
1104.000000	15.259127
1105.000000	15.276270
1106.000000	15.294510
1107.000000	15.312285
1108.000000	15.328977
1109.000000	15.344985
1110.000000	15.361180
1111.000000	15.377015
1112.000000	15.392853
1113.000000	15.408225
1114.000000	15.423780
1115.000000	15.437935
1116.000000	15.452018
1117.000000	15.466302
1118.000000	15.479688
1119.000000	15.493030
1120.000000	15.505937
1121.000000	15.520247
1122.000000	15.534838
1123.000000	15.549835
1124.000000	15.563952
1125.000000	15.578027
1126.000000	15.590863
1127.000000	15.602880
1128.000000	15.615920
1129.000000	15.628737
1130.000000	15.641190
1131.000000	15.651035
1132.000000	15.659210
1133.000000	15.666970
1134.000000	15.676433
1135.000000	15.687448
1136.000000	15.698718
1137.000000	15.708210
1138.000000	15.716560
1139.000000	15.724958
1140.000000	15.732260
1141.000000	15.741152
1142.000000	15.750620
1143.000000	15.759935
1144.000000	15.766510
1145.000000	15.772465
1146.000000	15.778685
1147.000000	15.786900
1148.000000	15.795135
1149.000000	15.803685
1150.000000	15.813198
1151.000000	15.821815
1152.000000	15.832810
1153.000000	15.841960
1154.000000	15.851977
1155.000000	15.860617
1156.000000	15.868695
1157.000000	15.874750
1158.000000	15.880833
1159.000000	15.886717
1160.000000	15.890905
1161.000000	15.895500
1162.000000	15.896725
1163.000000	15.898203
1164.000000	15.898852
1165.000000	15.897920
1166.000000	15.896995
1167.000000	15.896630
1168.000000	15.895143
1169.000000	15.893187
1170.000000	15.892948
1171.000000	15.891585
1172.000000	15.891410
1173.000000	15.892237
1174.000000	15.893038
1175.000000	15.895177
1176.000000	15.897628
1177.000000	15.900993
1178.000000	15.905568
1179.000000	15.910032
1180.000000	15.915112
1181.000000	15.920400
1182.000000	15.927370
1183.000000	15.934738
1184.000000	15.942103
1185.000000	15.949705
1186.000000	15.957775
1187.000000	15.966250
1188.000000	15.974183
1189.000000	15.982835
1190.000000	15.990248
1191.000000	15.999758
1192.000000	16.008700
1193.000000	16.017437
1194.000000	16.027560
1195.000000	16.038320
1196.000000	16.049482
1197.000000	16.061410
1198.000000	16.074777
1199.000000	16.088280
1200.000000	16.102737
1201.000000	16.117147
1202.000000	16.130563
1203.000000	16.144745
1204.000000	16.159265
1205.000000	16.173783
1206.000000	16.188133
1207.000000	16.202040
1208.000000	16.215477
1209.000000	16.229025
1210.000000	16.242860
1211.000000	16.256093
1212.000000	16.270927
1213.000000	16.285428
1214.000000	16.299220
1215.000000	16.312730
1216.000000	16.325858
1217.000000	16.338627
1218.000000	16.351945
1219.000000	16.365265
1220.000000	16.379390
1221.000000	16.392623
1222.000000	16.403923
1223.000000	16.415415
1224.000000	16.427275
1225.000000	16.438517
1226.000000	16.450072
1227.000000	16.460925
1228.000000	16.471085
1229.000000	16.480775
1230.000000	16.488932
1231.000000	16.497687
1232.000000	16.506647
1233.000000	16.514938
1234.000000	16.523077
1235.000000	16.531435
1236.000000	16.538898
1237.000000	16.546655
1238.000000	16.554427
1239.000000	16.562703
1240.000000	16.570850
1241.000000	16.579010
1242.000000	16.587440
1243.000000	16.595885
1244.000000	16.604183
1245.000000	16.613655
1246.000000	16.624170
1247.000000	16.635580
1248.000000	16.647430
1249.000000	16.659000
1250.000000	16.670960
1251.000000	16.682813
1252.000000	16.695550
1253.000000	16.709053
1254.000000	16.722535
1255.000000	16.734795
1256.000000	16.747402
1257.000000	16.759240
1258.000000	16.771055
1259.000000	16.783088
1260.000000	16.795117
1261.000000	16.807080
1262.000000	16.818425
1263.000000	16.828880
1264.000000	16.839270
1265.000000	16.850353
1266.000000	16.860235
1267.000000	16.870205
1268.000000	16.879675
1269.000000	16.888440
1270.000000	16.896688
1271.000000	16.904790
1272.000000	16.913030
1273.000000	16.920552
1274.000000	16.927542
1275.000000	16.933388
1276.000000	16.939280
1277.000000	16.945193
1278.000000	16.951218
1279.000000	16.957275
1280.000000	16.963765
1281.000000	16.970845
1282.000000	16.977375
1283.000000	16.984268
1284.000000	16.991900
1285.000000	17.000212
1286.000000	17.009500
1287.000000	17.019552
1288.000000	17.029187
1289.000000	17.038563
1290.000000	17.048395
1291.000000	17.058075
1292.000000	17.066872
1293.000000	17.076320
1294.000000	17.086520
1295.000000	17.096460
1296.000000	17.105548
1297.000000	17.113555
1298.000000	17.121662
1299.000000	17.130617
1300.000000	17.139468
1301.000000	17.147355
1302.000000	17.155865
1303.000000	17.163910
1304.000000	17.171200
1305.000000	17.178998
1306.000000	17.186118
1307.000000	17.192638
1308.000000	17.198682
1309.000000	17.203488
1310.000000	17.208265
1311.000000	17.212935
1312.000000	17.216810
1313.000000	17.220100
1314.000000	17.222410
1315.000000	17.223690
1316.000000	17.224222
1317.000000	17.224220
1318.000000	17.224377
1319.000000	17.224557
1320.000000	17.223492
1321.000000	17.222085
1322.000000	17.220667
1323.000000	17.218863
1324.000000	17.217047
1325.000000	17.214085
1326.000000	17.211395
1327.000000	17.209222
1328.000000	17.206198
1329.000000	17.202135
1330.000000	17.197635
1331.000000	17.192647
1332.000000	17.187625
1333.000000	17.182292
1334.000000	17.175830
1335.000000	17.170385
1336.000000	17.164907
1337.000000	17.157428
1338.000000	17.149673
1339.000000	17.142100
1340.000000	17.133415
1341.000000	17.124582
1342.000000	17.114135
1343.000000	17.102358
1344.000000	17.089655
1345.000000	17.075080
1346.000000	17.060143
1347.000000	17.045342
1348.000000	17.029632
1349.000000	17.011950
1350.000000	16.993595
1351.000000	16.974190
1352.000000	16.952472
1353.000000	16.931295
1354.000000	16.913882
1355.000000	16.900097
1356.000000	16.884442
1357.000000	16.867292
1358.000000	16.849765
1359.000000	16.805370
1360.000000	16.764740
1361.000000	16.732300
1362.000000	16.704867
1363.000000	16.674995
1364.000000	16.642050
1365.000000	16.606507
1366.000000	16.568752
1367.000000	16.532818
1368.000000	16.497215
1369.000000	16.485617
1370.000000	16.468248
1371.000000	16.416410
1372.000000	16.357468
1373.000000	16.292057
1374.000000	16.219555
1375.000000	16.139560
1376.000000	16.053963
1377.000000	15.959467
1378.000000	15.855505
1379.000000	15.722205
1380.000000	15.587975
1381.000000	15.483533
1382.000000	15.386427
1383.000000	15.301388
1384.000000	15.221120
1385.000000	15.146420
1386.000000	15.079937
1387.000000	15.025730
1388.000000	14.986118
1389.000000	14.979808
1390.000000	14.974430
1391.000000	14.969182
1392.000000	14.965135
1393.000000	14.957895
1394.000000	14.953977
1395.000000	14.961837
1396.000000	14.973675
1397.000000	14.977533
1398.000000	14.971773
1399.000000	14.969920
1400.000000	14.980212
1401.000000	14.986975
1402.000000	14.983000
1403.000000	14.973755
1404.000000	14.965455
1405.000000	14.971187
1406.000000	14.972165
1407.000000	14.975705
1408.000000	14.983610
1409.000000	14.986763
1410.000000	14.977350
1411.000000	14.963290
1412.000000	14.952037
1413.000000	14.945285
1414.000000	14.938775
1415.000000	14.904115
1416.000000	14.865912
1417.000000	14.827682
1418.000000	14.791835
1419.000000	14.755705
1420.000000	14.719653
1421.000000	14.684828
1422.000000	14.653792
1423.000000	14.622732
1424.000000	14.589153
1425.000000	14.556332
1426.000000	14.527158
1427.000000	14.499275
1428.000000	14.469632
1429.000000	14.439690
1430.000000	14.411145
1431.000000	14.387525
1432.000000	14.339120
1433.000000	14.315793
1434.000000	14.267827
1435.000000	14.221613
1436.000000	14.175375
1437.000000	14.130758
1438.000000	14.086740
1439.000000	14.044145
1440.000000	14.003145
1441.000000	13.961170
1442.000000	13.944858
1443.000000	13.903730
1444.000000	13.888417
1445.000000	13.875665
1446.000000	13.865052
1447.000000	13.850483
1448.000000	13.834220
1449.000000	13.817670
1450.000000	13.804897
1451.000000	13.792813
1452.000000	13.780080
1453.000000	13.767833
1454.000000	13.754428
1455.000000	13.739227
1456.000000	13.722662
1457.000000	13.709785
1458.000000	13.696760
1459.000000	13.684640
1460.000000	13.669272
1461.000000	13.653092
1462.000000	13.637683
1463.000000	13.621870
1464.000000	13.605490
1465.000000	13.589808
1466.000000	13.575402
1467.000000	13.559820
1468.000000	13.544778
1469.000000	13.529150
1470.000000	13.514165
1471.000000	13.500640
1472.000000	13.486815
1473.000000	13.473592
1474.000000	13.459388
1475.000000	13.445645
1476.000000	13.431940
1477.000000	13.419525
1478.000000	13.408777
1479.000000	13.398112
1480.000000	13.387100
1481.000000	13.375905
1482.000000	13.364425
1483.000000	13.353768
1484.000000	13.345247
1485.000000	13.337875
1486.000000	13.330922
1487.000000	13.323863
1488.000000	13.316360
1489.000000	13.309860
1490.000000	13.303355
1491.000000	13.297170
1492.000000	13.292552
1493.000000	13.288275
1494.000000	13.284690
1495.000000	13.281578
1496.000000	13.278948
1497.000000	13.277693
1498.000000	13.277113
1499.000000	13.277665
1500.000000	13.280363
1501.000000	13.283353
1502.000000	13.286515
1503.000000	13.291833
1504.000000	13.299660
1505.000000	13.307935
1506.000000	13.317290
1507.000000	13.328112
1508.000000	13.340445
1509.000000	13.353525
1510.000000	13.367130
1511.000000	13.381977
1512.000000	13.397915
1513.000000	13.412657
1514.000000	13.426430
1515.000000	13.440560
1516.000000	13.455375
1517.000000	13.470290
1518.000000	13.485080
1519.000000	13.499507
1520.000000	13.514288
1521.000000	13.528598
1522.000000	13.542990
1523.000000	13.558080
1524.000000	13.573415
1525.000000	13.588410
1526.000000	13.602670
1527.000000	13.615668
1528.000000	13.628335
1529.000000	13.640985
1530.000000	13.653185
1531.000000	13.665715
1532.000000	13.677767
1533.000000	13.688937
1534.000000	13.700127
1535.000000	13.710952
1536.000000	13.721677
1537.000000	13.732195
1538.000000	13.742577
1539.000000	13.752425
1540.000000	13.761992
1541.000000	13.771000
1542.000000	13.779153
1543.000000	13.787008
1544.000000	13.794000
1545.000000	13.801218
1546.000000	13.808663
1547.000000	13.816258
1548.000000	13.824655
1549.000000	13.833860
1550.000000	13.868362
1551.000000	13.902675
1552.000000	13.913655
1553.000000	13.925875
1554.000000	13.937895
1555.000000	13.949367
1556.000000	13.984995
1557.000000	14.020437
1558.000000	14.029253
1559.000000	14.037345
1560.000000	14.018940
1561.000000	13.999063
1562.000000	14.002552
1563.000000	14.004912
1564.000000	14.007012
1565.000000	14.007915
1566.000000	13.982767
1567.000000	13.956525
1568.000000	13.955055
1569.000000	13.952830
1570.000000	13.949858
1571.000000	13.947365
1572.000000	13.944723
1573.000000	13.941228
1574.000000	13.937442
1575.000000	13.934983
1576.000000	13.933578
1577.000000	13.933007
1578.000000	13.932870
1579.000000	13.932933
1580.000000	13.934220
1581.000000	13.961540
1582.000000	13.989955
1583.000000	13.994360
1584.000000	14.025000
1585.000000	14.056130
1586.000000	14.062125
1587.000000	14.068140
1588.000000	14.074988
1589.000000	14.082418
1590.000000	14.114995
1591.000000	14.097717
1592.000000	14.080238
1593.000000	14.087795
1594.000000	14.070560
1595.000000	14.078245
1596.000000	14.111763
1597.000000	14.146173
1598.000000	14.180808
1599.000000	14.215530
1600.000000	14.225510
1601.000000	14.261582
1602.000000	14.297918
1603.000000	14.334777
1604.000000	14.371865
1605.000000	14.383910
1606.000000	14.395920
1607.000000	14.407563
1608.000000	14.418905
1609.000000	14.431075
1610.000000	14.442497
1611.000000	14.452345
1612.000000	14.462475
1613.000000	14.471050
1614.000000	14.479097
1615.000000	14.487028
1616.000000	14.493790
1617.000000	14.500512
1618.000000	14.506110
1619.000000	14.510960
1620.000000	14.515818
1621.000000	14.520230
1622.000000	14.524565
1623.000000	14.504460
1624.000000	14.508835
1625.000000	14.488252
1626.000000	14.467218
1627.000000	14.446135
1628.000000	14.426215
1629.000000	14.406575
1630.000000	14.387432
1631.000000	14.368163
1632.000000	14.348333
1633.000000	14.354412
1634.000000	14.334650
1635.000000	14.338818
1636.000000	14.343872
1637.000000	14.349270
1638.000000	14.353175
1639.000000	14.355658
1640.000000	14.357538
1641.000000	14.359255
1642.000000	14.360727
1643.000000	14.361578
1644.000000	14.363190
1645.000000	14.363570
1646.000000	14.338712
1647.000000	14.312985
1648.000000	14.287382
1649.000000	14.262235
1650.000000	14.237030
1651.000000	14.211215
1652.000000	14.184300
1653.000000	14.155250
1654.000000	14.125415
1655.000000	14.096037
1656.000000	14.089277
1657.000000	14.080965
1658.000000	14.070255
1659.000000	14.057475
1660.000000	14.042845
1661.000000	14.026233
1662.000000	14.007700
1663.000000	13.989128
1664.000000	13.967655
1665.000000	13.944472
1666.000000	13.920595
1667.000000	13.895240
1668.000000	13.866390
1669.000000	13.836457
1670.000000	13.805510
1671.000000	13.773458
1672.000000	13.741175
1673.000000	13.707653
1674.000000	13.674817
1675.000000	13.642208
1676.000000	13.610182
1677.000000	13.578008
1678.000000	13.548660
1679.000000	13.518725
1680.000000	13.489660
1681.000000	13.459775
1682.000000	13.430185
1683.000000	13.424857
1684.000000	13.394938
1685.000000	13.389157
1686.000000	13.384650
1687.000000	13.383307
1688.000000	13.384690
1689.000000	13.390638
1690.000000	13.400240
1691.000000	13.415637
1692.000000	13.436040
1693.000000	13.436890
1694.000000	13.466850
1695.000000	13.475883
1696.000000	13.487415
1697.000000	13.497848
1698.000000	13.509652
1699.000000	13.520605
1700.000000	13.528930
1701.000000	13.536167
1702.000000	13.540530
1703.000000	13.542487
1704.000000	13.542515
1705.000000	13.540580
1706.000000	13.534398
1707.000000	13.528625
1708.000000	13.518908
1709.000000	13.507515
1710.000000	13.493947
1711.000000	13.478262
1712.000000	13.459782
1713.000000	13.438140
1714.000000	13.412310
1715.000000	13.382560
1716.000000	13.353905
1717.000000	13.319965
1718.000000	13.285288
1719.000000	13.248122
1720.000000	13.210950
1721.000000	13.173635
1722.000000	13.137747
1723.000000	13.104847
1724.000000	13.051628
1725.000000	13.003958
1726.000000	12.958580
1727.000000	12.919310
1728.000000	12.884977
1729.000000	12.855292
1730.000000	12.829763
1731.000000	12.807875
1732.000000	12.788840
1733.000000	12.797522
1734.000000	12.832888
1735.000000	12.868767
1736.000000	12.906545
1737.000000	12.945280
1738.000000	12.984807
1739.000000	13.027055
1740.000000	13.070275
1741.000000	13.113830
1742.000000	13.158115
1743.000000	13.177375
1744.000000	13.196030
1745.000000	13.215520
1746.000000	13.234097
1747.000000	13.252767
1748.000000	13.270388
1749.000000	13.284635
1750.000000	13.298032
1751.000000	13.309432
1752.000000	13.320180
1753.000000	13.329103
1754.000000	13.336120
1755.000000	13.341683
1756.000000	13.345923
1757.000000	13.348370
1758.000000	13.350840
1759.000000	13.353850
1760.000000	13.355135
1761.000000	13.356745
1762.000000	13.357525
1763.000000	13.358883
1764.000000	13.361712
1765.000000	13.364745
1766.000000	13.369010
1767.000000	13.374658
1768.000000	13.380503
1769.000000	13.386833
1770.000000	13.395025
1771.000000	13.404320
1772.000000	13.413248
1773.000000	13.421940
1774.000000	13.431725
1775.000000	13.441892
1776.000000	13.452075
1777.000000	13.461832
1778.000000	13.471570
1779.000000	13.482028
1780.000000	13.492372
1781.000000	13.502017
1782.000000	13.512422
1783.000000	13.522633
1784.000000	13.530607
1785.000000	13.537755
1786.000000	13.543355
1787.000000	13.548312
1788.000000	13.552295
1789.000000	13.555405
1790.000000	13.557770
1791.000000	13.559990
1792.000000	13.561027
1793.000000	13.561872
1794.000000	13.563490
1795.000000	13.565142
1796.000000	13.567740
1797.000000	13.570255
1798.000000	13.571142
1799.000000	13.571617
1800.000000	13.574060
1801.000000	13.577765
1802.000000	13.582335
1803.000000	13.585902
1804.000000	13.588105
1805.000000	13.590217
1806.000000	13.593863
1807.000000	13.597880
1808.000000	13.601575
1809.000000	13.603517
1810.000000	13.604157
1811.000000	13.605935
1812.000000	13.607890
1813.000000	13.609518
1814.000000	13.611467
1815.000000	13.614295
1816.000000	13.613835
1817.000000	13.608622
1818.000000	13.601888
1819.000000	13.598802
1820.000000	13.602263
1821.000000	13.608867
1822.000000	13.613660
1823.000000	13.613170
1824.000000	13.607900
1825.000000	13.600460
1826.000000	13.595165
1827.000000	13.596093
1828.000000	13.601457
1829.000000	13.606058
1830.000000	13.606377
1831.000000	13.601862
1832.000000	13.595108
1833.000000	13.590055
1834.000000	13.587085
1835.000000	13.586900
1836.000000	13.590228
1837.000000	13.594987
1838.000000	13.598955
1839.000000	13.601645
1840.000000	13.605255
1841.000000	13.615815
1842.000000	13.632790
1843.000000	13.647930
1844.000000	13.654487
1845.000000	13.651590
1846.000000	13.647113
1847.000000	13.651442
1848.000000	13.666455
1849.000000	13.681672
1850.000000	13.685040
1851.000000	13.673118
1852.000000	13.656300
1853.000000	13.648032
1854.000000	13.653825
1855.000000	13.667783
1856.000000	13.674478
1857.000000	13.666303
1858.000000	13.649705
1859.000000	13.636533
1860.000000	13.632840
1861.000000	13.635830
1862.000000	13.636617
1863.000000	13.628233
1864.000000	13.609235
1865.000000	13.583480
1866.000000	13.556653
1867.000000	13.529900
1868.000000	13.498270
1869.000000	13.463420
1870.000000	13.431485
1871.000000	13.403037
1872.000000	13.379717
1873.000000	13.364437
1874.000000	13.355077
1875.000000	13.349838
1876.000000	13.346158
1877.000000	13.339923
1878.000000	13.329942
1879.000000	13.312232
1880.000000	13.280363
1881.000000	13.237045
1882.000000	13.186943
1883.000000	13.131225
1884.000000	13.071347
1885.000000	13.007133
1886.000000	12.938475
1887.000000	12.864032
1888.000000	12.758517
1889.000000	12.651030
1890.000000	12.545548
1891.000000	12.442380
1892.000000	12.337278
1893.000000	12.226965
1894.000000	12.110470
1895.000000	11.986628
1896.000000	11.855742
1897.000000	11.724605
1898.000000	11.622640
1899.000000	11.523905
1900.000000	11.399635
1901.000000	11.271603
1902.000000	11.140840
1903.000000	11.010150
1904.000000	10.885737
1905.000000	10.771230
1906.000000	10.665918
1907.000000	10.564897
1908.000000	10.463570
1909.000000	10.358932
1910.000000	10.278440
1911.000000	10.202512
1912.000000	10.134483
1913.000000	10.050818
1914.000000	9.969843
1915.000000	9.888393
1916.000000	9.806755
1917.000000	9.726030
1918.000000	9.649027
1919.000000	9.580192
1920.000000	9.518350
1921.000000	9.461513
1922.000000	9.406555
1923.000000	9.375002
1924.000000	9.342707
1925.000000	9.312455
1926.000000	9.287697
1927.000000	9.268715
1928.000000	9.254885
1929.000000	9.242257
1930.000000	9.230990
1931.000000	9.219575
1932.000000	9.207182
1933.000000	9.195955
1934.000000	9.187655
1935.000000	9.182785
1936.000000	9.178418
1937.000000	9.175605
1938.000000	9.174040
1939.000000	9.174357
1940.000000	9.175155
1941.000000	9.177675
1942.000000	9.181620
1943.000000	9.188390
1944.000000	9.197438
1945.000000	9.207508
1946.000000	9.219053
1947.000000	9.230993
1948.000000	9.242017
1949.000000	9.251810
1950.000000	9.262623
1951.000000	9.274072
1952.000000	9.286413
1953.000000	9.299200
1954.000000	9.313363
1955.000000	9.328072
1956.000000	9.342485
1957.000000	9.357175
1958.000000	9.371390
1959.000000	9.386920
1960.000000	9.402275
1961.000000	9.417090
1962.000000	9.434107
1963.000000	9.450825
1964.000000	9.466530
1965.000000	9.480015
1966.000000	9.493073
1967.000000	9.506457
1968.000000	9.520655
1969.000000	9.534325
1970.000000	9.548827
1971.000000	9.563477
1972.000000	9.601133
1973.000000	9.638572
1974.000000	9.676692
1975.000000	9.715793
1976.000000	9.755788
1977.000000	9.794095
1978.000000	9.832645
1979.000000	9.872887
1980.000000	9.912212
1981.000000	9.952758
1982.000000	9.968560
1983.000000	9.984455
1984.000000	9.998980
1985.000000	10.013675
1986.000000	10.029523
1987.000000	10.046447
1988.000000	10.063672
1989.000000	10.078057
1990.000000	10.094368
1991.000000	10.109512
1992.000000	10.124453
1993.000000	10.138085
1994.000000	10.152938
1995.000000	10.167230
1996.000000	10.180415
1997.000000	10.192845
1998.000000	10.204740
1999.000000	10.216542
2000.000000	10.226100
2001.000000	10.235627
2002.000000	10.245035
2003.000000	10.279483
2004.000000	10.312803
2005.000000	10.345515
2006.000000	10.376822
2007.000000	10.407602
2008.000000	10.436550
2009.000000	10.464930
2010.000000	10.491900
2011.000000	10.517273
2012.000000	10.540703
2013.000000	10.538550
2014.000000	10.535000
2015.000000	10.530027
2016.000000	10.523893
2017.000000	10.516720
2018.000000	10.508745
2019.000000	10.499465
2020.000000	10.489295
2021.000000	10.477375
2022.000000	10.465320
2023.000000	10.451950
2024.000000	10.437095
2025.000000	10.421308
2026.000000	10.403850
2027.000000	10.384990
2028.000000	10.365823
2029.000000	10.345560
2030.000000	10.325477
2031.000000	10.304755
2032.000000	10.283280
2033.000000	10.260583
2034.000000	10.236740
2035.000000	10.212473
2036.000000	10.187410
2037.000000	10.161560
2038.000000	10.134783
2039.000000	10.107305
2040.000000	10.052823
2041.000000	9.997958
2042.000000	9.967645
2043.000000	9.937490
2044.000000	9.883205
2045.000000	9.828083
2046.000000	9.773677
2047.000000	9.719525
2048.000000	9.665955
2049.000000	9.639500
2050.000000	9.615512
2051.000000	9.593303
2052.000000	9.547920
2053.000000	9.505095
2054.000000	9.490518
2055.000000	9.479490
2056.000000	9.471438
2057.000000	9.466812
2058.000000	9.465615
2059.000000	9.441928
2060.000000	9.446365
2061.000000	9.454038
2062.000000	9.463485
2063.000000	9.499577
2064.000000	9.511785
2065.000000	9.525482
2066.000000	9.540443
2067.000000	9.556283
2068.000000	9.572655
2069.000000	9.589727
2070.000000	9.606620
2071.000000	9.623003
2072.000000	9.638585
2073.000000	9.628825
2074.000000	9.643490
2075.000000	9.656657
2076.000000	9.669035
2077.000000	9.680480
2078.000000	9.690880
2079.000000	9.699403
2080.000000	9.706118
2081.000000	9.711718
2082.000000	9.717100
2083.000000	9.720542
2084.000000	9.722315
2085.000000	9.723500
2086.000000	9.723300
2087.000000	9.721845
2088.000000	9.719230
2089.000000	9.715667
2090.000000	9.711118
2091.000000	9.705672
2092.000000	9.699815
2093.000000	9.693900
2094.000000	9.687918
2095.000000	9.681850
2096.000000	9.675732
2097.000000	9.694752
2098.000000	9.689063
2099.000000	9.683505
2100.000000	9.678318
2101.000000	9.673300
2102.000000	9.667805
2103.000000	9.662765
2104.000000	9.657770
2105.000000	9.652863
2106.000000	9.647983
2107.000000	9.618328
2108.000000	9.613677
2109.000000	9.609142
2110.000000	9.604505
2111.000000	9.599662
2112.000000	9.595130
2113.000000	9.589470
2114.000000	9.583353
2115.000000	9.576745
2116.000000	9.569862
2117.000000	9.562338
2118.000000	9.554245
2119.000000	9.545775
2120.000000	9.537218
2121.000000	9.528095
2122.000000	9.517990
2123.000000	9.508680
2124.000000	9.499262
2125.000000	9.489490
2126.000000	9.479370
2127.000000	9.468600
2128.000000	9.456755
2129.000000	9.419678
2130.000000	9.382120
2131.000000	9.344572
2132.000000	9.331680
2133.000000	9.317778
2134.000000	9.278900
2135.000000	9.239545
2136.000000	9.199117
2137.000000	9.157953
2138.000000	9.141725
2139.000000	9.124330
2140.000000	9.107387
2141.000000	9.114650
2142.000000	9.096462
2143.000000	9.078290
2144.000000	9.059287
2145.000000	9.040162
2146.000000	9.046345
2147.000000	9.027828
2148.000000	9.009545
2149.000000	9.016383
2150.000000	9.022343
2151.000000	9.003210
2152.000000	8.984840
2153.000000	8.966658
2154.000000	8.974540
2155.000000	8.957633
2156.000000	8.941418
2157.000000	8.925743
2158.000000	8.885770
2159.000000	8.847180
2160.000000	8.809522
2161.000000	8.772323
2162.000000	8.736068
2163.000000	8.700477
2164.000000	8.665120
2165.000000	8.655700
2166.000000	8.621860
2167.000000	8.614302
2168.000000	8.607083
2169.000000	8.600402
2170.000000	8.593467
2171.000000	8.587585
2172.000000	8.557480
2173.000000	8.527458
2174.000000	8.522277
2175.000000	8.492070
2176.000000	8.462235
2177.000000	8.432382
2178.000000	8.402830
2179.000000	8.371617
2180.000000	8.340723
2181.000000	8.310785
2182.000000	8.303930
2183.000000	8.296938
2184.000000	8.264215
2185.000000	8.256722
2186.000000	8.247240
2187.000000	8.211570
2188.000000	8.173435
2189.000000	8.134930
2190.000000	8.094735
2191.000000	8.051552
2192.000000	8.006945
2193.000000	7.960360
2194.000000	7.911668
2195.000000	7.835340
2196.000000	7.758890
2197.000000	7.704400
2198.000000	7.624750
2199.000000	7.543785
2200.000000	7.487357
2201.000000	7.406490
2202.000000	7.326315
2203.000000	7.246780
2204.000000	7.168573
2205.000000	7.117250
2206.000000	7.067047
2207.000000	6.996285
2208.000000	6.953687
2209.000000	6.913720
2210.000000	6.853607
2211.000000	6.821438
2212.000000	6.792465
2213.000000	6.767098
2214.000000	6.746300
2215.000000	6.728255
2216.000000	6.712495
2217.000000	6.724662
2218.000000	6.738372
2219.000000	6.754358
2220.000000	6.769895
2221.000000	6.786920
2222.000000	6.803725
2223.000000	6.820505
2224.000000	6.837115
2225.000000	6.854895
2226.000000	6.846940
2227.000000	6.862110
2228.000000	6.876965
2229.000000	6.890322
2230.000000	6.902825
2231.000000	6.913270
2232.000000	6.921893
2233.000000	6.930503
2234.000000	6.937145
2235.000000	6.965172
2236.000000	6.991433
2237.000000	6.991565
2238.000000	6.990473
2239.000000	6.988215
2240.000000	6.984847
2241.000000	6.979975
2242.000000	6.973663
2243.000000	6.965363
2244.000000	6.955265
2245.000000	6.919685
2246.000000	6.908120
2247.000000	6.895970
2248.000000	6.883188
2249.000000	6.868728
2250.000000	6.853085
2251.000000	6.837198
2252.000000	6.822830
2253.000000	6.807927
2254.000000	6.792602
2255.000000	6.802488
2256.000000	6.787665
2257.000000	6.772808
2258.000000	6.782212
2259.000000	6.769570
2260.000000	6.757143
2261.000000	6.746115
2262.000000	6.760808
2263.000000	6.775532
2264.000000	6.792355
2265.000000	6.785712
2266.000000	6.806257
2267.000000	6.827957
2268.000000	6.825843
2269.000000	6.849133
2270.000000	6.898920
2271.000000	6.948630
2272.000000	6.949348
2273.000000	6.952205
2274.000000	6.979472
2275.000000	7.007173
2276.000000	7.035405
2277.000000	7.062470
2278.000000	7.089912
2279.000000	7.117262
2280.000000	7.119290
2281.000000	7.121730
2282.000000	7.149330
2283.000000	7.201153
2284.000000	7.228202
2285.000000	7.253580
2286.000000	7.279475
2287.000000	7.281350
2288.000000	7.308155
2289.000000	7.334745
2290.000000	7.361465
2291.000000	7.388827
2292.000000	7.414988
2293.000000	7.415980
2294.000000	7.417843
2295.000000	7.420650
2296.000000	7.422585
2297.000000	7.449080
2298.000000	7.475490
2299.000000	7.502933
2300.000000	7.530963
2301.000000	7.532965
2302.000000	7.560953
2303.000000	7.590110
2304.000000	7.618850
2305.000000	7.648565
2306.000000	7.679235
2307.000000	7.710395
2308.000000	7.691475
2309.000000	7.672227
2310.000000	7.677977
2311.000000	7.709830
2312.000000	7.716690
2313.000000	7.723520
2314.000000	7.730720
2315.000000	7.737185
2316.000000	7.743240
2317.000000	7.749515
2318.000000	7.780423
2319.000000	7.835682
2320.000000	7.864923
2321.000000	7.868312
2322.000000	7.896287
2323.000000	7.922400
2324.000000	7.947850
2325.000000	7.973162
2326.000000	7.997980
2327.000000	7.996552
2328.000000	7.994680
2329.000000	7.992750
2330.000000	7.991180
2331.000000	8.014145
2332.000000	8.011885
2333.000000	8.010452
2334.000000	8.034285
2335.000000	8.057918
2336.000000	8.056280
2337.000000	8.081490
2338.000000	8.106893
2339.000000	8.132732
2340.000000	8.159200
2341.000000	8.185820
2342.000000	8.212867
2343.000000	8.215650
2344.000000	8.193547
2345.000000	8.170982
2346.000000	8.174038
2347.000000	8.177110
2348.000000	8.181743
2349.000000	8.162160
2350.000000	8.142620
2351.000000	8.147227
2352.000000	8.125813
2353.000000	8.153710
2354.000000	8.182087
2355.000000	8.211372
2356.000000	8.240740
2357.000000	8.269845
2358.000000	8.298053
2359.000000	8.324455
2360.000000	8.350620
2361.000000	8.353743
2362.000000	8.407515
2363.000000	8.435605
2364.000000	8.463385
2365.000000	8.491060
2366.000000	8.518103
2367.000000	8.519355
2368.000000	8.520390
2369.000000	8.547223
2370.000000	8.574243
2371.000000	8.600085
2372.000000	8.601215
2373.000000	8.602647
2374.000000	8.604195
2375.000000	8.580725
2376.000000	8.556785
2377.000000	8.583132
2378.000000	8.634845
2379.000000	8.661495
2380.000000	8.687772
2381.000000	8.713973
2382.000000	8.714707
2383.000000	8.715905
2384.000000	8.716778
2385.000000	8.766423
2386.000000	8.816092
2387.000000	8.840063
2388.000000	8.838720
2389.000000	8.836995
2390.000000	8.810425
2391.000000	8.784215
2392.000000	8.807525
2393.000000	8.829942
2394.000000	8.852222
2395.000000	8.849805
2396.000000	8.847105
2397.000000	8.819237
2398.000000	8.791050
2399.000000	8.762418
2400.000000	8.783230
2401.000000	8.803503
2402.000000	8.798748
2403.000000	8.793518
2404.000000	8.787632
2405.000000	8.781918
2406.000000	8.776020
2407.000000	8.794495
2408.000000	8.812707
2409.000000	8.856272
2410.000000	8.873932
2411.000000	8.890977
2412.000000	8.907465
2413.000000	8.924225
2414.000000	8.915830
2415.000000	8.907093
2416.000000	8.898270
2417.000000	8.888468
2418.000000	8.877225
2419.000000	8.815235
2420.000000	8.753165
2421.000000	8.715352
2422.000000	8.677755
2423.000000	8.638995
2424.000000	8.624172
2425.000000	8.633952
2426.000000	8.618188
2427.000000	8.627950
2428.000000	8.612490
2429.000000	8.620390
2430.000000	8.629080
2431.000000	8.637812
2432.000000	8.646610
2433.000000	8.654022
2434.000000	8.637670
2435.000000	8.620773
2436.000000	8.629495
2437.000000	8.613940
2438.000000	8.622685
2439.000000	8.631367
2440.000000	8.664312
2441.000000	8.647440
2442.000000	8.653845
2443.000000	8.637557
2444.000000	8.644958
2445.000000	8.602660
2446.000000	8.559810
2447.000000	8.542933
2448.000000	8.527255
2449.000000	8.537588
2450.000000	8.522037
2451.000000	8.533338
2452.000000	8.545343
2453.000000	8.632037
2454.000000	8.719910
2455.000000	8.807025
2456.000000	8.894810
2457.000000	8.955682
2458.000000	9.016735
2459.000000	9.053855
2460.000000	9.142323
2461.000000	9.204330
2462.000000	9.267580
2463.000000	9.307440
2464.000000	9.296012
2465.000000	9.362362
2466.000000	9.402883
2467.000000	9.469770
2468.000000	9.536535
2469.000000	9.605633
2470.000000	9.623100
2471.000000	9.717475
2472.000000	9.813227
2473.000000	9.880665
2474.000000	10.052950
2475.000000	10.173490
2476.000000	10.343955
2477.000000	10.493398
2478.000000	10.640072
2479.000000	10.785512
2480.000000	10.935258
2481.000000	11.083217
2482.000000	11.184912
2483.000000	11.309925
2484.000000	11.408685
2485.000000	11.486073
2486.000000	11.612478
2487.000000	11.711873
2488.000000	11.871068
2489.000000	11.981230
2490.000000	12.035560
2491.000000	12.068685
2492.000000	12.170042
2493.000000	12.252675
2494.000000	12.406227
2495.000000	12.640165
2496.000000	12.725832
2497.000000	12.866178
2498.000000	12.924353
2499.000000	13.106135
2500.000000	13.363043
2501.000000	17.357392
2502.000000	21.804210
2503.000000	26.049343
2504.000000	30.396952
2505.000000	35.086697
2506.000000	39.852485
2507.000000	44.287067
2508.000000	48.748455
2509.000000	53.234838
2510.000000	57.900000
2511.000000	59.100000
2512.000000	59.800000
2513.000000	60.400000
2514.000000	61.000000
2515.000000	61.100000
2516.000000	61.600000
2517.000000	62.100000
2518.000000	62.500000
2519.000000	63.100000
2520.000000	63.500000
2521.000000	63.500000
2522.000000	64.100000
2523.000000	64.800000
2524.000000	65.600000
2525.000000	66.200000
2526.000000	66.900000
2527.000000	67.900000
2528.000000	69.500000
2529.000000	70.500000
2530.000000	71.700000
2531.000000	73.100000
2532.000000	74.000000
2533.000000	75.000000
2534.000000	76.000000
2535.000000	76.800000
2536.000000	77.600000
2537.000000	78.600000
2538.000000	79.200000
2539.000000	79.800000
2540.000000	80.300000
2541.000000	80.500000
2542.000000	80.600000
2543.000000	81.000000
2544.000000	81.100000
2545.000000	81.600000
2546.000000	81.700000
2547.000000	82.200000
2548.000000	81.900000
2549.000000	81.900000
2550.000000	82.100000
2551.000000	82.600000
2552.000000	83.500000
2553.000000	84.600000
2554.000000	85.500000
2555.000000	87.100000
2556.000000	88.600000
2557.000000	89.300000
2558.000000	90.700000
2559.000000	91.900000
2560.000000	92.600000
2561.000000	93.500000
2562.000000	93.500000
2563.000000	92.900000
2564.000000	92.700000
2565.000000	91.900000
2566.000000	91.000000
2567.000000	90.100000
2568.000000	89.000000
2569.000000	88.500000
2570.000000	88.700000
2571.000000	88.500000
2572.000000	88.800000
2573.000000	89.400000
2574.000000	90.300000
2575.000000	91.400000
2576.000000	92.300000
2577.000000	93.500000
2578.000000	95.600000
2579.000000	97.100000
2580.000000	97.800000
2581.000000	98.600000
2582.000000	99.400000
2583.000000	100.100000
2584.000000	100.500000
2585.000000	100.800000
2586.000000	101.400000
2587.000000	101.600000
2588.000000	100.400000
2589.000000	99.300000
2590.000000	98.700000
2591.000000	97.900000
2592.000000	96.700000
2593.000000	95.700000
2594.000000	95.200000
2595.000000	94.900000
2596.000000	94.600000
2597.000000	94.800000
2598.000000	95.700000
2599.000000	96.100000
2600.000000	96.300000
2601.000000	96.900000
2602.000000	98.100000
2603.000000	99.600000
2604.000000	100.400000
2605.000000	100.500000
2606.000000	100.700000
2607.000000	101.300000
2608.000000	101.300000
2609.000000	101.200000
2610.000000	101.100000
2611.000000	100.700000
2612.000000	100.000000
2613.000000	98.800000
2614.000000	97.300000
2615.000000	96.600000
2616.000000	95.600000
2617.000000	93.800000
2618.000000	92.800000
2619.000000	93.100000
2620.000000	93.400000
2621.000000	93.500000
2622.000000	93.800000
2623.000000	94.000000
2624.000000	95.200000
2625.000000	96.200000
2626.000000	97.200000
2627.000000	98.600000
2628.000000	100.000000
2629.000000	101.000000
2630.000000	101.400000
2631.000000	102.300000
2632.000000	102.900000
2633.000000	103.000000
2634.000000	102.100000
2635.000000	101.100000
2636.000000	100.400000
2637.000000	99.100000
2638.000000	97.600000
2639.000000	96.100000
2640.000000	95.300000
2641.000000	94.300000
2642.000000	93.800000
2643.000000	94.600000
2644.000000	95.700000
2645.000000	97.100000
2646.000000	98.100000
2647.000000	99.100000
2648.000000	100.500000
2649.000000	101.200000
2650.000000	101.800000
2651.000000	102.500000
2652.000000	102.900000
2653.000000	102.300000
2654.000000	101.000000
2655.000000	100.000000
2656.000000	99.500000
2657.000000	98.600000
2658.000000	97.500000
2659.000000	96.500000
2660.000000	95.700000
2661.000000	95.200000
2662.000000	94.700000
2663.000000	95.100000
2664.000000	95.400000
2665.000000	95.300000
2666.000000	95.800000
2667.000000	96.700000
2668.000000	97.900000
2669.000000	99.000000
2670.000000	99.600000
2671.000000	100.200000
2672.000000	100.500000
2673.000000	100.300000
2674.000000	101.400000
2675.000000	101.700000
2676.000000	101.000000
2677.000000	100.200000
2678.000000	98.700000
2679.000000	97.800000
2680.000000	97.100000
2681.000000	96.100000
2682.000000	95.600000
2683.000000	95.100000
2684.000000	93.700000
2685.000000	93.000000
2686.000000	93.600000
2687.000000	94.600000
2688.000000	95.400000
2689.000000	97.000000
2690.000000	99.200000
2691.000000	100.300000
2692.000000	100.700000
2693.000000	101.100000
2694.000000	102.200000
2695.000000	102.800000
2696.000000	101.900000
2697.000000	101.500000
2698.000000	100.000000
2699.000000	98.000000
2700.000000	95.800000
2701.000000	95.500000
2702.000000	95.000000
2703.000000	95.800000
2704.000000	95.000000
2705.000000	93.900000
2706.000000	94.200000
2707.000000	94.800000
2708.000000	96.300000
2709.000000	97.400000
2710.000000	99.900000
2711.000000	100.600000
2712.000000	101.200000
2713.000000	100.700000
2714.000000	102.500000
2715.000000	104.000000
2716.000000	103.500000
2717.000000	103.300000
2718.000000	103.200000
2719.000000	102.400000
2720.000000	101.500000
2721.000000	99.800000
2722.000000	98.900000
2723.000000	98.300000
2724.000000	96.700000
2725.000000	96.100000
2726.000000	96.100000
2727.000000	95.700000
2728.000000	95.300000
2729.000000	96.300000
2730.000000	96.800000
2731.000000	97.900000
2732.000000	99.500000
2733.000000	99.700000
2734.000000	100.900000
2735.000000	100.500000
2736.000000	100.300000
2737.000000	101.100000
2738.000000	101.100000
2739.000000	100.500000
2740.000000	98.500000
2741.000000	98.200000
2742.000000	97.000000
2743.000000	96.400000
2744.000000	94.900000
2745.000000	95.800000
2746.000000	96.200000
2747.000000	95.200000
2748.000000	96.100000
2749.000000	96.800000
2750.000000	97.100000
2751.000000	98.300000
2752.000000	99.100000
2753.000000	101.400000
2754.000000	102.100000
2755.000000	102.500000
2756.000000	103.400000
2757.000000	103.800000
2758.000000	102.800000
2759.000000	101.700000
2760.000000	101.800000
2761.000000	99.400000
2762.000000	97.900000
2763.000000	95.300000
2764.000000	95.000000
2765.000000	93.900000
2766.000000	93.700000
2767.000000	93.500000
2768.000000	94.600000
2769.000000	95.200000
2770.000000	95.000000
2771.000000	96.400000
2772.000000	98.200000
2773.000000	99.500000
2774.000000	100.300000
2775.000000	100.300000
2776.000000	100.000000
2777.000000	99.800000
2778.000000	98.500000
2779.000000	98.000000
2780.000000	98.300000
2781.000000	97.900000
2782.000000	96.000000
2783.000000	94.900000
2784.000000	93.600000
2785.000000	94.000000
2786.000000	93.800000
2787.000000	93.900000
2788.000000	94.800000
2789.000000	96.000000
2790.000000	96.400000
2791.000000	97.200000
2792.000000	99.300000
2793.000000	100.100000
2794.000000	100.800000
2795.000000	101.300000
2796.000000	101.500000
2797.000000	101.600000
2798.000000	100.700000
2799.000000	99.900000
2800.000000	99.100000
2801.000000	97.600000
2802.000000	96.100000
2803.000000	96.200000
2804.000000	95.900000
2805.000000	95.500000
2806.000000	96.100000
2807.000000	97.200000
2808.000000	98.600000
2809.000000	99.000000
2810.000000	100.300000
2811.000000	102.000000
2812.000000	102.800000
2813.000000	102.900000
2814.000000	103.500000
2815.000000	102.600000
2816.000000	101.200000
2817.000000	99.400000
2818.000000	97.800000
2819.000000	97.200000
2820.000000	95.900000
2821.000000	94.300000
2822.000000	93.500000
2823.000000	93.000000
2824.000000	93.100000
2825.000000	94.500000
2826.000000	95.300000
2827.000000	95.800000
2828.000000	97.000000
2829.000000	97.600000
2830.000000	98.400000
2831.000000	99.000000
2832.000000	99.700000
2833.000000	99.900000
2834.000000	98.900000
2835.000000	98.000000
2836.000000	97.600000
2837.000000	97.300000
2838.000000	96.600000
2839.000000	96.100000
2840.000000	96.000000
2841.000000	96.400000
2842.000000	96.500000
2843.000000	97.100000
2844.000000	98.800000
2845.000000	99.700000
2846.000000	100.000000
2847.000000	100.600000
2848.000000	100.800000
2849.000000	100.300000
2850.000000	99.300000
2851.000000	98.000000
2852.000000	97.200000
2853.000000	96.100000
2854.000000	93.900000
2855.000000	92.300000
2856.000000	92.800000
2857.000000	93.700000
2858.000000	94.900000
2859.000000	96.800000
2860.000000	97.900000
2861.000000	99.700000
2862.000000	101.100000
2863.000000	101.400000
2864.000000	102.000000
2865.000000	102.700000
2866.000000	101.700000
2867.000000	99.800000
2868.000000	98.300000
2869.000000	96.900000
2870.000000	96.700000
2871.000000	95.900000
2872.000000	94.600000
2873.000000	95.000000
2874.000000	96.000000
2875.000000	96.300000
2876.000000	97.200000
2877.000000	98.000000
2878.000000	98.700000
2879.000000	99.900000
2880.000000	100.800000
2881.000000	101.400000
2882.000000	101.600000
2883.000000	101.200000
2884.000000	100.200000
2885.000000	99.600000
2886.000000	98.700000
2887.000000	97.900000
2888.000000	97.300000
2889.000000	96.000000
2890.000000	94.500000
2891.000000	94.200000
2892.000000	94.800000
2893.000000	95.400000
2894.000000	96.100000
2895.000000	96.500000
2896.000000	97.200000
2897.000000	98.700000
2898.000000	99.000000
2899.000000	98.600000
2900.000000	98.200000
2901.000000	97.000000
2902.000000	95.900000
2903.000000	95.100000
2904.000000	94.300000
2905.000000	94.000000
2906.000000	93.500000
2907.000000	92.800000
2908.000000	92.900000
2909.000000	93.900000
2910.000000	94.900000
2911.000000	97.000000
2912.000000	98.400000
2913.000000	98.900000
2914.000000	99.200000
2915.000000	99.300000
2916.000000	99.300000
2917.000000	98.800000
2918.000000	98.200000
2919.000000	97.500000
2920.000000	96.500000
2921.000000	94.400000
2922.000000	93.600000
2923.000000	92.800000
2924.000000	92.700000
2925.000000	93.400000
2926.000000	94.200000
2927.000000	94.800000
2928.000000	94.900000
2929.000000	95.700000
2930.000000	95.900000
2931.000000	97.100000
2932.000000	96.400000
2933.000000	96.300000
2934.000000	95.900000
2935.000000	94.200000
2936.000000	93.200000
2937.000000	93.200000
2938.000000	93.400000
2939.000000	93.700000
2940.000000	94.900000
2941.000000	94.500000
2942.000000	95.400000
2943.000000	95.800000
2944.000000	96.700000
2945.000000	96.800000
2946.000000	96.700000
2947.000000	96.400000
2948.000000	96.000000
2949.000000	94.400000
2950.000000	93.400000
2951.000000	93.400000
2952.000000	93.200000
2953.000000	93.400000
2954.000000	93.600000
2955.000000	94.900000
2956.000000	95.600000
2957.000000	96.100000
2958.000000	97.400000
2959.000000	98.200000
2960.000000	97.900000
2961.000000	98.100000
2962.000000	97.100000
2963.000000	95.600000
2964.000000	93.700000
2965.000000	92.900000
2966.000000	91.800000
2967.000000	91.100000
2968.000000	89.700000
2969.000000	89.900000
2970.000000	91.000000
2971.000000	90.800000
2972.000000	92.300000
2973.000000	94.200000
2974.000000	94.500000
2975.000000	94.400000
2976.000000	94.400000
2977.000000	94.100000
2978.000000	94.100000
2979.000000	92.800000
2980.000000	91.400000
2981.000000	91.200000
2982.000000	90.700000
2983.000000	89.700000
2984.000000	91.000000
2985.000000	91.600000
2986.000000	94.200000
2987.000000	94.000000
2988.000000	94.400000
2989.000000	94.800000
2990.000000	95.000000
2991.000000	94.000000
2992.000000	93.100000
2993.000000	93.300000
2994.000000	92.500000
2995.000000	91.600000
2996.000000	89.600000
2997.000000	90.300000
2998.000000	90.000000
2999.000000	91.600000
3000.000000	93.500000
