PE UV       SUBTECH     SPECTRUM    ASCII       PEDS        4.00        
   -1
CICIMAUCR0004-3.Sample.ASC
24/05/03
16:17:29.00
24/05/03
16:17:29.00
Vinicio Soto Monge
C. kalinini
250,000000
1
Lambda 1050
1050L1511233
PerkinElmer UV WinLab 6.3.2.0749 / 2.02.05 Lambda 900 UV/VIS/NIR, Aug  7 2015 09:38:08

0
0
3350/servo 860,8/2
0
0
UV/VIS
1
1
1
DoubleDePol,CommonBeamDepol,RBeamAtt,SBeamAtt,60mm sphere, WB InGaAs Detector
0
0
0
0
Program
Program
3350/servo 860,8/2
3350/0,2 860,8/0,2
3350/0,2 860,8/0,2
0
15.00
 
 
 
0
 
860,8
319,2
860,8
Front
100
on
S:100 R:100
0
0
0
0
 
0
 
 
 
0
 
 
0
0
0
0
0
 
 
 
 
0
0


0
0
#HDR
-1
-1
#GR
nm
%R
1.0
0.0
2500,000000
-1,000000
2251
8
98,738200
4,896700
#DATA
2482.000000	9.619009
2481.000000	9.675958
2480.000000	9.645005
2479.000000	9.593564
2478.000000	9.583540
2477.000000	9.593343
2476.000000	9.624186
2475.000000	9.600283
2474.000000	9.598521
2473.000000	9.687084
2472.000000	9.655139
2471.000000	9.640159
2470.000000	9.665824
2469.000000	9.725197
2468.000000	9.671662
2467.000000	9.711648
2466.000000	9.748329
2465.000000	9.739957
2464.000000	9.780383
2463.000000	9.813540
2462.000000	9.885690
2461.000000	9.907831
2460.000000	9.958060
2459.000000	10.044420
2458.000000	10.110622
2457.000000	10.202050
2456.000000	10.246221
2455.000000	10.326412
2454.000000	10.415086
2453.000000	10.487126
2452.000000	10.606311
2451.000000	10.693663
2450.000000	10.802825
2449.000000	10.879381
2448.000000	10.983696
2447.000000	11.091536
2446.000000	11.200367
2445.000000	11.292896
2444.000000	11.370994
2443.000000	11.474208
2442.000000	11.569600
2441.000000	11.688676
2440.000000	11.761267
2439.000000	11.877698
2438.000000	11.984216
2437.000000	12.040835
2436.000000	12.121688
2435.000000	12.195160
2434.000000	12.285595
2433.000000	12.379776
2432.000000	12.433311
2431.000000	12.504249
2430.000000	12.548200
2429.000000	12.617487
2428.000000	12.689417
2427.000000	12.742731
2426.000000	12.817525
2425.000000	12.875245
2424.000000	12.907630
2423.000000	12.950810
2422.000000	12.996303
2421.000000	13.036399
2420.000000	13.082443
2419.000000	13.119785
2418.000000	13.141705
2417.000000	13.186978
2416.000000	13.210881
2415.000000	13.249655
2414.000000	13.283693
2413.000000	13.320814
2412.000000	13.356614
2411.000000	13.408276
2410.000000	13.439780
2409.000000	13.448592
2408.000000	13.480536
2407.000000	13.515895
2406.000000	13.545416
2405.000000	13.570201
2404.000000	13.613161
2403.000000	13.650723
2402.000000	13.669118
2401.000000	13.711637
2400.000000	13.746776
2399.000000	13.790397
2398.000000	13.838974
2397.000000	13.901321
2396.000000	13.971048
2395.000000	14.005856
2394.000000	14.031852
2393.000000	14.067212
2392.000000	14.090013
2391.000000	14.138701
2390.000000	14.150157
2389.000000	14.148835
2388.000000	14.174611
2387.000000	14.192786
2386.000000	14.201488
2385.000000	14.201048
2384.000000	14.209529
2383.000000	14.200607
2382.000000	14.203581
2381.000000	14.210521
2380.000000	14.194218
2379.000000	14.172187
2378.000000	14.148725
2377.000000	14.134515
2376.000000	14.114027
2375.000000	14.061043
2374.000000	14.024362
2373.000000	14.006958
2372.000000	13.963447
2371.000000	13.920488
2370.000000	13.887111
2369.000000	13.831484
2368.000000	13.757461
2367.000000	13.694343
2366.000000	13.638055
2365.000000	13.576149
2364.000000	13.503007
2363.000000	13.399574
2362.000000	13.308587
2361.000000	13.240623
2360.000000	13.168583
2359.000000	13.089383
2358.000000	13.001921
2357.000000	12.938913
2356.000000	12.895513
2355.000000	12.866323
2354.000000	12.836471
2353.000000	12.816203
2352.000000	12.825015
2351.000000	12.840437
2350.000000	12.851011
2349.000000	12.881524
2348.000000	12.926025
2347.000000	12.962927
2346.000000	13.006107
2345.000000	13.064929
2344.000000	13.121107
2343.000000	13.162304
2342.000000	13.222007
2341.000000	13.278515
2340.000000	13.319162
2339.000000	13.334804
2338.000000	13.342514
2337.000000	13.336346
2336.000000	13.329737
2335.000000	13.295809
2334.000000	13.273889
2333.000000	13.245029
2332.000000	13.209670
2331.000000	13.158449
2330.000000	13.092136
2329.000000	13.006437
2328.000000	12.916883
2327.000000	12.843851
2326.000000	12.755178
2325.000000	12.648440
2324.000000	12.529805
2323.000000	12.405552
2322.000000	12.280088
2321.000000	12.138431
2320.000000	11.985428
2319.000000	11.849720
2318.000000	11.704317
2317.000000	11.553628
2316.000000	11.388729
2315.000000	11.257316
2314.000000	11.119515
2313.000000	10.982484
2312.000000	10.849089
2311.000000	10.756009
2310.000000	10.644204
2309.000000	10.590670
2308.000000	10.552667
2307.000000	10.512351
2306.000000	10.504089
2305.000000	10.509597
2304.000000	10.557844
2303.000000	10.626469
2302.000000	10.720540
2301.000000	10.809984
2300.000000	10.915181
2299.000000	11.039654
2298.000000	11.157187
2297.000000	11.261722
2296.000000	11.368571
2295.000000	11.466497
2294.000000	11.567728
2293.000000	11.652986
2292.000000	11.707402
2291.000000	11.766003
2290.000000	11.783518
2289.000000	11.817885
2288.000000	11.809514
2287.000000	11.790678
2286.000000	11.772612
2285.000000	11.723264
2284.000000	11.645496
2283.000000	11.621372
2282.000000	11.574337
2281.000000	11.514524
2280.000000	11.465285
2279.000000	11.392254
2278.000000	11.334423
2277.000000	11.279677
2276.000000	11.229227
2275.000000	11.184175
2274.000000	11.135597
2273.000000	11.140774
2272.000000	11.150247
2271.000000	11.162364
2270.000000	11.203672
2269.000000	11.291794
2268.000000	11.374299
2267.000000	11.508575
2266.000000	11.637344
2265.000000	11.847957
2264.000000	12.032684
2263.000000	12.255744
2262.000000	12.542913
2261.000000	12.825896
2260.000000	13.133444
2259.000000	13.435484
2258.000000	13.754156
2257.000000	14.105104
2256.000000	14.446359
2255.000000	14.775937
2254.000000	15.110582
2253.000000	15.439719
2252.000000	15.797717
2251.000000	16.093698
2250.000000	16.358837
2249.000000	16.643032
2248.000000	16.891096
2247.000000	17.155904
2246.000000	17.365085
2245.000000	17.583959
2244.000000	17.764280
2243.000000	17.967843
2242.000000	18.112144
2241.000000	18.261731
2240.000000	18.407354
2239.000000	18.534691
2238.000000	18.657071
2237.000000	18.770418
2236.000000	18.867133
2235.000000	18.945782
2234.000000	19.012315
2233.000000	19.094599
2232.000000	19.130289
2231.000000	19.173469
2230.000000	19.189881
2229.000000	19.231960
2228.000000	19.231189
2227.000000	19.245619
2226.000000	19.252779
2225.000000	19.227994
2224.000000	19.231409
2223.000000	19.211582
2222.000000	19.171155
2221.000000	19.138550
2220.000000	19.092726
2219.000000	19.045471
2218.000000	19.029609
2217.000000	18.975413
2216.000000	18.897866
2215.000000	18.870217
2214.000000	18.818776
2213.000000	18.807870
2212.000000	18.763038
2211.000000	18.732636
2210.000000	18.681084
2209.000000	18.659274
2208.000000	18.638785
2207.000000	18.593072
2206.000000	18.560026
2205.000000	18.545926
2204.000000	18.512330
2203.000000	18.497129
2202.000000	18.471573
2201.000000	18.465955
2200.000000	18.440951
2199.000000	18.458465
2198.000000	18.441061
2197.000000	18.418149
2196.000000	18.416166
2195.000000	18.383891
2194.000000	18.380366
2193.000000	18.363843
2192.000000	18.365165
2191.000000	18.352167
2190.000000	18.366157
2189.000000	18.325510
2188.000000	18.312622
2187.000000	18.302929
2186.000000	18.278475
2185.000000	18.273848
2184.000000	18.261842
2183.000000	18.230558
2182.000000	18.220534
2181.000000	18.184294
2180.000000	18.172507
2179.000000	18.176032
2178.000000	18.157857
2177.000000	18.165678
2176.000000	18.163144
2175.000000	18.155654
2174.000000	18.141334
2173.000000	18.148604
2172.000000	18.146842
2171.000000	18.180769
2170.000000	18.198614
2169.000000	18.195640
2168.000000	18.225161
2167.000000	18.262502
2166.000000	18.273848
2165.000000	18.292134
2164.000000	18.333331
2163.000000	18.367589
2162.000000	18.399753
2161.000000	18.446348
2160.000000	18.480606
2159.000000	18.542842
2158.000000	18.581396
2157.000000	18.616314
2156.000000	18.688575
2155.000000	18.752794
2154.000000	18.820869
2153.000000	18.889163
2152.000000	18.952281
2151.000000	19.021347
2150.000000	19.094819
2149.000000	19.159259
2148.000000	19.218081
2147.000000	19.278665
2146.000000	19.333852
2145.000000	19.411289
2144.000000	19.469340
2143.000000	19.516596
2142.000000	19.573214
2141.000000	19.620250
2140.000000	19.676207
2139.000000	19.734699
2138.000000	19.791868
2137.000000	19.842759
2136.000000	19.865120
2135.000000	19.909181
2134.000000	19.942447
2133.000000	19.974171
2132.000000	20.009971
2131.000000	20.039382
2130.000000	20.059871
2129.000000	20.093577
2128.000000	20.098975
2127.000000	20.086748
2126.000000	20.106906
2125.000000	20.132241
2124.000000	20.132792
2123.000000	20.133783
2122.000000	20.108779
2121.000000	20.090053
2120.000000	20.080249
2119.000000	20.081130
2118.000000	20.067912
2117.000000	20.036959
2116.000000	19.999066
2115.000000	19.975824
2114.000000	19.944650
2113.000000	19.909401
2112.000000	19.887701
2111.000000	19.852342
2110.000000	19.826897
2109.000000	19.802333
2108.000000	19.758161
2107.000000	19.721370
2106.000000	19.691408
2105.000000	19.663430
2104.000000	19.629723
2103.000000	19.600863
2102.000000	19.565503
2101.000000	19.534881
2100.000000	19.502165
2099.000000	19.457333
2098.000000	19.430676
2097.000000	19.408315
2096.000000	19.375600
2095.000000	19.360729
2094.000000	19.348612
2093.000000	19.322065
2092.000000	19.301907
2091.000000	19.286926
2090.000000	19.269963
2089.000000	19.252889
2088.000000	19.233282
2087.000000	19.221606
2086.000000	19.197592
2085.000000	19.169834
2084.000000	19.147472
2083.000000	19.134144
2082.000000	19.112664
2081.000000	19.071797
2080.000000	19.027295
2079.000000	18.978608
2078.000000	18.962856
2077.000000	18.923311
2076.000000	18.879911
2075.000000	18.836070
2074.000000	18.791127
2073.000000	18.749820
2072.000000	18.709944
2071.000000	18.648589
2070.000000	18.588776
2069.000000	18.532488
2068.000000	18.481156
2067.000000	18.444916
2066.000000	18.393254
2065.000000	18.341703
2064.000000	18.305242
2063.000000	18.255673
2062.000000	18.251047
2061.000000	18.220314
2060.000000	18.201478
2059.000000	18.205003
2058.000000	18.198504
2057.000000	18.218992
2056.000000	18.246310
2055.000000	18.297641
2054.000000	18.358997
2053.000000	18.431918
2052.000000	18.531827
2051.000000	18.649801
2050.000000	18.789144
2049.000000	18.935428
2048.000000	19.097133
2047.000000	19.255423
2046.000000	19.431998
2045.000000	19.609895
2044.000000	19.811696
2043.000000	19.987059
2042.000000	20.180929
2041.000000	20.393524
2040.000000	20.605349
2039.000000	20.768485
2038.000000	20.932614
2037.000000	21.107427
2036.000000	21.283892
2035.000000	21.459696
2034.000000	21.602234
2033.000000	21.756889
2032.000000	21.891166
2031.000000	22.016961
2030.000000	22.149255
2029.000000	22.268000
2028.000000	22.414283
2027.000000	22.548670
2026.000000	22.640317
2025.000000	22.721280
2024.000000	22.821739
2023.000000	22.926825
2022.000000	23.019684
2021.000000	23.120915
2020.000000	23.193175
2019.000000	23.280637
2018.000000	23.356533
2017.000000	23.423946
2016.000000	23.498189
2015.000000	23.558443
2014.000000	23.599861
2013.000000	23.638524
2012.000000	23.689636
2011.000000	23.719928
2010.000000	23.776106
2009.000000	23.774453
2008.000000	23.797916
2007.000000	23.813227
2006.000000	23.802763
2005.000000	23.815540
2004.000000	23.791637
2003.000000	23.765421
2002.000000	23.754956
2001.000000	23.740416
2000.000000	23.704176
1999.000000	23.666393
1998.000000	23.626738
1997.000000	23.578821
1996.000000	23.515263
1995.000000	23.459416
1994.000000	23.402136
1993.000000	23.350584
1992.000000	23.269291
1991.000000	23.201988
1990.000000	23.133362
1989.000000	23.043918
1988.000000	22.948966
1987.000000	22.846414
1986.000000	22.756418
1985.000000	22.685149
1984.000000	22.580173
1983.000000	22.513200
1982.000000	22.389939
1981.000000	22.290801
1980.000000	22.199815
1979.000000	22.078977
1978.000000	21.974662
1977.000000	21.875855
1976.000000	21.774404
1975.000000	21.671080
1974.000000	21.599811
1973.000000	21.479193
1972.000000	21.386444
1971.000000	21.314625
1970.000000	21.180458
1969.000000	21.118882
1968.000000	21.037479
1967.000000	20.913998
1966.000000	20.827417
1965.000000	20.738744
1964.000000	20.614491
1963.000000	20.537164
1962.000000	20.442322
1961.000000	20.355852
1960.000000	20.260129
1959.000000	20.150306
1958.000000	20.086748
1957.000000	19.976264
1956.000000	19.886049
1955.000000	19.812246
1954.000000	19.691519
1953.000000	19.597228
1952.000000	19.534000
1951.000000	19.421203
1950.000000	19.378023
1949.000000	19.284944
1948.000000	19.218191
1947.000000	19.153861
1946.000000	19.093497
1945.000000	19.025533
1944.000000	18.967042
1943.000000	18.915600
1942.000000	18.889384
1941.000000	18.873301
1940.000000	18.881343
1939.000000	18.850169
1938.000000	18.867353
1937.000000	18.871539
1936.000000	18.887511
1935.000000	18.912185
1934.000000	18.973761
1933.000000	19.045250
1932.000000	19.107377
1931.000000	19.184594
1930.000000	19.277013
1929.000000	19.401596
1928.000000	19.523315
1927.000000	19.662218
1926.000000	19.806959
1925.000000	19.959301
1924.000000	20.149866
1923.000000	20.322365
1922.000000	20.516676
1921.000000	20.744142
1920.000000	20.979208
1919.000000	21.207666
1918.000000	21.429845
1917.000000	21.686612
1916.000000	21.913968
1915.000000	22.182631
1914.000000	22.490399
1913.000000	22.809402
1912.000000	23.131380
1911.000000	23.419540
1910.000000	23.719377
1909.000000	24.017892
1908.000000	24.335133
1907.000000	24.712958
1906.000000	25.097062
1905.000000	25.502756
1904.000000	25.857448
1903.000000	26.234723
1902.000000	26.600101
1901.000000	27.017250
1900.000000	27.433739
1899.000000	27.879970
1898.000000	28.260438
1897.000000	28.679240
1896.000000	29.038780
1895.000000	29.373205
1894.000000	29.759402
1893.000000	30.158486
1892.000000	30.603835
1891.000000	31.026052
1890.000000	31.414342
1889.000000	31.809791
1888.000000	32.237516
1887.000000	32.663037
1886.000000	33.149694
1885.000000	33.678429
1884.000000	34.241862
1883.000000	34.792958
1882.000000	35.370490
1881.000000	35.938660
1880.000000	36.456710
1879.000000	36.968481
1878.000000	37.462738
1877.000000	37.915357
1876.000000	38.346056
1875.000000	38.762875
1874.000000	39.150063
1873.000000	39.494402
1872.000000	39.811753
1871.000000	40.107955
1870.000000	40.346216
1869.000000	40.585248
1868.000000	40.735387
1867.000000	40.851378
1866.000000	40.927384
1865.000000	41.019251
1864.000000	41.077963
1863.000000	41.128413
1862.000000	41.210477
1861.000000	41.260266
1860.000000	41.303777
1859.000000	41.322833
1858.000000	41.336382
1857.000000	41.328011
1856.000000	41.281746
1855.000000	41.270621
1854.000000	41.246718
1853.000000	41.157934
1852.000000	41.111119
1851.000000	41.067168
1850.000000	41.007906
1849.000000	40.959218
1848.000000	40.910200
1847.000000	40.846201
1846.000000	40.749927
1845.000000	40.655416
1844.000000	40.581062
1843.000000	40.561675
1842.000000	40.555617
1841.000000	40.519156
1840.000000	40.462317
1839.000000	40.399971
1838.000000	40.324846
1837.000000	40.261508
1836.000000	40.219430
1835.000000	40.118970
1834.000000	40.000776
1833.000000	39.903951
1832.000000	39.829928
1831.000000	39.759320
1830.000000	39.663707
1829.000000	39.555427
1828.000000	39.443732
1827.000000	39.368938
1826.000000	39.307582
1825.000000	39.237415
1824.000000	39.183109
1823.000000	39.143454
1822.000000	39.135633
1821.000000	39.134422
1820.000000	39.093114
1819.000000	39.031098
1818.000000	39.000255
1817.000000	39.000145
1816.000000	39.002018
1815.000000	38.985605
1814.000000	38.961481
1813.000000	38.937688
1812.000000	38.908277
1811.000000	38.869283
1810.000000	38.812224
1809.000000	38.747674
1808.000000	38.692488
1807.000000	38.647104
1806.000000	38.567794
1805.000000	38.504126
1804.000000	38.460064
1803.000000	38.396176
1802.000000	38.337684
1801.000000	38.270821
1800.000000	38.196578
1799.000000	38.123987
1798.000000	38.056243
1797.000000	37.995329
1796.000000	37.926373
1795.000000	37.866780
1794.000000	37.797383
1793.000000	37.736799
1792.000000	37.663437
1791.000000	37.579831
1790.000000	37.514841
1789.000000	37.439055
1788.000000	37.339367
1787.000000	37.261378
1786.000000	37.186144
1785.000000	37.097581
1784.000000	36.987648
1783.000000	36.877275
1782.000000	36.769765
1781.000000	36.672390
1780.000000	36.570939
1779.000000	36.454397
1778.000000	36.318027
1777.000000	36.172735
1776.000000	36.045288
1775.000000	35.880940
1774.000000	35.712406
1773.000000	35.541778
1772.000000	35.376439
1771.000000	35.204490
1770.000000	35.037608
1769.000000	34.890223
1768.000000	34.725434
1767.000000	34.594352
1766.000000	34.478030
1765.000000	34.405990
1764.000000	34.353337
1763.000000	34.345956
1762.000000	34.374376
1761.000000	34.417336
1760.000000	34.492680
1759.000000	34.572982
1758.000000	34.665621
1757.000000	34.729950
1756.000000	34.785688
1755.000000	34.817962
1754.000000	34.829198
1753.000000	34.824902
1752.000000	34.797584
1751.000000	34.741847
1750.000000	34.662977
1749.000000	34.579922
1748.000000	34.462058
1747.000000	34.336593
1746.000000	34.156163
1745.000000	33.976723
1744.000000	33.747164
1743.000000	33.486652
1742.000000	33.243875
1741.000000	32.929498
1740.000000	32.632084
1739.000000	32.326630
1738.000000	32.070634
1737.000000	31.844049
1736.000000	31.710213
1735.000000	31.616913
1734.000000	31.568116
1733.000000	31.581444
1732.000000	31.646765
1731.000000	31.745572
1730.000000	31.878086
1729.000000	32.017540
1728.000000	32.171424
1727.000000	32.298320
1726.000000	32.391180
1725.000000	32.457382
1724.000000	32.525676
1723.000000	32.589455
1722.000000	32.635940
1721.000000	32.668545
1720.000000	32.733645
1719.000000	32.752922
1718.000000	32.868253
1717.000000	32.966950
1716.000000	33.079306
1715.000000	33.164234
1714.000000	33.239138
1713.000000	33.356341
1712.000000	33.429593
1711.000000	33.489406
1710.000000	33.514521
1709.000000	33.526968
1708.000000	33.512097
1707.000000	33.477950
1706.000000	33.460876
1705.000000	33.389056
1704.000000	33.298841
1703.000000	33.200805
1702.000000	33.060249
1701.000000	32.875413
1700.000000	32.658080
1699.000000	32.463220
1698.000000	32.303828
1697.000000	32.165366
1696.000000	32.110399
1695.000000	32.115907
1694.000000	32.200174
1693.000000	32.332137
1692.000000	32.517635
1691.000000	32.718444
1690.000000	32.874862
1689.000000	32.975321
1688.000000	33.041854
1687.000000	33.088008
1686.000000	33.117199
1685.000000	33.172716
1684.000000	33.367577
1683.000000	33.705526
1682.000000	34.182820
1681.000000	34.788662
1680.000000	35.494743
1679.000000	36.152908
1678.000000	36.808870
1677.000000	37.407882
1676.000000	37.934414
1675.000000	38.438474
1674.000000	38.837779
1673.000000	39.177161
1672.000000	39.494072
1671.000000	39.801619
1670.000000	40.015316
1669.000000	40.241020
1668.000000	40.427179
1667.000000	40.566412
1666.000000	40.707959
1665.000000	40.833423
1664.000000	40.937408
1663.000000	41.040291
1662.000000	41.137556
1661.000000	41.214553
1660.000000	41.257292
1659.000000	41.309615
1658.000000	41.343542
1657.000000	41.362048
1656.000000	41.399169
1655.000000	41.394763
1654.000000	41.380554
1653.000000	41.372182
1652.000000	41.369759
1651.000000	41.346516
1650.000000	41.307963
1649.000000	41.259716
1648.000000	41.204859
1647.000000	41.156392
1646.000000	41.088428
1645.000000	41.025310
1644.000000	40.958337
1643.000000	40.912293
1642.000000	40.855564
1641.000000	40.781321
1640.000000	40.717432
1639.000000	40.638672
1638.000000	40.567954
1637.000000	40.481154
1636.000000	40.390718
1635.000000	40.319339
1634.000000	40.239478
1633.000000	40.146288
1632.000000	40.045718
1631.000000	39.952969
1630.000000	39.868262
1629.000000	39.769014
1628.000000	39.664038
1627.000000	39.580432
1626.000000	39.474464
1625.000000	39.369929
1624.000000	39.271122
1623.000000	39.195667
1622.000000	39.098402
1621.000000	38.994527
1620.000000	38.914887
1619.000000	38.827976
1618.000000	38.735888
1617.000000	38.632013
1616.000000	38.543340
1615.000000	38.472842
1614.000000	38.393422
1613.000000	38.310477
1612.000000	38.222134
1611.000000	38.132249
1610.000000	38.071004
1609.000000	37.985635
1608.000000	37.904232
1607.000000	37.829989
1606.000000	37.752551
1605.000000	37.659802
1604.000000	37.566503
1603.000000	37.491268
1602.000000	37.410526
1601.000000	37.320421
1600.000000	37.250143
1599.000000	37.157504
1598.000000	37.078194
1597.000000	37.011772
1596.000000	36.952069
1595.000000	36.882011
1594.000000	36.816029
1593.000000	36.750599
1592.000000	36.694751
1591.000000	36.653003
1590.000000	36.597265
1589.000000	36.549679
1588.000000	36.501873
1587.000000	36.464972
1586.000000	36.431375
1585.000000	36.392160
1584.000000	36.348870
1583.000000	36.317587
1582.000000	36.289498
1581.000000	36.262951
1580.000000	36.236514
1579.000000	36.221203
1578.000000	36.225058
1577.000000	36.227041
1576.000000	36.226710
1575.000000	36.240920
1574.000000	36.257884
1573.000000	36.267467
1572.000000	36.294014
1571.000000	36.322323
1570.000000	36.340939
1569.000000	36.375307
1568.000000	36.417936
1567.000000	36.454287
1566.000000	36.495043
1565.000000	36.532055
1564.000000	36.561576
1563.000000	36.590326
1562.000000	36.622050
1561.000000	36.639013
1560.000000	36.650910
1559.000000	36.667763
1558.000000	36.682083
1557.000000	36.698716
1556.000000	36.703012
1555.000000	36.691336
1554.000000	36.684066
1553.000000	36.666882
1552.000000	36.639564
1551.000000	36.623151
1550.000000	36.596164
1549.000000	36.566863
1548.000000	36.536461
1547.000000	36.514540
1546.000000	36.499560
1545.000000	36.488875
1544.000000	36.484248
1543.000000	36.470369
1542.000000	36.465853
1541.000000	36.471360
1540.000000	36.474995
1539.000000	36.472572
1538.000000	36.474885
1537.000000	36.465963
1536.000000	36.479402
1535.000000	36.458142
1534.000000	36.427960
1533.000000	36.427740
1532.000000	36.415403
1531.000000	36.398219
1530.000000	36.380374
1529.000000	36.348650
1528.000000	36.336533
1527.000000	36.317697
1526.000000	36.298640
1525.000000	36.274957
1524.000000	36.226931
1523.000000	36.197079
1522.000000	36.169210
1521.000000	36.146629
1520.000000	36.107525
1519.000000	36.069522
1518.000000	36.033061
1517.000000	36.022266
1516.000000	35.995719
1515.000000	35.949786
1514.000000	35.892836
1513.000000	35.829388
1512.000000	35.816280
1511.000000	35.777176
1510.000000	35.737631
1509.000000	35.708881
1508.000000	35.659642
1507.000000	35.631333
1506.000000	35.588483
1505.000000	35.538143
1504.000000	35.510054
1503.000000	35.481965
1502.000000	35.457071
1501.000000	35.418627
1500.000000	35.404307
1499.000000	35.388335
1498.000000	35.371592
1497.000000	35.361788
1496.000000	35.360356
1495.000000	35.369829
1494.000000	35.375557
1493.000000	35.387895
1492.000000	35.387564
1491.000000	35.414662
1490.000000	35.410035
1489.000000	35.433828
1488.000000	35.443302
1487.000000	35.456410
1486.000000	35.469959
1485.000000	35.484829
1484.000000	35.514460
1483.000000	35.536491
1482.000000	35.575045
1481.000000	35.632765
1480.000000	35.678919
1479.000000	35.703703
1478.000000	35.746553
1477.000000	35.802401
1476.000000	35.840183
1475.000000	35.907487
1474.000000	35.944498
1473.000000	36.014996
1472.000000	36.107194
1471.000000	36.158085
1470.000000	36.194436
1469.000000	36.254028
1468.000000	36.316375
1467.000000	36.388085
1466.000000	36.428291
1465.000000	36.517294
1464.000000	36.596715
1463.000000	36.662917
1462.000000	36.781882
1461.000000	36.857557
1460.000000	36.961432
1459.000000	37.068941
1458.000000	37.187245
1457.000000	37.329784
1456.000000	37.446215
1455.000000	37.572781
1454.000000	37.701110
1453.000000	37.831421
1452.000000	37.965367
1451.000000	38.130156
1450.000000	38.287014
1449.000000	38.388465
1448.000000	38.536401
1447.000000	38.713747
1446.000000	38.920284
1445.000000	39.046630
1444.000000	39.174187
1443.000000	39.345585
1442.000000	39.518305
1441.000000	39.661614
1440.000000	39.833784
1439.000000	39.997141
1438.000000	40.190680
1437.000000	40.330023
1436.000000	40.484018
1435.000000	40.671278
1434.000000	40.823289
1433.000000	41.028614
1432.000000	41.192302
1431.000000	41.347508
1430.000000	41.559222
1429.000000	41.776113
1428.000000	42.011621
1427.000000	42.258253
1426.000000	42.525044
1425.000000	42.779939
1424.000000	43.093985
1423.000000	43.362759
1422.000000	43.619966
1421.000000	43.908567
1420.000000	44.219640
1419.000000	44.503284
1418.000000	44.751679
1417.000000	45.007124
1416.000000	45.317095
1415.000000	45.644250
1414.000000	45.943205
1413.000000	46.184771
1412.000000	46.438564
1411.000000	46.792375
1410.000000	47.208424
1409.000000	47.602551
1408.000000	48.028403
1407.000000	48.417574
1406.000000	48.875591
1405.000000	49.323693
1404.000000	49.760891
1403.000000	50.221551
1402.000000	50.672188
1401.000000	51.132407
1400.000000	51.527416
1399.000000	51.753451
1398.000000	51.954039
1397.000000	52.237463
1396.000000	52.558890
1395.000000	52.760801
1394.000000	52.848813
1393.000000	53.009416
1392.000000	53.217826
1391.000000	53.416101
1390.000000	53.613936
1389.000000	53.938778
1388.000000	54.238174
1387.000000	54.547924
1386.000000	54.914404
1385.000000	55.360083
1384.000000	55.775140
1383.000000	56.219277
1382.000000	56.543678
1381.000000	56.770484
1380.000000	56.881848
1379.000000	56.977571
1378.000000	57.050162
1377.000000	57.173534
1376.000000	57.314089
1375.000000	57.526244
1374.000000	57.835223
1373.000000	58.177579
1372.000000	58.572478
1371.000000	58.987094
1370.000000	59.323612
1369.000000	59.651538
1368.000000	59.969880
1367.000000	60.215632
1366.000000	60.432413
1365.000000	60.657566
1364.000000	60.844716
1363.000000	61.017877
1362.000000	61.187403
1361.000000	61.303724
1360.000000	61.345142
1359.000000	61.399778
1358.000000	61.523590
1357.000000	61.758106
1356.000000	62.129211
1355.000000	62.656184
1354.000000	63.207060
1353.000000	63.744276
1352.000000	64.406847
1351.000000	65.037033
1350.000000	65.587688
1349.000000	66.089436
1348.000000	66.568492
1347.000000	67.001614
1346.000000	67.367762
1345.000000	67.763322
1344.000000	68.159102
1343.000000	68.500136
1342.000000	68.817818
1341.000000	69.135609
1340.000000	69.431040
1339.000000	69.733080
1338.000000	70.003175
1337.000000	70.283184
1336.000000	70.545349
1335.000000	70.776560
1334.000000	71.001052
1333.000000	71.212436
1332.000000	71.423710
1331.000000	71.623197
1330.000000	71.812109
1329.000000	71.965883
1328.000000	72.127037
1327.000000	72.293699
1326.000000	72.448684
1325.000000	72.587257
1324.000000	72.716466
1323.000000	72.832678
1322.000000	72.945585
1321.000000	73.058932
1320.000000	73.157960
1319.000000	73.239914
1318.000000	73.333764
1317.000000	73.418142
1316.000000	73.486547
1315.000000	73.561010
1314.000000	73.637456
1313.000000	73.688567
1312.000000	73.751245
1311.000000	73.801915
1310.000000	73.834520
1309.000000	73.883428
1308.000000	73.922092
1307.000000	73.935200
1306.000000	73.948088
1305.000000	73.956680
1304.000000	73.957341
1303.000000	73.953155
1302.000000	73.942360
1301.000000	73.929913
1300.000000	73.917355
1299.000000	73.878802
1298.000000	73.844654
1297.000000	73.814472
1296.000000	73.786383
1295.000000	73.763692
1294.000000	73.721063
1293.000000	73.680196
1292.000000	73.635694
1291.000000	73.567289
1290.000000	73.505163
1289.000000	73.421006
1288.000000	73.347093
1287.000000	73.279789
1286.000000	73.179440
1285.000000	73.072591
1284.000000	72.974114
1283.000000	72.896016
1282.000000	72.802496
1281.000000	72.699613
1280.000000	72.611050
1279.000000	72.517750
1278.000000	72.424561
1277.000000	72.347454
1276.000000	72.272660
1275.000000	72.213728
1274.000000	72.142128
1273.000000	72.082976
1272.000000	72.028670
1271.000000	71.978661
1270.000000	71.925016
1269.000000	71.869059
1268.000000	71.818939
1267.000000	71.765405
1266.000000	71.691382
1265.000000	71.620002
1264.000000	71.559528
1263.000000	71.500597
1262.000000	71.456095
1261.000000	71.402560
1260.000000	71.337680
1259.000000	71.277316
1258.000000	71.220587
1257.000000	71.141387
1256.000000	71.083777
1255.000000	71.018787
1254.000000	70.929122
1253.000000	70.852346
1252.000000	70.764443
1251.000000	70.659908
1250.000000	70.562312
1249.000000	70.437178
1248.000000	70.297945
1247.000000	70.184487
1246.000000	70.053185
1245.000000	69.893793
1244.000000	69.715015
1243.000000	69.562673
1242.000000	69.389843
1241.000000	69.212717
1240.000000	69.023474
1239.000000	68.850093
1238.000000	68.666357
1237.000000	68.469514
1236.000000	68.274102
1235.000000	68.061286
1234.000000	67.835252
1233.000000	67.625080
1232.000000	67.422949
1231.000000	67.220047
1230.000000	67.006020
1229.000000	66.781638
1228.000000	66.561882
1227.000000	66.340695
1226.000000	66.139555
1225.000000	65.921562
1224.000000	65.725270
1223.000000	65.501218
1222.000000	65.287631
1221.000000	65.091669
1220.000000	64.910577
1219.000000	64.718250
1218.000000	64.551258
1217.000000	64.374572
1216.000000	64.236550
1215.000000	64.093021
1214.000000	63.956762
1213.000000	63.810699
1212.000000	63.661000
1211.000000	63.521767
1210.000000	63.402031
1209.000000	63.283726
1208.000000	63.190096
1207.000000	63.100872
1206.000000	63.035441
1205.000000	62.983008
1204.000000	62.938506
1203.000000	62.898411
1202.000000	62.866246
1201.000000	62.806102
1200.000000	62.725140
1199.000000	62.615207
1198.000000	62.491505
1197.000000	62.284307
1196.000000	62.033819
1195.000000	61.731559
1194.000000	61.356598
1193.000000	60.919180
1192.000000	60.425143
1191.000000	59.923065
1190.000000	59.479809
1189.000000	59.092731
1188.000000	58.821644
1187.000000	58.700586
1186.000000	58.701247
1185.000000	58.846209
1184.000000	59.145605
1183.000000	59.529158
1182.000000	60.034430
1181.000000	60.562394
1180.000000	61.080664
1179.000000	61.552890
1178.000000	61.979403
1177.000000	62.357228
1176.000000	62.679536
1175.000000	63.003497
1174.000000	63.317213
1173.000000	63.610550
1172.000000	63.967667
1171.000000	64.327317
1170.000000	64.690601
1169.000000	65.039126
1168.000000	65.415299
1167.000000	65.786515
1166.000000	66.168636
1165.000000	66.538199
1164.000000	66.962179
1163.000000	67.307839
1162.000000	67.697340
1161.000000	68.044873
1160.000000	68.410472
1159.000000	68.742253
1158.000000	69.073483
1157.000000	69.331241
1156.000000	69.552980
1155.000000	69.730106
1154.000000	69.810077
1153.000000	69.882007
1152.000000	69.886083
1151.000000	69.861739
1150.000000	69.829684
1149.000000	69.802917
1148.000000	69.819881
1147.000000	69.855790
1146.000000	69.973875
1145.000000	70.158271
1144.000000	70.419554
1143.000000	70.720382
1142.000000	71.036301
1141.000000	71.372488
1140.000000	71.719250
1139.000000	72.055878
1138.000000	72.418172
1137.000000	72.778703
1136.000000	73.155206
1135.000000	73.517390
1134.000000	73.865694
1133.000000	74.114860
1132.000000	74.361933
1131.000000	74.601847
1130.000000	74.817747
1129.000000	75.010735
1128.000000	75.148427
1127.000000	75.233355
1126.000000	75.313546
1125.000000	75.357717
1124.000000	75.412133
1123.000000	75.451348
1122.000000	75.473598
1121.000000	75.485275
1120.000000	75.471285
1119.000000	75.463244
1118.000000	75.454101
1117.000000	75.417310
1116.000000	75.380850
1115.000000	75.323350
1114.000000	75.280720
1113.000000	75.235668
1112.000000	75.171449
1111.000000	75.141927
1110.000000	75.092138
1109.000000	75.042459
1108.000000	74.973283
1107.000000	74.944093
1106.000000	74.871612
1105.000000	74.792962
1104.000000	74.764873
1103.000000	74.713542
1102.000000	74.658906
1101.000000	74.598873
1100.000000	74.517249
1099.000000	74.467240
1098.000000	74.414697
1097.000000	74.351028
1096.000000	74.260372
1095.000000	74.178198
1094.000000	74.117283
1093.000000	74.048878
1092.000000	73.969348
1091.000000	73.886623
1090.000000	73.783189
1089.000000	73.715445
1088.000000	73.625780
1087.000000	73.531599
1086.000000	73.446341
1085.000000	73.373089
1084.000000	73.277366
1083.000000	73.191447
1082.000000	73.095724
1081.000000	73.007932
1080.000000	72.919479
1079.000000	72.826069
1078.000000	72.740590
1077.000000	72.647841
1076.000000	72.559058
1075.000000	72.470164
1074.000000	72.372458
1073.000000	72.268033
1072.000000	72.166582
1071.000000	72.091568
1070.000000	71.989566
1069.000000	71.894284
1068.000000	71.795917
1067.000000	71.688738
1066.000000	71.594998
1065.000000	71.491674
1064.000000	71.389562
1063.000000	71.275333
1062.000000	71.173442
1061.000000	71.060425
1060.000000	70.965032
1059.000000	70.856531
1058.000000	70.747259
1057.000000	70.651206
1056.000000	70.547882
1055.000000	70.446101
1054.000000	70.358529
1053.000000	70.268314
1052.000000	70.156178
1051.000000	70.060785
1050.000000	69.987754
1049.000000	69.899081
1048.000000	69.827151
1047.000000	69.759076
1046.000000	69.695297
1045.000000	69.611801
1044.000000	69.541413
1043.000000	69.486447
1042.000000	69.403832
1041.000000	69.341816
1040.000000	69.293128
1039.000000	69.236289
1038.000000	69.182645
1037.000000	69.127789
1036.000000	69.048919
1035.000000	68.973244
1034.000000	68.927420
1033.000000	68.847229
1032.000000	68.772545
1031.000000	68.717028
1030.000000	68.638929
1029.000000	68.583302
1028.000000	68.535606
1027.000000	68.464336
1026.000000	68.380620
1025.000000	68.306487
1024.000000	68.230371
1023.000000	68.144893
1022.000000	68.083978
1021.000000	68.031435
1020.000000	67.963470
1019.000000	67.877551
1018.000000	67.815535
1017.000000	67.776651
1016.000000	67.726751
1015.000000	67.680157
1014.000000	67.623097
1013.000000	67.587518
1012.000000	67.577494
1011.000000	67.558437
1010.000000	67.539050
1009.000000	67.519664
1008.000000	67.515698
1007.000000	67.508318
1006.000000	67.512283
1005.000000	67.523959
1004.000000	67.531119
1003.000000	67.538720
1002.000000	67.523629
1001.000000	67.520875
1000.000000	67.543787
999.000000	67.569012
998.000000	67.586416
997.000000	67.589280
996.000000	67.592144
995.000000	67.623868
994.000000	67.665176
993.000000	67.701526
992.000000	67.745367
991.000000	67.781608
990.000000	67.840980
989.000000	67.909716
988.000000	67.960606
987.000000	67.998169
986.000000	68.067345
985.000000	68.142359
984.000000	68.211095
983.000000	68.275204
982.000000	68.339753
981.000000	68.435697
980.000000	68.501458
979.000000	68.554662
978.000000	68.644988
977.000000	68.717358
976.000000	68.795567
975.000000	68.854829
974.000000	68.945816
973.000000	69.008933
972.000000	69.085159
971.000000	69.169647
970.000000	69.237721
969.000000	69.278588
968.000000	69.340164
967.000000	69.439962
966.000000	69.515087
965.000000	69.606844
964.000000	69.689790
963.000000	69.747179
962.000000	69.840039
961.000000	69.926288
960.000000	69.984559
959.000000	70.076427
958.000000	70.181513
957.000000	70.244961
956.000000	70.304664
955.000000	70.400718
954.000000	70.465157
953.000000	70.557025
952.000000	70.635674
951.000000	70.679625
950.000000	70.759927
949.000000	70.825909
948.000000	70.892551
947.000000	71.005679
946.000000	71.088293
945.000000	71.170137
944.000000	71.302651
943.000000	71.383283
942.000000	71.485726
941.000000	71.566799
940.000000	71.709006
939.000000	71.807263
938.000000	71.879413
937.000000	71.975797
936.000000	72.054116
935.000000	72.218685
934.000000	72.303613
933.000000	72.404733
932.000000	72.494508
931.000000	72.631428
930.000000	72.718119
929.000000	72.799962
928.000000	72.885992
927.000000	73.045494
926.000000	73.114229
925.000000	73.172280
924.000000	73.273951
923.000000	73.357007
922.000000	73.434775
921.000000	73.544157
920.000000	73.681738
919.000000	73.758405
918.000000	73.862389
917.000000	73.915593
916.000000	73.984439
915.000000	74.081153
914.000000	74.116843
913.000000	74.206067
912.000000	74.281301
911.000000	74.361383
910.000000	74.461291
909.000000	74.538288
908.000000	74.601847
907.000000	74.712330
906.000000	74.783820
905.000000	74.873925
904.000000	74.898049
903.000000	75.009634
902.000000	75.087512
901.000000	75.177837
900.000000	75.261444
899.000000	75.341084
898.000000	75.369394
897.000000	75.349897
896.000000	75.422708
895.000000	75.485605
894.000000	75.570203
893.000000	75.594436
892.000000	75.579676
891.000000	75.641472
890.000000	75.599063
889.000000	75.667137
888.000000	75.730035
887.000000	75.751845
886.000000	75.676941
885.000000	75.685753
884.000000	75.609748
883.000000	75.609087
882.000000	75.529777
881.000000	75.489130
880.000000	75.379748
879.000000	75.344279
878.000000	75.109102
877.000000	74.861478
876.000000	74.673116
875.000000	74.566157
874.000000	74.236579
873.000000	73.905349
872.000000	73.728553
871.000000	73.817006
870.000000	74.005588
869.000000	74.249908
868.000000	74.464927
867.000000	74.701756
866.000000	74.935831
865.000000	75.147766
864.000000	75.365648
863.000000	75.586285
862.000000	75.819920
861.000000	76.031193
860.000000	76.252821
859.000000	76.532610
858.000000	78.132033
857.000000	78.091700
856.000000	77.765500
855.000000	78.538900
854.000000	77.816700
853.000000	78.584300
852.000000	79.109100
851.000000	78.755400
850.000000	79.390500
849.000000	79.144200
848.000000	79.810000
847.000000	80.069400
846.000000	80.238900
845.000000	80.651000
844.000000	80.798200
843.000000	81.189000
842.000000	81.348200
841.000000	81.576000
840.000000	81.955300
839.000000	82.440000
838.000000	82.562700
837.000000	82.723000
836.000000	83.571100
835.000000	83.909000
834.000000	84.144300
833.000000	84.402200
832.000000	84.601600
831.000000	85.033600
830.000000	85.445200
829.000000	85.694700
828.000000	86.070900
827.000000	86.506400
826.000000	87.003000
825.000000	87.426800
824.000000	87.705900
823.000000	88.230300
822.000000	88.555400
821.000000	89.082900
820.000000	89.427400
819.000000	89.638800
818.000000	90.154600
817.000000	90.630300
816.000000	90.965900
815.000000	91.237900
814.000000	91.693400
813.000000	92.013500
812.000000	92.266400
811.000000	92.535700
810.000000	92.909400
809.000000	93.145200
808.000000	93.499900
807.000000	93.964000
806.000000	94.243300
805.000000	94.582500
804.000000	94.780000
803.000000	95.031400
802.000000	95.338800
801.000000	95.767200
800.000000	95.826700
799.000000	95.982100
798.000000	96.349100
797.000000	96.522000
796.000000	96.726400
795.000000	96.979000
794.000000	97.146200
793.000000	97.269500
792.000000	97.345000
791.000000	97.531700
790.000000	97.667800
789.000000	97.881200
788.000000	97.994000
787.000000	98.097300
786.000000	98.220600
785.000000	98.325600
784.000000	98.373000
783.000000	98.336300
782.000000	98.369000
781.000000	98.591300
780.000000	98.672600
779.000000	98.738200
778.000000	98.639000
777.000000	98.461100
776.000000	98.720000
775.000000	98.697100
774.000000	98.589500
773.000000	98.582300
772.000000	98.686100
771.000000	98.633500
770.000000	98.560200
769.000000	98.619200
768.000000	98.648100
767.000000	98.539700
766.000000	98.383100
765.000000	98.280800
764.000000	98.308700
763.000000	98.263500
762.000000	98.273100
761.000000	98.198600
760.000000	98.060900
759.000000	97.985400
758.000000	97.936000
757.000000	97.861300
756.000000	97.779800
755.000000	97.697600
754.000000	97.487700
753.000000	97.340700
752.000000	97.278400
751.000000	97.218500
750.000000	97.104700
749.000000	96.918500
748.000000	96.807400
747.000000	96.618500
746.000000	96.420800
745.000000	96.199200
744.000000	95.973600
743.000000	95.725200
742.000000	95.479600
741.000000	95.399000
740.000000	95.168300
739.000000	94.924300
738.000000	94.718400
737.000000	94.513500
736.000000	94.278400
735.000000	93.964200
734.000000	93.711700
733.000000	93.489200
732.000000	93.261900
731.000000	92.950600
730.000000	92.671000
729.000000	92.398400
728.000000	92.103600
727.000000	91.816900
726.000000	91.516700
725.000000	91.273100
724.000000	90.885500
723.000000	90.534300
722.000000	90.357800
721.000000	90.091000
720.000000	89.672800
719.000000	89.386900
718.000000	89.080300
717.000000	88.753500
716.000000	88.444800
715.000000	88.125800
714.000000	87.765900
713.000000	87.514400
712.000000	87.148700
711.000000	86.743800
710.000000	86.354100
709.000000	85.977900
708.000000	85.651900
707.000000	85.257300
706.000000	84.857200
705.000000	84.476800
704.000000	84.140200
703.000000	83.803400
702.000000	83.462000
701.000000	83.113300
700.000000	82.748700
699.000000	82.343400
698.000000	82.012800
697.000000	81.640700
696.000000	81.221900
695.000000	80.866000
694.000000	80.547500
693.000000	80.199500
692.000000	79.773400
691.000000	79.389000
690.000000	79.015000
689.000000	78.621000
688.000000	78.261500
687.000000	77.861500
686.000000	77.473300
685.000000	77.110400
684.000000	76.704800
683.000000	76.331600
682.000000	75.915700
681.000000	75.509300
680.000000	75.219700
679.000000	74.880200
678.000000	74.472200
677.000000	74.105400
676.000000	73.730700
675.000000	73.360300
674.000000	73.000500
673.000000	72.629800
672.000000	72.329500
671.000000	71.964000
670.000000	71.573000
669.000000	71.240200
668.000000	70.921200
667.000000	70.562200
666.000000	70.170300
665.000000	69.843600
664.000000	69.504400
663.000000	69.217100
662.000000	68.921000
661.000000	68.587100
660.000000	68.240500
659.000000	68.040300
658.000000	67.758500
657.000000	67.513700
656.000000	67.291100
655.000000	67.060000
654.000000	66.882100
653.000000	66.668500
652.000000	66.463000
651.000000	66.263900
650.000000	66.040800
649.000000	65.764700
648.000000	65.563400
647.000000	65.278800
646.000000	65.056800
645.000000	64.796400
644.000000	64.556100
643.000000	64.258900
642.000000	63.992800
641.000000	63.730400
640.000000	63.497900
639.000000	63.247300
638.000000	63.043000
637.000000	62.809000
636.000000	62.540900
635.000000	62.359800
634.000000	62.206700
633.000000	61.970700
632.000000	61.845900
631.000000	61.710900
630.000000	61.592100
629.000000	61.501200
628.000000	61.467500
627.000000	61.459400
626.000000	61.444000
625.000000	61.507600
624.000000	61.571200
623.000000	61.762200
622.000000	62.027500
621.000000	62.260200
620.000000	62.664700
619.000000	63.089000
618.000000	63.499500
617.000000	64.021400
616.000000	64.601500
615.000000	65.192900
614.000000	65.862200
613.000000	66.454300
612.000000	67.087900
611.000000	67.830100
610.000000	68.434600
609.000000	69.108400
608.000000	69.761500
607.000000	70.418700
606.000000	70.999700
605.000000	71.614500
604.000000	72.202400
603.000000	72.830000
602.000000	73.331400
601.000000	73.856800
600.000000	74.324000
599.000000	74.796100
598.000000	75.265300
597.000000	75.701100
596.000000	76.113400
595.000000	76.537800
594.000000	76.949200
593.000000	77.309400
592.000000	77.625200
591.000000	77.956200
590.000000	78.254600
589.000000	78.498600
588.000000	78.781100
587.000000	78.955400
586.000000	79.141900
585.000000	79.382300
584.000000	79.534800
583.000000	79.668400
582.000000	79.791800
581.000000	79.887200
580.000000	80.001900
579.000000	80.085100
578.000000	80.210500
577.000000	80.212000
576.000000	80.269400
575.000000	80.328500
574.000000	80.315800
573.000000	80.319600
572.000000	80.311200
571.000000	80.276700
570.000000	80.200300
569.000000	80.059300
568.000000	79.961500
567.000000	79.839700
566.000000	79.706900
565.000000	79.536900
564.000000	79.378600
563.000000	79.123800
562.000000	78.870200
561.000000	78.696800
560.000000	78.473200
559.000000	78.226200
558.000000	77.946700
557.000000	77.673300
556.000000	77.389200
555.000000	77.097900
554.000000	76.756200
553.000000	76.418200
552.000000	76.007600
551.000000	75.615600
550.000000	75.210900
549.000000	74.763300
548.000000	74.278000
547.000000	73.796000
546.000000	73.266300
545.000000	72.697300
544.000000	72.114500
543.000000	71.525100
542.000000	70.894800
541.000000	70.231700
540.000000	69.566600
539.000000	68.879200
538.000000	68.126800
537.000000	67.398200
536.000000	66.688200
535.000000	65.926600
534.000000	65.135500
533.000000	64.297600
532.000000	63.522700
531.000000	62.672900
530.000000	61.850500
529.000000	61.000400
528.000000	60.145600
527.000000	59.320600
526.000000	58.452200
525.000000	57.580700
524.000000	56.728300
523.000000	55.816900
522.000000	54.953500
521.000000	54.080800
520.000000	53.209000
519.000000	52.348100
518.000000	51.511900
517.000000	50.727100
516.000000	49.931300
515.000000	49.130600
514.000000	48.317300
513.000000	47.540300
512.000000	46.806300
511.000000	46.100100
510.000000	45.377800
509.000000	44.720500
508.000000	44.094800
507.000000	43.457600
506.000000	42.813700
505.000000	42.241400
504.000000	41.657500
503.000000	41.126700
502.000000	40.603200
501.000000	40.108300
500.000000	39.620100
499.000000	39.129300
498.000000	38.673300
497.000000	38.254600
496.000000	37.862000
495.000000	37.446400
494.000000	37.087100
493.000000	36.719700
492.000000	36.337200
491.000000	35.981500
490.000000	35.626200
489.000000	35.293500
488.000000	34.968300
487.000000	34.635900
486.000000	34.287900
485.000000	33.953600
484.000000	33.613500
483.000000	33.252200
482.000000	32.897800
481.000000	32.539000
480.000000	32.189200
479.000000	31.838700
478.000000	31.468800
477.000000	31.083900
476.000000	30.722500
475.000000	30.356400
474.000000	29.992600
473.000000	29.606500
472.000000	29.218900
471.000000	28.851100
470.000000	28.507300
469.000000	28.149700
468.000000	27.782100
467.000000	27.433300
466.000000	27.086900
465.000000	26.781300
464.000000	26.472000
463.000000	26.175000
462.000000	25.900100
461.000000	25.621500
460.000000	25.384700
459.000000	25.183000
458.000000	25.023600
457.000000	24.865800
456.000000	24.737100
455.000000	24.650000
454.000000	24.544700
453.000000	24.489100
452.000000	24.451800
451.000000	24.432900
450.000000	24.429300
449.000000	24.410100
448.000000	24.415900
447.000000	24.409800
446.000000	24.440800
445.000000	24.478800
444.000000	24.484300
443.000000	24.460600
442.000000	24.426600
441.000000	24.406800
440.000000	24.350900
439.000000	24.297900
438.000000	24.267500
437.000000	24.216200
436.000000	24.114700
435.000000	24.002800
434.000000	23.895200
433.000000	23.753900
432.000000	23.617900
431.000000	23.484200
430.000000	23.303200
429.000000	23.098700
428.000000	22.926900
427.000000	22.742800
426.000000	22.528900
425.000000	22.320600
424.000000	22.087300
423.000000	21.852100
422.000000	21.603100
421.000000	21.311300
420.000000	21.014100
419.000000	20.726300
418.000000	20.436400
417.000000	20.138100
416.000000	19.817900
415.000000	19.516800
414.000000	19.187400
413.000000	18.797800
412.000000	18.453500
411.000000	18.087200
410.000000	17.707000
409.000000	17.334000
408.000000	16.960600
407.000000	16.585300
406.000000	16.185400
405.000000	15.808100
404.000000	15.433400
403.000000	15.025700
402.000000	14.624800
401.000000	14.211300
400.000000	13.801500
399.000000	13.394700
398.000000	13.005200
397.000000	12.633400
396.000000	12.250500
395.000000	11.856400
394.000000	11.471700
393.000000	11.114500
392.000000	10.763400
391.000000	10.414500
390.000000	10.094500
389.000000	9.772200
388.000000	9.464300
387.000000	9.212300
386.000000	8.950900
385.000000	8.679500
384.000000	8.457200
383.000000	8.213000
382.000000	8.000400
381.000000	7.790500
380.000000	7.605200
379.000000	7.452600
378.000000	7.289700
377.000000	7.136400
376.000000	7.105400
375.000000	6.802800
374.000000	6.504600
373.000000	6.353600
372.000000	6.244400
371.000000	6.414100
370.000000	6.270600
369.000000	6.151600
368.000000	6.109400
367.000000	6.308500
366.000000	6.225400
365.000000	6.094100
364.000000	5.998400
363.000000	5.986500
362.000000	6.085900
361.000000	5.925400
360.000000	5.898700
359.000000	6.028100
358.000000	5.923700
357.000000	5.920800
356.000000	5.592200
355.000000	5.609800
354.000000	5.787600
353.000000	5.779800
352.000000	5.743200
351.000000	5.567900
350.000000	5.803400
349.000000	5.898700
348.000000	5.648400
347.000000	5.415300
346.000000	5.417000
345.000000	5.671900
344.000000	5.720400
343.000000	5.434500
342.000000	5.592100
341.000000	5.783000
340.000000	5.955200
339.000000	5.657400
338.000000	5.382700
337.000000	5.649500
336.000000	6.077600
335.000000	5.934600
334.000000	5.537600
333.000000	5.309300
332.000000	5.754400
331.000000	5.684500
330.000000	5.786400
329.000000	5.606600
328.000000	5.702100
327.000000	6.061200
326.000000	5.995900
325.000000	5.736700
324.000000	5.607200
323.000000	5.166500
322.000000	5.968400
321.000000	6.029900
320.000000	5.930800
319.000000	4.896700
318.000000	5.768800
317.000000	6.416500
316.000000	5.585000
315.000000	5.467200
314.000000	5.562600
313.000000	5.525300
312.000000	5.507400
311.000000	5.552100
310.000000	5.489900
309.000000	5.548000
308.000000	5.511100
307.000000	5.578400
306.000000	5.575900
305.000000	5.532500
304.000000	5.554100
303.000000	5.601400
302.000000	5.583100
301.000000	5.588400
300.000000	5.622700
299.000000	5.577800
298.000000	5.564300
297.000000	5.563100
296.000000	5.581500
295.000000	5.645400
294.000000	5.581100
293.000000	5.640400
292.000000	5.592200
291.000000	5.606800
290.000000	5.623600
289.000000	5.622200
288.000000	5.662700
287.000000	5.671100
286.000000	5.625600
285.000000	5.738600
284.000000	5.688400
283.000000	5.743900
282.000000	5.734100
281.000000	5.746100
280.000000	5.775100
279.000000	5.719400
278.000000	5.752700
277.000000	5.845900
276.000000	5.792800
275.000000	5.799200
274.000000	5.812500
273.000000	5.776600
272.000000	5.759700
271.000000	5.812500
270.000000	5.885500
269.000000	5.876300
268.000000	5.885700
267.000000	5.907800
266.000000	5.874600
265.000000	5.956900
264.000000	5.988000
263.000000	6.072300
262.000000	6.084300
261.000000	6.074300
260.000000	6.087100
259.000000	6.070600
258.000000	6.101100
257.000000	6.134300
256.000000	6.185300
255.000000	6.177900
254.000000	6.197300
253.000000	6.243500
252.000000	6.204100
251.000000	6.202400
250.000000	6.217000
