PE UV       SUBTECH     SPECTRUM    ASCII       PEDS        4.00        
   -1
CICIMAUCR0212-2.Sample.ASC
24/06/12
13:07:04.00
24/06/12
13:07:04.00
Vinicio Soto Monge
C. resplendens. Sex F. Ventral
250,000000
1
Lambda 1050
1050L1511233
PerkinElmer UV WinLab 6.3.2.0749 / 2.02.05 Lambda 900 UV/VIS/NIR, Aug  7 2015 09:38:08

0
0
3350/servo 860,8/2
0
0
UV/VIS
1
1
1
DoubleDePol,CommonBeamDepol,RBeamAtt,SBeamAtt,60mm sphere, WB InGaAs Detector
0
0
0
0
Program
Program
3350/servo 860,8/2
3350/0,2 860,8/0,2
3350/0,2 860,8/0,2
0
15.00
 
 
 
0
 
860,8
319,2
860,8
Front
100
on
S:100 R:100
0
0
0
0
 
0
 
 
 
0
 
 
0
0
0
0
0
 
 
 
 
0
0


0
0
#HDR
-1
-1
#GR
nm
%R
1.0
0.0
2500,000000
-1,000000
2251
8
63,363600
3,800600
#DATA
2482.000000	5.642334
2481.000000	5.743115
2480.000000	5.749038
2479.000000	5.726653
2478.000000	5.829743
2477.000000	5.672247
2476.000000	5.744420
2475.000000	5.767206
2474.000000	5.799629
2473.000000	5.735486
2472.000000	5.734784
2471.000000	5.740004
2470.000000	5.721132
2469.000000	5.774032
2468.000000	5.762087
2467.000000	5.774534
2466.000000	5.713102
2465.000000	5.701558
2464.000000	5.733780
2463.000000	5.760682
2462.000000	5.702462
2461.000000	5.776341
2460.000000	5.818500
2459.000000	5.788688
2458.000000	5.778148
2457.000000	5.813381
2456.000000	5.826430
2455.000000	5.840785
2454.000000	5.865880
2453.000000	5.895090
2452.000000	5.938655
2451.000000	5.987138
2450.000000	5.962244
2449.000000	5.999685
2448.000000	6.023375
2447.000000	6.066639
2446.000000	6.133692
2445.000000	6.153768
2444.000000	6.188901
2443.000000	6.199441
2442.000000	6.204962
2441.000000	6.233168
2440.000000	6.303936
2439.000000	6.296006
2438.000000	6.340976
2437.000000	6.367777
2436.000000	6.406524
2435.000000	6.420175
2434.000000	6.470164
2433.000000	6.504595
2432.000000	6.510015
2431.000000	6.542438
2430.000000	6.602264
2429.000000	6.600758
2428.000000	6.623143
2427.000000	6.623745
2426.000000	6.656569
2425.000000	6.694212
2424.000000	6.725731
2423.000000	6.718905
2422.000000	6.741791
2421.000000	6.745004
2420.000000	6.796298
2419.000000	6.831230
2418.000000	6.830125
2417.000000	6.843275
2416.000000	6.870779
2415.000000	6.881821
2414.000000	6.887844
2413.000000	6.909726
2412.000000	6.950079
2411.000000	6.980594
2410.000000	7.012515
2409.000000	6.993543
2408.000000	7.027070
2407.000000	7.026468
2406.000000	7.040722
2405.000000	7.057686
2404.000000	7.088703
2403.000000	7.091413
2402.000000	7.120022
2401.000000	7.141704
2400.000000	7.158868
2399.000000	7.157262
2398.000000	7.165092
2397.000000	7.190187
2396.000000	7.212672
2395.000000	7.218494
2394.000000	7.215282
2393.000000	7.219899
2392.000000	7.248608
2391.000000	7.263564
2390.000000	7.288960
2389.000000	7.295284
2388.000000	7.303415
2387.000000	7.316364
2386.000000	7.321283
2385.000000	7.320781
2384.000000	7.349389
2383.000000	7.354609
2382.000000	7.339752
2381.000000	7.365048
2380.000000	7.380205
2379.000000	7.364647
2378.000000	7.353504
2377.000000	7.374885
2376.000000	7.374785
2375.000000	7.349690
2374.000000	7.341258
2373.000000	7.358724
2372.000000	7.366353
2371.000000	7.359427
2370.000000	7.343266
2369.000000	7.341760
2368.000000	7.353304
2367.000000	7.348887
2366.000000	7.334332
2365.000000	7.314055
2364.000000	7.307330
2363.000000	7.299299
2362.000000	7.280528
2361.000000	7.267780
2360.000000	7.246701
2359.000000	7.222710
2358.000000	7.217089
2357.000000	7.218695
2356.000000	7.196611
2355.000000	7.173524
2354.000000	7.159270
2353.000000	7.166497
2352.000000	7.155255
2351.000000	7.131164
2350.000000	7.139395
2349.000000	7.145719
2348.000000	7.159571
2347.000000	7.166096
2346.000000	7.184465
2345.000000	7.206950
2344.000000	7.220200
2343.000000	7.237365
2342.000000	7.243087
2341.000000	7.252422
2340.000000	7.280428
2339.000000	7.314256
2338.000000	7.341459
2337.000000	7.339652
2336.000000	7.347682
2335.000000	7.362940
2334.000000	7.357118
2333.000000	7.347180
2332.000000	7.342563
2331.000000	7.348887
2330.000000	7.361334
2329.000000	7.341860
2328.000000	7.322487
2327.000000	7.312148
2326.000000	7.294582
2325.000000	7.276212
2324.000000	7.235257
2323.000000	7.221204
2322.000000	7.208657
2321.000000	7.159170
2320.000000	7.133874
2319.000000	7.107775
2318.000000	7.081074
2317.000000	7.036506
2316.000000	7.002076
2315.000000	6.961322
2314.000000	6.907618
2313.000000	6.854718
2312.000000	6.828017
2311.000000	6.809447
2310.000000	6.773009
2309.000000	6.727638
2308.000000	6.723422
2307.000000	6.701238
2306.000000	6.674738
2305.000000	6.661488
2304.000000	6.648037
2303.000000	6.661287
2302.000000	6.667812
2301.000000	6.679757
2300.000000	6.700034
2299.000000	6.738379
2298.000000	6.762871
2297.000000	6.789271
2296.000000	6.834241
2295.000000	6.888346
2294.000000	6.907317
2293.000000	6.926691
2292.000000	6.976378
2291.000000	6.989930
2290.000000	7.027070
2289.000000	7.041525
2288.000000	7.059192
2287.000000	7.074550
2286.000000	7.073445
2285.000000	7.078364
2284.000000	7.087197
2283.000000	7.093823
2282.000000	7.082178
2281.000000	7.061300
2280.000000	7.052265
2279.000000	7.027974
2278.000000	7.017936
2277.000000	7.006091
2276.000000	6.991335
2275.000000	6.975575
2274.000000	6.961823
2273.000000	6.946465
2272.000000	6.922977
2271.000000	6.919865
2270.000000	6.935524
2269.000000	6.939037
2268.000000	6.971861
2267.000000	6.977483
2266.000000	7.000470
2265.000000	7.040521
2264.000000	7.096031
2263.000000	7.152243
2262.000000	7.217791
2261.000000	7.290165
2260.000000	7.385927
2259.000000	7.488916
2258.000000	7.599234
2257.000000	7.681746
2256.000000	7.817961
2255.000000	7.910109
2254.000000	8.055960
2253.000000	8.146202
2252.000000	8.258828
2251.000000	8.380889
2250.000000	8.477555
2249.000000	8.587470
2248.000000	8.690961
2247.000000	8.788932
2246.000000	8.901156
2245.000000	8.990394
2244.000000	9.090372
2243.000000	9.145681
2242.000000	9.225282
2241.000000	9.268043
2240.000000	9.327870
2239.000000	9.397533
2238.000000	9.452641
2237.000000	9.489481
2236.000000	9.527123
2235.000000	9.581127
2234.000000	9.608330
2233.000000	9.650490
2232.000000	9.647478
2231.000000	9.686124
2230.000000	9.700077
2229.000000	9.715435
2228.000000	9.718346
2227.000000	9.738322
2226.000000	9.727180
2225.000000	9.736816
2224.000000	9.750066
2223.000000	9.724770
2222.000000	9.695560
2221.000000	9.711320
2220.000000	9.681808
2219.000000	9.671870
2218.000000	9.660226
2217.000000	9.645972
2216.000000	9.625796
2215.000000	9.592571
2214.000000	9.576711
2213.000000	9.552017
2212.000000	9.527223
2211.000000	9.524513
2210.000000	9.478539
2209.000000	9.486871
2208.000000	9.467196
2207.000000	9.442905
2206.000000	9.445615
2205.000000	9.428651
2204.000000	9.411586
2203.000000	9.403255
2202.000000	9.396931
2201.000000	9.378160
2200.000000	9.368423
2199.000000	9.377758
2198.000000	9.348749
2197.000000	9.343127
2196.000000	9.352162
2195.000000	9.337105
2194.000000	9.333190
2193.000000	9.330981
2192.000000	9.291131
2191.000000	9.315523
2190.000000	9.301871
2189.000000	9.304682
2188.000000	9.282297
2187.000000	9.274669
2186.000000	9.271356
2185.000000	9.263024
2184.000000	9.254593
2183.000000	9.233513
2182.000000	9.237729
2181.000000	9.225181
2180.000000	9.210928
2179.000000	9.200789
2178.000000	9.180312
2177.000000	9.166158
2176.000000	9.159634
2175.000000	9.167965
2174.000000	9.156522
2173.000000	9.143372
2172.000000	9.131929
2171.000000	9.155217
2170.000000	9.157124
2169.000000	9.153812
2168.000000	9.152406
2167.000000	9.162043
2166.000000	9.152406
2165.000000	9.152205
2164.000000	9.175393
2163.000000	9.190550
2162.000000	9.194264
2161.000000	9.188543
2160.000000	9.213638
2159.000000	9.220464
2158.000000	9.221166
2157.000000	9.259612
2156.000000	9.262623
2155.000000	9.290127
2154.000000	9.325159
2153.000000	9.322951
2152.000000	9.346540
2151.000000	9.366415
2150.000000	9.396830
2149.000000	9.401548
2148.000000	9.439090
2147.000000	9.457861
2146.000000	9.469606
2145.000000	9.492994
2144.000000	9.519394
2143.000000	9.541578
2142.000000	9.563059
2141.000000	9.575004
2140.000000	9.580927
2139.000000	9.601906
2138.000000	9.616260
2137.000000	9.645471
2136.000000	9.656512
2135.000000	9.667052
2134.000000	9.680704
2133.000000	9.693853
2132.000000	9.716138
2131.000000	9.727481
2130.000000	9.732901
2129.000000	9.735511
2128.000000	9.736816
2127.000000	9.739325
2126.000000	9.739727
2125.000000	9.747757
2124.000000	9.760305
2123.000000	9.753680
2122.000000	9.747155
2121.000000	9.741835
2120.000000	9.725172
2119.000000	9.722361
2118.000000	9.716037
2117.000000	9.705297
2116.000000	9.706702
2115.000000	9.701783
2114.000000	9.695761
2113.000000	9.684117
2112.000000	9.660527
2111.000000	9.659724
2110.000000	9.650289
2109.000000	9.633726
2108.000000	9.600902
2107.000000	9.588154
2106.000000	9.582332
2105.000000	9.571190
2104.000000	9.551315
2103.000000	9.530335
2102.000000	9.513170
2101.000000	9.499117
2100.000000	9.484361
2099.000000	9.481049
2098.000000	9.461575
2097.000000	9.439692
2096.000000	9.439692
2095.000000	9.412389
2094.000000	9.398938
2093.000000	9.397031
2092.000000	9.378862
2091.000000	9.369126
2090.000000	9.361196
2089.000000	9.341822
2088.000000	9.316025
2087.000000	9.307091
2086.000000	9.309400
2085.000000	9.290528
2084.000000	9.272761
2083.000000	9.253790
2082.000000	9.230903
2081.000000	9.216047
2080.000000	9.190049
2079.000000	9.164753
2078.000000	9.139758
2077.000000	9.115467
2076.000000	9.087160
2075.000000	9.051424
2074.000000	9.025125
2073.000000	8.998524
2072.000000	8.975939
2071.000000	8.946729
2070.000000	8.921734
2069.000000	8.893427
2068.000000	8.853175
2067.000000	8.819046
2066.000000	8.786623
2065.000000	8.739244
2064.000000	8.709030
2063.000000	8.693371
2062.000000	8.663457
2061.000000	8.631135
2060.000000	8.604635
2059.000000	8.580644
2058.000000	8.559765
2057.000000	8.543504
2056.000000	8.531759
2055.000000	8.518309
2054.000000	8.501846
2053.000000	8.515699
2052.000000	8.522525
2051.000000	8.528246
2050.000000	8.549226
2049.000000	8.561873
2048.000000	8.567997
2047.000000	8.599315
2046.000000	8.629228
2045.000000	8.657435
2044.000000	8.681927
2043.000000	8.713045
2042.000000	8.752996
2041.000000	8.785921
2040.000000	8.800476
2039.000000	8.835809
2038.000000	8.855885
2037.000000	8.874455
2036.000000	8.894029
2035.000000	8.924244
2034.000000	8.957469
2033.000000	8.964496
2032.000000	8.985977
2031.000000	8.993807
2030.000000	9.021210
2029.000000	9.029542
2028.000000	9.022615
2027.000000	9.038977
2026.000000	9.045703
2025.000000	9.041888
2024.000000	9.038375
2023.000000	9.053934
2022.000000	9.062567
2021.000000	9.042691
2020.000000	9.043494
2019.000000	9.034962
2018.000000	9.040985
2017.000000	9.031850
2016.000000	9.009265
2015.000000	9.002138
2014.000000	8.999026
2013.000000	8.992301
2012.000000	8.961183
2011.000000	8.944119
2010.000000	8.935285
2009.000000	8.926753
2008.000000	8.915611
2007.000000	8.873351
2006.000000	8.847855
2005.000000	8.820150
2004.000000	8.788229
2003.000000	8.771064
2002.000000	8.734225
2001.000000	8.721376
2000.000000	8.690058
1999.000000	8.655026
1998.000000	8.619692
1997.000000	8.581146
1996.000000	8.536176
1995.000000	8.501746
1994.000000	8.476450
1993.000000	8.427967
1992.000000	8.385005
1991.000000	8.353084
1990.000000	8.318453
1989.000000	8.276795
1988.000000	8.243369
1987.000000	8.201511
1986.000000	8.159351
1985.000000	8.113879
1984.000000	8.061281
1983.000000	8.029360
1982.000000	7.990312
1981.000000	7.952971
1980.000000	7.897562
1979.000000	7.855302
1978.000000	7.811837
1977.000000	7.781222
1976.000000	7.709751
1975.000000	7.699814
1974.000000	7.668897
1973.000000	7.638482
1972.000000	7.598631
1971.000000	7.541415
1970.000000	7.517826
1969.000000	7.475466
1968.000000	7.429291
1967.000000	7.423670
1966.000000	7.382313
1965.000000	7.361434
1964.000000	7.326101
1963.000000	7.275911
1962.000000	7.252021
1961.000000	7.217992
1960.000000	7.175632
1959.000000	7.167802
1958.000000	7.116408
1957.000000	7.099444
1956.000000	7.070133
1955.000000	7.011311
1954.000000	7.010608
1953.000000	6.976077
1952.000000	6.942952
1951.000000	6.917556
1950.000000	6.907518
1949.000000	6.868270
1948.000000	6.886238
1947.000000	6.831932
1946.000000	6.812157
1945.000000	6.799008
1944.000000	6.774716
1943.000000	6.773511
1942.000000	6.753536
1941.000000	6.729947
1940.000000	6.751227
1939.000000	6.737977
1938.000000	6.746409
1937.000000	6.722217
1936.000000	6.711878
1935.000000	6.733259
1934.000000	6.736271
1933.000000	6.730750
1932.000000	6.758153
1931.000000	6.788769
1930.000000	6.784955
1929.000000	6.812961
1928.000000	6.802621
1927.000000	6.862046
1926.000000	6.883527
1925.000000	6.899086
1924.000000	6.957708
1923.000000	7.000771
1922.000000	7.036506
1921.000000	7.087599
1920.000000	7.139294
1919.000000	7.174427
1918.000000	7.226324
1917.000000	7.284042
1916.000000	7.374082
1915.000000	7.430395
1914.000000	7.517223
1913.000000	7.605457
1912.000000	7.665685
1911.000000	7.751810
1910.000000	7.836430
1909.000000	7.929884
1908.000000	8.049235
1907.000000	8.174910
1906.000000	8.294763
1905.000000	8.404779
1904.000000	8.527142
1903.000000	8.659242
1902.000000	8.798769
1901.000000	8.939802
1900.000000	9.133033
1899.000000	9.306188
1898.000000	9.486068
1897.000000	9.693552
1896.000000	9.872529
1895.000000	10.077303
1894.000000	10.288703
1893.000000	10.521483
1892.000000	10.771227
1891.000000	11.066745
1890.000000	11.352224
1889.000000	11.622345
1888.000000	11.921075
1887.000000	12.258049
1886.000000	12.608675
1885.000000	12.972952
1884.000000	13.358711
1883.000000	13.785324
1882.000000	14.169175
1881.000000	14.565172
1880.000000	15.008649
1879.000000	15.377143
1878.000000	15.790907
1877.000000	16.200054
1876.000000	16.627069
1875.000000	17.013931
1874.000000	17.416554
1873.000000	17.791070
1872.000000	18.176427
1871.000000	18.533276
1870.000000	18.905785
1869.000000	19.243562
1868.000000	19.590875
1867.000000	19.867923
1866.000000	20.113451
1865.000000	20.354262
1864.000000	20.574896
1863.000000	20.794225
1862.000000	20.972098
1861.000000	21.165429
1860.000000	21.366489
1859.000000	21.533320
1858.000000	21.678770
1857.000000	21.807456
1856.000000	21.937749
1855.000000	22.031002
1854.000000	22.138910
1853.000000	22.234270
1852.000000	22.282151
1851.000000	22.325214
1850.000000	22.363860
1849.000000	22.403410
1848.000000	22.464842
1847.000000	22.506801
1846.000000	22.520854
1845.000000	22.503388
1844.000000	22.501581
1843.000000	22.504090
1842.000000	22.541733
1841.000000	22.586301
1840.000000	22.576665
1839.000000	22.554079
1838.000000	22.541130
1837.000000	22.526073
1836.000000	22.502384
1835.000000	22.503890
1834.000000	22.476486
1833.000000	22.429207
1832.000000	22.390059
1831.000000	22.348602
1830.000000	22.329530
1829.000000	22.296104
1828.000000	22.238586
1827.000000	22.191810
1826.000000	22.153465
1825.000000	22.112811
1824.000000	22.059007
1823.000000	22.012331
1822.000000	22.008015
1821.000000	22.008215
1820.000000	21.979507
1819.000000	21.949995
1818.000000	21.904523
1817.000000	21.875012
1816.000000	21.867383
1815.000000	21.853932
1814.000000	21.833455
1813.000000	21.813780
1812.000000	21.792299
1811.000000	21.772725
1810.000000	21.750240
1809.000000	21.708281
1808.000000	21.668330
1807.000000	21.631089
1806.000000	21.590135
1805.000000	21.547473
1804.000000	21.506017
1803.000000	21.460344
1802.000000	21.425713
1801.000000	21.398008
1800.000000	21.353440
1799.000000	21.300941
1798.000000	21.246736
1797.000000	21.201465
1796.000000	21.161815
1795.000000	21.123069
1794.000000	21.092352
1793.000000	21.033229
1792.000000	20.978020
1791.000000	20.938571
1790.000000	20.897315
1789.000000	20.861580
1788.000000	20.831566
1787.000000	20.789507
1786.000000	20.744939
1785.000000	20.698563
1784.000000	20.647470
1783.000000	20.595875
1782.000000	20.555824
1781.000000	20.498607
1780.000000	20.447012
1779.000000	20.406359
1778.000000	20.351250
1777.000000	20.304373
1776.000000	20.248160
1775.000000	20.176088
1774.000000	20.103714
1773.000000	20.041880
1772.000000	19.989784
1771.000000	19.931965
1770.000000	19.858487
1769.000000	19.782901
1768.000000	19.696976
1767.000000	19.636749
1766.000000	19.585856
1765.000000	19.520810
1764.000000	19.484774
1763.000000	19.458374
1762.000000	19.444120
1761.000000	19.457672
1760.000000	19.494812
1759.000000	19.529041
1758.000000	19.562167
1757.000000	19.625004
1756.000000	19.678005
1755.000000	19.737028
1754.000000	19.798460
1753.000000	19.843229
1752.000000	19.876053
1751.000000	19.891713
1750.000000	19.904361
1749.000000	19.906569
1748.000000	19.901851
1747.000000	19.884084
1746.000000	19.864108
1745.000000	19.815725
1744.000000	19.757405
1743.000000	19.658431
1742.000000	19.560962
1741.000000	19.460984
1740.000000	19.347254
1739.000000	19.222583
1738.000000	19.078337
1737.000000	18.932285
1736.000000	18.805606
1735.000000	18.711450
1734.000000	18.636567
1733.000000	18.565197
1732.000000	18.540303
1731.000000	18.544318
1730.000000	18.569915
1729.000000	18.611773
1728.000000	18.674410
1727.000000	18.746282
1726.000000	18.827589
1725.000000	18.894342
1724.000000	18.967217
1723.000000	19.043606
1722.000000	19.085364
1721.000000	19.148703
1720.000000	19.220174
1719.000000	19.268958
1718.000000	19.332398
1717.000000	19.387406
1716.000000	19.460482
1715.000000	19.547812
1714.000000	19.615067
1713.000000	19.714744
1712.000000	19.795449
1711.000000	19.866618
1710.000000	19.904461
1709.000000	19.941902
1708.000000	19.957160
1707.000000	19.977236
1706.000000	19.947724
1705.000000	19.938690
1704.000000	19.909681
1703.000000	19.827369
1702.000000	19.774871
1701.000000	19.709624
1700.000000	19.596095
1699.000000	19.496518
1698.000000	19.370040
1697.000000	19.273074
1696.000000	19.188654
1695.000000	19.122002
1694.000000	19.073519
1693.000000	19.074121
1692.000000	19.130735
1691.000000	19.191867
1690.000000	19.272471
1689.000000	19.390518
1688.000000	19.495515
1687.000000	19.583949
1686.000000	19.673488
1685.000000	19.726689
1684.000000	19.807193
1683.000000	19.905364
1682.000000	20.052420
1681.000000	20.237018
1680.000000	20.529123
1679.000000	20.865796
1678.000000	21.212206
1677.000000	21.601176
1676.000000	21.970673
1675.000000	22.313470
1674.000000	22.642413
1673.000000	22.910527
1672.000000	23.174325
1671.000000	23.417444
1670.000000	23.593008
1669.000000	23.761545
1668.000000	23.930283
1667.000000	24.046422
1666.000000	24.177417
1665.000000	24.270268
1664.000000	24.350974
1663.000000	24.426559
1662.000000	24.493713
1661.000000	24.544104
1660.000000	24.614570
1659.000000	24.629226
1658.000000	24.667872
1657.000000	24.681925
1656.000000	24.712942
1655.000000	24.703607
1654.000000	24.723482
1653.000000	24.693067
1652.000000	24.684234
1651.000000	24.654321
1650.000000	24.633843
1649.000000	24.631334
1648.000000	24.575523
1647.000000	24.544706
1646.000000	24.486486
1645.000000	24.437400
1644.000000	24.387813
1643.000000	24.337021
1642.000000	24.302791
1641.000000	24.238950
1640.000000	24.203416
1639.000000	24.153527
1638.000000	24.099623
1637.000000	24.037689
1636.000000	23.975554
1635.000000	23.919040
1634.000000	23.861322
1633.000000	23.801797
1632.000000	23.718482
1631.000000	23.635569
1630.000000	23.574939
1629.000000	23.496041
1628.000000	23.437921
1627.000000	23.357015
1626.000000	23.278117
1625.000000	23.196408
1624.000000	23.101248
1623.000000	23.037708
1622.000000	22.969952
1621.000000	22.910025
1620.000000	22.830324
1619.000000	22.763772
1618.000000	22.708865
1617.000000	22.637294
1616.000000	22.572850
1615.000000	22.512723
1614.000000	22.425594
1613.000000	22.366972
1612.000000	22.280445
1611.000000	22.221221
1610.000000	22.161897
1609.000000	22.081994
1608.000000	22.012431
1607.000000	21.943973
1606.000000	21.893883
1605.000000	21.803140
1604.000000	21.743715
1603.000000	21.672145
1602.000000	21.595254
1601.000000	21.513846
1600.000000	21.448901
1599.000000	21.367292
1598.000000	21.290502
1597.000000	21.221340
1596.000000	21.156395
1595.000000	21.083118
1594.000000	21.015562
1593.000000	20.955736
1592.000000	20.896211
1591.000000	20.834879
1590.000000	20.780172
1589.000000	20.721249
1588.000000	20.651285
1587.000000	20.581220
1586.000000	20.525810
1585.000000	20.472308
1584.000000	20.412381
1583.000000	20.355968
1582.000000	20.312604
1581.000000	20.255689
1580.000000	20.205499
1579.000000	20.158421
1578.000000	20.125095
1577.000000	20.076210
1576.000000	20.035757
1575.000000	19.996910
1574.000000	19.960473
1573.000000	19.928351
1572.000000	19.884485
1571.000000	19.855676
1570.000000	19.828574
1569.000000	19.805386
1568.000000	19.790831
1567.000000	19.788924
1566.000000	19.757104
1565.000000	19.716852
1564.000000	19.695772
1563.000000	19.679711
1562.000000	19.664253
1561.000000	19.644076
1560.000000	19.614766
1559.000000	19.565780
1558.000000	19.543095
1557.000000	19.518702
1556.000000	19.491901
1555.000000	19.456668
1554.000000	19.406478
1553.000000	19.349462
1552.000000	19.306801
1551.000000	19.269761
1550.000000	19.229107
1549.000000	19.165969
1548.000000	19.117887
1547.000000	19.065991
1546.000000	19.012287
1545.000000	18.966615
1544.000000	18.928370
1543.000000	18.894944
1542.000000	18.853587
1541.000000	18.812331
1540.000000	18.769369
1539.000000	18.731727
1538.000000	18.703319
1537.000000	18.655237
1536.000000	18.608561
1535.000000	18.558070
1534.000000	18.508784
1533.000000	18.476461
1532.000000	18.433399
1531.000000	18.377989
1530.000000	18.326093
1529.000000	18.279718
1528.000000	18.228524
1527.000000	18.159362
1526.000000	18.095923
1525.000000	18.047841
1524.000000	17.998655
1523.000000	17.934914
1522.000000	17.878501
1521.000000	17.820782
1520.000000	17.760053
1519.000000	17.699725
1518.000000	17.635783
1517.000000	17.588906
1516.000000	17.513019
1515.000000	17.452088
1514.000000	17.394671
1513.000000	17.316676
1512.000000	17.260363
1511.000000	17.197927
1510.000000	17.130271
1509.000000	17.069943
1508.000000	16.988636
1507.000000	16.912950
1506.000000	16.849610
1505.000000	16.776634
1504.000000	16.710384
1503.000000	16.660997
1502.000000	16.593743
1501.000000	16.519562
1500.000000	16.446687
1499.000000	16.399006
1498.000000	16.348214
1497.000000	16.281964
1496.000000	16.221837
1495.000000	16.168334
1494.000000	16.120353
1493.000000	16.078193
1492.000000	16.030212
1491.000000	15.982933
1490.000000	15.944387
1489.000000	15.893093
1488.000000	15.862879
1487.000000	15.816805
1486.000000	15.772538
1485.000000	15.727668
1484.000000	15.700365
1483.000000	15.687115
1482.000000	15.650577
1481.000000	15.615042
1480.000000	15.576898
1479.000000	15.541062
1478.000000	15.520585
1477.000000	15.496895
1476.000000	15.468588
1475.000000	15.457948
1474.000000	15.462365
1473.000000	15.447408
1472.000000	15.420908
1471.000000	15.413279
1470.000000	15.416491
1469.000000	15.419402
1468.000000	15.406855
1467.000000	15.395713
1466.000000	15.384470
1465.000000	15.380957
1464.000000	15.385675
1463.000000	15.396717
1462.000000	15.401133
1461.000000	15.418399
1460.000000	15.448412
1459.000000	15.469191
1458.000000	15.489969
1457.000000	15.509543
1456.000000	15.558027
1455.000000	15.599182
1454.000000	15.639033
1453.000000	15.670753
1452.000000	15.737003
1451.000000	15.800142
1450.000000	15.850231
1449.000000	15.901023
1448.000000	15.936658
1447.000000	16.001202
1446.000000	16.066549
1445.000000	16.123766
1444.000000	16.175060
1443.000000	16.241912
1442.000000	16.313583
1441.000000	16.404728
1440.000000	16.465157
1439.000000	16.548271
1438.000000	16.624459
1437.000000	16.715503
1436.000000	16.793297
1435.000000	16.883538
1434.000000	17.015036
1433.000000	17.119330
1432.000000	17.211378
1431.000000	17.319487
1430.000000	17.435425
1429.000000	17.552568
1428.000000	17.683162
1427.000000	17.820983
1426.000000	17.957600
1425.000000	18.118809
1424.000000	18.283632
1423.000000	18.464215
1422.000000	18.646806
1421.000000	18.815544
1420.000000	19.026441
1419.000000	19.251994
1418.000000	19.455363
1417.000000	19.688243
1416.000000	19.904059
1415.000000	20.147580
1414.000000	20.402845
1413.000000	20.677584
1412.000000	20.971495
1411.000000	21.218530
1410.000000	21.527498
1409.000000	21.901010
1408.000000	22.250532
1407.000000	22.638699
1406.000000	22.978283
1405.000000	23.389639
1404.000000	23.776000
1403.000000	24.191671
1402.000000	24.583754
1401.000000	24.999626
1400.000000	25.504837
1399.000000	25.973408
1398.000000	26.333670
1397.000000	26.698349
1396.000000	27.158288
1395.000000	27.671228
1394.000000	28.136086
1393.000000	28.534291
1392.000000	28.974957
1391.000000	29.484283
1390.000000	29.991702
1389.000000	30.439796
1388.000000	31.019086
1387.000000	31.649370
1386.000000	32.218321
1385.000000	32.779944
1384.000000	33.403703
1383.000000	34.045128
1382.000000	34.678122
1381.000000	35.270863
1380.000000	35.777980
1379.000000	36.140953
1378.000000	36.493687
1377.000000	36.780973
1376.000000	37.074583
1375.000000	37.340689
1374.000000	37.592341
1373.000000	37.865273
1372.000000	38.211582
1371.000000	38.538719
1370.000000	38.893862
1369.000000	39.171512
1368.000000	39.480480
1367.000000	39.809424
1366.000000	40.040598
1365.000000	40.264344
1364.000000	40.500938
1363.000000	40.672286
1362.000000	40.868328
1361.000000	41.085750
1360.000000	41.261514
1359.000000	41.332683
1358.000000	41.453038
1357.000000	41.592164
1356.000000	41.721453
1355.000000	41.968688
1354.000000	42.253666
1353.000000	42.555407
1352.000000	42.843797
1351.000000	43.254048
1350.000000	43.656169
1349.000000	44.043834
1348.000000	44.401688
1347.000000	44.769779
1346.000000	45.122814
1345.000000	45.434995
1344.000000	45.753097
1343.000000	46.084350
1342.000000	46.401248
1341.000000	46.722463
1340.000000	47.023601
1339.000000	47.334276
1338.000000	47.640935
1337.000000	47.959540
1336.000000	48.241406
1335.000000	48.548065
1334.000000	48.855528
1333.000000	49.137394
1332.000000	49.427892
1331.000000	49.706044
1330.000000	50.001662
1329.000000	50.260741
1328.000000	50.519921
1327.000000	50.767959
1326.000000	51.021016
1325.000000	51.249982
1324.000000	51.495109
1323.000000	51.725981
1322.000000	51.945913
1321.000000	52.157112
1320.000000	52.348636
1319.000000	52.570876
1318.000000	52.744934
1317.000000	52.940273
1316.000000	53.111520
1315.000000	53.301639
1314.000000	53.465860
1313.000000	53.632892
1312.000000	53.790989
1311.000000	53.931722
1310.000000	54.077975
1309.000000	54.217803
1308.000000	54.336552
1307.000000	54.461625
1306.000000	54.565719
1305.000000	54.685070
1304.000000	54.789866
1303.000000	54.878401
1302.000000	54.950474
1301.000000	55.024754
1300.000000	55.101444
1299.000000	55.165888
1298.000000	55.227521
1297.000000	55.269781
1296.000000	55.330109
1295.000000	55.370261
1294.000000	55.405394
1293.000000	55.444642
1292.000000	55.481381
1291.000000	55.508584
1290.000000	55.520830
1289.000000	55.545925
1288.000000	55.540505
1287.000000	55.524444
1286.000000	55.525749
1285.000000	55.516414
1284.000000	55.494230
1283.000000	55.468231
1282.000000	55.445646
1281.000000	55.406398
1280.000000	55.381403
1279.000000	55.359219
1278.000000	55.337738
1277.000000	55.306018
1276.000000	55.262353
1275.000000	55.235150
1274.000000	55.204434
1273.000000	55.188875
1272.000000	55.169502
1271.000000	55.141295
1270.000000	55.122825
1269.000000	55.105861
1268.000000	55.084982
1267.000000	55.057277
1266.000000	55.021141
1265.000000	54.990525
1264.000000	54.959207
1263.000000	54.924877
1262.000000	54.884825
1261.000000	54.840658
1260.000000	54.811448
1259.000000	54.782438
1258.000000	54.745298
1257.000000	54.704343
1256.000000	54.648933
1255.000000	54.596435
1254.000000	54.550762
1253.000000	54.484813
1252.000000	54.429303
1251.000000	54.367469
1250.000000	54.289775
1249.000000	54.222923
1248.000000	54.154464
1247.000000	54.062617
1246.000000	53.976290
1245.000000	53.895886
1244.000000	53.799221
1243.000000	53.698440
1242.000000	53.595249
1241.000000	53.489249
1240.000000	53.389170
1239.000000	53.287586
1238.000000	53.177169
1237.000000	53.065547
1236.000000	52.959245
1235.000000	52.848024
1234.000000	52.733089
1233.000000	52.601793
1232.000000	52.469091
1231.000000	52.343516
1230.000000	52.217942
1229.000000	52.076607
1228.000000	51.936176
1227.000000	51.803274
1226.000000	51.660032
1225.000000	51.514683
1224.000000	51.365418
1223.000000	51.217258
1222.000000	51.064781
1221.000000	50.917023
1220.000000	50.768762
1219.000000	50.618193
1218.000000	50.475754
1217.000000	50.335223
1216.000000	50.179434
1215.000000	50.039705
1214.000000	49.896263
1213.000000	49.766272
1212.000000	49.647221
1211.000000	49.517933
1210.000000	49.369170
1209.000000	49.236970
1208.000000	49.127456
1207.000000	49.008506
1206.000000	48.873797
1205.000000	48.774622
1204.000000	48.702048
1203.000000	48.627466
1202.000000	48.565331
1201.000000	48.510323
1200.000000	48.450998
1199.000000	48.379930
1198.000000	48.310768
1197.000000	48.215508
1196.000000	48.101376
1195.000000	47.956428
1194.000000	47.801242
1193.000000	47.593155
1192.000000	47.342507
1191.000000	47.050905
1190.000000	46.720957
1189.000000	46.396932
1188.000000	46.108240
1187.000000	45.866928
1186.000000	45.706019
1185.000000	45.629229
1184.000000	45.641475
1183.000000	45.765946
1182.000000	45.969616
1181.000000	46.277982
1180.000000	46.643966
1179.000000	47.051406
1178.000000	47.446400
1177.000000	47.815997
1176.000000	48.155983
1175.000000	48.469569
1174.000000	48.742400
1173.000000	49.018846
1172.000000	49.281037
1171.000000	49.534796
1170.000000	49.802007
1169.000000	50.082969
1168.000000	50.380093
1167.000000	50.684343
1166.000000	50.979358
1165.000000	51.286620
1164.000000	51.589766
1163.000000	51.895523
1162.000000	52.221856
1161.000000	52.551001
1160.000000	52.873019
1159.000000	53.205375
1158.000000	53.533717
1157.000000	53.845194
1156.000000	54.150951
1155.000000	54.439341
1154.000000	54.704142
1153.000000	54.945154
1152.000000	55.158862
1151.000000	55.330711
1150.000000	55.496036
1149.000000	55.655941
1148.000000	55.802897
1147.000000	55.961597
1146.000000	56.150712
1145.000000	56.373354
1144.000000	56.617176
1143.000000	56.905064
1142.000000	57.224070
1141.000000	57.573793
1140.000000	57.946903
1139.000000	58.343302
1138.000000	58.739902
1137.000000	59.164608
1136.000000	59.590016
1135.000000	60.060094
1134.000000	60.526959
1133.000000	60.937913
1132.000000	61.292754
1131.000000	61.622602
1130.000000	61.961483
1129.000000	62.246260
1128.000000	62.500722
1127.000000	62.686926
1126.000000	62.858475
1125.000000	62.991979
1124.000000	63.101895
1123.000000	63.231385
1122.000000	63.312291
1121.000000	63.384263
1120.000000	63.424113
1119.000000	63.486650
1118.000000	63.513953
1117.000000	63.537040
1116.000000	63.550491
1115.000000	63.579401
1114.000000	63.560529
1113.000000	63.562838
1112.000000	63.585323
1111.000000	63.567957
1110.000000	63.582914
1109.000000	63.566251
1108.000000	63.568158
1107.000000	63.578999
1106.000000	63.594859
1105.000000	63.604094
1104.000000	63.590543
1103.000000	63.580505
1102.000000	63.600480
1101.000000	63.595461
1100.000000	63.580003
1099.000000	63.568359
1098.000000	63.569864
1097.000000	63.569664
1096.000000	63.553201
1095.000000	63.551093
1094.000000	63.518771
1093.000000	63.507228
1092.000000	63.473500
1091.000000	63.451718
1090.000000	63.430538
1089.000000	63.381854
1088.000000	63.362781
1087.000000	63.348728
1086.000000	63.302955
1085.000000	63.246241
1084.000000	63.215424
1083.000000	63.176377
1082.000000	63.152486
1081.000000	63.104103
1080.000000	63.071480
1079.000000	63.005029
1078.000000	62.973309
1077.000000	62.948415
1076.000000	62.877045
1075.000000	62.840005
1074.000000	62.790217
1073.000000	62.762813
1072.000000	62.697265
1071.000000	62.646373
1070.000000	62.588554
1069.000000	62.549908
1068.000000	62.489981
1067.000000	62.443204
1066.000000	62.373943
1065.000000	62.336501
1064.000000	62.252483
1063.000000	62.209320
1062.000000	62.162443
1061.000000	62.091073
1060.000000	62.035463
1059.000000	61.976841
1058.000000	61.905772
1057.000000	61.856084
1056.000000	61.790537
1055.000000	61.713847
1054.000000	61.651611
1053.000000	61.585461
1052.000000	61.524029
1051.000000	61.456674
1050.000000	61.387613
1049.000000	61.324173
1048.000000	61.255514
1047.000000	61.201610
1046.000000	61.161057
1045.000000	61.089084
1044.000000	61.021629
1043.000000	60.963811
1042.000000	60.904185
1041.000000	60.844259
1040.000000	60.773591
1039.000000	60.717580
1038.000000	60.668695
1037.000000	60.607664
1036.000000	60.532379
1035.000000	60.468036
1034.000000	60.398975
1033.000000	60.328509
1032.000000	60.254228
1031.000000	60.171816
1030.000000	60.101249
1029.000000	60.035701
1028.000000	59.945661
1027.000000	59.883325
1026.000000	59.798906
1025.000000	59.723722
1024.000000	59.642715
1023.000000	59.552073
1022.000000	59.474279
1021.000000	59.402608
1020.000000	59.314876
1019.000000	59.240093
1018.000000	59.171032
1017.000000	59.091431
1016.000000	59.017451
1015.000000	58.944576
1014.000000	58.880734
1013.000000	58.824120
1012.000000	58.780254
1011.000000	58.755059
1010.000000	58.709989
1009.000000	58.673350
1008.000000	58.626975
1007.000000	58.597162
1006.000000	58.565141
1005.000000	58.545667
1004.000000	58.513747
1003.000000	58.478112
1002.000000	58.472390
1001.000000	58.468676
1000.000000	58.449102
999.000000	58.416077
998.000000	58.381748
997.000000	58.372914
996.000000	58.372011
995.000000	58.344507
994.000000	58.326037
993.000000	58.296726
992.000000	58.276851
991.000000	58.286889
990.000000	58.280465
989.000000	58.257478
988.000000	58.256072
987.000000	58.256875
986.000000	58.260489
985.000000	58.254466
984.000000	58.239108
983.000000	58.247540
982.000000	58.253563
981.000000	58.259987
980.000000	58.276449
979.000000	58.299537
978.000000	58.299436
977.000000	58.294819
976.000000	58.302347
975.000000	58.322122
974.000000	58.324933
973.000000	58.327442
972.000000	58.348120
971.000000	58.376126
970.000000	58.391685
969.000000	58.413869
968.000000	58.430131
967.000000	58.452214
966.000000	58.456631
965.000000	58.485038
964.000000	58.527499
963.000000	58.547876
962.000000	58.569357
961.000000	58.599069
960.000000	58.630187
959.000000	58.660100
958.000000	58.687403
957.000000	58.721633
956.000000	58.740504
955.000000	58.787984
954.000000	58.820707
953.000000	58.838876
952.000000	58.882441
951.000000	58.917875
950.000000	58.949394
949.000000	58.998078
948.000000	59.024377
947.000000	59.039234
946.000000	59.058607
945.000000	59.090929
944.000000	59.112410
943.000000	59.102071
942.000000	59.095647
941.000000	59.110905
940.000000	59.119337
939.000000	59.097855
938.000000	59.101369
937.000000	59.095547
936.000000	59.078181
935.000000	59.077278
934.000000	59.058808
933.000000	59.031906
932.000000	59.027590
931.000000	59.009421
930.000000	58.982620
929.000000	58.968065
928.000000	58.963046
927.000000	58.930723
926.000000	58.894185
925.000000	58.850520
924.000000	58.834259
923.000000	58.800631
922.000000	58.746928
921.000000	58.709386
920.000000	58.679373
919.000000	58.646147
918.000000	58.585618
917.000000	58.532217
916.000000	58.500296
915.000000	58.436756
914.000000	58.378335
913.000000	58.317906
912.000000	58.253061
911.000000	58.191930
910.000000	58.132907
909.000000	58.086833
908.000000	58.020984
907.000000	57.968987
906.000000	57.930642
905.000000	57.896413
904.000000	57.856060
903.000000	57.823738
902.000000	57.805067
901.000000	57.772845
900.000000	57.737211
899.000000	57.707398
898.000000	57.688125
897.000000	57.673369
896.000000	57.652691
895.000000	57.663331
894.000000	57.681500
893.000000	57.693947
892.000000	57.692943
891.000000	57.690133
890.000000	57.694850
889.000000	57.691438
888.000000	57.683608
887.000000	57.678589
886.000000	57.655702
885.000000	57.632113
884.000000	57.622477
883.000000	57.611335
882.000000	57.586641
881.000000	57.579012
880.000000	57.556728
879.000000	57.527016
878.000000	57.518383
877.000000	57.480741
876.000000	57.444504
875.000000	57.411880
874.000000	57.415896
873.000000	57.374640
872.000000	57.325454
871.000000	57.304976
870.000000	57.280986
869.000000	57.211423
868.000000	57.175386
867.000000	57.135435
866.000000	57.111746
865.000000	57.064969
864.000000	57.032446
863.000000	56.963585
862.000000	56.956057
861.000000	56.868827
860.000000	56.828274
859.000000	56.808800
858.000000	56.738233
857.000000	56.565400
856.000000	56.621400
855.000000	57.027900
854.000000	57.127400
853.000000	56.829600
852.000000	57.308800
851.000000	57.205400
850.000000	57.437800
849.000000	57.380400
848.000000	57.317200
847.000000	56.593400
846.000000	56.567800
845.000000	56.606700
844.000000	56.637600
843.000000	56.927400
842.000000	56.939200
841.000000	56.621800
840.000000	56.092600
839.000000	56.177200
838.000000	56.172200
837.000000	55.884100
836.000000	55.537900
835.000000	56.254700
834.000000	56.183200
833.000000	55.695200
832.000000	55.541000
831.000000	55.669400
830.000000	55.296100
829.000000	55.049700
828.000000	55.060700
827.000000	55.063100
826.000000	55.038200
825.000000	54.843400
824.000000	54.687900
823.000000	54.491000
822.000000	54.464700
821.000000	54.164700
820.000000	53.922900
819.000000	54.155700
818.000000	53.999300
817.000000	53.762300
816.000000	53.656900
815.000000	53.640000
814.000000	53.274300
813.000000	53.367800
812.000000	52.987900
811.000000	53.228500
810.000000	52.982100
809.000000	52.870800
808.000000	52.434400
807.000000	52.550900
806.000000	52.440400
805.000000	52.337100
804.000000	52.068400
803.000000	52.205200
802.000000	52.138500
801.000000	51.856900
800.000000	51.390700
799.000000	51.443900
798.000000	51.314200
797.000000	51.162400
796.000000	51.113800
795.000000	50.978300
794.000000	50.747500
793.000000	50.827800
792.000000	50.601000
791.000000	50.348500
790.000000	50.244000
789.000000	50.207500
788.000000	50.113400
787.000000	50.127700
786.000000	50.051000
785.000000	49.671300
784.000000	49.669900
783.000000	49.266300
782.000000	49.113800
781.000000	49.098700
780.000000	48.908500
779.000000	48.660400
778.000000	48.577800
777.000000	48.498100
776.000000	48.404300
775.000000	48.146600
774.000000	47.988500
773.000000	47.810700
772.000000	47.725100
771.000000	47.826100
770.000000	47.529900
769.000000	47.304700
768.000000	47.201700
767.000000	47.103400
766.000000	47.076800
765.000000	46.875300
764.000000	46.806300
763.000000	46.502100
762.000000	46.304200
761.000000	46.171800
760.000000	46.000000
759.000000	45.950100
758.000000	45.786600
757.000000	45.461900
756.000000	45.552300
755.000000	45.192900
754.000000	45.114400
753.000000	44.854200
752.000000	44.759900
751.000000	44.740700
750.000000	44.526300
749.000000	44.392700
748.000000	44.146500
747.000000	43.927800
746.000000	43.904700
745.000000	43.701000
744.000000	43.512500
743.000000	43.382200
742.000000	43.037800
741.000000	42.875900
740.000000	42.809700
739.000000	42.579900
738.000000	42.493100
737.000000	42.301100
736.000000	42.173200
735.000000	41.973600
734.000000	41.770100
733.000000	41.677500
732.000000	41.546800
731.000000	41.299200
730.000000	41.138400
729.000000	40.907600
728.000000	40.789000
727.000000	40.563500
726.000000	40.378100
725.000000	40.109500
724.000000	39.930200
723.000000	39.724800
722.000000	39.446800
721.000000	39.250700
720.000000	39.046000
719.000000	38.769400
718.000000	38.596200
717.000000	38.404100
716.000000	38.240000
715.000000	38.042400
714.000000	37.780000
713.000000	37.554400
712.000000	37.358300
711.000000	37.134700
710.000000	36.945700
709.000000	36.618400
708.000000	36.407100
707.000000	36.230500
706.000000	35.955800
705.000000	35.676600
704.000000	35.463800
703.000000	35.204200
702.000000	34.944300
701.000000	34.696600
700.000000	34.515300
699.000000	34.208200
698.000000	33.979600
697.000000	33.792700
696.000000	33.599000
695.000000	33.410500
694.000000	33.191200
693.000000	32.883700
692.000000	32.627900
691.000000	32.375800
690.000000	32.098500
689.000000	31.916600
688.000000	31.666800
687.000000	31.466100
686.000000	31.238500
685.000000	31.005600
684.000000	30.802300
683.000000	30.557800
682.000000	30.344300
681.000000	30.134700
680.000000	29.954000
679.000000	29.740300
678.000000	29.503400
677.000000	29.332000
676.000000	29.153300
675.000000	28.923700
674.000000	28.700800
673.000000	28.541000
672.000000	28.374500
671.000000	28.170200
670.000000	27.961600
669.000000	27.821800
668.000000	27.632600
667.000000	27.470700
666.000000	27.302200
665.000000	27.148800
664.000000	27.009500
663.000000	26.833800
662.000000	26.662000
661.000000	26.487300
660.000000	26.373800
659.000000	26.212900
658.000000	26.044500
657.000000	25.885500
656.000000	25.723600
655.000000	25.610600
654.000000	25.496900
653.000000	25.359900
652.000000	25.221600
651.000000	25.095600
650.000000	24.975800
649.000000	24.863100
648.000000	24.754700
647.000000	24.631300
646.000000	24.529600
645.000000	24.407800
644.000000	24.268300
643.000000	24.163900
642.000000	24.052900
641.000000	23.925500
640.000000	23.811100
639.000000	23.741700
638.000000	23.630400
637.000000	23.548700
636.000000	23.466000
635.000000	23.352700
634.000000	23.268200
633.000000	23.183800
632.000000	23.109400
631.000000	23.022000
630.000000	22.935800
629.000000	22.859400
628.000000	22.777300
627.000000	22.693600
626.000000	22.617700
625.000000	22.562500
624.000000	22.475500
623.000000	22.414000
622.000000	22.348900
621.000000	22.276000
620.000000	22.219800
619.000000	22.141300
618.000000	22.094500
617.000000	22.042900
616.000000	21.949600
615.000000	21.900800
614.000000	21.870700
613.000000	21.783200
612.000000	21.737600
611.000000	21.682600
610.000000	21.642500
609.000000	21.577200
608.000000	21.507400
607.000000	21.453300
606.000000	21.421800
605.000000	21.332500
604.000000	21.268500
603.000000	21.220500
602.000000	21.206400
601.000000	21.152800
600.000000	21.098300
599.000000	21.030300
598.000000	20.957700
597.000000	20.899000
596.000000	20.850300
595.000000	20.784700
594.000000	20.737500
593.000000	20.697000
592.000000	20.625400
591.000000	20.547100
590.000000	20.520200
589.000000	20.458500
588.000000	20.405500
587.000000	20.345000
586.000000	20.291300
585.000000	20.232700
584.000000	20.184900
583.000000	20.125400
582.000000	20.048800
581.000000	19.977700
580.000000	19.936100
579.000000	19.847900
578.000000	19.771600
577.000000	19.709300
576.000000	19.618300
575.000000	19.562600
574.000000	19.483700
573.000000	19.436700
572.000000	19.354700
571.000000	19.284200
570.000000	19.213600
569.000000	19.135800
568.000000	19.070700
567.000000	18.975900
566.000000	18.884500
565.000000	18.788400
564.000000	18.731700
563.000000	18.640300
562.000000	18.553100
561.000000	18.436900
560.000000	18.341800
559.000000	18.224900
558.000000	18.119600
557.000000	18.029600
556.000000	17.915200
555.000000	17.778100
554.000000	17.703300
553.000000	17.561400
552.000000	17.498100
551.000000	17.392000
550.000000	17.286800
549.000000	17.155100
548.000000	17.050000
547.000000	16.919300
546.000000	16.815500
545.000000	16.657500
544.000000	16.553300
543.000000	16.440200
542.000000	16.291400
541.000000	16.165400
540.000000	16.044400
539.000000	15.901000
538.000000	15.787700
537.000000	15.665500
536.000000	15.501300
535.000000	15.371900
534.000000	15.238200
533.000000	15.085700
532.000000	14.946700
531.000000	14.810400
530.000000	14.633700
529.000000	14.497200
528.000000	14.357500
527.000000	14.194700
526.000000	14.053200
525.000000	13.913300
524.000000	13.734900
523.000000	13.573600
522.000000	13.431100
521.000000	13.285200
520.000000	13.106600
519.000000	12.967900
518.000000	12.817800
517.000000	12.667400
516.000000	12.514900
515.000000	12.349900
514.000000	12.203700
513.000000	12.041700
512.000000	11.888700
511.000000	11.762500
510.000000	11.611000
509.000000	11.471100
508.000000	11.355300
507.000000	11.196900
506.000000	11.087300
505.000000	10.976300
504.000000	10.852400
503.000000	10.751900
502.000000	10.629100
501.000000	10.529500
500.000000	10.450600
499.000000	10.320800
498.000000	10.247900
497.000000	10.144900
496.000000	10.071000
495.000000	9.973900
494.000000	9.899100
493.000000	9.839000
492.000000	9.759300
491.000000	9.656100
490.000000	9.605700
489.000000	9.531800
488.000000	9.455600
487.000000	9.417900
486.000000	9.355000
485.000000	9.282100
484.000000	9.230300
483.000000	9.165600
482.000000	9.131000
481.000000	9.042500
480.000000	8.992300
479.000000	8.902800
478.000000	8.834900
477.000000	8.779000
476.000000	8.711000
475.000000	8.680800
474.000000	8.592500
473.000000	8.541800
472.000000	8.488300
471.000000	8.452800
470.000000	8.377200
469.000000	8.332100
468.000000	8.261800
467.000000	8.235300
466.000000	8.182400
465.000000	8.136900
464.000000	8.081400
463.000000	8.044200
462.000000	7.996400
461.000000	7.976300
460.000000	7.934900
459.000000	7.903000
458.000000	7.846400
457.000000	7.798400
456.000000	7.758400
455.000000	7.755500
454.000000	7.714100
453.000000	7.682400
452.000000	7.694200
451.000000	7.603000
450.000000	7.589100
449.000000	7.571600
448.000000	7.541000
447.000000	7.493000
446.000000	7.478400
445.000000	7.445400
444.000000	7.439500
443.000000	7.429700
442.000000	7.364900
441.000000	7.343900
440.000000	7.293600
439.000000	7.263800
438.000000	7.241900
437.000000	7.220300
436.000000	7.190700
435.000000	7.146800
434.000000	7.105800
433.000000	7.108900
432.000000	7.104000
431.000000	7.051400
430.000000	7.014200
429.000000	6.971300
428.000000	6.929000
427.000000	6.907000
426.000000	6.896400
425.000000	6.904300
424.000000	6.846000
423.000000	6.802100
422.000000	6.790000
421.000000	6.746600
420.000000	6.714400
419.000000	6.678800
418.000000	6.659800
417.000000	6.623400
416.000000	6.600300
415.000000	6.537500
414.000000	6.500100
413.000000	6.481700
412.000000	6.433900
411.000000	6.398300
410.000000	6.347700
409.000000	6.306300
408.000000	6.287600
407.000000	6.199300
406.000000	6.158500
405.000000	6.107100
404.000000	6.083100
403.000000	6.041500
402.000000	5.996200
401.000000	5.961900
400.000000	5.902900
399.000000	5.848600
398.000000	5.804000
397.000000	5.760200
396.000000	5.710400
395.000000	5.627500
394.000000	5.566900
393.000000	5.525000
392.000000	5.469100
391.000000	5.416000
390.000000	5.392400
389.000000	5.301700
388.000000	5.255600
387.000000	5.206400
386.000000	5.163300
385.000000	5.120800
384.000000	5.049100
383.000000	4.999100
382.000000	5.000200
381.000000	4.940500
380.000000	4.874500
379.000000	4.811700
378.000000	4.771800
377.000000	4.747200
376.000000	4.675800
375.000000	4.623000
374.000000	4.660000
373.000000	4.562800
372.000000	4.395200
371.000000	4.416000
370.000000	4.293200
369.000000	4.264800
368.000000	4.320900
367.000000	4.348000
366.000000	4.343700
365.000000	4.314700
364.000000	4.132400
363.000000	4.111900
362.000000	4.262100
361.000000	4.179500
360.000000	4.156900
359.000000	4.137900
358.000000	4.161800
357.000000	4.318700
356.000000	4.244200
355.000000	4.036000
354.000000	4.024300
353.000000	4.092700
352.000000	4.110800
351.000000	4.016800
350.000000	4.033200
349.000000	4.045900
348.000000	4.111100
347.000000	4.173100
346.000000	4.172200
345.000000	4.051000
344.000000	4.004700
343.000000	3.954000
342.000000	3.869400
341.000000	3.992100
340.000000	4.054000
339.000000	4.050200
338.000000	4.017300
337.000000	3.868900
336.000000	3.957700
335.000000	4.135600
334.000000	4.138100
333.000000	4.034500
332.000000	3.892100
331.000000	3.800600
330.000000	3.851600
329.000000	4.035000
328.000000	4.110000
327.000000	4.071800
326.000000	4.157000
325.000000	4.174400
324.000000	4.158400
323.000000	4.040000
322.000000	4.000100
321.000000	4.092800
320.000000	4.169700
319.000000	4.019100
318.000000	4.165300
317.000000	4.006300
316.000000	3.845000
315.000000	3.958600
314.000000	3.921600
313.000000	3.917800
312.000000	3.878400
311.000000	3.899500
310.000000	3.954000
309.000000	3.922600
308.000000	3.967200
307.000000	3.958300
306.000000	3.912800
305.000000	3.938300
304.000000	3.958800
303.000000	3.960600
302.000000	3.983500
301.000000	3.957700
300.000000	3.987100
299.000000	3.988200
298.000000	3.983500
297.000000	3.970200
296.000000	3.961300
295.000000	3.940200
294.000000	3.953100
293.000000	3.999100
292.000000	3.972500
291.000000	3.962400
290.000000	3.984400
289.000000	4.016400
288.000000	3.952500
287.000000	3.962400
286.000000	3.987300
285.000000	3.964200
284.000000	3.967700
283.000000	4.005900
282.000000	4.013700
281.000000	4.011800
280.000000	4.038200
279.000000	4.044500
278.000000	4.053500
277.000000	4.075200
276.000000	4.087300
275.000000	4.057700
274.000000	4.066200
273.000000	4.092200
272.000000	4.054800
271.000000	4.066100
270.000000	4.142400
269.000000	4.132800
268.000000	4.124700
267.000000	4.137900
266.000000	4.157100
265.000000	4.187400
264.000000	4.237400
263.000000	4.213000
262.000000	4.252500
261.000000	4.282900
260.000000	4.272900
259.000000	4.294900
258.000000	4.305500
257.000000	4.263900
256.000000	4.300000
255.000000	4.331900
254.000000	4.276300
253.000000	4.310600
252.000000	4.339400
251.000000	4.357400
250.000000	4.373200
