PE UV       SUBTECH     SPECTRUM    ASCII       PEDS        4.00        
   -1
INBUCR0143-4.Sample.ASC
24/04/29
16:11:28.00
24/04/29
16:11:28.00
Vinicio Soto Monge
C. kalinini
250,000000
1
Lambda 1050
1050L1511233
PerkinElmer UV WinLab 6.3.2.0749 / 2.02.05 Lambda 900 UV/VIS/NIR, Aug  7 2015 09:38:08

0
0
3350/servo 860,8/2
0
0
UV/VIS
1
1
1
DoubleDePol,CommonBeamDepol,RBeamAtt,SBeamAtt,60mm sphere, WB InGaAs Detector
0
0
0
0
Program
Program
3350/servo 860,8/2
3350/0,2 860,8/0,2
3350/0,2 860,8/0,2
0
15.00
 
 
 
0
 
860,8
319,2
860,8
Front
100
on
S:100 R:100
0
0
0
0
 
0
 
 
 
0
 
 
0
0
0
0
0
 
 
 
 
0
0


0
0
#HDR
-1
-1
#GR
nm
%R
1.0
0.0
2500,000000
-1,000000
2251
8
91,524600
5,274700
#DATA
2482.000000	13.013625
2481.000000	13.093604
2480.000000	13.018164
2479.000000	13.151858
2478.000000	13.098467
2477.000000	13.206979
2476.000000	13.229135
2475.000000	13.189902
2474.000000	13.228703
2473.000000	13.299495
2472.000000	13.322840
2471.000000	13.303818
2470.000000	13.359695
2469.000000	13.410601
2468.000000	13.414383
2467.000000	13.417193
2466.000000	13.478474
2465.000000	13.532082
2464.000000	13.547969
2463.000000	13.601469
2462.000000	13.693336
2461.000000	13.747052
2460.000000	13.818168
2459.000000	13.851024
2458.000000	13.916736
2457.000000	14.042109
2456.000000	14.080044
2455.000000	14.136354
2454.000000	14.204120
2453.000000	14.304201
2452.000000	14.385801
2451.000000	14.473994
2450.000000	14.552459
2449.000000	14.658918
2448.000000	14.764187
2447.000000	14.854217
2446.000000	14.907608
2445.000000	15.012878
2444.000000	15.102584
2443.000000	15.205908
2442.000000	15.325660
2441.000000	15.397208
2440.000000	15.498370
2439.000000	15.605693
2438.000000	15.720041
2437.000000	15.803046
2436.000000	15.897832
2435.000000	15.995536
2434.000000	16.084917
2433.000000	16.165437
2432.000000	16.251576
2431.000000	16.352630
2430.000000	16.424611
2429.000000	16.521018
2428.000000	16.616020
2427.000000	16.711129
2426.000000	16.785056
2425.000000	16.845796
2424.000000	16.915724
2423.000000	16.983057
2422.000000	17.057416
2421.000000	17.114698
2420.000000	17.155660
2419.000000	17.232288
2418.000000	17.310538
2417.000000	17.348690
2416.000000	17.391597
2415.000000	17.459363
2414.000000	17.519563
2413.000000	17.554905
2412.000000	17.600191
2411.000000	17.637802
2410.000000	17.674117
2409.000000	17.709135
2408.000000	17.745557
2407.000000	17.754420
2406.000000	17.788573
2405.000000	17.832777
2404.000000	17.850503
2403.000000	17.878819
2402.000000	17.904110
2401.000000	17.924861
2400.000000	17.941830
2399.000000	17.973065
2398.000000	17.999004
2397.000000	18.018674
2396.000000	18.042668
2395.000000	18.048936
2394.000000	18.063095
2393.000000	18.085791
2392.000000	18.074551
2391.000000	18.086116
2390.000000	18.099409
2389.000000	18.102544
2388.000000	18.107407
2387.000000	18.111514
2386.000000	18.104165
2385.000000	18.097896
2384.000000	18.088169
2383.000000	18.096599
2382.000000	18.083197
2381.000000	18.051314
2380.000000	18.034237
2379.000000	18.018026
2378.000000	18.013486
2377.000000	17.993059
2376.000000	17.975983
2375.000000	17.964094
2374.000000	17.941289
2373.000000	17.929725
2372.000000	17.929617
2371.000000	17.918376
2370.000000	17.905407
2369.000000	17.889843
2368.000000	17.871902
2367.000000	17.857095
2366.000000	17.858717
2365.000000	17.861310
2364.000000	17.838073
2363.000000	17.822510
2362.000000	17.815917
2361.000000	17.805541
2360.000000	17.799489
2359.000000	17.785223
2358.000000	17.780467
2357.000000	17.773226
2356.000000	17.764471
2355.000000	17.738856
2354.000000	17.708810
2353.000000	17.674657
2352.000000	17.646665
2351.000000	17.633047
2350.000000	17.610674
2349.000000	17.597056
2348.000000	17.569604
2347.000000	17.537180
2346.000000	17.515456
2345.000000	17.496110
2344.000000	17.484329
2343.000000	17.456553
2342.000000	17.434181
2341.000000	17.415159
2340.000000	17.397109
2339.000000	17.400352
2338.000000	17.398623
2337.000000	17.387598
2336.000000	17.386410
2335.000000	17.365442
2334.000000	17.361443
2333.000000	17.381978
2332.000000	17.400028
2331.000000	17.414078
2330.000000	17.417320
2329.000000	17.426723
2328.000000	17.442070
2327.000000	17.458931
2326.000000	17.487680
2325.000000	17.500866
2324.000000	17.512971
2323.000000	17.520860
2322.000000	17.539882
2321.000000	17.553933
2320.000000	17.550690
2319.000000	17.544205
2318.000000	17.533722
2317.000000	17.525400
2316.000000	17.518483
2315.000000	17.495137
2314.000000	17.454608
2313.000000	17.446286
2312.000000	17.415807
2311.000000	17.402405
2310.000000	17.358525
2309.000000	17.319616
2308.000000	17.297028
2307.000000	17.246555
2306.000000	17.230235
2305.000000	17.199216
2304.000000	17.166252
2303.000000	17.173817
2302.000000	17.161064
2301.000000	17.138151
2300.000000	17.139016
2299.000000	17.127559
2298.000000	17.140205
2297.000000	17.148419
2296.000000	17.171332
2295.000000	17.160307
2294.000000	17.179762
2293.000000	17.183220
2292.000000	17.222993
2291.000000	17.245906
2290.000000	17.254877
2289.000000	17.280600
2288.000000	17.334856
2287.000000	17.355715
2286.000000	17.358849
2285.000000	17.404891
2284.000000	17.455364
2283.000000	17.471792
2282.000000	17.506918
2281.000000	17.535775
2280.000000	17.558472
2279.000000	17.597489
2278.000000	17.649799
2277.000000	17.676711
2276.000000	17.674225
2275.000000	17.702218
2274.000000	17.727184
2273.000000	17.732047
2272.000000	17.769875
2271.000000	17.797003
2270.000000	17.852016
2269.000000	17.893302
2268.000000	17.921835
2267.000000	17.976091
2266.000000	18.047964
2265.000000	18.103624
2264.000000	18.184144
2263.000000	18.276335
2262.000000	18.378470
2261.000000	18.497466
2260.000000	18.612462
2259.000000	18.743671
2258.000000	18.871961
2257.000000	19.031486
2256.000000	19.167990
2255.000000	19.310763
2254.000000	19.501740
2253.000000	19.628301
2252.000000	19.809226
2251.000000	19.966589
2250.000000	20.109578
2249.000000	20.259052
2248.000000	20.424738
2247.000000	20.557243
2246.000000	20.695693
2245.000000	20.817931
2244.000000	20.918553
2243.000000	21.056462
2242.000000	21.146708
2241.000000	21.229173
2240.000000	21.320608
2239.000000	21.357139
2238.000000	21.437658
2237.000000	21.485213
2236.000000	21.516664
2235.000000	21.540117
2234.000000	21.544116
2233.000000	21.576432
2232.000000	21.561733
2231.000000	21.572325
2230.000000	21.532876
2229.000000	21.514286
2228.000000	21.488779
2227.000000	21.455275
2226.000000	21.425985
2225.000000	21.360922
2224.000000	21.294345
2223.000000	21.243980
2222.000000	21.183671
2221.000000	21.112123
2220.000000	21.049869
2219.000000	20.948923
2218.000000	20.891965
2217.000000	20.807555
2216.000000	20.716336
2215.000000	20.657541
2214.000000	20.613877
2213.000000	20.525144
2212.000000	20.464943
2211.000000	20.408202
2210.000000	20.336329
2209.000000	20.268023
2208.000000	20.208903
2207.000000	20.174534
2206.000000	20.107525
2205.000000	20.070886
2204.000000	20.005822
2203.000000	19.988745
2202.000000	19.948648
2201.000000	19.901417
2200.000000	19.884557
2199.000000	19.848783
2198.000000	19.816791
2197.000000	19.797121
2196.000000	19.751403
2195.000000	19.722005
2194.000000	19.689798
2193.000000	19.655969
2192.000000	19.647755
2191.000000	19.621492
2190.000000	19.594904
2189.000000	19.596201
2188.000000	19.567884
2187.000000	19.542377
2186.000000	19.534163
2185.000000	19.506279
2184.000000	19.475152
2183.000000	19.457643
2182.000000	19.438513
2181.000000	19.432028
2180.000000	19.411277
2179.000000	19.386095
2178.000000	19.370964
2177.000000	19.368586
2176.000000	19.366532
2175.000000	19.344052
2174.000000	19.360480
2173.000000	19.354535
2172.000000	19.361128
2171.000000	19.382096
2170.000000	19.407278
2169.000000	19.437865
2168.000000	19.443485
2167.000000	19.456238
2166.000000	19.486500
2165.000000	19.545188
2164.000000	19.593931
2163.000000	19.625707
2162.000000	19.674991
2161.000000	19.737137
2160.000000	19.819601
2159.000000	19.877748
2158.000000	19.944541
2157.000000	20.027222
2156.000000	20.116820
2155.000000	20.212902
2154.000000	20.312443
2153.000000	20.405716
2152.000000	20.528062
2151.000000	20.627279
2150.000000	20.736439
2149.000000	20.850787
2148.000000	20.956813
2147.000000	21.068459
2146.000000	21.173944
2145.000000	21.282672
2144.000000	21.399290
2143.000000	21.517853
2142.000000	21.625392
2141.000000	21.719421
2140.000000	21.828581
2139.000000	21.947901
2138.000000	22.044091
2137.000000	22.157467
2136.000000	22.244471
2135.000000	22.327043
2134.000000	22.423774
2133.000000	22.525045
2132.000000	22.611725
2131.000000	22.694946
2130.000000	22.754497
2129.000000	22.829829
2128.000000	22.900729
2127.000000	22.957579
2126.000000	23.007619
2125.000000	23.072791
2124.000000	23.149420
2123.000000	23.193948
2122.000000	23.229506
2121.000000	23.270252
2120.000000	23.322887
2119.000000	23.360282
2118.000000	23.392166
2117.000000	23.414538
2116.000000	23.434317
2115.000000	23.474739
2114.000000	23.490518
2113.000000	23.507703
2112.000000	23.539046
2111.000000	23.547908
2110.000000	23.534182
2109.000000	23.544342
2108.000000	23.568660
2107.000000	23.582494
2106.000000	23.578062
2105.000000	23.584763
2104.000000	23.584007
2103.000000	23.579143
2102.000000	23.595787
2101.000000	23.606055
2100.000000	23.615026
2099.000000	23.621186
2098.000000	23.630805
2097.000000	23.647449
2096.000000	23.669173
2095.000000	23.699760
2094.000000	23.726239
2093.000000	23.758231
2092.000000	23.787412
2091.000000	23.796599
2090.000000	23.825456
2089.000000	23.860798
2088.000000	23.886953
2087.000000	23.904895
2086.000000	23.907380
2085.000000	23.910623
2084.000000	23.916891
2083.000000	23.904895
2082.000000	23.899815
2081.000000	23.877226
2080.000000	23.845127
2079.000000	23.817242
2078.000000	23.779955
2077.000000	23.726023
2076.000000	23.653070
2075.000000	23.581737
2074.000000	23.500786
2073.000000	23.414106
2072.000000	23.316078
2071.000000	23.220536
2070.000000	23.121103
2069.000000	23.004593
2068.000000	22.897162
2067.000000	22.785300
2066.000000	22.661765
2065.000000	22.553470
2064.000000	22.441499
2063.000000	22.317965
2062.000000	22.204049
2061.000000	22.095213
2060.000000	22.007885
2059.000000	21.938498
2058.000000	21.855817
2057.000000	21.803074
2056.000000	21.765679
2055.000000	21.755519
2054.000000	21.764490
2053.000000	21.787511
2052.000000	21.821232
2051.000000	21.894185
2050.000000	21.964869
2049.000000	22.071111
2048.000000	22.219288
2047.000000	22.346498
2046.000000	22.491648
2045.000000	22.653119
2044.000000	22.833071
2043.000000	22.991083
2042.000000	23.168766
2041.000000	23.345476
2040.000000	23.502731
2039.000000	23.672416
2038.000000	23.838966
2037.000000	24.009840
2036.000000	24.164934
2035.000000	24.300573
2034.000000	24.426378
2033.000000	24.565260
2032.000000	24.687714
2031.000000	24.811897
2030.000000	24.915221
2029.000000	25.037242
2028.000000	25.128462
2027.000000	25.222923
2026.000000	25.320951
2025.000000	25.403524
2024.000000	25.480800
2023.000000	25.574073
2022.000000	25.629518
2021.000000	25.701390
2020.000000	25.773371
2019.000000	25.812928
2018.000000	25.867508
2017.000000	25.915388
2016.000000	25.968455
2015.000000	25.996015
2014.000000	25.989638
2013.000000	26.028439
2012.000000	26.045407
2011.000000	26.037409
2010.000000	26.052216
2009.000000	26.044434
2008.000000	26.035032
2007.000000	26.022170
2006.000000	25.983478
2005.000000	25.968779
2004.000000	25.908687
2003.000000	25.865887
2002.000000	25.812280
2001.000000	25.757592
2000.000000	25.702255
1999.000000	25.638812
1998.000000	25.589420
1997.000000	25.498201
1996.000000	25.416601
1995.000000	25.349052
1994.000000	25.250375
1993.000000	25.161426
1992.000000	25.077988
1991.000000	24.965370
1990.000000	24.886580
1989.000000	24.783256
1988.000000	24.687065
1987.000000	24.595198
1986.000000	24.478580
1985.000000	24.383146
1984.000000	24.257342
1983.000000	24.163637
1982.000000	24.046479
1981.000000	23.940669
1980.000000	23.837561
1979.000000	23.735858
1978.000000	23.618700
1977.000000	23.496138
1976.000000	23.398975
1975.000000	23.318023
1974.000000	23.203783
1973.000000	23.124886
1972.000000	23.027398
1971.000000	22.938124
1970.000000	22.817832
1969.000000	22.731152
1968.000000	22.648796
1967.000000	22.537798
1966.000000	22.424207
1965.000000	22.368762
1964.000000	22.259169
1963.000000	22.171841
1962.000000	22.066356
1961.000000	21.952116
1960.000000	21.883269
1959.000000	21.777892
1958.000000	21.667327
1957.000000	21.556870
1956.000000	21.476999
1955.000000	21.395507
1954.000000	21.288725
1953.000000	21.191453
1952.000000	21.095803
1951.000000	21.030199
1950.000000	20.923740
1949.000000	20.838250
1948.000000	20.759352
1947.000000	20.677968
1946.000000	20.619281
1945.000000	20.550758
1944.000000	20.500826
1943.000000	20.454460
1942.000000	20.393179
1941.000000	20.354054
1940.000000	20.323575
1939.000000	20.315902
1938.000000	20.339355
1937.000000	20.306067
1936.000000	20.298285
1935.000000	20.312119
1934.000000	20.321414
1933.000000	20.347893
1932.000000	20.405824
1931.000000	20.435654
1930.000000	20.523522
1929.000000	20.601123
1928.000000	20.688776
1927.000000	20.816634
1926.000000	20.926550
1925.000000	21.044141
1924.000000	21.190913
1923.000000	21.320500
1922.000000	21.495697
1921.000000	21.729797
1920.000000	21.957736
1919.000000	22.128934
1918.000000	22.350929
1917.000000	22.587190
1916.000000	22.812644
1915.000000	23.056904
1914.000000	23.386222
1913.000000	23.774551
1912.000000	24.139427
1911.000000	24.470258
1910.000000	24.785309
1909.000000	25.113655
1908.000000	25.476261
1907.000000	25.946190
1906.000000	26.475996
1905.000000	27.030011
1904.000000	27.548467
1903.000000	28.059035
1902.000000	28.625371
1901.000000	29.191491
1900.000000	29.864825
1899.000000	30.539133
1898.000000	31.147079
1897.000000	31.745515
1896.000000	32.308717
1895.000000	32.841224
1894.000000	33.417287
1893.000000	34.028260
1892.000000	34.721589
1891.000000	35.408758
1890.000000	35.989685
1889.000000	36.525975
1888.000000	37.087988
1887.000000	37.593908
1886.000000	38.114418
1885.000000	38.613205
1884.000000	39.082377
1883.000000	39.504968
1882.000000	39.908428
1881.000000	40.299676
1880.000000	40.634938
1879.000000	40.960581
1878.000000	41.297248
1877.000000	41.582794
1876.000000	41.852777
1875.000000	42.127514
1874.000000	42.396200
1873.000000	42.665426
1872.000000	42.899309
1871.000000	43.110172
1870.000000	43.310444
1869.000000	43.499583
1868.000000	43.607986
1867.000000	43.701367
1866.000000	43.779832
1865.000000	43.856569
1864.000000	43.930495
1863.000000	44.003341
1862.000000	44.098667
1861.000000	44.202963
1860.000000	44.311691
1859.000000	44.389833
1858.000000	44.453707
1857.000000	44.503856
1856.000000	44.519852
1855.000000	44.557572
1854.000000	44.596048
1853.000000	44.589996
1852.000000	44.594967
1851.000000	44.618745
1850.000000	44.645440
1849.000000	44.675162
1848.000000	44.705857
1847.000000	44.681755
1846.000000	44.621879
1845.000000	44.566975
1844.000000	44.523743
1843.000000	44.522770
1842.000000	44.527526
1841.000000	44.505369
1840.000000	44.473486
1839.000000	44.435550
1838.000000	44.375890
1837.000000	44.335577
1836.000000	44.300775
1835.000000	44.233658
1834.000000	44.165027
1833.000000	44.101152
1832.000000	44.067324
1831.000000	44.042573
1830.000000	44.011338
1829.000000	43.989182
1828.000000	43.944005
1827.000000	43.900557
1826.000000	43.876131
1825.000000	43.851273
1824.000000	43.837763
1823.000000	43.860676
1822.000000	43.889425
1821.000000	43.910500
1820.000000	43.912662
1819.000000	43.871592
1818.000000	43.846950
1817.000000	43.845220
1816.000000	43.840249
1815.000000	43.828252
1814.000000	43.793342
1813.000000	43.790100
1812.000000	43.787830
1811.000000	43.749894
1810.000000	43.713580
1809.000000	43.685047
1808.000000	43.651974
1807.000000	43.635006
1806.000000	43.605716
1805.000000	43.582479
1804.000000	43.572104
1803.000000	43.555351
1802.000000	43.558270
1801.000000	43.544868
1800.000000	43.493962
1799.000000	43.469969
1798.000000	43.466186
1797.000000	43.442841
1796.000000	43.427926
1795.000000	43.412687
1794.000000	43.400149
1793.000000	43.375399
1792.000000	43.374427
1791.000000	43.378425
1790.000000	43.365888
1789.000000	43.386099
1788.000000	43.380587
1787.000000	43.381127
1786.000000	43.414956
1785.000000	43.431492
1784.000000	43.418631
1783.000000	43.422414
1782.000000	43.426089
1781.000000	43.421549
1780.000000	43.409660
1779.000000	43.377129
1778.000000	43.353891
1777.000000	43.318333
1776.000000	43.280289
1775.000000	43.233815
1774.000000	43.191232
1773.000000	43.152972
1772.000000	43.110929
1771.000000	43.072128
1770.000000	43.041218
1769.000000	43.003498
1768.000000	42.966643
1767.000000	42.941569
1766.000000	42.909793
1765.000000	42.881584
1764.000000	42.875100
1763.000000	42.856510
1762.000000	42.838137
1761.000000	42.847215
1760.000000	42.836515
1759.000000	42.855537
1758.000000	42.852403
1757.000000	42.843973
1756.000000	42.868723
1755.000000	42.866561
1754.000000	42.867426
1753.000000	42.854348
1752.000000	42.844297
1751.000000	42.835651
1750.000000	42.822357
1749.000000	42.771127
1748.000000	42.731246
1747.000000	42.663696
1746.000000	42.581016
1745.000000	42.505576
1744.000000	42.422247
1743.000000	42.324867
1742.000000	42.233324
1741.000000	42.140592
1740.000000	42.029162
1739.000000	41.941510
1738.000000	41.861315
1737.000000	41.785767
1736.000000	41.698223
1735.000000	41.629160
1734.000000	41.566150
1733.000000	41.513948
1732.000000	41.450613
1731.000000	41.381118
1730.000000	41.307408
1729.000000	41.244938
1728.000000	41.171552
1727.000000	41.103462
1726.000000	41.052557
1725.000000	41.023267
1724.000000	41.007163
1723.000000	41.054178
1722.000000	41.153071
1721.000000	41.293898
1720.000000	41.479254
1719.000000	41.699844
1718.000000	41.961288
1717.000000	42.212033
1716.000000	42.464614
1715.000000	42.724437
1714.000000	42.933787
1713.000000	43.137192
1712.000000	43.341570
1711.000000	43.521739
1710.000000	43.649056
1709.000000	43.767403
1708.000000	43.883372
1707.000000	43.981400
1706.000000	44.068621
1705.000000	44.134117
1704.000000	44.167729
1703.000000	44.218851
1702.000000	44.228254
1701.000000	44.251923
1700.000000	44.252680
1699.000000	44.267595
1698.000000	44.227713
1697.000000	44.233766
1696.000000	44.163190
1695.000000	44.111960
1694.000000	44.031117
1693.000000	43.908231
1692.000000	43.785236
1691.000000	43.700178
1690.000000	43.606797
1689.000000	43.599124
1688.000000	43.616632
1687.000000	43.668078
1686.000000	43.815823
1685.000000	43.983670
1684.000000	44.207178
1683.000000	44.438684
1682.000000	44.685322
1681.000000	44.943631
1680.000000	45.188431
1679.000000	45.436041
1678.000000	45.649390
1677.000000	45.852147
1676.000000	46.037935
1675.000000	46.238207
1674.000000	46.423238
1673.000000	46.604380
1672.000000	46.799355
1671.000000	46.994762
1670.000000	47.199681
1669.000000	47.405680
1668.000000	47.608113
1667.000000	47.840916
1666.000000	48.013735
1665.000000	48.200496
1664.000000	48.366074
1663.000000	48.532300
1662.000000	48.691933
1661.000000	48.837516
1660.000000	48.974237
1659.000000	49.091611
1658.000000	49.214389
1657.000000	49.323225
1656.000000	49.403312
1655.000000	49.463944
1654.000000	49.533872
1653.000000	49.603799
1652.000000	49.645734
1651.000000	49.692640
1650.000000	49.725929
1649.000000	49.739223
1648.000000	49.736629
1647.000000	49.771430
1646.000000	49.769917
1645.000000	49.779212
1644.000000	49.788183
1643.000000	49.795208
1642.000000	49.794667
1641.000000	49.790452
1640.000000	49.822444
1639.000000	49.828388
1638.000000	49.823200
1637.000000	49.821471
1636.000000	49.799207
1635.000000	49.784832
1634.000000	49.769917
1633.000000	49.770241
1632.000000	49.728847
1631.000000	49.701503
1630.000000	49.670484
1629.000000	49.648868
1628.000000	49.609095
1627.000000	49.578509
1626.000000	49.532791
1625.000000	49.503501
1624.000000	49.475617
1623.000000	49.437357
1622.000000	49.407959
1621.000000	49.361161
1620.000000	49.331439
1619.000000	49.297286
1618.000000	49.257729
1617.000000	49.234168
1616.000000	49.197637
1615.000000	49.150190
1614.000000	49.115280
1613.000000	49.075291
1612.000000	49.023089
1611.000000	48.985477
1610.000000	48.922142
1609.000000	48.859348
1608.000000	48.796230
1607.000000	48.726519
1606.000000	48.649782
1605.000000	48.551538
1604.000000	48.482043
1603.000000	48.413737
1602.000000	48.325436
1601.000000	48.237027
1600.000000	48.163209
1599.000000	48.091120
1598.000000	48.008115
1597.000000	47.914302
1596.000000	47.841348
1595.000000	47.781905
1594.000000	47.719435
1593.000000	47.661396
1592.000000	47.609410
1591.000000	47.547805
1590.000000	47.491928
1589.000000	47.440050
1588.000000	47.390333
1587.000000	47.330241
1586.000000	47.271662
1585.000000	47.230700
1584.000000	47.184442
1583.000000	47.136671
1582.000000	47.094736
1581.000000	47.049451
1580.000000	47.021566
1579.000000	46.993357
1578.000000	46.974011
1577.000000	46.965905
1576.000000	46.958123
1575.000000	46.960285
1574.000000	46.955530
1573.000000	46.958556
1572.000000	46.981901
1571.000000	47.000815
1570.000000	47.012163
1569.000000	47.026862
1568.000000	47.064365
1567.000000	47.107057
1566.000000	47.134077
1565.000000	47.162934
1564.000000	47.191035
1563.000000	47.204977
1562.000000	47.213515
1561.000000	47.223999
1560.000000	47.221081
1559.000000	47.214380
1558.000000	47.195142
1557.000000	47.160340
1556.000000	47.119162
1555.000000	47.074633
1554.000000	47.022863
1553.000000	46.967202
1552.000000	46.898356
1551.000000	46.825942
1550.000000	46.742937
1549.000000	46.667822
1548.000000	46.592167
1547.000000	46.525265
1546.000000	46.461282
1545.000000	46.404541
1544.000000	46.348664
1543.000000	46.314943
1542.000000	46.289220
1541.000000	46.266415
1540.000000	46.242314
1539.000000	46.208809
1538.000000	46.184707
1537.000000	46.153797
1536.000000	46.124399
1535.000000	46.084410
1534.000000	46.039881
1533.000000	46.003350
1532.000000	45.959254
1531.000000	45.905214
1530.000000	45.863603
1529.000000	45.809996
1528.000000	45.745581
1527.000000	45.697161
1526.000000	45.635448
1525.000000	45.555793
1524.000000	45.494512
1523.000000	45.449227
1522.000000	45.392377
1521.000000	45.323747
1520.000000	45.256089
1519.000000	45.190701
1518.000000	45.126934
1517.000000	45.055602
1516.000000	44.962329
1515.000000	44.887646
1514.000000	44.821826
1513.000000	44.734930
1512.000000	44.647494
1511.000000	44.562976
1510.000000	44.477917
1509.000000	44.398479
1508.000000	44.302937
1507.000000	44.230848
1506.000000	44.155516
1505.000000	44.084076
1504.000000	44.013284
1503.000000	43.931035
1502.000000	43.878725
1501.000000	43.804907
1500.000000	43.769889
1499.000000	43.725901
1498.000000	43.694882
1497.000000	43.656406
1496.000000	43.645922
1495.000000	43.648408
1494.000000	43.636843
1493.000000	43.621820
1492.000000	43.639437
1491.000000	43.642896
1490.000000	43.664620
1489.000000	43.688289
1488.000000	43.720064
1487.000000	43.735628
1486.000000	43.750219
1485.000000	43.760270
1484.000000	43.804042
1483.000000	43.817660
1482.000000	43.864891
1481.000000	43.899801
1480.000000	43.934278
1479.000000	43.970376
1478.000000	44.004746
1477.000000	44.061703
1476.000000	44.131847
1475.000000	44.195182
1474.000000	44.289211
1473.000000	44.375890
1472.000000	44.466461
1471.000000	44.573892
1470.000000	44.659275
1469.000000	44.758924
1468.000000	44.833390
1467.000000	44.949468
1466.000000	45.048685
1465.000000	45.162384
1464.000000	45.258142
1463.000000	45.378111
1462.000000	45.498943
1461.000000	45.611454
1460.000000	45.710563
1459.000000	45.825343
1458.000000	45.963253
1457.000000	46.094029
1456.000000	46.210862
1455.000000	46.331479
1454.000000	46.448745
1453.000000	46.581683
1452.000000	46.703164
1451.000000	46.822160
1450.000000	46.904192
1449.000000	47.027402
1448.000000	47.124782
1447.000000	47.273067
1446.000000	47.410436
1445.000000	47.516894
1444.000000	47.626162
1443.000000	47.744833
1442.000000	47.876258
1441.000000	47.998712
1440.000000	48.147321
1439.000000	48.261561
1438.000000	48.406387
1437.000000	48.527761
1436.000000	48.674532
1435.000000	48.832328
1434.000000	48.992826
1433.000000	49.174400
1432.000000	49.333817
1431.000000	49.488478
1430.000000	49.677834
1429.000000	49.882320
1428.000000	50.087346
1427.000000	50.308909
1426.000000	50.513287
1425.000000	50.755169
1424.000000	51.028718
1423.000000	51.248984
1422.000000	51.499404
1421.000000	51.800189
1420.000000	52.110917
1419.000000	52.411270
1418.000000	52.642560
1417.000000	52.935455
1416.000000	53.301304
1415.000000	53.682824
1414.000000	54.050078
1413.000000	54.346215
1412.000000	54.701905
1411.000000	55.083857
1410.000000	55.540709
1409.000000	55.933902
1408.000000	56.354547
1407.000000	56.732068
1406.000000	57.125801
1405.000000	57.568062
1404.000000	57.939856
1403.000000	58.282251
1402.000000	58.673931
1401.000000	59.135322
1400.000000	59.530136
1399.000000	59.792769
1398.000000	60.041027
1397.000000	60.396068
1396.000000	60.836384
1395.000000	61.129387
1394.000000	61.358083
1393.000000	61.618230
1392.000000	61.911990
1391.000000	62.174947
1390.000000	62.442444
1389.000000	62.795107
1388.000000	63.106159
1387.000000	63.348473
1386.000000	63.611430
1385.000000	63.862391
1384.000000	64.150747
1383.000000	64.409164
1382.000000	64.628025
1381.000000	64.764854
1380.000000	64.859964
1379.000000	64.960045
1378.000000	65.041321
1377.000000	65.163234
1376.000000	65.282878
1375.000000	65.415816
1374.000000	65.521842
1373.000000	65.685690
1372.000000	65.855807
1371.000000	65.985719
1370.000000	66.096716
1369.000000	66.249973
1368.000000	66.391233
1367.000000	66.519091
1366.000000	66.627710
1365.000000	66.737951
1364.000000	66.847436
1363.000000	66.974429
1362.000000	67.085859
1361.000000	67.149626
1360.000000	67.130280
1359.000000	67.223336
1358.000000	67.309800
1357.000000	67.392480
1356.000000	67.524445
1355.000000	67.687537
1354.000000	67.785349
1353.000000	67.887700
1352.000000	68.101913
1351.000000	68.297429
1350.000000	68.486568
1349.000000	68.695810
1348.000000	68.901485
1347.000000	69.071494
1346.000000	69.241070
1345.000000	69.449123
1344.000000	69.631237
1343.000000	69.778117
1342.000000	69.946180
1341.000000	70.092736
1340.000000	70.229889
1339.000000	70.371797
1338.000000	70.506248
1337.000000	70.630323
1336.000000	70.748022
1335.000000	70.850157
1334.000000	70.964396
1333.000000	71.071395
1332.000000	71.164019
1331.000000	71.245187
1330.000000	71.324085
1329.000000	71.401253
1328.000000	71.473883
1327.000000	71.534948
1326.000000	71.602281
1325.000000	71.670695
1324.000000	71.735543
1323.000000	71.785800
1322.000000	71.835841
1321.000000	71.876479
1320.000000	71.912577
1319.000000	71.951486
1318.000000	72.007363
1317.000000	72.057079
1316.000000	72.095556
1315.000000	72.135221
1314.000000	72.166996
1313.000000	72.215740
1312.000000	72.251298
1311.000000	72.284154
1310.000000	72.320145
1309.000000	72.341544
1308.000000	72.358945
1307.000000	72.392234
1306.000000	72.416551
1305.000000	72.431034
1304.000000	72.450488
1303.000000	72.466052
1302.000000	72.481183
1301.000000	72.494369
1300.000000	72.498367
1299.000000	72.507554
1298.000000	72.528522
1297.000000	72.542680
1296.000000	72.544301
1295.000000	72.539005
1294.000000	72.540843
1293.000000	72.552191
1292.000000	72.541275
1291.000000	72.528846
1290.000000	72.523874
1289.000000	72.510256
1288.000000	72.496530
1287.000000	72.487451
1286.000000	72.456325
1285.000000	72.431682
1284.000000	72.422172
1283.000000	72.400988
1282.000000	72.386397
1281.000000	72.371590
1280.000000	72.357540
1279.000000	72.351163
1278.000000	72.333546
1277.000000	72.328899
1276.000000	72.332898
1275.000000	72.334951
1274.000000	72.331169
1273.000000	72.340031
1272.000000	72.358405
1271.000000	72.362404
1270.000000	72.366511
1269.000000	72.386613
1268.000000	72.390180
1267.000000	72.396881
1266.000000	72.403366
1265.000000	72.410607
1264.000000	72.424549
1263.000000	72.420118
1262.000000	72.413957
1261.000000	72.421415
1260.000000	72.421415
1259.000000	72.427575
1258.000000	72.430602
1257.000000	72.431142
1256.000000	72.424225
1255.000000	72.408770
1254.000000	72.398934
1253.000000	72.381966
1252.000000	72.344246
1251.000000	72.318631
1250.000000	72.288693
1249.000000	72.250758
1248.000000	72.213254
1247.000000	72.176831
1246.000000	72.130033
1245.000000	72.073940
1244.000000	72.022818
1243.000000	71.990610
1242.000000	71.940678
1241.000000	71.914306
1240.000000	71.872912
1239.000000	71.826114
1238.000000	71.785692
1237.000000	71.769588
1236.000000	71.750242
1235.000000	71.721925
1234.000000	71.688745
1233.000000	71.659347
1232.000000	71.638488
1231.000000	71.609955
1230.000000	71.583475
1229.000000	71.560671
1228.000000	71.527166
1227.000000	71.513872
1226.000000	71.474856
1225.000000	71.463615
1224.000000	71.430111
1223.000000	71.396714
1222.000000	71.363318
1221.000000	71.352510
1220.000000	71.327651
1219.000000	71.303334
1218.000000	71.279016
1217.000000	71.248537
1216.000000	71.217302
1215.000000	71.197632
1214.000000	71.146943
1213.000000	71.105981
1212.000000	71.074637
1211.000000	71.015410
1210.000000	70.984067
1209.000000	70.937052
1208.000000	70.886147
1207.000000	70.825190
1206.000000	70.771691
1205.000000	70.731702
1204.000000	70.657775
1203.000000	70.614435
1202.000000	70.567205
1201.000000	70.517488
1200.000000	70.453721
1199.000000	70.377201
1198.000000	70.321108
1197.000000	70.251829
1196.000000	70.175093
1195.000000	70.115325
1194.000000	70.027240
1193.000000	69.961203
1192.000000	69.895924
1191.000000	69.821241
1190.000000	69.775091
1189.000000	69.739208
1188.000000	69.682251
1187.000000	69.702894
1186.000000	69.719862
1185.000000	69.737371
1184.000000	69.780711
1183.000000	69.815945
1182.000000	69.881117
1181.000000	69.951044
1180.000000	70.019783
1179.000000	70.097059
1178.000000	70.174985
1177.000000	70.256909
1176.000000	70.329538
1175.000000	70.389954
1174.000000	70.474256
1173.000000	70.580498
1172.000000	70.689334
1171.000000	70.798711
1170.000000	70.902899
1169.000000	71.037242
1168.000000	71.183473
1167.000000	71.325057
1166.000000	71.486852
1165.000000	71.624545
1164.000000	71.810658
1163.000000	71.955268
1162.000000	72.120306
1161.000000	72.283614
1160.000000	72.444760
1159.000000	72.574780
1158.000000	72.721551
1157.000000	72.845843
1156.000000	72.977051
1155.000000	73.080267
1154.000000	73.184888
1153.000000	73.286374
1152.000000	73.347439
1151.000000	73.429796
1150.000000	73.498859
1149.000000	73.574622
1148.000000	73.639470
1147.000000	73.712315
1146.000000	73.771759
1145.000000	73.848820
1144.000000	73.893997
1143.000000	73.970625
1142.000000	74.043579
1141.000000	74.111345
1140.000000	74.223315
1139.000000	74.313885
1138.000000	74.403051
1137.000000	74.542581
1136.000000	74.669250
1135.000000	74.797757
1134.000000	74.878060
1133.000000	74.957822
1132.000000	75.042016
1131.000000	75.117780
1130.000000	75.223914
1129.000000	75.290491
1128.000000	75.363120
1127.000000	75.435641
1126.000000	75.490762
1125.000000	75.547720
1124.000000	75.587385
1123.000000	75.620349
1122.000000	75.653097
1121.000000	75.652124
1120.000000	75.692438
1119.000000	75.691682
1118.000000	75.720971
1117.000000	75.735238
1116.000000	75.743668
1115.000000	75.740750
1114.000000	75.751882
1113.000000	75.770688
1112.000000	75.790034
1111.000000	75.785819
1110.000000	75.794465
1109.000000	75.815973
1108.000000	75.816838
1107.000000	75.822241
1106.000000	75.828510
1105.000000	75.843641
1104.000000	75.836616
1103.000000	75.836724
1102.000000	75.852504
1101.000000	75.853693
1100.000000	75.844506
1099.000000	75.843317
1098.000000	75.842344
1097.000000	75.824943
1096.000000	75.821485
1095.000000	75.812839
1094.000000	75.808515
1093.000000	75.813811
1092.000000	75.781279
1091.000000	75.770039
1090.000000	75.773065
1089.000000	75.753179
1088.000000	75.738264
1087.000000	75.732752
1086.000000	75.710379
1085.000000	75.698491
1084.000000	75.703246
1083.000000	75.680333
1082.000000	75.673524
1081.000000	75.668228
1080.000000	75.670714
1079.000000	75.675253
1078.000000	75.667796
1077.000000	75.661095
1076.000000	75.648234
1075.000000	75.643694
1074.000000	75.628996
1073.000000	75.634616
1072.000000	75.639803
1071.000000	75.633859
1070.000000	75.639263
1069.000000	75.650071
1068.000000	75.644775
1067.000000	75.633859
1066.000000	75.631049
1065.000000	75.629104
1064.000000	75.614837
1063.000000	75.634183
1062.000000	75.640128
1061.000000	75.639155
1060.000000	75.640236
1059.000000	75.649314
1058.000000	75.652233
1057.000000	75.651584
1056.000000	75.664770
1055.000000	75.663581
1054.000000	75.654718
1053.000000	75.667580
1052.000000	75.676983
1051.000000	75.687250
1050.000000	75.694492
1049.000000	75.709299
1048.000000	75.712325
1047.000000	75.719782
1046.000000	75.732427
1045.000000	75.732860
1044.000000	75.748639
1043.000000	75.762690
1042.000000	75.774254
1041.000000	75.779226
1040.000000	75.780307
1039.000000	75.792952
1038.000000	75.805057
1037.000000	75.817918
1036.000000	75.843857
1035.000000	75.851207
1034.000000	75.858124
1033.000000	75.884063
1032.000000	75.897465
1031.000000	75.900491
1030.000000	75.915838
1029.000000	75.935401
1028.000000	75.949127
1027.000000	75.964366
1026.000000	75.990197
1025.000000	76.018946
1024.000000	76.043696
1023.000000	76.051478
1022.000000	76.067041
1021.000000	76.096115
1020.000000	76.119352
1019.000000	76.132646
1018.000000	76.152640
1017.000000	76.181173
1016.000000	76.218461
1015.000000	76.260503
1014.000000	76.289253
1013.000000	76.313462
1012.000000	76.337348
1011.000000	76.371069
1010.000000	76.423595
1009.000000	76.469421
1008.000000	76.519137
1007.000000	76.547670
1006.000000	76.574690
1005.000000	76.623218
1004.000000	76.652075
1003.000000	76.698874
1002.000000	76.742321
1001.000000	76.776691
1000.000000	76.820355
999.000000	76.853103
998.000000	76.902063
997.000000	76.929839
996.000000	76.961506
995.000000	77.008845
994.000000	77.058778
993.000000	77.082880
992.000000	77.132812
991.000000	77.178314
990.000000	77.194093
989.000000	77.229219
988.000000	77.268020
987.000000	77.293418
986.000000	77.328436
985.000000	77.374154
984.000000	77.389825
983.000000	77.427113
982.000000	77.454024
981.000000	77.504605
980.000000	77.532922
979.000000	77.549891
978.000000	77.579937
977.000000	77.620467
976.000000	77.670291
975.000000	77.705417
974.000000	77.728978
973.000000	77.740219
972.000000	77.793826
971.000000	77.851648
970.000000	77.880289
969.000000	77.899960
968.000000	77.940057
967.000000	77.950649
966.000000	77.952054
965.000000	77.999393
964.000000	78.066294
963.000000	78.079048
962.000000	78.086721
961.000000	78.089531
960.000000	78.138275
959.000000	78.150380
958.000000	78.209932
957.000000	78.211121
956.000000	78.219227
955.000000	78.235006
954.000000	78.274779
953.000000	78.314553
952.000000	78.309581
951.000000	78.321794
950.000000	78.292937
949.000000	78.286452
948.000000	78.334223
947.000000	78.313580
946.000000	78.299854
945.000000	78.346220
944.000000	78.327306
943.000000	78.318011
942.000000	78.288397
941.000000	78.304501
940.000000	78.255649
939.000000	78.215119
938.000000	78.186695
937.000000	78.224090
936.000000	78.210040
935.000000	78.160431
934.000000	78.132223
933.000000	78.092882
932.000000	78.135249
931.000000	78.098718
930.000000	78.049650
929.000000	78.000258
928.000000	78.053865
927.000000	77.988369
926.000000	77.899203
925.000000	77.862997
924.000000	77.798257
923.000000	77.837382
922.000000	77.741948
921.000000	77.673317
920.000000	77.605984
919.000000	77.524816
918.000000	77.481152
917.000000	77.420952
916.000000	77.338487
915.000000	77.245107
914.000000	77.183718
913.000000	77.097038
912.000000	77.021599
911.000000	76.911790
910.000000	76.830190
909.000000	76.752157
908.000000	76.680824
907.000000	76.587984
906.000000	76.498819
905.000000	76.405870
904.000000	76.349237
903.000000	76.168852
902.000000	76.095250
901.000000	75.985225
900.000000	75.926754
899.000000	75.843101
898.000000	75.783333
897.000000	75.663257
896.000000	75.500489
895.000000	75.412188
894.000000	75.323131
893.000000	75.209864
892.000000	75.061903
891.000000	74.981059
890.000000	74.882491
889.000000	74.754309
888.000000	74.683625
887.000000	74.619642
886.000000	74.530585
885.000000	74.451903
884.000000	74.414291
883.000000	74.346525
882.000000	74.280273
881.000000	74.253901
880.000000	74.185379
879.000000	74.160304
878.000000	74.094376
877.000000	74.046173
876.000000	74.015262
875.000000	73.895618
874.000000	73.774353
873.000000	73.597535
872.000000	73.485781
871.000000	73.440388
870.000000	73.517989
869.000000	73.616125
868.000000	73.672326
867.000000	73.723664
866.000000	73.783324
865.000000	73.843740
864.000000	73.924475
863.000000	73.960358
862.000000	74.044119
861.000000	74.075894
860.000000	74.166357
859.000000	74.258008
858.000000	75.283033
857.000000	74.924800
856.000000	75.729900
855.000000	75.194400
854.000000	74.832400
853.000000	75.574500
852.000000	75.315900
851.000000	75.518700
850.000000	76.073400
849.000000	76.438600
848.000000	76.306200
847.000000	76.558200
846.000000	76.464800
845.000000	76.741300
844.000000	77.285500
843.000000	77.456600
842.000000	77.686800
841.000000	77.905300
840.000000	78.409000
839.000000	78.583400
838.000000	78.835200
837.000000	79.131300
836.000000	79.299000
835.000000	79.847500
834.000000	80.271400
833.000000	80.445600
832.000000	80.915900
831.000000	81.453000
830.000000	81.731200
829.000000	82.142100
828.000000	82.744400
827.000000	82.874000
826.000000	83.182200
825.000000	83.485800
824.000000	83.931100
823.000000	84.374000
822.000000	84.558700
821.000000	84.964300
820.000000	85.425700
819.000000	85.625100
818.000000	86.148300
817.000000	86.552400
816.000000	86.969000
815.000000	87.231500
814.000000	87.692200
813.000000	87.998000
812.000000	88.163100
811.000000	88.510100
810.000000	89.014400
809.000000	89.114700
808.000000	89.248800
807.000000	89.558800
806.000000	90.016300
805.000000	90.114900
804.000000	90.287400
803.000000	90.556900
802.000000	90.596400
801.000000	90.868100
800.000000	90.973900
799.000000	90.985900
798.000000	91.065200
797.000000	91.172600
796.000000	91.297200
795.000000	91.439400
794.000000	91.405000
793.000000	91.474900
792.000000	91.524600
791.000000	91.368400
790.000000	91.364200
789.000000	91.316800
788.000000	91.393900
787.000000	91.357500
786.000000	91.234200
785.000000	91.271300
784.000000	91.251700
783.000000	91.111200
782.000000	90.974400
781.000000	90.869200
780.000000	90.771600
779.000000	90.603800
778.000000	90.515600
777.000000	90.458500
776.000000	90.364100
775.000000	90.178600
774.000000	90.143700
773.000000	89.883800
772.000000	89.736900
771.000000	89.605500
770.000000	89.593300
769.000000	89.559000
768.000000	89.318600
767.000000	89.242100
766.000000	89.205500
765.000000	89.193300
764.000000	89.157900
763.000000	89.081200
762.000000	89.037300
761.000000	88.809300
760.000000	88.588100
759.000000	88.543900
758.000000	88.396000
757.000000	88.369900
756.000000	88.256100
755.000000	88.128000
754.000000	88.072200
753.000000	87.961000
752.000000	87.833500
751.000000	87.686200
750.000000	87.629200
749.000000	87.644600
748.000000	87.501200
747.000000	87.339100
746.000000	87.333000
745.000000	87.171500
744.000000	87.064300
743.000000	87.072400
742.000000	86.962400
741.000000	86.896700
740.000000	86.828100
739.000000	86.715800
738.000000	86.743000
737.000000	86.736000
736.000000	86.599600
735.000000	86.536200
734.000000	86.530800
733.000000	86.486500
732.000000	86.440400
731.000000	86.366000
730.000000	86.301800
729.000000	86.220100
728.000000	86.101000
727.000000	85.983500
726.000000	85.822500
725.000000	85.659900
724.000000	85.536900
723.000000	85.289400
722.000000	84.961200
721.000000	84.660500
720.000000	84.356300
719.000000	84.032600
718.000000	83.642900
717.000000	83.334700
716.000000	82.898500
715.000000	82.350700
714.000000	81.782900
713.000000	81.243100
712.000000	80.697500
711.000000	80.093000
710.000000	79.457500
709.000000	78.791400
708.000000	78.169400
707.000000	77.524500
706.000000	76.873400
705.000000	76.147500
704.000000	75.434900
703.000000	74.759300
702.000000	74.099900
701.000000	73.480800
700.000000	72.813700
699.000000	72.202700
698.000000	71.675700
697.000000	71.142600
696.000000	70.706500
695.000000	70.259000
694.000000	69.854700
693.000000	69.488300
692.000000	69.166900
691.000000	68.826300
690.000000	68.489100
689.000000	68.101600
688.000000	67.879600
687.000000	67.685600
686.000000	67.510700
685.000000	67.327800
684.000000	67.135000
683.000000	66.960800
682.000000	66.736300
681.000000	66.555800
680.000000	66.361400
679.000000	66.115000
678.000000	65.885300
677.000000	65.574400
676.000000	65.302700
675.000000	65.040300
674.000000	64.744400
673.000000	64.426200
672.000000	64.054500
671.000000	63.722100
670.000000	63.372200
669.000000	63.003900
668.000000	62.608700
667.000000	62.242000
666.000000	61.897600
665.000000	61.535600
664.000000	61.224600
663.000000	60.917000
662.000000	60.651700
661.000000	60.412700
660.000000	60.203000
659.000000	60.011600
658.000000	59.856900
657.000000	59.803500
656.000000	59.691500
655.000000	59.637600
654.000000	59.553200
653.000000	59.571800
652.000000	59.533400
651.000000	59.524400
650.000000	59.518200
649.000000	59.487300
648.000000	59.486700
647.000000	59.458800
646.000000	59.370900
645.000000	59.280500
644.000000	59.191900
643.000000	59.099900
642.000000	58.934100
641.000000	58.758800
640.000000	58.575900
639.000000	58.356000
638.000000	58.057100
637.000000	57.693300
636.000000	57.361000
635.000000	56.963200
634.000000	56.530800
633.000000	56.039100
632.000000	55.471000
631.000000	54.957800
630.000000	54.419500
629.000000	53.856800
628.000000	53.289400
627.000000	52.796600
626.000000	52.306100
625.000000	51.866900
624.000000	51.441900
623.000000	51.084100
622.000000	50.834200
621.000000	50.643900
620.000000	50.495000
619.000000	50.515400
618.000000	50.576600
617.000000	50.776800
616.000000	51.010300
615.000000	51.324700
614.000000	51.761000
613.000000	52.240200
612.000000	52.790100
611.000000	53.382600
610.000000	54.019300
609.000000	54.673000
608.000000	55.400100
607.000000	56.133900
606.000000	56.851600
605.000000	57.612800
604.000000	58.395400
603.000000	59.109100
602.000000	59.876100
601.000000	60.597100
600.000000	61.239900
599.000000	61.896200
598.000000	62.539600
597.000000	63.187700
596.000000	63.794500
595.000000	64.339700
594.000000	64.961300
593.000000	65.470200
592.000000	66.020600
591.000000	66.454400
590.000000	66.903700
589.000000	67.224400
588.000000	67.540200
587.000000	67.932300
586.000000	68.213100
585.000000	68.519300
584.000000	68.771500
583.000000	69.061100
582.000000	69.307800
581.000000	69.546600
580.000000	69.728800
579.000000	69.922000
578.000000	70.022500
577.000000	70.167500
576.000000	70.217000
575.000000	70.232900
574.000000	70.251500
573.000000	70.328400
572.000000	70.317600
571.000000	70.316900
570.000000	70.259200
569.000000	70.185700
568.000000	70.100300
567.000000	70.000300
566.000000	69.840000
565.000000	69.664100
564.000000	69.497200
563.000000	69.277600
562.000000	69.050700
561.000000	68.871700
560.000000	68.666100
559.000000	68.573300
558.000000	68.350900
557.000000	68.084500
556.000000	67.855000
555.000000	67.449200
554.000000	67.143800
553.000000	66.754800
552.000000	66.490700
551.000000	66.129400
550.000000	65.737100
549.000000	65.329300
548.000000	64.916400
547.000000	64.472000
546.000000	64.012900
545.000000	63.538300
544.000000	63.010100
543.000000	62.462100
542.000000	61.919100
541.000000	61.345600
540.000000	60.807100
539.000000	60.206500
538.000000	59.558400
537.000000	58.946000
536.000000	58.271600
535.000000	57.630200
534.000000	56.921500
533.000000	56.207400
532.000000	55.507200
531.000000	54.760400
530.000000	54.030900
529.000000	53.217000
528.000000	52.391300
527.000000	51.538100
526.000000	50.693500
525.000000	49.832400
524.000000	48.993200
523.000000	48.090900
522.000000	47.172400
521.000000	46.291100
520.000000	45.399800
519.000000	44.517700
518.000000	43.659900
517.000000	42.781900
516.000000	41.959700
515.000000	41.153200
514.000000	40.338000
513.000000	39.517300
512.000000	38.722300
511.000000	37.913400
510.000000	37.143600
509.000000	36.389300
508.000000	35.655400
507.000000	34.979800
506.000000	34.325300
505.000000	33.679100
504.000000	32.999600
503.000000	32.411300
502.000000	31.817600
501.000000	31.231100
500.000000	30.642000
499.000000	30.068900
498.000000	29.540400
497.000000	29.024400
496.000000	28.484800
495.000000	27.972000
494.000000	27.477700
493.000000	26.961400
492.000000	26.444700
491.000000	25.932400
490.000000	25.454600
489.000000	24.999500
488.000000	24.553800
487.000000	24.117300
486.000000	23.690500
485.000000	23.300300
484.000000	22.910000
483.000000	22.567400
482.000000	22.250900
481.000000	21.951100
480.000000	21.673700
479.000000	21.426400
478.000000	21.211400
477.000000	21.025100
476.000000	20.875900
475.000000	20.751200
474.000000	20.651100
473.000000	20.561700
472.000000	20.493500
471.000000	20.455800
470.000000	20.436700
469.000000	20.411900
468.000000	20.393700
467.000000	20.403000
466.000000	20.407100
465.000000	20.406200
464.000000	20.411800
463.000000	20.432000
462.000000	20.452800
461.000000	20.454600
460.000000	20.439400
459.000000	20.421500
458.000000	20.395100
457.000000	20.391200
456.000000	20.374400
455.000000	20.313400
454.000000	20.242000
453.000000	20.190400
452.000000	20.124300
451.000000	20.042100
450.000000	19.941400
449.000000	19.827300
448.000000	19.701600
447.000000	19.575100
446.000000	19.460000
445.000000	19.332200
444.000000	19.172200
443.000000	18.997600
442.000000	18.831500
441.000000	18.650300
440.000000	18.446700
439.000000	18.254700
438.000000	18.024700
437.000000	17.799400
436.000000	17.577400
435.000000	17.344000
434.000000	17.127500
433.000000	16.881600
432.000000	16.626200
431.000000	16.375900
430.000000	16.114100
429.000000	15.857800
428.000000	15.596600
427.000000	15.333800
426.000000	15.051600
425.000000	14.747800
424.000000	14.451900
423.000000	14.169300
422.000000	13.883800
421.000000	13.583400
420.000000	13.291000
419.000000	12.990900
418.000000	12.680100
417.000000	12.361900
416.000000	12.080800
415.000000	11.796400
414.000000	11.498400
413.000000	11.210900
412.000000	10.923700
411.000000	10.629100
410.000000	10.337900
409.000000	10.087500
408.000000	9.841700
407.000000	9.603100
406.000000	9.349600
405.000000	9.090500
404.000000	8.884500
403.000000	8.677700
402.000000	8.474100
401.000000	8.273700
400.000000	8.103400
399.000000	7.941700
398.000000	7.796700
397.000000	7.633300
396.000000	7.456800
395.000000	7.322000
394.000000	7.201800
393.000000	7.075000
392.000000	6.980300
391.000000	6.869900
390.000000	6.764900
389.000000	6.692100
388.000000	6.607000
387.000000	6.521400
386.000000	6.463900
385.000000	6.396600
384.000000	6.329600
383.000000	6.273400
382.000000	6.228100
381.000000	6.174200
380.000000	6.141800
379.000000	6.101400
378.000000	6.069800
377.000000	6.035300
376.000000	5.721100
375.000000	5.274700
374.000000	5.522400
373.000000	5.518300
372.000000	5.649200
371.000000	5.416400
370.000000	5.493100
369.000000	5.807100
368.000000	5.820100
367.000000	5.636000
366.000000	5.710000
365.000000	5.791400
364.000000	5.872300
363.000000	5.589400
362.000000	5.868400
361.000000	5.867600
360.000000	5.860300
359.000000	5.842800
358.000000	5.916000
357.000000	5.882200
356.000000	5.543200
355.000000	6.088700
354.000000	5.995500
353.000000	5.850500
352.000000	5.668000
351.000000	5.868600
350.000000	5.945400
349.000000	5.716700
348.000000	5.757000
347.000000	6.027600
346.000000	6.138200
345.000000	5.691500
344.000000	5.976300
343.000000	6.042600
342.000000	6.111400
341.000000	6.176100
340.000000	5.915800
339.000000	6.069100
338.000000	6.205100
337.000000	5.997700
336.000000	6.092900
335.000000	6.240600
334.000000	6.007100
333.000000	6.184600
332.000000	6.542900
331.000000	6.404700
330.000000	6.532000
329.000000	6.981000
328.000000	6.242700
327.000000	6.378800
326.000000	6.674000
325.000000	6.407800
324.000000	6.559800
323.000000	6.925900
322.000000	7.818600
321.000000	7.218200
320.000000	8.117900
319.000000	7.521900
318.000000	6.420100
317.000000	7.247200
316.000000	5.833100
315.000000	5.684500
314.000000	5.736300
313.000000	5.764200
312.000000	5.752200
311.000000	5.720900
310.000000	5.718900
309.000000	5.650600
308.000000	5.715800
307.000000	5.704000
306.000000	5.725800
305.000000	5.721000
304.000000	5.734700
303.000000	5.698400
302.000000	5.709700
301.000000	5.750600
300.000000	5.740900
299.000000	5.776100
298.000000	5.777400
297.000000	5.730300
296.000000	5.716000
295.000000	5.703400
294.000000	5.778500
293.000000	5.795600
292.000000	5.797500
291.000000	5.795800
290.000000	5.755900
289.000000	5.782000
288.000000	5.822400
287.000000	5.829500
286.000000	5.766400
285.000000	5.782900
284.000000	5.760800
283.000000	5.786600
282.000000	5.704600
281.000000	5.796800
280.000000	5.768900
279.000000	5.799100
278.000000	5.894500
277.000000	5.798500
276.000000	5.829100
275.000000	5.835200
274.000000	5.973600
273.000000	5.892500
272.000000	5.906600
271.000000	5.885000
270.000000	5.901500
269.000000	5.935400
268.000000	5.900100
267.000000	5.915900
266.000000	5.974500
265.000000	5.995100
264.000000	6.021600
263.000000	6.062300
262.000000	6.120900
261.000000	6.143600
260.000000	6.136300
259.000000	6.166600
258.000000	6.172000
257.000000	6.239600
256.000000	6.272500
255.000000	6.225100
254.000000	6.321500
253.000000	6.253600
252.000000	6.279700
251.000000	6.341900
250.000000	6.349400
