PE UV       SUBTECH     SPECTRUM    ASCII       PEDS        4.00        
   -1
CICIMAUCR0108-2.Sample.ASC
24/04/04
14:07:06.00
24/04/04
14:07:06.00
Vinicio Soto Monge
C. resplendens
250,000000
1
Lambda 1050
1050L1511233
PerkinElmer UV WinLab 6.3.2.0749 / 2.02.05 Lambda 900 UV/VIS/NIR, Aug  7 2015 09:38:08

0
0
3350/servo 860,8/2
0
0
UV/VIS
1
1
1
DoubleDePol,CommonBeamDepol,RBeamAtt,SBeamAtt,60mm sphere, WB InGaAs Detector
0
0
0
0
Program
Program
3350/servo 860,8/2
3350/0,2 860,8/0,2
3350/0,2 860,8/0,2
0
15.00
 
 
 
0
 
860,8
319,2
860,8
Front
100
on
S:100 R:100
0
0
0
0
 
0
 
 
 
0
 
 
0
0
0
0
0
 
 
 
 
0
0


0
0
#HDR
-1
-1
#GR
nm
%R
1.0
0.0
2500,000000
-1,000000
2251
8
68,305600
5,100600
#DATA
2500.000000	5.404117
2499.000000	5.420826
2498.000000	5.348786
2497.000000	5.260436
2496.000000	5.316668
2495.000000	5.356790
2494.000000	5.261137
2493.000000	5.320570
2492.000000	5.276145
2491.000000	5.311265
2490.000000	5.239325
2489.000000	5.218113
2488.000000	5.299458
2487.000000	5.287652
2486.000000	5.313066
2485.000000	5.259736
2484.000000	5.280548
2483.000000	5.218413
2482.000000	5.249830
2481.000000	5.275745
2480.000000	5.268141
2479.000000	5.215211
2478.000000	5.234722
2477.000000	5.225617
2476.000000	5.251431
2475.000000	5.253933
2474.000000	5.222115
2473.000000	5.237423
2472.000000	5.257435
2471.000000	5.249230
2470.000000	5.244227
2469.000000	5.248830
2468.000000	5.240825
2467.000000	5.259236
2466.000000	5.289453
2465.000000	5.271242
2464.000000	5.278346
2463.000000	5.313166
2462.000000	5.317668
2461.000000	5.363394
2460.000000	5.385606
2459.000000	5.390809
2458.000000	5.415723
2457.000000	5.428030
2456.000000	5.442638
2455.000000	5.463149
2454.000000	5.496268
2453.000000	5.515078
2452.000000	5.538692
2451.000000	5.583917
2450.000000	5.576113
2449.000000	5.598125
2448.000000	5.619137
2447.000000	5.677769
2446.000000	5.721894
2445.000000	5.761616
2444.000000	5.767619
2443.000000	5.800938
2442.000000	5.835958
2441.000000	5.845063
2440.000000	5.876680
2439.000000	5.912300
2438.000000	5.948721
2437.000000	5.956125
2436.000000	5.975135
2435.000000	5.998448
2434.000000	6.020260
2433.000000	6.043273
2432.000000	6.055780
2431.000000	6.078293
2430.000000	6.108810
2429.000000	6.115614
2428.000000	6.133724
2427.000000	6.159038
2426.000000	6.174246
2425.000000	6.173946
2424.000000	6.207065
2423.000000	6.231779
2422.000000	6.231178
2421.000000	6.255692
2420.000000	6.255292
2419.000000	6.269299
2418.000000	6.292412
2417.000000	6.311823
2416.000000	6.318027
2415.000000	6.333535
2414.000000	6.348644
2413.000000	6.348143
2412.000000	6.363552
2411.000000	6.384764
2410.000000	6.404275
2409.000000	6.413980
2408.000000	6.426287
2407.000000	6.433391
2406.000000	6.444797
2405.000000	6.444597
2404.000000	6.468110
2403.000000	6.495726
2402.000000	6.496526
2401.000000	6.522141
2400.000000	6.548255
2399.000000	6.555459
2398.000000	6.568967
2397.000000	6.581274
2396.000000	6.586276
2395.000000	6.582875
2394.000000	6.600784
2393.000000	6.615393
2392.000000	6.632902
2391.000000	6.634503
2390.000000	6.638105
2389.000000	6.643508
2388.000000	6.642008
2387.000000	6.665521
2386.000000	6.672124
2385.000000	6.665321
2384.000000	6.668522
2383.000000	6.679528
2382.000000	6.677227
2381.000000	6.661819
2380.000000	6.651913
2379.000000	6.657116
2378.000000	6.652513
2377.000000	6.653014
2376.000000	6.655315
2375.000000	6.637705
2374.000000	6.614692
2373.000000	6.600184
2372.000000	6.596382
2371.000000	6.585076
2370.000000	6.564364
2369.000000	6.542752
2368.000000	6.521140
2367.000000	6.503330
2366.000000	6.478416
2365.000000	6.446298
2364.000000	6.402774
2363.000000	6.359650
2362.000000	6.323130
2361.000000	6.294013
2360.000000	6.269299
2359.000000	6.227776
2358.000000	6.192557
2357.000000	6.178349
2356.000000	6.166142
2355.000000	6.144630
2354.000000	6.130722
2353.000000	6.119716
2352.000000	6.111812
2351.000000	6.128421
2350.000000	6.144830
2349.000000	6.159338
2348.000000	6.184652
2347.000000	6.202062
2346.000000	6.234480
2345.000000	6.257993
2344.000000	6.267799
2343.000000	6.299817
2342.000000	6.330434
2341.000000	6.346543
2340.000000	6.363352
2339.000000	6.358749
2338.000000	6.355648
2337.000000	6.354747
2336.000000	6.348844
2335.000000	6.342040
2334.000000	6.335837
2333.000000	6.314725
2332.000000	6.281606
2331.000000	6.264897
2330.000000	6.239783
2329.000000	6.198360
2328.000000	6.160339
2327.000000	6.116014
2326.000000	6.068387
2325.000000	6.033168
2324.000000	5.983140
2323.000000	5.925007
2322.000000	5.856869
2321.000000	5.790232
2320.000000	5.726697
2319.000000	5.663161
2318.000000	5.599526
2317.000000	5.519281
2316.000000	5.456046
2315.000000	5.401015
2314.000000	5.348786
2313.000000	5.286051
2312.000000	5.251932
2311.000000	5.210108
2310.000000	5.162982
2309.000000	5.130964
2308.000000	5.117356
2307.000000	5.103449
2306.000000	5.107651
2305.000000	5.125461
2304.000000	5.133165
2303.000000	5.147573
2302.000000	5.174989
2301.000000	5.190898
2300.000000	5.207207
2299.000000	5.240325
2298.000000	5.267540
2297.000000	5.282349
2296.000000	5.324172
2295.000000	5.331476
2294.000000	5.353989
2293.000000	5.348786
2292.000000	5.367396
2291.000000	5.371198
2290.000000	5.359592
2289.000000	5.355389
2288.000000	5.354789
2287.000000	5.343583
2286.000000	5.315067
2285.000000	5.312365
2284.000000	5.296857
2283.000000	5.264839
2282.000000	5.253633
2281.000000	5.238424
2280.000000	5.207807
2279.000000	5.184794
2278.000000	5.173388
2277.000000	5.166284
2276.000000	5.143071
2275.000000	5.123060
2274.000000	5.117557
2273.000000	5.120558
2272.000000	5.140770
2271.000000	5.128162
2270.000000	5.111153
2269.000000	5.148074
2268.000000	5.170286
2267.000000	5.186495
2266.000000	5.211409
2265.000000	5.233121
2264.000000	5.289553
2263.000000	5.335178
2262.000000	5.373800
2261.000000	5.431432
2260.000000	5.489264
2259.000000	5.551199
2258.000000	5.599926
2257.000000	5.680271
2256.000000	5.758915
2255.000000	5.828153
2254.000000	5.898092
2253.000000	5.944118
2252.000000	5.999449
2251.000000	6.061083
2250.000000	6.132423
2249.000000	6.166242
2248.000000	6.259494
2247.000000	6.274602
2246.000000	6.333435
2245.000000	6.383163
2244.000000	6.426387
2243.000000	6.468511
2242.000000	6.511435
2241.000000	6.519639
2240.000000	6.566565
2239.000000	6.604887
2238.000000	6.618895
2237.000000	6.653914
2236.000000	6.672124
2235.000000	6.684431
2234.000000	6.689534
2233.000000	6.679829
2232.000000	6.702841
2231.000000	6.699740
2230.000000	6.705943
2229.000000	6.699640
2228.000000	6.706844
2227.000000	6.638806
2226.000000	6.640807
2225.000000	6.601285
2224.000000	6.580073
2223.000000	6.549356
2222.000000	6.512235
2221.000000	6.477416
2220.000000	6.450601
2219.000000	6.409778
2218.000000	6.373558
2217.000000	6.324931
2216.000000	6.284608
2215.000000	6.278905
2214.000000	6.259294
2213.000000	6.249288
2212.000000	6.256392
2211.000000	6.239083
2210.000000	6.263096
2209.000000	6.292012
2208.000000	6.314525
2207.000000	6.375259
2206.000000	6.416782
2205.000000	6.498327
2204.000000	6.575470
2203.000000	6.652213
2202.000000	6.732058
2201.000000	6.843920
2200.000000	6.933170
2199.000000	7.042931
2198.000000	7.172904
2197.000000	7.261153
2196.000000	7.366512
2195.000000	7.486379
2194.000000	7.573027
2193.000000	7.660476
2192.000000	7.741421
2191.000000	7.834673
2190.000000	7.904012
2189.000000	7.968248
2188.000000	8.011372
2187.000000	8.071806
2186.000000	8.132039
2185.000000	8.174663
2184.000000	8.209783
2183.000000	8.257309
2182.000000	8.289527
2181.000000	8.316542
2180.000000	8.357265
2179.000000	8.380678
2178.000000	8.412896
2177.000000	8.430706
2176.000000	8.472629
2175.000000	8.487638
2174.000000	8.514353
2173.000000	8.533663
2172.000000	8.556076
2171.000000	8.591196
2170.000000	8.614108
2169.000000	8.649528
2168.000000	8.670940
2167.000000	8.688750
2166.000000	8.735776
2165.000000	8.774198
2164.000000	8.794909
2163.000000	8.836833
2162.000000	8.874254
2161.000000	8.903370
2160.000000	8.916677
2159.000000	8.954798
2158.000000	8.995721
2157.000000	9.025838
2156.000000	9.061358
2155.000000	9.102981
2154.000000	9.131197
2153.000000	9.166517
2152.000000	9.200836
2151.000000	9.221147
2150.000000	9.261470
2149.000000	9.292687
2148.000000	9.339913
2147.000000	9.367329
2146.000000	9.385639
2145.000000	9.418657
2144.000000	9.448774
2143.000000	9.470386
2142.000000	9.487296
2141.000000	9.507607
2140.000000	9.526718
2139.000000	9.571543
2138.000000	9.606963
2137.000000	9.607463
2136.000000	9.619970
2135.000000	9.630676
2134.000000	9.654889
2133.000000	9.673700
2132.000000	9.675901
2131.000000	9.683505
2130.000000	9.691009
2129.000000	9.694011
2128.000000	9.704917
2127.000000	9.714923
2126.000000	9.712221
2125.000000	9.717424
2124.000000	9.731132
2123.000000	9.714322
2122.000000	9.707218
2121.000000	9.705117
2120.000000	9.697813
2119.000000	9.693011
2118.000000	9.694511
2117.000000	9.681904
2116.000000	9.653488
2115.000000	9.642082
2114.000000	9.631376
2113.000000	9.619069
2112.000000	9.618469
2111.000000	9.604161
2110.000000	9.595856
2109.000000	9.593855
2108.000000	9.576445
2107.000000	9.564139
2106.000000	9.565439
2105.000000	9.560837
2104.000000	9.540125
2103.000000	9.513410
2102.000000	9.501604
2101.000000	9.501304
2100.000000	9.493199
2099.000000	9.488296
2098.000000	9.481693
2097.000000	9.484494
2096.000000	9.472588
2095.000000	9.461381
2094.000000	9.468685
2093.000000	9.463482
2092.000000	9.470987
2091.000000	9.458380
2090.000000	9.448174
2089.000000	9.455278
2088.000000	9.448574
2087.000000	9.430664
2086.000000	9.427863
2085.000000	9.428063
2084.000000	9.421459
2083.000000	9.415856
2082.000000	9.408952
2081.000000	9.406851
2080.000000	9.394344
2079.000000	9.384738
2078.000000	9.383138
2077.000000	9.370130
2076.000000	9.356923
2075.000000	9.348118
2074.000000	9.338313
2073.000000	9.326706
2072.000000	9.307295
2071.000000	9.287584
2070.000000	9.272776
2069.000000	9.261170
2068.000000	9.256167
2067.000000	9.228952
2066.000000	9.192931
2065.000000	9.170219
2064.000000	9.159913
2063.000000	9.136700
2062.000000	9.109185
2061.000000	9.103281
2060.000000	9.084871
2059.000000	9.056455
2058.000000	9.034543
2057.000000	9.030141
2056.000000	9.009729
2055.000000	9.023737
2054.000000	9.009129
2053.000000	9.027239
2052.000000	9.037545
2051.000000	9.054654
2050.000000	9.086672
2049.000000	9.132698
2048.000000	9.168918
2047.000000	9.221647
2046.000000	9.281681
2045.000000	9.345116
2044.000000	9.432365
2043.000000	9.519013
2042.000000	9.607163
2041.000000	9.692610
2040.000000	9.781260
2039.000000	9.865907
2038.000000	9.959059
2037.000000	10.053112
2036.000000	10.117147
2035.000000	10.219104
2034.000000	10.284141
2033.000000	10.354880
2032.000000	10.429822
2031.000000	10.497960
2030.000000	10.574302
2029.000000	10.629934
2028.000000	10.686765
2027.000000	10.753402
2026.000000	10.790223
2025.000000	10.837049
2024.000000	10.880874
2023.000000	10.935604
2022.000000	10.995738
2021.000000	11.049868
2020.000000	11.100796
2019.000000	11.135516
2018.000000	11.167834
2017.000000	11.226266
2016.000000	11.263787
2015.000000	11.294504
2014.000000	11.343632
2013.000000	11.372048
2012.000000	11.401564
2011.000000	11.450091
2010.000000	11.441186
2009.000000	11.488813
2008.000000	11.524533
2007.000000	11.572760
2006.000000	11.609680
2005.000000	11.610581
2004.000000	11.637596
2003.000000	11.660909
2002.000000	11.688124
2001.000000	11.690526
2000.000000	11.709336
1999.000000	11.726946
1998.000000	11.738052
1997.000000	11.737852
1996.000000	11.736551
1995.000000	11.744055
1994.000000	11.729847
1993.000000	11.728247
1992.000000	11.709436
1991.000000	11.700131
1990.000000	11.680720
1989.000000	11.677418
1988.000000	11.661709
1987.000000	11.636595
1986.000000	11.625990
1985.000000	11.598774
1984.000000	11.585267
1983.000000	11.558352
1982.000000	11.532737
1981.000000	11.494916
1980.000000	11.462098
1979.000000	11.439285
1978.000000	11.424577
1977.000000	11.384855
1976.000000	11.347234
1975.000000	11.317617
1974.000000	11.301608
1973.000000	11.242475
1972.000000	11.236972
1971.000000	11.188445
1970.000000	11.177539
1969.000000	11.149724
1968.000000	11.130313
1967.000000	11.090391
1966.000000	11.046766
1965.000000	11.030457
1964.000000	10.996638
1963.000000	10.974826
1962.000000	10.923597
1961.000000	10.876571
1960.000000	10.850757
1959.000000	10.851757
1958.000000	10.807833
1957.000000	10.787121
1956.000000	10.749900
1955.000000	10.704375
1954.000000	10.685565
1953.000000	10.656648
1952.000000	10.640539
1951.000000	10.612724
1950.000000	10.581006
1949.000000	10.542285
1948.000000	10.545687
1947.000000	10.505964
1946.000000	10.502162
1945.000000	10.488655
1944.000000	10.463841
1943.000000	10.459839
1942.000000	10.436626
1941.000000	10.447131
1940.000000	10.438727
1939.000000	10.469344
1938.000000	10.452134
1937.000000	10.475647
1936.000000	10.491456
1935.000000	10.500361
1934.000000	10.510167
1933.000000	10.559594
1932.000000	10.558694
1931.000000	10.584908
1930.000000	10.623730
1929.000000	10.665053
1928.000000	10.728589
1927.000000	10.774714
1926.000000	10.835949
1925.000000	10.891580
1924.000000	10.928700
1923.000000	10.961719
1922.000000	11.040163
1921.000000	11.157528
1920.000000	11.231569
1919.000000	11.316016
1918.000000	11.378251
1917.000000	11.463899
1916.000000	11.525734
1915.000000	11.571959
1914.000000	11.686023
1913.000000	11.827602
1912.000000	11.953772
1911.000000	12.045524
1910.000000	12.138175
1909.000000	12.172895
1908.000000	12.238031
1907.000000	12.354496
1906.000000	12.464758
1905.000000	12.598232
1904.000000	12.763324
1903.000000	12.859578
1902.000000	12.934620
1901.000000	13.028172
1900.000000	13.176255
1899.000000	13.323437
1898.000000	13.439702
1897.000000	13.550364
1896.000000	13.629508
1895.000000	13.703049
1894.000000	13.785295
1893.000000	13.889053
1892.000000	14.012822
1891.000000	14.136991
1890.000000	14.258759
1889.000000	14.368120
1888.000000	14.510300
1887.000000	14.597648
1886.000000	14.752135
1885.000000	14.936137
1884.000000	15.123242
1883.000000	15.333159
1882.000000	15.543176
1881.000000	15.776306
1880.000000	15.994028
1879.000000	16.181232
1878.000000	16.395752
1877.000000	16.610272
1876.000000	16.786070
1875.000000	16.961368
1874.000000	17.097344
1873.000000	17.265537
1872.000000	17.430930
1871.000000	17.562603
1870.000000	17.684171
1869.000000	17.780225
1868.000000	17.856267
1867.000000	17.889386
1866.000000	17.878780
1865.000000	17.869174
1864.000000	17.860369
1863.000000	17.844761
1862.000000	17.843360
1861.000000	17.852665
1860.000000	17.849063
1859.000000	17.851465
1858.000000	17.845761
1857.000000	17.815745
1856.000000	17.780225
1855.000000	17.730997
1854.000000	17.702782
1853.000000	17.647951
1852.000000	17.582514
1851.000000	17.511875
1850.000000	17.440435
1849.000000	17.393609
1848.000000	17.369295
1847.000000	17.358589
1846.000000	17.319868
1845.000000	17.229918
1844.000000	17.139867
1843.000000	17.104247
1842.000000	17.087538
1841.000000	17.082735
1840.000000	17.065626
1839.000000	17.030706
1838.000000	16.982880
1837.000000	16.949961
1836.000000	16.920745
1835.000000	16.878722
1834.000000	16.817087
1833.000000	16.732040
1832.000000	16.657798
1831.000000	16.613674
1830.000000	16.578854
1829.000000	16.527926
1828.000000	16.457887
1827.000000	16.399354
1826.000000	16.354529
1825.000000	16.298298
1824.000000	16.246369
1823.000000	16.209448
1822.000000	16.186835
1821.000000	16.188436
1820.000000	16.208748
1819.000000	16.188436
1818.000000	16.142711
1817.000000	16.099887
1816.000000	16.099987
1815.000000	16.099587
1814.000000	16.086779
1813.000000	16.075573
1812.000000	16.057863
1811.000000	16.057963
1810.000000	16.011638
1809.000000	15.963711
1808.000000	15.929892
1807.000000	15.913083
1806.000000	15.893872
1805.000000	15.848847
1804.000000	15.807524
1803.000000	15.763799
1802.000000	15.728379
1801.000000	15.703766
1800.000000	15.675350
1799.000000	15.640130
1798.000000	15.606011
1797.000000	15.570291
1796.000000	15.547879
1795.000000	15.504955
1794.000000	15.467434
1793.000000	15.444721
1792.000000	15.406900
1791.000000	15.363476
1790.000000	15.334960
1789.000000	15.283131
1788.000000	15.224998
1787.000000	15.182675
1786.000000	15.148256
1785.000000	15.097227
1784.000000	15.040095
1783.000000	14.969656
1782.000000	14.896315
1781.000000	14.824075
1780.000000	14.768143
1779.000000	14.713013
1778.000000	14.640972
1777.000000	14.563829
1776.000000	14.481784
1775.000000	14.395836
1774.000000	14.302283
1773.000000	14.204729
1772.000000	14.107575
1771.000000	14.014923
1770.000000	13.882849
1769.000000	13.768185
1768.000000	13.668730
1767.000000	13.575878
1766.000000	13.490830
1765.000000	13.421492
1764.000000	13.378368
1763.000000	13.341247
1762.000000	13.358857
1761.000000	13.391175
1760.000000	13.418490
1759.000000	13.461714
1758.000000	13.514744
1757.000000	13.556567
1756.000000	13.567473
1755.000000	13.591687
1754.000000	13.632710
1753.000000	13.639313
1752.000000	13.652120
1751.000000	13.636812
1750.000000	13.619202
1749.000000	13.577479
1748.000000	13.547562
1747.000000	13.512843
1746.000000	13.442403
1745.000000	13.355755
1744.000000	13.268006
1743.000000	13.145938
1742.000000	13.030774
1741.000000	12.867583
1740.000000	12.729005
1739.000000	12.602435
1738.000000	12.438843
1737.000000	12.296464
1736.000000	12.176397
1735.000000	12.086146
1734.000000	11.998397
1733.000000	11.968381
1732.000000	11.972083
1731.000000	12.001699
1730.000000	12.056030
1729.000000	12.125869
1728.000000	12.190305
1727.000000	12.291261
1726.000000	12.357598
1725.000000	12.422034
1724.000000	12.479866
1723.000000	12.526092
1722.000000	12.561912
1721.000000	12.580923
1720.000000	12.610239
1719.000000	12.649761
1718.000000	12.656965
1717.000000	12.715498
1716.000000	12.763524
1715.000000	12.808850
1714.000000	12.873186
1713.000000	12.927316
1712.000000	12.978645
1711.000000	13.021068
1710.000000	13.049484
1709.000000	13.101713
1708.000000	13.112619
1707.000000	13.117122
1706.000000	13.141335
1705.000000	13.183859
1704.000000	13.180257
1703.000000	13.183659
1702.000000	13.179857
1701.000000	13.142836
1700.000000	13.102414
1699.000000	13.075799
1698.000000	13.037978
1697.000000	13.023269
1696.000000	13.014465
1695.000000	13.033175
1694.000000	13.077200
1693.000000	13.178656
1692.000000	13.265205
1691.000000	13.353754
1690.000000	13.481625
1689.000000	13.526050
1688.000000	13.577579
1687.000000	13.607996
1686.000000	13.608696
1685.000000	13.661526
1684.000000	13.678435
1683.000000	13.770186
1682.000000	13.924973
1681.000000	14.156602
1680.000000	14.426253
1679.000000	14.735225
1678.000000	15.011579
1677.000000	15.309546
1676.000000	15.562487
1675.000000	15.798819
1674.000000	15.993828
1673.000000	16.172127
1672.000000	16.314006
1671.000000	16.458387
1670.000000	16.564846
1669.000000	16.652295
1668.000000	16.716431
1667.000000	16.783869
1666.000000	16.837499
1665.000000	16.869116
1664.000000	16.921646
1663.000000	16.964369
1662.000000	16.989483
1661.000000	17.020601
1660.000000	17.042213
1659.000000	17.043113
1658.000000	17.054320
1657.000000	17.059923
1656.000000	17.074231
1655.000000	17.059122
1654.000000	17.072330
1653.000000	17.053519
1652.000000	17.055920
1651.000000	17.014697
1650.000000	17.013897
1649.000000	16.996087
1648.000000	16.945259
1647.000000	16.908438
1646.000000	16.878922
1645.000000	16.847804
1644.000000	16.805981
1643.000000	16.757854
1642.000000	16.743046
1641.000000	16.706225
1640.000000	16.656397
1639.000000	16.630483
1638.000000	16.581155
1637.000000	16.530027
1636.000000	16.494407
1635.000000	16.432072
1634.000000	16.382845
1633.000000	16.341021
1632.000000	16.302600
1631.000000	16.263078
1630.000000	16.203745
1629.000000	16.152616
1628.000000	16.104089
1627.000000	16.071671
1626.000000	16.012838
1625.000000	15.963110
1624.000000	15.920787
1623.000000	15.876162
1622.000000	15.826734
1621.000000	15.780408
1620.000000	15.736984
1619.000000	15.698963
1618.000000	15.652437
1617.000000	15.605511
1616.000000	15.549580
1615.000000	15.512759
1614.000000	15.475338
1613.000000	15.437017
1612.000000	15.404399
1611.000000	15.369579
1610.000000	15.329357
1609.000000	15.295938
1608.000000	15.270324
1607.000000	15.236605
1606.000000	15.190979
1605.000000	15.162764
1604.000000	15.139751
1603.000000	15.101630
1602.000000	15.073314
1601.000000	15.047499
1600.000000	15.021085
1599.000000	14.986765
1598.000000	14.963753
1597.000000	14.935837
1596.000000	14.923730
1595.000000	14.897616
1594.000000	14.878005
1593.000000	14.879205
1592.000000	14.849989
1591.000000	14.833480
1590.000000	14.821873
1589.000000	14.801962
1588.000000	14.776848
1587.000000	14.762340
1586.000000	14.757838
1585.000000	14.742729
1584.000000	14.730222
1583.000000	14.719616
1582.000000	14.704708
1581.000000	14.697504
1580.000000	14.703107
1579.000000	14.694202
1578.000000	14.680595
1577.000000	14.685497
1576.000000	14.686998
1575.000000	14.686098
1574.000000	14.698505
1573.000000	14.702507
1572.000000	14.706409
1571.000000	14.727421
1570.000000	14.747332
1569.000000	14.757237
1568.000000	14.773747
1567.000000	14.786354
1566.000000	14.807565
1565.000000	14.823174
1564.000000	14.848188
1563.000000	14.856093
1562.000000	14.869100
1561.000000	14.894114
1560.000000	14.898216
1559.000000	14.914525
1558.000000	14.935937
1557.000000	14.941340
1556.000000	14.946643
1555.000000	14.956749
1554.000000	14.947644
1553.000000	14.942341
1552.000000	14.937638
1551.000000	14.951046
1550.000000	14.931635
1549.000000	14.922830
1548.000000	14.924531
1547.000000	14.907921
1546.000000	14.885409
1545.000000	14.868900
1544.000000	14.863497
1543.000000	14.845487
1542.000000	14.835581
1541.000000	14.827577
1540.000000	14.810767
1539.000000	14.807365
1538.000000	14.803163
1537.000000	14.796559
1536.000000	14.796559
1535.000000	14.800461
1534.000000	14.796159
1533.000000	14.807365
1532.000000	14.813169
1531.000000	14.812168
1530.000000	14.812868
1529.000000	14.802062
1528.000000	14.799961
1527.000000	14.800762
1526.000000	14.815270
1525.000000	14.812968
1524.000000	14.812268
1523.000000	14.799761
1522.000000	14.795359
1521.000000	14.808366
1520.000000	14.815470
1519.000000	14.807065
1518.000000	14.820973
1517.000000	14.824975
1516.000000	14.810567
1515.000000	14.801562
1514.000000	14.810167
1513.000000	14.814970
1512.000000	14.823574
1511.000000	14.823674
1510.000000	14.826376
1509.000000	14.843786
1508.000000	14.848488
1507.000000	14.840784
1506.000000	14.843686
1505.000000	14.862596
1504.000000	14.860195
1503.000000	14.857894
1502.000000	14.861095
1501.000000	14.850589
1500.000000	14.863597
1499.000000	14.896215
1498.000000	14.890612
1497.000000	14.914425
1496.000000	14.940240
1495.000000	14.935537
1494.000000	14.944642
1493.000000	14.971357
1492.000000	14.997872
1491.000000	15.011679
1490.000000	15.047900
1489.000000	15.046499
1488.000000	15.055704
1487.000000	15.086221
1486.000000	15.112336
1485.000000	15.123742
1484.000000	15.128645
1483.000000	15.165065
1482.000000	15.172769
1481.000000	15.208389
1480.000000	15.218095
1479.000000	15.242908
1478.000000	15.276227
1477.000000	15.303642
1476.000000	15.322253
1475.000000	15.368779
1474.000000	15.385588
1473.000000	15.420408
1472.000000	15.467434
1471.000000	15.488746
1470.000000	15.522665
1469.000000	15.549079
1468.000000	15.562687
1467.000000	15.591803
1466.000000	15.611914
1465.000000	15.666045
1464.000000	15.669046
1463.000000	15.703466
1462.000000	15.738185
1461.000000	15.773705
1460.000000	15.828035
1459.000000	15.890870
1458.000000	15.915784
1457.000000	15.969014
1456.000000	16.002432
1455.000000	16.072472
1454.000000	16.096785
1453.000000	16.146713
1452.000000	16.213150
1451.000000	16.272583
1450.000000	16.326113
1449.000000	16.360832
1448.000000	16.447581
1447.000000	16.490605
1446.000000	16.582156
1445.000000	16.656698
1444.000000	16.703324
1443.000000	16.736942
1442.000000	16.824892
1441.000000	16.902735
1440.000000	16.966471
1439.000000	17.030406
1438.000000	17.087838
1437.000000	17.162080
1436.000000	17.208706
1435.000000	17.254932
1434.000000	17.337878
1433.000000	17.382503
1432.000000	17.458145
1431.000000	17.509774
1430.000000	17.587917
1429.000000	17.663159
1428.000000	17.773721
1427.000000	17.871876
1426.000000	17.976935
1425.000000	18.055478
1424.000000	18.182449
1423.000000	18.297213
1422.000000	18.396769
1421.000000	18.505330
1420.000000	18.622395
1419.000000	18.775580
1418.000000	18.832612
1417.000000	18.917059
1416.000000	19.000706
1415.000000	19.108366
1414.000000	19.212124
1413.000000	19.286265
1412.000000	19.337794
1411.000000	19.442553
1410.000000	19.561819
1409.000000	19.729213
1408.000000	19.905211
1407.000000	20.051493
1406.000000	20.232894
1405.000000	20.448914
1404.000000	20.610905
1403.000000	20.792806
1402.000000	20.953796
1401.000000	21.183424
1400.000000	21.324803
1399.000000	21.418255
1398.000000	21.412252
1397.000000	21.475087
1396.000000	21.533320
1395.000000	21.513509
1394.000000	21.448973
1393.000000	21.385737
1392.000000	21.394642
1391.000000	21.363625
1390.000000	21.341112
1389.000000	21.371930
1388.000000	21.470385
1387.000000	21.529317
1386.000000	21.664293
1385.000000	21.818079
1384.000000	22.029597
1383.000000	22.261126
1382.000000	22.508764
1381.000000	22.716880
1380.000000	22.838248
1379.000000	23.020650
1378.000000	23.209956
1377.000000	23.440084
1376.000000	23.730046
1375.000000	24.081342
1374.000000	24.465256
1373.000000	24.915808
1372.000000	25.391273
1371.000000	25.833720
1370.000000	26.228040
1369.000000	26.562927
1368.000000	26.888609
1367.000000	27.155958
1366.000000	27.384086
1365.000000	27.578094
1364.000000	27.766399
1363.000000	27.905677
1362.000000	28.050458
1361.000000	28.165021
1360.000000	28.210647
1359.000000	28.234860
1358.000000	28.304799
1357.000000	28.463788
1356.000000	28.738842
1355.000000	29.101644
1354.000000	29.592618
1353.000000	30.098100
1352.000000	30.643205
1351.000000	31.201316
1350.000000	31.718005
1349.000000	32.171858
1348.000000	32.580186
1347.000000	32.979409
1346.000000	33.318898
1345.000000	33.655986
1344.000000	34.009884
1343.000000	34.300846
1342.000000	34.583804
1341.000000	34.855256
1340.000000	35.127008
1339.000000	35.383851
1338.000000	35.614980
1337.000000	35.834603
1336.000000	36.054725
1335.000000	36.261941
1334.000000	36.462753
1333.000000	36.648957
1332.000000	36.830959
1331.000000	36.999253
1330.000000	37.152538
1329.000000	37.293517
1328.000000	37.432094
1327.000000	37.561967
1326.000000	37.680833
1325.000000	37.798699
1324.000000	37.916164
1323.000000	38.026426
1322.000000	38.111373
1321.000000	38.209928
1320.000000	38.283670
1319.000000	38.361313
1318.000000	38.446861
1317.000000	38.515499
1316.000000	38.586839
1315.000000	38.643771
1314.000000	38.702003
1313.000000	38.770341
1312.000000	38.821270
1311.000000	38.867495
1310.000000	38.905817
1309.000000	38.925428
1308.000000	38.951142
1307.000000	38.978057
1306.000000	38.993266
1305.000000	39.004672
1304.000000	39.018180
1303.000000	39.012677
1302.000000	38.997668
1301.000000	38.990064
1300.000000	38.977357
1299.000000	38.957346
1298.000000	38.931431
1297.000000	38.907318
1296.000000	38.886106
1295.000000	38.870297
1294.000000	38.843182
1293.000000	38.805061
1292.000000	38.768440
1291.000000	38.733821
1290.000000	38.690197
1289.000000	38.636967
1288.000000	38.584538
1287.000000	38.527105
1286.000000	38.459668
1285.000000	38.382125
1284.000000	38.307283
1283.000000	38.225837
1282.000000	38.135087
1281.000000	38.052741
1280.000000	37.989906
1279.000000	37.917665
1278.000000	37.832918
1277.000000	37.751573
1276.000000	37.685436
1275.000000	37.619499
1274.000000	37.557965
1273.000000	37.497831
1272.000000	37.438098
1271.000000	37.390371
1270.000000	37.334340
1269.000000	37.286713
1268.000000	37.226479
1267.000000	37.165746
1266.000000	37.111615
1265.000000	37.051082
1264.000000	36.983944
1263.000000	36.935717
1262.000000	36.872182
1261.000000	36.806145
1260.000000	36.752715
1259.000000	36.695283
1258.000000	36.634649
1257.000000	36.569313
1256.000000	36.484065
1255.000000	36.416227
1254.000000	36.346188
1253.000000	36.251435
1252.000000	36.165587
1251.000000	36.088844
1250.000000	36.010000
1249.000000	35.898938
1248.000000	35.773268
1247.000000	35.668210
1246.000000	35.552645
1245.000000	35.419371
1244.000000	35.272889
1243.000000	35.149120
1242.000000	34.976824
1241.000000	34.820136
1240.000000	34.683860
1239.000000	34.497656
1238.000000	34.331263
1237.000000	34.155765
1236.000000	33.963958
1235.000000	33.793563
1234.000000	33.610661
1233.000000	33.410249
1232.000000	33.224646
1231.000000	33.026235
1230.000000	32.834528
1229.000000	32.629814
1228.000000	32.423398
1227.000000	32.209279
1226.000000	32.030279
1225.000000	31.822363
1224.000000	31.622351
1223.000000	31.423240
1222.000000	31.234535
1221.000000	31.047030
1220.000000	30.875334
1219.000000	30.702538
1218.000000	30.545450
1217.000000	30.404572
1216.000000	30.293510
1215.000000	30.171541
1214.000000	30.066983
1213.000000	29.951018
1212.000000	29.849362
1211.000000	29.763113
1210.000000	29.721190
1209.000000	29.652952
1208.000000	29.577010
1207.000000	29.542390
1206.000000	29.529483
1205.000000	29.537287
1204.000000	29.538088
1203.000000	29.557299
1202.000000	29.556598
1201.000000	29.575909
1200.000000	29.545292
1199.000000	29.532085
1198.000000	29.453040
1197.000000	29.354786
1196.000000	29.211005
1195.000000	29.007292
1194.000000	28.722533
1193.000000	28.413960
1192.000000	28.036750
1191.000000	27.644031
1190.000000	27.263518
1189.000000	26.921127
1188.000000	26.655979
1187.000000	26.546918
1186.000000	26.499192
1185.000000	26.598347
1184.000000	26.788353
1183.000000	27.112234
1182.000000	27.519661
1181.000000	27.994126
1180.000000	28.473794
1179.000000	28.903234
1178.000000	29.360089
1177.000000	29.703880
1176.000000	30.024960
1175.000000	30.294610
1174.000000	30.574266
1173.000000	30.875935
1172.000000	31.217125
1171.000000	31.539605
1170.000000	31.900407
1169.000000	32.221886
1168.000000	32.589891
1167.000000	32.931582
1166.000000	33.283979
1165.000000	33.643680
1164.000000	34.050307
1163.000000	34.412209
1162.000000	34.792121
1161.000000	35.149420
1160.000000	35.496514
1159.000000	35.853013
1158.000000	36.200907
1157.000000	36.503076
1156.000000	36.756217
1155.000000	36.941821
1154.000000	37.067091
1153.000000	37.148836
1152.000000	37.160843
1151.000000	37.149537
1150.000000	37.129125
1149.000000	37.093105
1148.000000	37.085101
1147.000000	37.087802
1146.000000	37.191560
1145.000000	37.362455
1144.000000	37.608693
1143.000000	37.919166
1142.000000	38.260257
1141.000000	38.616756
1140.000000	38.984161
1139.000000	39.334956
1138.000000	39.700961
1137.000000	40.111690
1136.000000	40.505910
1135.000000	40.869313
1134.000000	41.234817
1133.000000	41.491860
1132.000000	41.783423
1131.000000	42.064180
1130.000000	42.297810
1129.000000	42.495821
1128.000000	42.665215
1127.000000	42.783882
1126.000000	42.894143
1125.000000	42.959279
1124.000000	43.033421
1123.000000	43.110464
1122.000000	43.172699
1121.000000	43.204216
1120.000000	43.252543
1119.000000	43.293566
1118.000000	43.289764
1117.000000	43.300470
1116.000000	43.309375
1115.000000	43.292566
1114.000000	43.281659
1113.000000	43.296568
1112.000000	43.297468
1111.000000	43.280459
1110.000000	43.294567
1109.000000	43.293866
1108.000000	43.285462
1107.000000	43.281459
1106.000000	43.273655
1105.000000	43.281159
1104.000000	43.277157
1103.000000	43.291365
1102.000000	43.280959
1101.000000	43.279658
1100.000000	43.290965
1099.000000	43.283060
1098.000000	43.276256
1097.000000	43.264250
1096.000000	43.273855
1095.000000	43.255745
1094.000000	43.247040
1093.000000	43.221626
1092.000000	43.195711
1091.000000	43.181403
1090.000000	43.160492
1089.000000	43.132476
1088.000000	43.105461
1087.000000	43.079447
1086.000000	43.053432
1085.000000	43.021214
1084.000000	42.979691
1083.000000	42.961981
1082.000000	42.917056
1081.000000	42.869429
1080.000000	42.810196
1079.000000	42.791786
1078.000000	42.777078
1077.000000	42.747361
1076.000000	42.700335
1075.000000	42.662814
1074.000000	42.643603
1073.000000	42.610285
1072.000000	42.564259
1071.000000	42.514131
1070.000000	42.466504
1069.000000	42.426982
1068.000000	42.393864
1067.000000	42.336932
1066.000000	42.277799
1065.000000	42.219967
1064.000000	42.168338
1063.000000	42.106704
1062.000000	42.061979
1061.000000	42.011150
1060.000000	41.959822
1059.000000	41.905291
1058.000000	41.859466
1057.000000	41.809738
1056.000000	41.756408
1055.000000	41.713484
1054.000000	41.675963
1053.000000	41.632339
1052.000000	41.604023
1051.000000	41.580310
1050.000000	41.560699
1049.000000	41.547792
1048.000000	41.543489
1047.000000	41.553395
1046.000000	41.557797
1045.000000	41.572706
1044.000000	41.582511
1043.000000	41.580310
1042.000000	41.597519
1041.000000	41.616530
1040.000000	41.644646
1039.000000	41.675363
1038.000000	41.696475
1037.000000	41.707481
1036.000000	41.713584
1035.000000	41.727192
1034.000000	41.750305
1033.000000	41.767514
1032.000000	41.783923
1031.000000	41.800132
1030.000000	41.813140
1029.000000	41.827248
1028.000000	41.844857
1027.000000	41.862467
1026.000000	41.873674
1025.000000	41.879477
1024.000000	41.883079
1023.000000	41.894585
1022.000000	41.894585
1021.000000	41.884379
1020.000000	41.888982
1019.000000	41.895386
1018.000000	41.892884
1017.000000	41.891784
1016.000000	41.882378
1015.000000	41.887981
1014.000000	41.905491
1013.000000	41.921600
1012.000000	41.941311
1011.000000	41.974530
1010.000000	42.010050
1009.000000	42.054875
1008.000000	42.103402
1007.000000	42.152029
1006.000000	42.217265
1005.000000	42.276999
1004.000000	42.317921
1003.000000	42.379756
1002.000000	42.438689
1001.000000	42.491718
1000.000000	42.538445
999.000000	42.599579
998.000000	42.659312
997.000000	42.727650
996.000000	42.813198
995.000000	42.880836
994.000000	42.954277
993.000000	43.039924
992.000000	43.124472
991.000000	43.204216
990.000000	43.295167
989.000000	43.392221
988.000000	43.506485
987.000000	43.615346
986.000000	43.735413
985.000000	43.856780
984.000000	43.992556
983.000000	44.126731
982.000000	44.267210
981.000000	44.408188
980.000000	44.566176
979.000000	44.710857
978.000000	44.864843
977.000000	45.030336
976.000000	45.181120
975.000000	45.331203
974.000000	45.482588
973.000000	45.641977
972.000000	45.783856
971.000000	45.936241
970.000000	46.103535
969.000000	46.261523
968.000000	46.409906
967.000000	46.556387
966.000000	46.722980
965.000000	46.880068
964.000000	47.030852
963.000000	47.204649
962.000000	47.375144
961.000000	47.540937
960.000000	47.719236
959.000000	47.900638
958.000000	48.076436
957.000000	48.246131
956.000000	48.402318
955.000000	48.566009
954.000000	48.713591
953.000000	48.836560
952.000000	48.970135
951.000000	49.087300
950.000000	49.196961
949.000000	49.312926
948.000000	49.418985
947.000000	49.518841
946.000000	49.632304
945.000000	49.723155
944.000000	49.805601
943.000000	49.903956
942.000000	50.026624
941.000000	50.148592
940.000000	50.259154
939.000000	50.387526
938.000000	50.513696
937.000000	50.660978
936.000000	50.759634
935.000000	50.874498
934.000000	51.013175
933.000000	51.124237
932.000000	51.260913
931.000000	51.376978
930.000000	51.527362
929.000000	51.661237
928.000000	51.769097
927.000000	51.912677
926.000000	52.052155
925.000000	52.217447
924.000000	52.358926
923.000000	52.527620
922.000000	52.705620
921.000000	52.874914
920.000000	53.081930
919.000000	53.258929
918.000000	53.457540
917.000000	53.644244
916.000000	53.827046
915.000000	54.037563
914.000000	54.250882
913.000000	54.456497
912.000000	54.652907
911.000000	54.864025
910.000000	55.060334
909.000000	55.291263
908.000000	55.467862
907.000000	55.676878
906.000000	55.901003
905.000000	56.074400
904.000000	56.319637
903.000000	56.511044
902.000000	56.709355
901.000000	56.894958
900.000000	57.107177
899.000000	57.304587
898.000000	57.549624
897.000000	57.708412
896.000000	57.864599
895.000000	58.057607
894.000000	58.228703
893.000000	58.381188
892.000000	58.518765
891.000000	58.674552
890.000000	58.821534
889.000000	58.968916
888.000000	59.085881
887.000000	59.210051
886.000000	59.328417
885.000000	59.456288
884.000000	59.579757
883.000000	59.689718
882.000000	59.800280
881.000000	59.940058
880.000000	60.069730
879.000000	60.197202
878.000000	60.319070
877.000000	60.426029
876.000000	60.553801
875.000000	60.708887
874.000000	60.866275
873.000000	61.017459
872.000000	61.147432
871.000000	61.298316
870.000000	61.449300
869.000000	61.604087
868.000000	61.758973
867.000000	61.889246
866.000000	62.022020
865.000000	62.181009
864.000000	62.307179
863.000000	62.440053
862.000000	62.548914
861.000000	62.643667
860.000000	62.734218
859.000000	62.811861
858.000000	62.941433
857.000000	63.078900
856.000000	63.012100
855.000000	62.733300
854.000000	63.242600
853.000000	63.286100
852.000000	63.364300
851.000000	63.717600
850.000000	63.668000
849.000000	63.715800
848.000000	64.064800
847.000000	64.310600
846.000000	64.389000
845.000000	64.328600
844.000000	64.283000
843.000000	64.645600
842.000000	64.988700
841.000000	64.840300
840.000000	65.096000
839.000000	65.500600
838.000000	65.480200
837.000000	65.323600
836.000000	65.622400
835.000000	65.704000
834.000000	65.880000
833.000000	66.014500
832.000000	66.175600
831.000000	66.255000
830.000000	66.304300
829.000000	66.344200
828.000000	66.632100
827.000000	66.524400
826.000000	66.435000
825.000000	66.739500
824.000000	66.728600
823.000000	66.633900
822.000000	66.726100
821.000000	66.680600
820.000000	66.462100
819.000000	66.432400
818.000000	66.362300
817.000000	66.109900
816.000000	65.989400
815.000000	65.999600
814.000000	65.812000
813.000000	65.659700
812.000000	65.358700
811.000000	65.253900
810.000000	65.019300
809.000000	64.877800
808.000000	64.769600
807.000000	64.611800
806.000000	64.360500
805.000000	64.274700
804.000000	64.161300
803.000000	63.913800
802.000000	63.835200
801.000000	63.833700
800.000000	63.622700
799.000000	63.646700
798.000000	63.613500
797.000000	63.520500
796.000000	63.502000
795.000000	63.330700
794.000000	63.285600
793.000000	63.334300
792.000000	63.230300
791.000000	63.292800
790.000000	63.339600
789.000000	63.307800
788.000000	63.326200
787.000000	63.350500
786.000000	63.318600
785.000000	63.281900
784.000000	63.280100
783.000000	63.323600
782.000000	63.305300
781.000000	63.307900
780.000000	63.217100
779.000000	63.136600
778.000000	63.044000
777.000000	62.995300
776.000000	62.964500
775.000000	62.935200
774.000000	62.900900
773.000000	62.829500
772.000000	62.716100
771.000000	62.576100
770.000000	62.533600
769.000000	62.454200
768.000000	62.300600
767.000000	62.253200
766.000000	62.176400
765.000000	62.101900
764.000000	61.940900
763.000000	61.858500
762.000000	61.835300
761.000000	61.727800
760.000000	61.651600
759.000000	61.618500
758.000000	61.501600
757.000000	61.322700
756.000000	61.310800
755.000000	61.267300
754.000000	61.089600
753.000000	60.986600
752.000000	60.905300
751.000000	60.798500
750.000000	60.691600
749.000000	60.550500
748.000000	60.409600
747.000000	60.282400
746.000000	60.148100
745.000000	59.962600
744.000000	59.750500
743.000000	59.496300
742.000000	59.264300
741.000000	59.048500
740.000000	58.742100
739.000000	58.447000
738.000000	58.172700
737.000000	57.890000
736.000000	57.585600
735.000000	57.249900
734.000000	56.901300
733.000000	56.534600
732.000000	56.152400
731.000000	55.743700
730.000000	55.343200
729.000000	54.965500
728.000000	54.592100
727.000000	54.225100
726.000000	53.899000
725.000000	53.532700
724.000000	53.182600
723.000000	52.857100
722.000000	52.559200
721.000000	52.295500
720.000000	52.042400
719.000000	51.818600
718.000000	51.630700
717.000000	51.443500
716.000000	51.263200
715.000000	51.146000
714.000000	51.045300
713.000000	50.941700
712.000000	50.884000
711.000000	50.853700
710.000000	50.840900
709.000000	50.851800
708.000000	50.891600
707.000000	50.930700
706.000000	50.983600
705.000000	51.078900
704.000000	51.231800
703.000000	51.364700
702.000000	51.473900
701.000000	51.604700
700.000000	51.722600
699.000000	51.865500
698.000000	51.990500
697.000000	52.112500
696.000000	52.244500
695.000000	52.307900
694.000000	52.379700
693.000000	52.497700
692.000000	52.594300
691.000000	52.618100
690.000000	52.630100
689.000000	52.675500
688.000000	52.709500
687.000000	52.684700
686.000000	52.693000
685.000000	52.661200
684.000000	52.622000
683.000000	52.570800
682.000000	52.522900
681.000000	52.405200
680.000000	52.323800
679.000000	52.129300
678.000000	51.937900
677.000000	51.685600
676.000000	51.395500
675.000000	51.102100
674.000000	50.757400
673.000000	50.374200
672.000000	49.892100
671.000000	49.358700
670.000000	48.792000
669.000000	48.196900
668.000000	47.599500
667.000000	46.947500
666.000000	46.293100
665.000000	45.611300
664.000000	44.906300
663.000000	44.268400
662.000000	43.541200
661.000000	42.856000
660.000000	42.245900
659.000000	41.569400
658.000000	40.952300
657.000000	40.387400
656.000000	39.834900
655.000000	39.333700
654.000000	38.850400
653.000000	38.464600
652.000000	38.125100
651.000000	37.859300
650.000000	37.656700
649.000000	37.618500
648.000000	37.671100
647.000000	37.839800
646.000000	38.157800
645.000000	38.612400
644.000000	39.177100
643.000000	39.913300
642.000000	40.728800
641.000000	41.630500
640.000000	42.660900
639.000000	43.699200
638.000000	44.793100
637.000000	45.913300
636.000000	47.056100
635.000000	48.142600
634.000000	49.184100
633.000000	50.275200
632.000000	51.308600
631.000000	52.311200
630.000000	53.245500
629.000000	54.176700
628.000000	55.001900
627.000000	55.783000
626.000000	56.623100
625.000000	57.374900
624.000000	58.152400
623.000000	58.894700
622.000000	59.656800
621.000000	60.314300
620.000000	61.011700
619.000000	61.691900
618.000000	62.260800
617.000000	62.877000
616.000000	63.392600
615.000000	63.889600
614.000000	64.377200
613.000000	64.842900
612.000000	65.182600
611.000000	65.512100
610.000000	65.860300
609.000000	66.173900
608.000000	66.381700
607.000000	66.627500
606.000000	66.819900
605.000000	67.029300
604.000000	67.181900
603.000000	67.327900
602.000000	67.458200
601.000000	67.595600
600.000000	67.723200
599.000000	67.837000
598.000000	67.907700
597.000000	67.952300
596.000000	67.998600
595.000000	68.098200
594.000000	68.140700
593.000000	68.185300
592.000000	68.262200
591.000000	68.256300
590.000000	68.305600
589.000000	68.289400
588.000000	68.300800
587.000000	68.295900
586.000000	68.259600
585.000000	68.246900
584.000000	68.244600
583.000000	68.200800
582.000000	68.136800
581.000000	68.046300
580.000000	68.000000
579.000000	67.898700
578.000000	67.818600
577.000000	67.684800
576.000000	67.578500
575.000000	67.373700
574.000000	67.280800
573.000000	67.152700
572.000000	66.984000
571.000000	66.789400
570.000000	66.683000
569.000000	66.463600
568.000000	66.315000
567.000000	66.093700
566.000000	65.908400
565.000000	65.733300
564.000000	65.525400
563.000000	65.303700
562.000000	65.040400
561.000000	64.782100
560.000000	64.465000
559.000000	63.958300
558.000000	63.667300
557.000000	63.330700
556.000000	62.956700
555.000000	62.569500
554.000000	62.151400
553.000000	61.738300
552.000000	61.240000
551.000000	60.749700
550.000000	60.204100
549.000000	59.675100
548.000000	59.053100
547.000000	58.399100
546.000000	57.743000
545.000000	56.989400
544.000000	56.191000
543.000000	55.327300
542.000000	54.397200
541.000000	53.423200
540.000000	52.381300
539.000000	51.284400
538.000000	50.165500
537.000000	49.020700
536.000000	47.816700
535.000000	46.613700
534.000000	45.379100
533.000000	44.152300
532.000000	42.920400
531.000000	41.703300
530.000000	40.538400
529.000000	39.372700
528.000000	38.249300
527.000000	37.192500
526.000000	36.157100
525.000000	35.187400
524.000000	34.257300
523.000000	33.380300
522.000000	32.575400
521.000000	31.825900
520.000000	31.157200
519.000000	30.538600
518.000000	29.997400
517.000000	29.506200
516.000000	29.068200
515.000000	28.664000
514.000000	28.321300
513.000000	27.955400
512.000000	27.612900
511.000000	27.295800
510.000000	26.973300
509.000000	26.664500
508.000000	26.340500
507.000000	26.024300
506.000000	25.687500
505.000000	25.352000
504.000000	25.006900
503.000000	24.663800
502.000000	24.349300
501.000000	24.028100
500.000000	23.737300
499.000000	23.479400
498.000000	23.235100
497.000000	22.994400
496.000000	22.789700
495.000000	22.628600
494.000000	22.492900
493.000000	22.387300
492.000000	22.294800
491.000000	22.207800
490.000000	22.146400
489.000000	22.122400
488.000000	22.130100
487.000000	22.133000
486.000000	22.170200
485.000000	22.213000
484.000000	22.250400
483.000000	22.319500
482.000000	22.392600
481.000000	22.452500
480.000000	22.499800
479.000000	22.535400
478.000000	22.569000
477.000000	22.592700
476.000000	22.615300
475.000000	22.640400
474.000000	22.653900
473.000000	22.654900
472.000000	22.665900
471.000000	22.667300
470.000000	22.663100
469.000000	22.630600
468.000000	22.621300
467.000000	22.610700
466.000000	22.553100
465.000000	22.505500
464.000000	22.462100
463.000000	22.382000
462.000000	22.305100
461.000000	22.233100
460.000000	22.130100
459.000000	22.032100
458.000000	21.926200
457.000000	21.805900
456.000000	21.668200
455.000000	21.511000
454.000000	21.343800
453.000000	21.176500
452.000000	21.000800
451.000000	20.803800
450.000000	20.575600
449.000000	20.354900
448.000000	20.153800
447.000000	19.926500
446.000000	19.662300
445.000000	19.411600
444.000000	19.121600
443.000000	18.814600
442.000000	18.517400
441.000000	18.190000
440.000000	17.862900
439.000000	17.524100
438.000000	17.166500
437.000000	16.804900
436.000000	16.431800
435.000000	16.044900
434.000000	15.643800
433.000000	15.247900
432.000000	14.835000
431.000000	14.415500
430.000000	14.013200
429.000000	13.591700
428.000000	13.176500
427.000000	12.787400
426.000000	12.401400
425.000000	11.991800
424.000000	11.586800
423.000000	11.228400
422.000000	10.880800
421.000000	10.532900
420.000000	10.200900
419.000000	9.886200
418.000000	9.589200
417.000000	9.311000
416.000000	9.045500
415.000000	8.809600
414.000000	8.582100
413.000000	8.368000
412.000000	8.176200
411.000000	7.992000
410.000000	7.811300
409.000000	7.669000
408.000000	7.530100
407.000000	7.389300
406.000000	7.265600
405.000000	7.174400
404.000000	7.078100
403.000000	6.982100
402.000000	6.897000
401.000000	6.825000
400.000000	6.747800
399.000000	6.686300
398.000000	6.632900
397.000000	6.576900
396.000000	6.516400
395.000000	6.463400
394.000000	6.429900
393.000000	6.377400
392.000000	6.348600
391.000000	6.300900
390.000000	6.262100
389.000000	6.230100
388.000000	6.197000
387.000000	6.169600
386.000000	6.138900
385.000000	6.094000
384.000000	6.055900
383.000000	6.028300
382.000000	5.989600
381.000000	5.982400
380.000000	5.973000
379.000000	5.941400
378.000000	5.902900
377.000000	5.882400
376.000000	5.943500
375.000000	5.960700
374.000000	5.809300
373.000000	5.905300
372.000000	5.841000
371.000000	5.838600
370.000000	5.771400
369.000000	5.762500
368.000000	5.802000
367.000000	5.801500
366.000000	5.787700
365.000000	5.714500
364.000000	5.694800
363.000000	5.733200
362.000000	5.684200
361.000000	5.680100
360.000000	5.626200
359.000000	5.667800
358.000000	5.708300
357.000000	5.598900
356.000000	5.583100
355.000000	5.548400
354.000000	5.514500
353.000000	5.520200
352.000000	5.436900
351.000000	5.426100
350.000000	5.534500
349.000000	5.477900
348.000000	5.438100
347.000000	5.406900
346.000000	5.401000
345.000000	5.392600
344.000000	5.536700
343.000000	5.361900
342.000000	5.362600
341.000000	5.415700
340.000000	5.372700
339.000000	5.372600
338.000000	5.398500
337.000000	5.325100
336.000000	5.441900
335.000000	5.417900
334.000000	5.394800
333.000000	5.364800
332.000000	5.409100
331.000000	5.312500
330.000000	5.461100
329.000000	5.421600
328.000000	5.390900
327.000000	5.268900
326.000000	5.397900
325.000000	5.259900
324.000000	5.386300
323.000000	5.474400
322.000000	5.559800
321.000000	5.409100
320.000000	5.552200
319.000000	5.805000
318.000000	5.634500
317.000000	5.705400
316.000000	5.353700
315.000000	5.363100
314.000000	5.309000
313.000000	5.325700
312.000000	5.262700
311.000000	5.320000
310.000000	5.317200
309.000000	5.382000
308.000000	5.326700
307.000000	5.384200
306.000000	5.368300
305.000000	5.312400
304.000000	5.413600
303.000000	5.401700
302.000000	5.378100
301.000000	5.431800
300.000000	5.342800
299.000000	5.412700
298.000000	5.406400
297.000000	5.391300
296.000000	5.398300
295.000000	5.388100
294.000000	5.414700
293.000000	5.428600
292.000000	5.436900
291.000000	5.401300
290.000000	5.451000
289.000000	5.403300
288.000000	5.467700
287.000000	5.447200
286.000000	5.493200
285.000000	5.490800
284.000000	5.440400
283.000000	5.499500
282.000000	5.447200
281.000000	5.504600
280.000000	5.488100
279.000000	5.561100
278.000000	5.523800
277.000000	5.579500
276.000000	5.562000
275.000000	5.563700
274.000000	5.566600
273.000000	5.627900
272.000000	5.603900
271.000000	5.603700
270.000000	5.637900
269.000000	5.683200
268.000000	5.639400
267.000000	5.697900
266.000000	5.685100
265.000000	5.746500
264.000000	5.762800
263.000000	5.828300
262.000000	5.830400
261.000000	5.831700
260.000000	5.846100
259.000000	5.894800
258.000000	5.934200
257.000000	5.911400
256.000000	5.897500
255.000000	5.920200
254.000000	5.936800
253.000000	5.895700
252.000000	5.945800
251.000000	5.941900
250.000000	5.937300
