PE UV       SUBTECH     SPECTRUM    ASCII       PEDS        4.00        
   -1
CICIMAUCR0014-3.Sample.ASC
24/04/04
11:17:51.00
24/04/04
11:17:51.00
Vinicio Soto Monge
C. cupreomarginata
250,000000
1
Lambda 1050
1050L1511233
PerkinElmer UV WinLab 6.3.2.0749 / 2.02.05 Lambda 900 UV/VIS/NIR, Aug  7 2015 09:38:08

0
0
3350/servo 860,8/2
0
0
UV/VIS
1
1
1
DoubleDePol,CommonBeamDepol,RBeamAtt,SBeamAtt,60mm sphere, WB InGaAs Detector
0
0
0
0
Program
Program
3350/servo 860,8/2
3350/0,2 860,8/0,2
3350/0,2 860,8/0,2
0
15.00
 
 
 
0
 
860,8
319,2
860,8
Front
100
on
S:100 R:100
0
0
0
0
 
0
 
 
 
0
 
 
0
0
0
0
0
 
 
 
 
0
0


0
0
#HDR
-1
-1
#GR
nm
%R
1.0
0.0
2500,000000
-1,000000
2251
8
67,923300
5,031600
#DATA
2500.000000	11.672790
2499.000000	11.591488
2498.000000	11.561365
2497.000000	11.588566
2496.000000	11.615969
2495.000000	11.563279
2494.000000	11.611738
2493.000000	11.671078
2492.000000	11.592193
2491.000000	11.677122
2490.000000	11.585342
2489.000000	11.587055
2488.000000	11.588868
2487.000000	11.704626
2486.000000	11.672488
2485.000000	11.707447
2484.000000	11.742708
2483.000000	11.733137
2482.000000	11.760440
2481.000000	11.739283
2480.000000	11.800839
2479.000000	11.836302
2478.000000	11.890100
2477.000000	11.884660
2476.000000	11.934127
2475.000000	11.941884
2474.000000	12.013918
2473.000000	12.044242
2472.000000	12.104590
2471.000000	12.141866
2470.000000	12.198989
2469.000000	12.246138
2468.000000	12.236568
2467.000000	12.305377
2466.000000	12.387486
2465.000000	12.463146
2464.000000	12.510396
2463.000000	12.570744
2462.000000	12.636531
2461.000000	12.718136
2460.000000	12.803871
2459.000000	12.903912
2458.000000	12.944211
2457.000000	13.055838
2456.000000	13.164644
2455.000000	13.278085
2454.000000	13.360798
2453.000000	13.473331
2452.000000	13.580022
2451.000000	13.700918
2450.000000	13.815366
2449.000000	13.943415
2448.000000	14.062295
2447.000000	14.178557
2446.000000	14.285147
2445.000000	14.411382
2444.000000	14.530162
2443.000000	14.649043
2442.000000	14.772558
2441.000000	14.884790
2440.000000	15.009917
2439.000000	15.142801
2438.000000	15.261682
2437.000000	15.390134
2436.000000	15.506597
2435.000000	15.602911
2434.000000	15.713430
2433.000000	15.827777
2432.000000	15.930840
2431.000000	16.038236
2430.000000	16.148957
2429.000000	16.252826
2428.000000	16.341886
2427.000000	16.450894
2426.000000	16.534110
2425.000000	16.617931
2424.000000	16.722809
2423.000000	16.811768
2422.000000	16.904857
2421.000000	16.996940
2420.000000	17.079451
2419.000000	17.164179
2418.000000	17.251828
2417.000000	17.325172
2416.000000	17.396097
2415.000000	17.447075
2414.000000	17.526363
2413.000000	17.586810
2412.000000	17.650381
2411.000000	17.707706
2410.000000	17.755158
2409.000000	17.827192
2408.000000	17.880285
2407.000000	17.909602
2406.000000	17.960177
2405.000000	18.018106
2404.000000	18.068076
2403.000000	18.109181
2402.000000	18.139203
2401.000000	18.176480
2400.000000	18.225745
2399.000000	18.268763
2398.000000	18.295360
2397.000000	18.318734
2396.000000	18.343316
2395.000000	18.378779
2394.000000	18.416962
2393.000000	18.442753
2392.000000	18.457865
2391.000000	18.477006
2390.000000	18.479324
2389.000000	18.493428
2388.000000	18.501085
2387.000000	18.495947
2386.000000	18.516701
2385.000000	18.511663
2384.000000	18.495040
2383.000000	18.492018
2382.000000	18.480835
2381.000000	18.466529
2380.000000	18.455346
2379.000000	18.442249
2378.000000	18.408902
2377.000000	18.381398
2376.000000	18.361349
2375.000000	18.351476
2374.000000	18.307954
2373.000000	18.267655
2372.000000	18.236323
2371.000000	18.204386
2370.000000	18.177487
2369.000000	18.145147
2368.000000	18.104748
2367.000000	18.066464
2366.000000	18.017099
2365.000000	17.980830
2364.000000	17.958565
2363.000000	17.919274
2362.000000	17.860337
2361.000000	17.814800
2360.000000	17.773292
2359.000000	17.731583
2358.000000	17.679699
2357.000000	17.634464
2356.000000	17.613911
2355.000000	17.580161
2354.000000	17.551751
2353.000000	17.507019
2352.000000	17.489993
2351.000000	17.489590
2350.000000	17.475586
2349.000000	17.448586
2348.000000	17.437101
2347.000000	17.450903
2346.000000	17.458862
2345.000000	17.457956
2344.000000	17.455538
2343.000000	17.458862
2342.000000	17.449896
2341.000000	17.446672
2340.000000	17.439318
2339.000000	17.439721
2338.000000	17.424407
2337.000000	17.402646
2336.000000	17.396097
2335.000000	17.377862
2334.000000	17.337261
2333.000000	17.306534
2332.000000	17.290414
2331.000000	17.270164
2330.000000	17.225131
2329.000000	17.198634
2328.000000	17.166798
2327.000000	17.126198
2326.000000	17.073809
2325.000000	17.027164
2324.000000	16.976186
2323.000000	16.916443
2322.000000	16.857607
2321.000000	16.787387
2320.000000	16.727947
2319.000000	16.639491
2318.000000	16.555066
2317.000000	16.457845
2316.000000	16.360826
2315.000000	16.264815
2314.000000	16.148453
2313.000000	16.042165
2312.000000	15.941217
2311.000000	15.843493
2310.000000	15.750706
2309.000000	15.681997
2308.000000	15.612683
2307.000000	15.554452
2306.000000	15.501056
2305.000000	15.460556
2304.000000	15.447560
2303.000000	15.437787
2302.000000	15.425798
2301.000000	15.437586
2300.000000	15.454410
2299.000000	15.452295
2298.000000	15.472847
2297.000000	15.494004
2296.000000	15.504280
2295.000000	15.505489
2294.000000	15.527250
2293.000000	15.539440
2292.000000	15.509116
2291.000000	15.512944
2290.000000	15.518284
2289.000000	15.475668
2288.000000	15.460254
2287.000000	15.414515
2286.000000	15.412903
2285.000000	15.369985
2284.000000	15.317597
2283.000000	15.252817
2282.000000	15.200932
2281.000000	15.147839
2280.000000	15.085275
2279.000000	15.041148
2278.000000	14.963573
2277.000000	14.890834
2276.000000	14.840461
2275.000000	14.789081
2274.000000	14.732763
2273.000000	14.682793
2272.000000	14.650353
2271.000000	14.604412
2270.000000	14.586882
2269.000000	14.565826
2268.000000	14.565524
2267.000000	14.581039
2266.000000	14.613882
2265.000000	14.648942
2264.000000	14.724603
2263.000000	14.772357
2262.000000	14.870484
2261.000000	14.976368
2260.000000	15.079230
2259.000000	15.189145
2258.000000	15.312559
2257.000000	15.445041
2256.000000	15.575911
2255.000000	15.719172
2254.000000	15.848128
2253.000000	15.976781
2252.000000	16.116919
2251.000000	16.235397
2250.000000	16.371002
2249.000000	16.465502
2248.000000	16.585894
2247.000000	16.695809
2246.000000	16.786883
2245.000000	16.869395
2244.000000	16.960873
2243.000000	17.021320
2242.000000	17.101918
2241.000000	17.162366
2240.000000	17.200145
2239.000000	17.227851
2238.000000	17.280239
2237.000000	17.265530
2236.000000	17.295049
2235.000000	17.286687
2234.000000	17.291321
2233.000000	17.253037
2232.000000	17.217071
2231.000000	17.175664
2230.000000	17.095671
2229.000000	17.050638
2228.000000	16.963593
2227.000000	16.867078
2226.000000	16.763006
2225.000000	16.662260
2224.000000	16.553957
2223.000000	16.417647
2222.000000	16.290405
2221.000000	16.153289
2220.000000	16.011639
2219.000000	15.876941
2218.000000	15.753325
2217.000000	15.614295
2216.000000	15.483224
2215.000000	15.397388
2214.000000	15.298455
2213.000000	15.203552
2212.000000	15.178667
2211.000000	15.142096
2210.000000	15.133734
2209.000000	15.149350
2208.000000	15.194686
2207.000000	15.264906
2206.000000	15.357996
2205.000000	15.493399
2204.000000	15.671217
2203.000000	15.824452
2202.000000	16.014359
2201.000000	16.227438
2200.000000	16.446763
2199.000000	16.685835
2198.000000	16.922387
2197.000000	17.162466
2196.000000	17.409194
2195.000000	17.630232
2194.000000	17.825076
2193.000000	18.048229
2192.000000	18.238741
2191.000000	18.426532
2190.000000	18.594880
2189.000000	18.751641
2188.000000	18.891578
2187.000000	19.030407
2186.000000	19.159262
2185.000000	19.250739
2184.000000	19.330329
2183.000000	19.409113
2182.000000	19.492330
2181.000000	19.549352
2180.000000	19.602647
2179.000000	19.658763
2178.000000	19.715281
2177.000000	19.761020
2176.000000	19.806155
2175.000000	19.847058
2174.000000	19.882218
2173.000000	19.943069
2172.000000	20.001502
2171.000000	20.053084
2170.000000	20.089051
2169.000000	20.170152
2168.000000	20.229290
2167.000000	20.280570
2166.000000	20.330540
2165.000000	20.414261
2164.000000	20.475212
2163.000000	20.537776
2162.000000	20.616560
2161.000000	20.701791
2160.000000	20.777149
2159.000000	20.872959
2158.000000	20.965646
2157.000000	21.065788
2156.000000	21.160893
2155.000000	21.279975
2154.000000	21.393013
2153.000000	21.503028
2152.000000	21.617778
2151.000000	21.745222
2150.000000	21.865715
2149.000000	21.991648
2148.000000	22.099447
2147.000000	22.222660
2146.000000	22.336302
2145.000000	22.459314
2144.000000	22.570336
2143.000000	22.687303
2142.000000	22.805881
2141.000000	22.939371
2140.000000	23.047371
2139.000000	23.133207
2138.000000	23.240804
2137.000000	23.339636
2136.000000	23.437159
2135.000000	23.539316
2134.000000	23.620014
2133.000000	23.710283
2132.000000	23.791484
2131.000000	23.865432
2130.000000	23.933638
2129.000000	23.997007
2128.000000	24.059470
2127.000000	24.116291
2126.000000	24.167067
2125.000000	24.218448
2124.000000	24.262676
2123.000000	24.296526
2122.000000	24.330277
2121.000000	24.367049
2120.000000	24.396971
2119.000000	24.419135
2118.000000	24.451676
2117.000000	24.465881
2116.000000	24.472934
2115.000000	24.485124
2114.000000	24.494393
2113.000000	24.505978
2112.000000	24.504971
2111.000000	24.500740
2110.000000	24.516557
2109.000000	24.514643
2108.000000	24.499833
2107.000000	24.501747
2106.000000	24.500337
2105.000000	24.495803
2104.000000	24.485930
2103.000000	24.473135
2102.000000	24.477266
2101.000000	24.474445
2100.000000	24.460642
2099.000000	24.454598
2098.000000	24.447948
2097.000000	24.441702
2096.000000	24.440392
2095.000000	24.450669
2094.000000	24.453590
2093.000000	24.448150
2092.000000	24.451978
2091.000000	24.471422
2090.000000	24.475150
2089.000000	24.475351
2088.000000	24.474445
2087.000000	24.476762
2086.000000	24.476359
2085.000000	24.468299
2084.000000	24.442105
2083.000000	24.400497
2082.000000	24.373799
2081.000000	24.333198
2080.000000	24.287560
2079.000000	24.241620
2078.000000	24.187418
2077.000000	24.120623
2076.000000	24.044761
2075.000000	23.986328
2074.000000	23.920641
2073.000000	23.830675
2072.000000	23.746048
2071.000000	23.654771
2070.000000	23.569439
2069.000000	23.487734
2068.000000	23.381849
2067.000000	23.279390
2066.000000	23.201110
2065.000000	23.114669
2064.000000	23.012512
2063.000000	22.919423
2062.000000	22.837717
2061.000000	22.775859
2060.000000	22.717628
2059.000000	22.663627
2058.000000	22.629877
2057.000000	22.612750
2056.000000	22.606202
2055.000000	22.606101
2054.000000	22.634008
2053.000000	22.683474
2052.000000	22.740195
2051.000000	22.830967
2050.000000	22.935945
2049.000000	23.056740
2048.000000	23.197685
2047.000000	23.348301
2046.000000	23.519066
2045.000000	23.695271
2044.000000	23.864425
2043.000000	24.035392
2042.000000	24.243836
2041.000000	24.414299
2040.000000	24.591613
2039.000000	24.765904
2038.000000	24.930323
2037.000000	25.094942
2036.000000	25.257749
2035.000000	25.423980
2034.000000	25.552130
2033.000000	25.684007
2032.000000	25.818806
2031.000000	25.962672
2030.000000	26.068657
2029.000000	26.179680
2028.000000	26.275691
2027.000000	26.362333
2026.000000	26.479703
2025.000000	26.577326
2024.000000	26.659636
2023.000000	26.725323
2022.000000	26.806021
2021.000000	26.887625
2020.000000	26.958652
2019.000000	27.014062
2018.000000	27.067962
2017.000000	27.114003
2016.000000	27.175156
2015.000000	27.217772
2014.000000	27.247391
2013.000000	27.283861
2012.000000	27.292525
2011.000000	27.327686
2010.000000	27.355794
2009.000000	27.345518
2008.000000	27.344813
2007.000000	27.365164
2006.000000	27.334537
2005.000000	27.331615
2004.000000	27.310861
2003.000000	27.293835
2002.000000	27.263208
2001.000000	27.203566
2000.000000	27.162764
1999.000000	27.127603
1998.000000	27.084182
1997.000000	27.017085
1996.000000	26.962279
1995.000000	26.919663
1994.000000	26.857401
1993.000000	26.765319
1992.000000	26.686838
1991.000000	26.622763
1990.000000	26.557479
1989.000000	26.478695
1988.000000	26.375632
1987.000000	26.291307
1986.000000	26.219575
1985.000000	26.124471
1984.000000	26.013247
1983.000000	25.937888
1982.000000	25.852959
1981.000000	25.748082
1980.000000	25.666376
1979.000000	25.570365
1978.000000	25.465387
1977.000000	25.396779
1976.000000	25.300264
1975.000000	25.220573
1974.000000	25.164558
1973.000000	25.048800
1972.000000	24.979688
1971.000000	24.890830
1970.000000	24.822625
1969.000000	24.740516
1968.000000	24.645009
1967.000000	24.575393
1966.000000	24.499027
1965.000000	24.451273
1964.000000	24.341359
1963.000000	24.280306
1962.000000	24.186914
1961.000000	24.098257
1960.000000	24.029951
1959.000000	23.936761
1958.000000	23.843067
1957.000000	23.786246
1956.000000	23.688018
1955.000000	23.607924
1954.000000	23.521685
1953.000000	23.433230
1952.000000	23.324827
1951.000000	23.270524
1950.000000	23.204334
1949.000000	23.165949
1948.000000	23.106509
1947.000000	23.031856
1946.000000	22.951863
1945.000000	22.909650
1944.000000	22.849908
1943.000000	22.821195
1942.000000	22.827945
1941.000000	22.793893
1940.000000	22.753292
1939.000000	22.747952
1938.000000	22.749463
1937.000000	22.739590
1936.000000	22.763165
1935.000000	22.793389
1934.000000	22.839531
1933.000000	22.893934
1932.000000	22.953475
1931.000000	23.022285
1930.000000	23.107113
1929.000000	23.202621
1928.000000	23.307901
1927.000000	23.407036
1926.000000	23.522290
1925.000000	23.689730
1924.000000	23.818484
1923.000000	23.984918
1922.000000	24.152358
1921.000000	24.365236
1920.000000	24.531568
1919.000000	24.730643
1918.000000	24.955408
1917.000000	25.186319
1916.000000	25.421764
1915.000000	25.692772
1914.000000	25.975064
1913.000000	26.245266
1912.000000	26.522419
1911.000000	26.814080
1910.000000	27.123070
1909.000000	27.418559
1908.000000	27.735508
1907.000000	28.136680
1906.000000	28.526972
1905.000000	28.923510
1904.000000	29.322366
1903.000000	29.715881
1902.000000	30.111714
1901.000000	30.513995
1900.000000	30.980754
1899.000000	31.392202
1898.000000	31.820979
1897.000000	32.297006
1896.000000	32.726187
1895.000000	33.157079
1894.000000	33.584043
1893.000000	34.045865
1892.000000	34.548993
1891.000000	35.032274
1890.000000	35.468002
1889.000000	35.877436
1888.000000	36.348325
1887.000000	36.761789
1886.000000	37.189054
1885.000000	37.632037
1884.000000	38.058597
1883.000000	38.461785
1882.000000	38.839786
1881.000000	39.211036
1880.000000	39.543097
1879.000000	39.895004
1878.000000	40.228072
1877.000000	40.506435
1876.000000	40.782782
1875.000000	41.062858
1874.000000	41.322481
1873.000000	41.541504
1872.000000	41.745818
1871.000000	41.911042
1870.000000	41.996173
1869.000000	42.096718
1868.000000	42.202401
1867.000000	42.263151
1866.000000	42.318662
1865.000000	42.398655
1864.000000	42.495473
1863.000000	42.582417
1862.000000	42.681249
1861.000000	42.753988
1860.000000	42.811817
1859.000000	42.856649
1858.000000	42.881029
1857.000000	42.908332
1856.000000	42.937044
1855.000000	42.967772
1854.000000	42.951350
1853.000000	42.907123
1852.000000	42.915888
1851.000000	42.970996
1850.000000	43.017339
1849.000000	43.044239
1848.000000	43.007970
1847.000000	42.910750
1846.000000	42.835794
1845.000000	42.800734
1844.000000	42.801641
1843.000000	42.848690
1842.000000	42.866119
1841.000000	42.824309
1840.000000	42.770108
1839.000000	42.728600
1838.000000	42.690417
1837.000000	42.620297
1836.000000	42.544335
1835.000000	42.460413
1834.000000	42.386465
1833.000000	42.349491
1832.000000	42.336495
1831.000000	42.300327
1830.000000	42.238468
1829.000000	42.193636
1828.000000	42.125834
1827.000000	42.051080
1826.000000	42.006852
1825.000000	41.971591
1824.000000	41.977233
1823.000000	42.023475
1822.000000	42.058334
1821.000000	42.048561
1820.000000	41.996979
1819.000000	41.952046
1818.000000	41.938546
1817.000000	41.932803
1816.000000	41.931292
1815.000000	41.915072
1814.000000	41.905602
1813.000000	41.901371
1812.000000	41.890087
1811.000000	41.841124
1810.000000	41.791859
1809.000000	41.774430
1808.000000	41.752568
1807.000000	41.720833
1806.000000	41.678721
1805.000000	41.633989
1804.000000	41.608501
1803.000000	41.606284
1802.000000	41.591273
1801.000000	41.530422
1800.000000	41.471082
1799.000000	41.440858
1798.000000	41.424437
1797.000000	41.391090
1796.000000	41.367515
1795.000000	41.329533
1794.000000	41.295582
1793.000000	41.277448
1792.000000	41.242388
1791.000000	41.195440
1790.000000	41.165820
1789.000000	41.152119
1788.000000	41.143354
1787.000000	41.110914
1786.000000	41.083108
1785.000000	41.056511
1784.000000	41.016010
1783.000000	40.991126
1782.000000	40.941962
1781.000000	40.895014
1780.000000	40.854413
1779.000000	40.798398
1778.000000	40.732510
1777.000000	40.651711
1776.000000	40.573431
1775.000000	40.491826
1774.000000	40.400852
1773.000000	40.314110
1772.000000	40.228374
1771.000000	40.138408
1770.000000	40.046426
1769.000000	39.965728
1768.000000	39.891478
1767.000000	39.812191
1766.000000	39.745093
1765.000000	39.673765
1764.000000	39.639310
1763.000000	39.614828
1762.000000	39.579970
1761.000000	39.563448
1760.000000	39.545414
1759.000000	39.551157
1758.000000	39.547328
1757.000000	39.540679
1756.000000	39.522746
1755.000000	39.497660
1754.000000	39.486477
1753.000000	39.445977
1752.000000	39.407694
1751.000000	39.358025
1750.000000	39.285891
1749.000000	39.219398
1748.000000	39.139607
1747.000000	39.036745
1746.000000	38.937308
1745.000000	38.835151
1744.000000	38.700453
1743.000000	38.558501
1742.000000	38.430755
1741.000000	38.272784
1740.000000	38.125795
1739.000000	38.007015
1738.000000	37.889545
1737.000000	37.774492
1736.000000	37.703063
1735.000000	37.646343
1734.000000	37.619141
1733.000000	37.597380
1732.000000	37.593048
1731.000000	37.594156
1730.000000	37.609167
1729.000000	37.619846
1728.000000	37.613096
1727.000000	37.628208
1726.000000	37.641809
1725.000000	37.640701
1724.000000	37.659037
1723.000000	37.694197
1722.000000	37.740339
1721.000000	37.829097
1720.000000	37.930246
1719.000000	38.060008
1718.000000	38.218583
1717.000000	38.350964
1716.000000	38.516087
1715.000000	38.682823
1714.000000	38.795860
1713.000000	38.932069
1712.000000	39.004909
1711.000000	39.079764
1710.000000	39.153913
1709.000000	39.196428
1708.000000	39.235216
1707.000000	39.263122
1706.000000	39.276219
1705.000000	39.244081
1704.000000	39.230279
1703.000000	39.164391
1702.000000	39.103036
1701.000000	39.029390
1700.000000	38.964711
1699.000000	38.894189
1698.000000	38.822659
1697.000000	38.783368
1696.000000	38.745991
1695.000000	38.743270
1694.000000	38.723222
1693.000000	38.711535
1692.000000	38.734002
1691.000000	38.757778
1690.000000	38.763420
1689.000000	38.820341
1688.000000	38.855301
1687.000000	38.944360
1686.000000	39.062032
1685.000000	39.221313
1684.000000	39.425727
1683.000000	39.681724
1682.000000	39.967139
1681.000000	40.306151
1680.000000	40.636700
1679.000000	40.970977
1678.000000	41.278153
1677.000000	41.583717
1676.000000	41.865606
1675.000000	42.126740
1674.000000	42.344151
1673.000000	42.591685
1672.000000	42.806981
1671.000000	43.012504
1670.000000	43.226691
1669.000000	43.429292
1668.000000	43.614665
1667.000000	43.755408
1666.000000	43.893431
1665.000000	44.022789
1664.000000	44.144088
1663.000000	44.273144
1662.000000	44.399883
1661.000000	44.511108
1660.000000	44.612257
1659.000000	44.703433
1658.000000	44.770832
1657.000000	44.821104
1656.000000	44.868858
1655.000000	44.898075
1654.000000	44.940388
1653.000000	44.955198
1652.000000	44.959933
1651.000000	44.971821
1650.000000	44.973534
1649.000000	44.975247
1648.000000	44.953284
1647.000000	44.928702
1646.000000	44.904623
1645.000000	44.899183
1644.000000	44.875608
1643.000000	44.838735
1642.000000	44.819291
1641.000000	44.808209
1640.000000	44.787959
1639.000000	44.761261
1638.000000	44.739298
1637.000000	44.706556
1636.000000	44.677944
1635.000000	44.663235
1634.000000	44.621929
1633.000000	44.575283
1632.000000	44.527731
1631.000000	44.478768
1630.000000	44.432223
1629.000000	44.386283
1628.000000	44.338428
1627.000000	44.281506
1626.000000	44.232241
1625.000000	44.185696
1624.000000	44.137338
1623.000000	44.086763
1622.000000	44.036894
1621.000000	44.001935
1620.000000	43.941487
1619.000000	43.899778
1618.000000	43.870158
1617.000000	43.831270
1616.000000	43.782811
1615.000000	43.747348
1614.000000	43.702516
1613.000000	43.660908
1612.000000	43.598344
1611.000000	43.551598
1610.000000	43.510292
1609.000000	43.441684
1608.000000	43.363101
1607.000000	43.300336
1606.000000	43.245933
1605.000000	43.177123
1604.000000	43.105795
1603.000000	43.033056
1602.000000	42.964246
1601.000000	42.903697
1600.000000	42.815645
1599.000000	42.746029
1598.000000	42.682861
1597.000000	42.619492
1596.000000	42.563678
1595.000000	42.493155
1594.000000	42.440465
1593.000000	42.399864
1592.000000	42.339215
1591.000000	42.280580
1590.000000	42.234338
1589.000000	42.181849
1588.000000	42.132886
1587.000000	42.096315
1586.000000	42.053598
1585.000000	42.018438
1584.000000	41.973505
1583.000000	41.923233
1582.000000	41.899557
1581.000000	41.879106
1580.000000	41.843240
1579.000000	41.820471
1578.000000	41.802538
1577.000000	41.773725
1576.000000	41.766270
1575.000000	41.762340
1574.000000	41.772012
1573.000000	41.787930
1572.000000	41.791456
1571.000000	41.796594
1570.000000	41.817952
1569.000000	41.838807
1568.000000	41.868023
1567.000000	41.895124
1566.000000	41.909229
1565.000000	41.920210
1564.000000	41.935221
1563.000000	41.950535
1562.000000	41.962121
1561.000000	41.971188
1560.000000	41.968669
1559.000000	41.955774
1558.000000	41.929781
1557.000000	41.898449
1556.000000	41.860165
1555.000000	41.809893
1554.000000	41.754583
1553.000000	41.706023
1552.000000	41.645474
1551.000000	41.575657
1550.000000	41.505235
1549.000000	41.431690
1548.000000	41.357440
1547.000000	41.302231
1546.000000	41.250145
1545.000000	41.187078
1544.000000	41.131869
1543.000000	41.094391
1542.000000	41.059130
1541.000000	41.029007
1540.000000	40.985988
1539.000000	40.949014
1538.000000	40.928462
1537.000000	40.915566
1536.000000	40.869021
1535.000000	40.824391
1534.000000	40.798499
1533.000000	40.771700
1532.000000	40.729185
1531.000000	40.674581
1530.000000	40.632368
1529.000000	40.596301
1528.000000	40.562953
1527.000000	40.521345
1526.000000	40.468756
1525.000000	40.420699
1524.000000	40.372140
1523.000000	40.320759
1522.000000	40.263837
1521.000000	40.213665
1520.000000	40.169740
1519.000000	40.122389
1518.000000	40.077355
1517.000000	40.034034
1516.000000	39.971975
1515.000000	39.931676
1514.000000	39.884627
1513.000000	39.834254
1512.000000	39.779045
1511.000000	39.725045
1510.000000	39.686661
1509.000000	39.636993
1508.000000	39.595183
1507.000000	39.542492
1506.000000	39.506828
1505.000000	39.450108
1504.000000	39.401447
1503.000000	39.367899
1502.000000	39.330219
1501.000000	39.315712
1500.000000	39.282869
1499.000000	39.263223
1498.000000	39.252645
1497.000000	39.259495
1496.000000	39.237533
1495.000000	39.241260
1494.000000	39.240555
1493.000000	39.254055
1492.000000	39.276421
1491.000000	39.311279
1490.000000	39.330421
1489.000000	39.371727
1488.000000	39.405880
1487.000000	39.431268
1486.000000	39.454641
1485.000000	39.483858
1484.000000	39.525063
1483.000000	39.549545
1482.000000	39.596795
1481.000000	39.628731
1480.000000	39.691295
1479.000000	39.744187
1478.000000	39.783377
1477.000000	39.849165
1476.000000	39.886441
1475.000000	39.940441
1474.000000	40.015497
1473.000000	40.103549
1472.000000	40.172863
1471.000000	40.260412
1470.000000	40.315016
1469.000000	40.379796
1468.000000	40.465431
1467.000000	40.555196
1466.000000	40.637304
1465.000000	40.702991
1464.000000	40.773211
1463.000000	40.859249
1462.000000	40.972085
1461.000000	41.051171
1460.000000	41.140835
1459.000000	41.236444
1458.000000	41.336989
1457.000000	41.457784
1456.000000	41.556213
1455.000000	41.658773
1454.000000	41.741284
1453.000000	41.867217
1452.000000	42.014710
1451.000000	42.123416
1450.000000	42.195953
1449.000000	42.255091
1448.000000	42.382435
1447.000000	42.548969
1446.000000	42.699283
1445.000000	42.738473
1444.000000	42.841638
1443.000000	42.946515
1442.000000	43.073052
1441.000000	43.185586
1440.000000	43.312124
1439.000000	43.440172
1438.000000	43.566307
1437.000000	43.655065
1436.000000	43.788453
1435.000000	43.924259
1434.000000	44.074271
1433.000000	44.238790
1432.000000	44.361197
1431.000000	44.509596
1430.000000	44.628175
1429.000000	44.791384
1428.000000	44.963157
1427.000000	45.125359
1426.000000	45.318087
1425.000000	45.541946
1424.000000	45.745252
1423.000000	45.911987
1422.000000	46.089301
1421.000000	46.364138
1420.000000	46.626079
1419.000000	46.800471
1418.000000	46.970833
1417.000000	47.119132
1416.000000	47.404345
1415.000000	47.677066
1414.000000	47.891152
1413.000000	48.034414
1412.000000	48.208302
1411.000000	48.497142
1410.000000	48.775606
1409.000000	49.013871
1408.000000	49.233599
1407.000000	49.457357
1406.000000	49.656835
1405.000000	49.831026
1404.000000	49.921698
1403.000000	50.130948
1402.000000	50.363773
1401.000000	50.619166
1400.000000	50.567281
1399.000000	50.539878
1398.000000	50.595792
1397.000000	50.704095
1396.000000	50.768976
1395.000000	50.664098
1394.000000	50.610501
1393.000000	50.580983
1392.000000	50.531617
1391.000000	50.489203
1390.000000	50.500083
1389.000000	50.551565
1388.000000	50.611106
1387.000000	50.611509
1386.000000	50.730994
1385.000000	50.889468
1384.000000	51.130756
1383.000000	51.329025
1382.000000	51.553791
1381.000000	51.794676
1380.000000	52.001710
1379.000000	52.525188
1378.000000	52.961118
1377.000000	53.537489
1376.000000	54.103281
1375.000000	54.668167
1374.000000	55.280000
1373.000000	55.884580
1372.000000	56.412492
1371.000000	56.833612
1370.000000	57.185016
1369.000000	57.499042
1368.000000	57.741539
1367.000000	57.928625
1366.000000	58.117223
1365.000000	58.299977
1364.000000	58.446261
1363.000000	58.611284
1362.000000	58.741750
1361.000000	58.783762
1360.000000	58.834739
1359.000000	58.913725
1358.000000	59.005404
1357.000000	59.121061
1356.000000	59.282960
1355.000000	59.467326
1354.000000	59.626909
1353.000000	59.792738
1352.000000	60.065861
1351.000000	60.291735
1350.000000	60.521135
1349.000000	60.771993
1348.000000	60.994845
1347.000000	61.196640
1346.000000	61.379898
1345.000000	61.573533
1344.000000	61.774522
1343.000000	61.940149
1342.000000	62.100235
1341.000000	62.257702
1340.000000	62.416478
1339.000000	62.575859
1338.000000	62.714688
1337.000000	62.855935
1336.000000	62.992144
1335.000000	63.106793
1334.000000	63.225573
1333.000000	63.332365
1332.000000	63.445704
1331.000000	63.549171
1330.000000	63.622615
1329.000000	63.709459
1328.000000	63.797713
1327.000000	63.873474
1326.000000	63.941478
1325.000000	64.014821
1324.000000	64.077586
1323.000000	64.132594
1322.000000	64.193143
1321.000000	64.260542
1320.000000	64.317665
1319.000000	64.365721
1318.000000	64.406927
1317.000000	64.458610
1316.000000	64.493669
1315.000000	64.539207
1314.000000	64.601267
1313.000000	64.650431
1312.000000	64.683778
1311.000000	64.728006
1310.000000	64.767599
1309.000000	64.807696
1308.000000	64.842857
1307.000000	64.870260
1306.000000	64.888293
1305.000000	64.906730
1304.000000	64.930708
1303.000000	64.940581
1302.000000	64.943906
1301.000000	64.947029
1300.000000	64.963350
1299.000000	64.981282
1298.000000	64.984103
1297.000000	64.985715
1296.000000	64.979973
1295.000000	64.963047
1294.000000	64.952973
1293.000000	64.944510
1292.000000	64.939674
1291.000000	64.925973
1290.000000	64.903808
1289.000000	64.880838
1288.000000	64.850614
1287.000000	64.812633
1286.000000	64.779084
1285.000000	64.756316
1284.000000	64.712289
1283.000000	64.675013
1282.000000	64.650532
1281.000000	64.618998
1280.000000	64.594013
1279.000000	64.574468
1278.000000	64.554017
1277.000000	64.526815
1276.000000	64.516841
1275.000000	64.510595
1274.000000	64.498002
1273.000000	64.493669
1272.000000	64.499916
1271.000000	64.500722
1270.000000	64.492460
1269.000000	64.492964
1268.000000	64.480975
1267.000000	64.479162
1266.000000	64.484602
1265.000000	64.460524
1264.000000	64.446520
1263.000000	64.450248
1262.000000	64.447125
1261.000000	64.420628
1260.000000	64.401083
1259.000000	64.385568
1258.000000	64.355042
1257.000000	64.334389
1256.000000	64.293486
1255.000000	64.259132
1254.000000	64.223064
1253.000000	64.173799
1252.000000	64.115266
1251.000000	64.069930
1250.000000	64.031042
1249.000000	63.960519
1248.000000	63.899970
1247.000000	63.832974
1246.000000	63.785825
1245.000000	63.738474
1244.000000	63.667750
1243.000000	63.604279
1242.000000	63.566399
1241.000000	63.527309
1240.000000	63.483182
1239.000000	63.454570
1238.000000	63.412559
1237.000000	63.368029
1236.000000	63.345965
1235.000000	63.316749
1234.000000	63.268592
1233.000000	63.226984
1232.000000	63.195349
1231.000000	63.160189
1230.000000	63.126036
1229.000000	63.083118
1228.000000	63.022871
1227.000000	62.959804
1226.000000	62.920715
1225.000000	62.868024
1224.000000	62.805763
1223.000000	62.761031
1222.000000	62.720934
1221.000000	62.668345
1220.000000	62.625225
1219.000000	62.566591
1218.000000	62.529818
1217.000000	62.479042
1216.000000	62.427460
1215.000000	62.367516
1214.000000	62.311198
1213.000000	62.259818
1212.000000	62.199773
1211.000000	62.131769
1210.000000	62.062254
1209.000000	62.008556
1208.000000	61.940451
1207.000000	61.890884
1206.000000	61.844742
1205.000000	61.764044
1204.000000	61.728884
1203.000000	61.676193
1202.000000	61.625518
1201.000000	61.564465
1200.000000	61.511573
1199.000000	61.440346
1198.000000	61.368312
1197.000000	61.277842
1196.000000	61.191099
1195.000000	61.097102
1194.000000	60.967442
1193.000000	60.824986
1192.000000	60.697743
1191.000000	60.549747
1190.000000	60.430765
1189.000000	60.326896
1188.000000	60.258287
1187.000000	60.264533
1186.000000	60.280854
1185.000000	60.320448
1184.000000	60.406384
1183.000000	60.546321
1182.000000	60.687064
1181.000000	60.843523
1180.000000	61.010662
1179.000000	61.171856
1178.000000	61.326905
1177.000000	61.465129
1176.000000	61.583406
1175.000000	61.739663
1174.000000	61.862776
1173.000000	61.983974
1172.000000	62.135597
1171.000000	62.267474
1170.000000	62.450934
1169.000000	62.603262
1168.000000	62.773222
1167.000000	62.925953
1166.000000	63.105987
1165.000000	63.276350
1164.000000	63.434723
1163.000000	63.612238
1162.000000	63.788847
1161.000000	63.935534
1160.000000	64.092900
1159.000000	64.268501
1158.000000	64.388692
1157.000000	64.525102
1156.000000	64.631793
1155.000000	64.720148
1154.000000	64.784625
1153.000000	64.848599
1152.000000	64.896353
1151.000000	64.935745
1150.000000	64.977152
1149.000000	65.019465
1148.000000	65.067118
1147.000000	65.100466
1146.000000	65.168369
1145.000000	65.214511
1144.000000	65.279291
1143.000000	65.356059
1142.000000	65.487231
1141.000000	65.595534
1140.000000	65.708974
1139.000000	65.825034
1138.000000	65.973837
1137.000000	66.115889
1136.000000	66.302069
1135.000000	66.422763
1134.000000	66.549502
1133.000000	66.624861
1132.000000	66.722786
1131.000000	66.850231
1130.000000	66.961152
1129.000000	67.051321
1128.000000	67.134134
1127.000000	67.164761
1126.000000	67.234780
1125.000000	67.271653
1124.000000	67.328575
1123.000000	67.340261
1122.000000	67.355575
1121.000000	67.353963
1120.000000	67.369881
1119.000000	67.373004
1118.000000	67.371997
1117.000000	67.379956
1116.000000	67.376530
1115.000000	67.395773
1114.000000	67.373004
1113.000000	67.366758
1112.000000	67.368974
1111.000000	67.380157
1110.000000	67.381366
1109.000000	67.371291
1108.000000	67.379452
1107.000000	67.375724
1106.000000	67.379049
1105.000000	67.382676
1104.000000	67.373306
1103.000000	67.362426
1102.000000	67.374112
1101.000000	67.366254
1100.000000	67.363030
1099.000000	67.357892
1098.000000	67.347616
1097.000000	67.336131
1096.000000	67.340060
1095.000000	67.339254
1094.000000	67.317896
1093.000000	67.308526
1092.000000	67.302179
1091.000000	67.287974
1090.000000	67.252914
1089.000000	67.245358
1088.000000	67.245459
1087.000000	67.232463
1086.000000	67.196899
1085.000000	67.182492
1084.000000	67.156399
1083.000000	67.140582
1082.000000	67.118518
1081.000000	67.091418
1080.000000	67.057768
1079.000000	67.046283
1078.000000	67.028552
1077.000000	66.998630
1076.000000	66.963369
1075.000000	66.930525
1074.000000	66.911182
1073.000000	66.891839
1072.000000	66.859600
1071.000000	66.817790
1070.000000	66.798749
1069.000000	66.755831
1068.000000	66.706465
1067.000000	66.670499
1066.000000	66.630402
1065.000000	66.597357
1064.000000	66.570256
1063.000000	66.544364
1062.000000	66.511319
1061.000000	66.458327
1060.000000	66.418733
1059.000000	66.379140
1058.000000	66.327961
1057.000000	66.281517
1056.000000	66.244442
1055.000000	66.208778
1054.000000	66.172912
1053.000000	66.140270
1052.000000	66.094632
1051.000000	66.053024
1050.000000	66.026829
1049.000000	65.996001
1048.000000	65.953990
1047.000000	65.912180
1046.000000	65.889311
1045.000000	65.868053
1044.000000	65.833598
1043.000000	65.814254
1042.000000	65.795415
1041.000000	65.779396
1040.000000	65.767508
1039.000000	65.752698
1038.000000	65.731743
1037.000000	65.702426
1036.000000	65.687112
1035.000000	65.663336
1034.000000	65.638049
1033.000000	65.615381
1032.000000	65.613668
1031.000000	65.625254
1030.000000	65.613467
1029.000000	65.598153
1028.000000	65.590597
1027.000000	65.583545
1026.000000	65.576795
1025.000000	65.575183
1024.000000	65.569541
1023.000000	65.575082
1022.000000	65.591101
1021.000000	65.597549
1020.000000	65.605105
1019.000000	65.629788
1018.000000	65.648123
1017.000000	65.665049
1016.000000	65.699303
1015.000000	65.724691
1014.000000	65.745545
1013.000000	65.781814
1012.000000	65.810023
1011.000000	65.833598
1010.000000	65.868053
1009.000000	65.905430
1008.000000	65.937266
1007.000000	65.964669
1006.000000	66.012423
1005.000000	66.041941
1004.000000	66.056247
1003.000000	66.077001
1002.000000	66.110751
1001.000000	66.132815
1000.000000	66.158505
999.000000	66.175028
998.000000	66.194270
997.000000	66.204143
996.000000	66.218651
995.000000	66.231043
994.000000	66.239808
993.000000	66.257337
992.000000	66.266203
991.000000	66.258849
990.000000	66.279099
989.000000	66.280005
988.000000	66.304084
987.000000	66.322117
986.000000	66.307711
985.000000	66.302472
984.000000	66.320808
983.000000	66.334711
982.000000	66.328364
981.000000	66.351838
980.000000	66.371382
979.000000	66.356371
978.000000	66.372188
977.000000	66.401103
976.000000	66.397577
975.000000	66.424577
974.000000	66.445935
973.000000	66.455304
972.000000	66.479685
971.000000	66.475252
970.000000	66.519379
969.000000	66.531066
968.000000	66.546581
967.000000	66.596853
966.000000	66.644506
965.000000	66.667980
964.000000	66.696189
963.000000	66.729838
962.000000	66.789682
961.000000	66.835421
960.000000	66.873704
959.000000	66.903425
958.000000	66.961455
957.000000	67.020291
956.000000	67.057164
955.000000	67.114892
954.000000	67.180578
953.000000	67.256037
952.000000	67.279209
951.000000	67.325552
950.000000	67.384288
949.000000	67.437180
948.000000	67.525736
947.000000	67.569157
946.000000	67.629102
945.000000	67.692471
944.000000	67.740829
943.000000	67.800371
942.000000	67.869382
941.000000	67.920561
940.000000	67.959752
939.000000	68.001964
938.000000	68.048711
937.000000	68.108756
936.000000	68.143715
935.000000	68.164368
934.000000	68.208495
933.000000	68.211316
932.000000	68.248290
931.000000	68.252622
930.000000	68.305614
929.000000	68.303499
928.000000	68.304607
927.000000	68.326469
926.000000	68.369286
925.000000	68.360521
924.000000	68.371301
923.000000	68.366667
922.000000	68.413212
921.000000	68.379058
920.000000	68.383290
919.000000	68.362939
918.000000	68.359514
917.000000	68.352361
916.000000	68.353670
915.000000	68.344905
914.000000	68.351857
913.000000	68.312163
912.000000	68.298159
911.000000	68.305614
910.000000	68.275894
909.000000	68.328383
908.000000	68.305312
907.000000	68.312767
906.000000	68.311659
905.000000	68.364249
904.000000	68.387723
903.000000	68.355887
902.000000	68.367372
901.000000	68.430338
900.000000	68.405152
899.000000	68.413413
898.000000	68.411197
897.000000	68.423991
896.000000	68.429532
895.000000	68.416234
894.000000	68.425503
893.000000	68.420062
892.000000	68.414118
891.000000	68.404447
890.000000	68.377245
889.000000	68.353167
888.000000	68.353066
887.000000	68.309543
886.000000	68.307125
885.000000	68.268237
884.000000	68.241942
883.000000	68.190058
882.000000	68.142808
881.000000	68.096162
880.000000	68.061203
879.000000	68.011535
878.000000	67.960155
877.000000	67.880666
876.000000	67.852658
875.000000	67.757352
874.000000	67.712318
873.000000	67.610967
872.000000	67.551527
871.000000	67.458538
870.000000	67.366758
869.000000	67.294120
868.000000	67.227526
867.000000	67.113481
866.000000	67.022910
865.000000	66.904835
864.000000	66.768626
863.000000	66.580532
862.000000	66.397879
861.000000	66.179863
860.000000	66.001945
859.000000	65.912079
858.000000	65.964367
857.000000	66.067400
856.000000	65.965600
855.000000	65.860100
854.000000	65.846900
853.000000	65.996300
852.000000	65.601200
851.000000	65.455900
850.000000	65.573700
849.000000	65.345100
848.000000	65.211300
847.000000	65.131400
846.000000	65.112400
845.000000	65.012400
844.000000	64.790100
843.000000	64.791000
842.000000	64.571800
841.000000	64.352200
840.000000	64.389000
839.000000	64.615200
838.000000	64.490100
837.000000	64.445900
836.000000	64.119400
835.000000	64.060400
834.000000	63.887600
833.000000	63.728400
832.000000	63.745100
831.000000	63.654400
830.000000	63.411900
829.000000	63.368500
828.000000	63.283000
827.000000	62.911600
826.000000	62.860800
825.000000	62.779000
824.000000	62.664500
823.000000	62.474400
822.000000	62.285200
821.000000	62.106400
820.000000	62.019900
819.000000	61.911500
818.000000	61.675200
817.000000	61.509000
816.000000	61.388700
815.000000	61.250900
814.000000	61.013200
813.000000	60.914100
812.000000	60.743700
811.000000	60.545600
810.000000	60.483700
809.000000	60.447000
808.000000	60.315100
807.000000	60.183500
806.000000	60.086900
805.000000	59.907900
804.000000	59.833200
803.000000	59.595000
802.000000	59.550800
801.000000	59.427100
800.000000	59.342400
799.000000	59.117000
798.000000	59.058100
797.000000	58.942500
796.000000	58.694500
795.000000	58.638300
794.000000	58.526300
793.000000	58.454500
792.000000	58.401500
791.000000	58.317900
790.000000	58.221900
789.000000	57.997800
788.000000	57.836500
787.000000	57.743500
786.000000	57.572700
785.000000	57.442900
784.000000	57.319400
783.000000	57.231900
782.000000	57.108500
781.000000	56.961400
780.000000	56.680900
779.000000	56.568600
778.000000	56.454600
777.000000	56.296900
776.000000	56.114500
775.000000	55.970900
774.000000	55.881000
773.000000	55.725100
772.000000	55.549400
771.000000	55.409600
770.000000	55.239000
769.000000	55.109400
768.000000	54.961100
767.000000	54.857900
766.000000	54.751400
765.000000	54.634300
764.000000	54.547700
763.000000	54.408800
762.000000	54.214100
761.000000	54.119000
760.000000	53.971000
759.000000	53.811300
758.000000	53.649600
757.000000	53.472300
756.000000	53.353600
755.000000	53.194600
754.000000	52.983400
753.000000	52.831000
752.000000	52.701100
751.000000	52.561400
750.000000	52.402800
749.000000	52.231000
748.000000	52.060000
747.000000	51.897000
746.000000	51.727000
745.000000	51.521800
744.000000	51.348000
743.000000	51.182500
742.000000	50.965500
741.000000	50.779200
740.000000	50.616100
739.000000	50.440500
738.000000	50.281000
737.000000	50.170600
736.000000	50.029300
735.000000	49.815800
734.000000	49.685200
733.000000	49.529900
732.000000	49.307400
731.000000	49.156700
730.000000	49.040600
729.000000	48.857000
728.000000	48.660600
727.000000	48.523300
726.000000	48.374400
725.000000	48.194300
724.000000	48.053900
723.000000	47.918600
722.000000	47.711800
721.000000	47.472600
720.000000	47.345700
719.000000	47.144000
718.000000	46.949000
717.000000	46.829300
716.000000	46.633200
715.000000	46.420000
714.000000	46.249200
713.000000	46.075100
712.000000	45.886500
711.000000	45.682100
710.000000	45.502800
709.000000	45.337100
708.000000	45.199200
707.000000	45.015300
706.000000	44.838500
705.000000	44.677300
704.000000	44.492000
703.000000	44.258300
702.000000	44.097600
701.000000	43.966700
700.000000	43.779300
699.000000	43.578600
698.000000	43.388500
697.000000	43.202300
696.000000	43.082900
695.000000	42.892600
694.000000	42.714300
693.000000	42.547600
692.000000	42.450400
691.000000	42.361500
690.000000	42.277000
689.000000	42.169000
688.000000	42.042200
687.000000	41.999300
686.000000	42.000900
685.000000	41.932400
684.000000	41.919900
683.000000	41.880800
682.000000	41.830900
681.000000	41.800600
680.000000	41.787300
679.000000	41.789900
678.000000	41.798900
677.000000	41.747500
676.000000	41.737600
675.000000	41.708500
674.000000	41.627700
673.000000	41.582700
672.000000	41.490000
671.000000	41.428800
670.000000	41.321000
669.000000	41.211100
668.000000	41.074600
667.000000	40.961400
666.000000	40.811600
665.000000	40.661000
664.000000	40.506200
663.000000	40.338100
662.000000	40.166300
661.000000	39.945200
660.000000	39.730800
659.000000	39.514000
658.000000	39.286500
657.000000	39.066500
656.000000	38.806700
655.000000	38.569300
654.000000	38.313600
653.000000	38.074200
652.000000	37.828700
651.000000	37.560900
650.000000	37.346900
649.000000	37.153000
648.000000	36.956600
647.000000	36.809500
646.000000	36.706800
645.000000	36.598600
644.000000	36.556100
643.000000	36.563200
642.000000	36.603100
641.000000	36.647500
640.000000	36.792200
639.000000	36.994700
638.000000	37.214500
637.000000	37.467200
636.000000	37.771000
635.000000	38.109600
634.000000	38.465700
633.000000	38.921500
632.000000	39.359800
631.000000	39.842200
630.000000	40.316000
629.000000	40.866800
628.000000	41.363100
627.000000	41.923900
626.000000	42.444100
625.000000	42.997800
624.000000	43.564700
623.000000	44.089800
622.000000	44.615800
621.000000	45.157500
620.000000	45.673800
619.000000	46.188100
618.000000	46.656600
617.000000	47.114400
616.000000	47.574100
615.000000	47.989300
614.000000	48.429600
613.000000	48.796400
612.000000	49.188500
611.000000	49.529800
610.000000	49.865000
609.000000	50.172600
608.000000	50.492300
607.000000	50.729900
606.000000	51.006200
605.000000	51.234200
604.000000	51.442500
603.000000	51.668600
602.000000	51.852000
601.000000	52.076000
600.000000	52.247000
599.000000	52.444700
598.000000	52.611500
597.000000	52.835500
596.000000	52.997200
595.000000	53.184700
594.000000	53.367100
593.000000	53.562200
592.000000	53.727900
591.000000	53.923400
590.000000	54.099300
589.000000	54.230700
588.000000	54.410700
587.000000	54.529600
586.000000	54.620700
585.000000	54.710200
584.000000	54.816700
583.000000	54.872300
582.000000	54.912800
581.000000	54.925100
580.000000	54.943400
579.000000	54.948500
578.000000	54.914400
577.000000	54.847600
576.000000	54.833400
575.000000	54.780200
574.000000	54.708200
573.000000	54.648700
572.000000	54.601300
571.000000	54.510700
570.000000	54.423400
569.000000	54.333200
568.000000	54.223100
567.000000	54.126800
566.000000	53.976900
565.000000	53.801200
564.000000	53.627000
563.000000	53.428000
562.000000	53.207400
561.000000	52.969000
560.000000	52.666600
559.000000	52.297900
558.000000	51.981900
557.000000	51.682000
556.000000	51.313400
555.000000	51.032800
554.000000	50.672100
553.000000	50.311000
552.000000	49.933500
551.000000	49.566000
550.000000	49.163600
549.000000	48.748100
548.000000	48.330700
547.000000	47.841900
546.000000	47.342900
545.000000	46.794200
544.000000	46.212400
543.000000	45.577700
542.000000	44.928600
541.000000	44.190400
540.000000	43.420400
539.000000	42.626400
538.000000	41.815400
537.000000	40.988600
536.000000	40.132500
535.000000	39.262400
534.000000	38.377100
533.000000	37.451000
532.000000	36.534500
531.000000	35.584000
530.000000	34.666000
529.000000	33.775800
528.000000	32.906400
527.000000	32.108200
526.000000	31.325800
525.000000	30.602600
524.000000	29.930800
523.000000	29.263000
522.000000	28.652800
521.000000	28.075700
520.000000	27.516700
519.000000	26.993800
518.000000	26.511100
517.000000	26.067800
516.000000	25.646000
515.000000	25.231100
514.000000	24.839800
513.000000	24.449200
512.000000	24.058100
511.000000	23.686000
510.000000	23.305000
509.000000	22.932200
508.000000	22.585200
507.000000	22.247600
506.000000	21.913400
505.000000	21.574600
504.000000	21.229300
503.000000	20.894300
502.000000	20.568700
501.000000	20.224700
500.000000	19.916900
499.000000	19.610000
498.000000	19.308800
497.000000	19.031600
496.000000	18.744400
495.000000	18.479000
494.000000	18.204000
493.000000	17.921500
492.000000	17.666100
491.000000	17.428900
490.000000	17.193400
489.000000	16.971300
488.000000	16.788500
487.000000	16.603400
486.000000	16.434600
485.000000	16.288100
484.000000	16.162600
483.000000	16.034600
482.000000	15.926400
481.000000	15.832100
480.000000	15.744500
479.000000	15.674700
478.000000	15.630600
477.000000	15.590700
476.000000	15.547100
475.000000	15.527000
474.000000	15.509500
473.000000	15.495000
472.000000	15.472200
471.000000	15.439400
470.000000	15.401400
469.000000	15.370300
468.000000	15.327700
467.000000	15.279400
466.000000	15.233300
465.000000	15.168000
464.000000	15.095200
463.000000	15.007600
462.000000	14.921400
461.000000	14.844400
460.000000	14.764900
459.000000	14.661400
458.000000	14.556500
457.000000	14.447100
456.000000	14.355300
455.000000	14.259900
454.000000	14.123200
453.000000	13.989200
452.000000	13.871700
451.000000	13.736800
450.000000	13.586500
449.000000	13.442300
448.000000	13.300100
447.000000	13.133300
446.000000	12.952900
445.000000	12.771300
444.000000	12.583600
443.000000	12.400900
442.000000	12.225300
441.000000	12.045500
440.000000	11.853700
439.000000	11.654800
438.000000	11.464800
437.000000	11.284900
436.000000	11.090900
435.000000	10.904900
434.000000	10.719800
433.000000	10.520400
432.000000	10.331300
431.000000	10.141400
430.000000	9.947500
429.000000	9.745900
428.000000	9.548600
427.000000	9.355400
426.000000	9.167400
425.000000	8.992800
424.000000	8.800900
423.000000	8.618800
422.000000	8.445500
421.000000	8.263700
420.000000	8.095500
419.000000	7.938400
418.000000	7.782900
417.000000	7.621300
416.000000	7.455300
415.000000	7.297200
414.000000	7.149400
413.000000	7.014500
412.000000	6.879600
411.000000	6.748200
410.000000	6.615200
409.000000	6.490500
408.000000	6.382600
407.000000	6.272300
406.000000	6.176300
405.000000	6.088800
404.000000	6.007100
403.000000	5.941000
402.000000	5.854300
401.000000	5.783700
400.000000	5.727200
399.000000	5.682600
398.000000	5.616400
397.000000	5.564300
396.000000	5.525700
395.000000	5.478800
394.000000	5.438100
393.000000	5.407400
392.000000	5.383200
391.000000	5.363700
390.000000	5.341900
389.000000	5.301700
388.000000	5.289700
387.000000	5.270600
386.000000	5.240100
385.000000	5.237600
384.000000	5.211900
383.000000	5.195300
382.000000	5.183800
381.000000	5.167800
380.000000	5.154800
379.000000	5.162500
378.000000	5.153000
377.000000	5.132700
376.000000	5.186900
375.000000	5.245500
374.000000	5.234900
373.000000	5.180400
372.000000	5.244000
371.000000	5.237300
370.000000	5.197100
369.000000	5.237500
368.000000	5.218000
367.000000	5.188800
366.000000	5.168200
365.000000	5.176500
364.000000	5.185200
363.000000	5.192000
362.000000	5.179500
361.000000	5.117700
360.000000	5.160300
359.000000	5.113200
358.000000	5.174300
357.000000	5.150800
356.000000	5.111400
355.000000	5.132400
354.000000	5.097700
353.000000	5.147500
352.000000	5.134400
351.000000	5.144500
350.000000	5.124100
349.000000	5.089600
348.000000	5.112200
347.000000	5.130300
346.000000	5.159300
345.000000	5.031600
344.000000	5.126000
343.000000	5.106100
342.000000	5.142700
341.000000	5.148500
340.000000	5.102100
339.000000	5.157800
338.000000	5.114800
337.000000	5.161300
336.000000	5.185400
335.000000	5.098700
334.000000	5.100500
333.000000	5.101100
332.000000	5.080100
331.000000	5.159300
330.000000	5.080000
329.000000	5.194200
328.000000	5.122800
327.000000	5.149300
326.000000	5.049200
325.000000	5.177800
324.000000	5.173000
323.000000	5.069900
322.000000	5.097200
321.000000	5.061300
320.000000	5.232600
319.000000	5.139400
318.000000	5.205300
317.000000	5.308800
316.000000	5.141100
315.000000	5.109800
314.000000	5.094400
313.000000	5.109900
312.000000	5.117700
311.000000	5.101900
310.000000	5.144600
309.000000	5.125300
308.000000	5.120600
307.000000	5.147200
306.000000	5.126000
305.000000	5.113600
304.000000	5.137500
303.000000	5.186300
302.000000	5.194300
301.000000	5.158700
300.000000	5.140000
299.000000	5.146900
298.000000	5.192000
297.000000	5.179200
296.000000	5.187800
295.000000	5.171300
294.000000	5.194100
293.000000	5.237200
292.000000	5.220700
291.000000	5.191000
290.000000	5.235000
289.000000	5.242800
288.000000	5.265700
287.000000	5.248200
286.000000	5.274200
285.000000	5.257400
284.000000	5.300900
283.000000	5.299200
282.000000	5.260400
281.000000	5.267900
280.000000	5.305000
279.000000	5.306700
278.000000	5.324600
277.000000	5.349900
276.000000	5.335900
275.000000	5.377500
274.000000	5.367600
273.000000	5.401400
272.000000	5.402600
271.000000	5.436600
270.000000	5.397400
269.000000	5.441400
268.000000	5.463300
267.000000	5.448100
266.000000	5.471300
265.000000	5.513300
264.000000	5.516400
263.000000	5.557900
262.000000	5.555500
261.000000	5.567400
260.000000	5.581400
259.000000	5.612100
258.000000	5.653000
257.000000	5.611200
256.000000	5.625300
255.000000	5.675200
254.000000	5.657500
253.000000	5.642000
252.000000	5.694700
251.000000	5.705900
250.000000	5.730100
