PE UV       SUBTECH     SPECTRUM    ASCII       PEDS        4.00        
   -1
CICIMAUCR0112-1.Sample.ASC
24/04/04
14:46:15.00
24/04/04
14:46:15.00
Vinicio Soto Monge
C. resplendens
250,000000
1
Lambda 1050
1050L1511233
PerkinElmer UV WinLab 6.3.2.0749 / 2.02.05 Lambda 900 UV/VIS/NIR, Aug  7 2015 09:38:08

0
0
3350/servo 860,8/2
0
0
UV/VIS
1
1
1
DoubleDePol,CommonBeamDepol,RBeamAtt,SBeamAtt,60mm sphere, WB InGaAs Detector
0
0
0
0
Program
Program
3350/servo 860,8/2
3350/0,2 860,8/0,2
3350/0,2 860,8/0,2
0
15.00
 
 
 
0
 
860,8
319,2
860,8
Front
100
on
S:100 R:100
0
0
0
0
 
0
 
 
 
0
 
 
0
0
0
0
0
 
 
 
 
0
0


0
0
#HDR
-1
-1
#GR
nm
%R
1.0
0.0
2500,000000
-1,000000
2251
8
61,245000
4,369400
#DATA
2500.000000	4.271350
2499.000000	4.329786
2498.000000	4.292337
2497.000000	4.327283
2496.000000	4.353758
2495.000000	4.320930
2494.000000	4.206463
2493.000000	4.374745
2492.000000	4.279148
2491.000000	4.256332
2490.000000	4.279726
2489.000000	4.255465
2488.000000	4.313998
2487.000000	4.247282
2486.000000	4.254118
2485.000000	4.262012
2484.000000	4.306681
2483.000000	4.275201
2482.000000	4.264804
2481.000000	4.282132
2480.000000	4.289256
2479.000000	4.297921
2478.000000	4.248534
2477.000000	4.239196
2476.000000	4.313998
2475.000000	4.311880
2474.000000	4.286657
2473.000000	4.294070
2472.000000	4.252962
2471.000000	4.256621
2470.000000	4.287138
2469.000000	4.265477
2468.000000	4.279437
2467.000000	4.248245
2466.000000	4.296573
2465.000000	4.289353
2464.000000	4.240832
2463.000000	4.273853
2462.000000	4.307644
2461.000000	4.333445
2460.000000	4.328342
2459.000000	4.298595
2458.000000	4.317560
2457.000000	4.322662
2456.000000	4.331904
2455.000000	4.369931
2454.000000	4.390630
2453.000000	4.377152
2452.000000	4.388993
2451.000000	4.431930
2450.000000	4.416238
2449.000000	4.440691
2448.000000	4.481221
2447.000000	4.485072
2446.000000	4.500186
2445.000000	4.520884
2444.000000	4.521173
2443.000000	4.539850
2442.000000	4.536673
2441.000000	4.546011
2440.000000	4.551306
2439.000000	4.576625
2438.000000	4.588081
2437.000000	4.606084
2436.000000	4.603003
2435.000000	4.618503
2434.000000	4.647096
2433.000000	4.666157
2432.000000	4.655760
2431.000000	4.667505
2430.000000	4.688685
2429.000000	4.689262
2428.000000	4.712078
2427.000000	4.703992
2426.000000	4.714774
2425.000000	4.716507
2424.000000	4.721609
2423.000000	4.751068
2422.000000	4.759155
2421.000000	4.766760
2420.000000	4.769360
2419.000000	4.804017
2418.000000	4.832610
2417.000000	4.823079
2416.000000	4.848013
2415.000000	4.871985
2414.000000	4.866593
2413.000000	4.869481
2412.000000	4.868904
2411.000000	4.905872
2410.000000	4.925126
2409.000000	4.917810
2408.000000	4.922527
2407.000000	4.927533
2406.000000	4.938026
2405.000000	4.954489
2404.000000	4.965367
2403.000000	4.980674
2402.000000	4.981830
2401.000000	4.973165
2400.000000	4.988569
2399.000000	5.015043
2398.000000	5.024959
2397.000000	5.018413
2396.000000	5.021397
2395.000000	5.027366
2394.000000	5.024959
2393.000000	5.042192
2392.000000	5.043443
2391.000000	5.043924
2390.000000	5.057691
2389.000000	5.060483
2388.000000	5.059424
2387.000000	5.069147
2386.000000	5.078197
2385.000000	5.076464
2384.000000	5.087824
2383.000000	5.067511
2382.000000	5.066741
2381.000000	5.080315
2380.000000	5.083107
2379.000000	5.085128
2378.000000	5.090038
2377.000000	5.089846
2376.000000	5.088787
2375.000000	5.085417
2374.000000	5.082240
2373.000000	5.075213
2372.000000	5.074827
2371.000000	5.078678
2370.000000	5.079352
2369.000000	5.077812
2368.000000	5.069436
2367.000000	5.067030
2366.000000	5.059520
2365.000000	5.036415
2364.000000	5.044310
2363.000000	5.044021
2362.000000	5.030735
2361.000000	5.025826
2360.000000	5.020723
2359.000000	5.019760
2358.000000	5.004357
2357.000000	4.990975
2356.000000	5.003491
2355.000000	4.988184
2354.000000	4.975668
2353.000000	4.995019
2352.000000	4.995308
2351.000000	4.989820
2350.000000	4.974609
2349.000000	4.984044
2348.000000	4.985584
2347.000000	4.973935
2346.000000	4.991264
2345.000000	4.995982
2344.000000	4.983177
2343.000000	4.974417
2342.000000	4.982022
2341.000000	4.982215
2340.000000	4.976342
2339.000000	4.971432
2338.000000	4.969988
2337.000000	4.974994
2336.000000	4.956414
2335.000000	4.945728
2334.000000	4.943225
2333.000000	4.931287
2332.000000	4.942936
2331.000000	4.924452
2330.000000	4.906353
2329.000000	4.899614
2328.000000	4.885366
2327.000000	4.871985
2326.000000	4.844644
2325.000000	4.848494
2324.000000	4.836461
2323.000000	4.807964
2322.000000	4.799878
2321.000000	4.779661
2320.000000	4.764354
2319.000000	4.762332
2318.000000	4.738746
2317.000000	4.719684
2316.000000	4.715640
2315.000000	4.703992
2314.000000	4.690803
2313.000000	4.681079
2312.000000	4.672126
2311.000000	4.646422
2310.000000	4.628034
2309.000000	4.633136
2308.000000	4.607336
2307.000000	4.614075
2306.000000	4.612631
2305.000000	4.598190
2304.000000	4.600308
2303.000000	4.610994
2302.000000	4.594050
2301.000000	4.596457
2300.000000	4.588948
2299.000000	4.583268
2298.000000	4.584423
2297.000000	4.580669
2296.000000	4.577973
2295.000000	4.575374
2294.000000	4.573641
2293.000000	4.570175
2292.000000	4.565169
2291.000000	4.559682
2290.000000	4.557949
2289.000000	4.532437
2288.000000	4.535421
2287.000000	4.522425
2286.000000	4.518574
2285.000000	4.502593
2284.000000	4.484109
2283.000000	4.468224
2282.000000	4.440594
2281.000000	4.454842
2280.000000	4.433952
2279.000000	4.435877
2278.000000	4.408632
2277.000000	4.387645
2276.000000	4.385335
2275.000000	4.371761
2274.000000	4.355298
2273.000000	4.343264
2272.000000	4.326802
2271.000000	4.320063
2270.000000	4.332771
2269.000000	4.295995
2268.000000	4.316020
2267.000000	4.299076
2266.000000	4.286465
2265.000000	4.252192
2264.000000	4.291182
2263.000000	4.277800
2262.000000	4.280014
2261.000000	4.287620
2260.000000	4.303601
2259.000000	4.305526
2258.000000	4.305622
2257.000000	4.320352
2256.000000	4.328054
2255.000000	4.339799
2254.000000	4.346441
2253.000000	4.385720
2252.000000	4.368872
2251.000000	4.387164
2250.000000	4.409114
2249.000000	4.401605
2248.000000	4.416334
2247.000000	4.419800
2246.000000	4.455131
2245.000000	4.447622
2244.000000	4.459175
2243.000000	4.463507
2242.000000	4.490366
2241.000000	4.488441
2240.000000	4.509236
2239.000000	4.521751
2238.000000	4.530030
2237.000000	4.528875
2236.000000	4.537635
2235.000000	4.541486
2234.000000	4.541486
2233.000000	4.541486
2232.000000	4.569405
2231.000000	4.571619
2230.000000	4.553905
2229.000000	4.538598
2228.000000	4.541294
2227.000000	4.518092
2226.000000	4.500571
2225.000000	4.474385
2224.000000	4.476600
2223.000000	4.471112
2222.000000	4.431352
2221.000000	4.414890
2220.000000	4.400931
2219.000000	4.340858
2218.000000	4.344708
2217.000000	4.338740
2216.000000	4.322277
2215.000000	4.307548
2214.000000	4.296862
2213.000000	4.282710
2212.000000	4.279437
2211.000000	4.292530
2210.000000	4.303793
2209.000000	4.299269
2208.000000	4.341146
2207.000000	4.378211
2206.000000	4.410558
2205.000000	4.450607
2204.000000	4.518285
2203.000000	4.569597
2202.000000	4.628804
2201.000000	4.695424
2200.000000	4.803728
2199.000000	4.867075
2198.000000	4.943995
2197.000000	5.015910
2196.000000	5.068281
2195.000000	5.147319
2194.000000	5.214517
2193.000000	5.286816
2192.000000	5.337166
2191.000000	5.385109
2190.000000	5.428912
2189.000000	5.495050
2188.000000	5.535388
2187.000000	5.586700
2186.000000	5.624438
2185.000000	5.663813
2184.000000	5.708772
2183.000000	5.739097
2182.000000	5.752286
2181.000000	5.757677
2180.000000	5.786847
2179.000000	5.806005
2178.000000	5.825645
2177.000000	5.837486
2176.000000	5.843455
2175.000000	5.881674
2174.000000	5.863094
2173.000000	5.884177
2172.000000	5.904106
2171.000000	5.912192
2170.000000	5.907475
2169.000000	5.910171
2168.000000	5.910556
2167.000000	5.935490
2166.000000	5.930195
2165.000000	5.925670
2164.000000	5.947331
2163.000000	5.960617
2162.000000	5.970532
2161.000000	5.965623
2160.000000	5.992193
2159.000000	6.018572
2158.000000	6.035997
2157.000000	6.029161
2156.000000	6.054288
2155.000000	6.061509
2154.000000	6.094433
2153.000000	6.094529
2152.000000	6.110318
2151.000000	6.124181
2150.000000	6.139007
2149.000000	6.147093
2148.000000	6.144975
2147.000000	6.165096
2146.000000	6.167022
2145.000000	6.179344
2144.000000	6.190223
2143.000000	6.190512
2142.000000	6.201101
2141.000000	6.199754
2140.000000	6.198310
2139.000000	6.207070
2138.000000	6.211884
2137.000000	6.217660
2136.000000	6.224014
2135.000000	6.234700
2134.000000	6.234315
2133.000000	6.236625
2132.000000	6.256072
2131.000000	6.269935
2130.000000	6.272053
2129.000000	6.270417
2128.000000	6.270320
2127.000000	6.272438
2126.000000	6.273208
2125.000000	6.268587
2124.000000	6.274075
2123.000000	6.278311
2122.000000	6.268587
2121.000000	6.256168
2120.000000	6.255687
2119.000000	6.260597
2118.000000	6.275519
2117.000000	6.277733
2116.000000	6.259345
2115.000000	6.259730
2114.000000	6.268395
2113.000000	6.263870
2112.000000	6.261175
2111.000000	6.257131
2110.000000	6.245194
2109.000000	6.234989
2108.000000	6.239225
2107.000000	6.230368
2106.000000	6.215927
2105.000000	6.225362
2104.000000	6.235278
2103.000000	6.221800
2102.000000	6.206108
2101.000000	6.200428
2100.000000	6.212750
2099.000000	6.220837
2098.000000	6.216120
2097.000000	6.220259
2096.000000	6.216890
2095.000000	6.211306
2094.000000	6.205915
2093.000000	6.211017
2092.000000	6.220452
2091.000000	6.204278
2090.000000	6.212846
2089.000000	6.221126
2088.000000	6.207648
2087.000000	6.216023
2086.000000	6.221415
2085.000000	6.223436
2084.000000	6.220644
2083.000000	6.214579
2082.000000	6.213328
2081.000000	6.207744
2080.000000	6.209092
2079.000000	6.232293
2078.000000	6.226228
2077.000000	6.212461
2076.000000	6.231331
2075.000000	6.234507
2074.000000	6.228827
2073.000000	6.229598
2072.000000	6.240091
2071.000000	6.245290
2070.000000	6.241054
2069.000000	6.240861
2068.000000	6.243653
2067.000000	6.249237
2066.000000	6.255206
2065.000000	6.255398
2064.000000	6.253088
2063.000000	6.274941
2062.000000	6.274652
2061.000000	6.279370
2060.000000	6.283702
2059.000000	6.284183
2058.000000	6.288804
2057.000000	6.305459
2056.000000	6.315471
2055.000000	6.318456
2054.000000	6.340694
2053.000000	6.353017
2052.000000	6.366687
2051.000000	6.379106
2050.000000	6.404907
2049.000000	6.408950
2048.000000	6.434751
2047.000000	6.473163
2046.000000	6.486352
2045.000000	6.519084
2044.000000	6.527653
2043.000000	6.559518
2042.000000	6.591865
2041.000000	6.617666
2040.000000	6.646162
2039.000000	6.679183
2038.000000	6.703636
2037.000000	6.730495
2036.000000	6.748402
2035.000000	6.781134
2034.000000	6.807416
2033.000000	6.818487
2032.000000	6.856033
2031.000000	6.895311
2030.000000	6.891364
2029.000000	6.917550
2028.000000	6.965493
2027.000000	6.955866
2026.000000	6.984169
2025.000000	7.014302
2024.000000	7.034712
2023.000000	7.049537
2022.000000	7.067925
2021.000000	7.098732
2020.000000	7.101042
2019.000000	7.125977
2018.000000	7.150911
2017.000000	7.160730
2016.000000	7.186050
2015.000000	7.190382
2014.000000	7.198469
2013.000000	7.217145
2012.000000	7.236784
2011.000000	7.237073
2010.000000	7.243427
2009.000000	7.269709
2008.000000	7.253728
2007.000000	7.263259
2006.000000	7.275004
2005.000000	7.276544
2004.000000	7.267302
2003.000000	7.284535
2002.000000	7.269517
2001.000000	7.265762
2000.000000	7.286075
1999.000000	7.274234
1998.000000	7.256809
1997.000000	7.264222
1996.000000	7.255654
1995.000000	7.230912
1994.000000	7.231201
1993.000000	7.210214
1992.000000	7.223499
1991.000000	7.195195
1990.000000	7.185761
1989.000000	7.163811
1988.000000	7.158516
1987.000000	7.140995
1986.000000	7.139166
1985.000000	7.116927
1984.000000	7.084387
1983.000000	7.073028
1982.000000	7.072642
1981.000000	7.049730
1980.000000	7.040873
1979.000000	7.010066
1978.000000	7.003809
1977.000000	6.977334
1976.000000	6.947779
1975.000000	6.933242
1974.000000	6.910330
1973.000000	6.900703
1972.000000	6.908115
1971.000000	6.862194
1970.000000	6.826189
1969.000000	6.824648
1968.000000	6.800196
1967.000000	6.801158
1966.000000	6.789317
1965.000000	6.776994
1964.000000	6.737042
1963.000000	6.728474
1962.000000	6.726452
1961.000000	6.706428
1960.000000	6.679664
1959.000000	6.674369
1958.000000	6.663202
1957.000000	6.647510
1956.000000	6.615259
1955.000000	6.598219
1954.000000	6.620747
1953.000000	6.605536
1952.000000	6.584260
1951.000000	6.573189
1950.000000	6.550758
1949.000000	6.531696
1948.000000	6.543537
1947.000000	6.526979
1946.000000	6.536028
1945.000000	6.493476
1944.000000	6.509361
1943.000000	6.510516
1942.000000	6.505414
1941.000000	6.524091
1940.000000	6.496653
1939.000000	6.504547
1938.000000	6.507339
1937.000000	6.503777
1936.000000	6.521395
1935.000000	6.522069
1934.000000	6.527364
1933.000000	6.538435
1932.000000	6.565776
1931.000000	6.562118
1930.000000	6.572515
1929.000000	6.603707
1928.000000	6.616126
1927.000000	6.636824
1926.000000	6.677258
1925.000000	6.697763
1924.000000	6.700170
1923.000000	6.729340
1922.000000	6.781712
1921.000000	6.836201
1920.000000	6.868163
1919.000000	6.910041
1918.000000	6.956347
1917.000000	6.985710
1916.000000	7.012858
1915.000000	7.043857
1914.000000	7.103834
1913.000000	7.176037
1912.000000	7.247182
1911.000000	7.304463
1910.000000	7.353657
1909.000000	7.377244
1908.000000	7.419699
1907.000000	7.511349
1906.000000	7.576140
1905.000000	7.675395
1904.000000	7.755204
1903.000000	7.810752
1902.000000	7.868226
1901.000000	7.923196
1900.000000	8.011284
1899.000000	8.129986
1898.000000	8.199302
1897.000000	8.262455
1896.000000	8.338798
1895.000000	8.416007
1894.000000	8.478680
1893.000000	8.553579
1892.000000	8.658899
1891.000000	8.759887
1890.000000	8.854714
1889.000000	8.932212
1888.000000	9.036185
1887.000000	9.119171
1886.000000	9.234407
1885.000000	9.387478
1884.000000	9.549983
1883.000000	9.734727
1882.000000	9.932660
1881.000000	10.129245
1880.000000	10.329585
1879.000000	10.525689
1878.000000	10.729206
1877.000000	10.921074
1876.000000	11.098790
1875.000000	11.269190
1874.000000	11.418891
1873.000000	11.598725
1872.000000	11.752759
1871.000000	11.864048
1870.000000	11.967347
1869.000000	12.038395
1868.000000	12.108769
1867.000000	12.149107
1866.000000	12.168938
1865.000000	12.192621
1864.000000	12.213416
1863.000000	12.214763
1862.000000	12.216592
1861.000000	12.218037
1860.000000	12.225738
1859.000000	12.196279
1858.000000	12.182127
1857.000000	12.149973
1856.000000	12.093173
1855.000000	12.050814
1854.000000	12.004508
1853.000000	11.933074
1852.000000	11.877622
1851.000000	11.831027
1850.000000	11.781159
1849.000000	11.732061
1848.000000	11.681133
1847.000000	11.622408
1846.000000	11.549146
1845.000000	11.477135
1844.000000	11.417447
1843.000000	11.390010
1842.000000	11.372681
1841.000000	11.360551
1840.000000	11.332151
1839.000000	11.289599
1838.000000	11.256578
1837.000000	11.225964
1836.000000	11.190248
1835.000000	11.130271
1834.000000	11.068465
1833.000000	11.005985
1832.000000	10.935322
1831.000000	10.870628
1830.000000	10.830098
1829.000000	10.780615
1828.000000	10.703020
1827.000000	10.643236
1826.000000	10.604054
1825.000000	10.561983
1824.000000	10.525882
1823.000000	10.494401
1822.000000	10.481886
1821.000000	10.484100
1820.000000	10.456856
1819.000000	10.424220
1818.000000	10.410645
1817.000000	10.400152
1816.000000	10.396494
1815.000000	10.388888
1814.000000	10.355578
1813.000000	10.351343
1812.000000	10.335554
1811.000000	10.322076
1810.000000	10.307347
1809.000000	10.270475
1808.000000	10.240631
1807.000000	10.219548
1806.000000	10.189704
1805.000000	10.156298
1804.000000	10.130016
1803.000000	10.090641
1802.000000	10.064744
1801.000000	10.047319
1800.000000	10.003804
1799.000000	9.972901
1798.000000	9.937859
1797.000000	9.920145
1796.000000	9.900506
1795.000000	9.874416
1794.000000	9.843802
1793.000000	9.818579
1792.000000	9.796726
1791.000000	9.758410
1790.000000	9.721538
1789.000000	9.681489
1788.000000	9.644810
1787.000000	9.605146
1786.000000	9.561632
1785.000000	9.520139
1784.000000	9.491739
1783.000000	9.441389
1782.000000	9.399608
1781.000000	9.337802
1780.000000	9.305744
1779.000000	9.271375
1778.000000	9.212168
1777.000000	9.158353
1776.000000	9.097702
1775.000000	9.058231
1774.000000	9.000757
1773.000000	8.926629
1772.000000	8.870021
1771.000000	8.811777
1770.000000	8.744388
1769.000000	8.694616
1768.000000	8.648791
1767.000000	8.613748
1766.000000	8.577261
1765.000000	8.553001
1764.000000	8.529030
1763.000000	8.507465
1762.000000	8.525082
1761.000000	8.575047
1760.000000	8.592761
1759.000000	8.609705
1758.000000	8.658803
1757.000000	8.705013
1756.000000	8.726481
1755.000000	8.731680
1754.000000	8.739478
1753.000000	8.755074
1752.000000	8.749298
1751.000000	8.713485
1750.000000	8.709056
1749.000000	8.696830
1748.000000	8.678057
1747.000000	8.619813
1746.000000	8.578031
1745.000000	8.518440
1744.000000	8.456634
1743.000000	8.410905
1742.000000	8.319351
1741.000000	8.235596
1740.000000	8.135666
1739.000000	8.069528
1738.000000	8.007145
1737.000000	7.959876
1736.000000	7.905579
1735.000000	7.892197
1734.000000	7.881896
1733.000000	7.875831
1732.000000	7.870632
1731.000000	7.918383
1730.000000	7.963919
1729.000000	8.005219
1728.000000	8.043246
1727.000000	8.077711
1726.000000	8.150203
1725.000000	8.154536
1724.000000	8.161371
1723.000000	8.172346
1722.000000	8.175330
1721.000000	8.188712
1720.000000	8.168687
1719.000000	8.156076
1718.000000	8.189289
1717.000000	8.195739
1716.000000	8.192466
1715.000000	8.212009
1714.000000	8.240891
1713.000000	8.218652
1712.000000	8.236847
1711.000000	8.270735
1710.000000	8.269676
1709.000000	8.259086
1708.000000	8.248111
1707.000000	8.244741
1706.000000	8.212587
1705.000000	8.186016
1704.000000	8.163874
1703.000000	8.124114
1702.000000	8.091671
1701.000000	8.056724
1700.000000	7.992223
1699.000000	7.958528
1698.000000	7.912221
1697.000000	7.865723
1696.000000	7.844543
1695.000000	7.830969
1694.000000	7.835782
1693.000000	7.884110
1692.000000	7.913088
1691.000000	7.976723
1690.000000	8.004834
1689.000000	8.047867
1688.000000	8.059612
1687.000000	8.086279
1686.000000	8.048637
1685.000000	8.069913
1684.000000	8.083199
1683.000000	8.136725
1682.000000	8.228183
1681.000000	8.386549
1680.000000	8.608261
1679.000000	8.824293
1678.000000	9.046293
1677.000000	9.290725
1676.000000	9.497323
1675.000000	9.687458
1674.000000	9.873839
1673.000000	10.018149
1672.000000	10.155046
1671.000000	10.251702
1670.000000	10.340464
1669.000000	10.431247
1668.000000	10.507398
1667.000000	10.573921
1666.000000	10.626774
1665.000000	10.665090
1664.000000	10.708508
1663.000000	10.743454
1662.000000	10.764249
1661.000000	10.779171
1660.000000	10.797751
1659.000000	10.809400
1658.000000	10.828654
1657.000000	10.828269
1656.000000	10.834045
1655.000000	10.818064
1654.000000	10.819893
1653.000000	10.812095
1652.000000	10.812480
1651.000000	10.776860
1650.000000	10.769159
1649.000000	10.750867
1648.000000	10.708508
1647.000000	10.689542
1646.000000	10.674235
1645.000000	10.647183
1644.000000	10.601743
1643.000000	10.576809
1642.000000	10.558518
1641.000000	10.519528
1640.000000	10.477169
1639.000000	10.442800
1638.000000	10.443955
1637.000000	10.422776
1636.000000	10.378972
1635.000000	10.331800
1634.000000	10.303785
1633.000000	10.265276
1632.000000	10.240631
1631.000000	10.214638
1630.000000	10.175167
1629.000000	10.142531
1628.000000	10.103156
1627.000000	10.083902
1626.000000	10.048667
1625.000000	10.019400
1624.000000	9.982914
1623.000000	9.942672
1622.000000	9.903683
1621.000000	9.876245
1620.000000	9.849193
1619.000000	9.830709
1618.000000	9.789698
1617.000000	9.750034
1616.000000	9.721634
1615.000000	9.698625
1614.000000	9.669455
1613.000000	9.638264
1612.000000	9.621031
1611.000000	9.601007
1610.000000	9.567986
1609.000000	9.547769
1608.000000	9.525915
1607.000000	9.500307
1606.000000	9.485193
1605.000000	9.458622
1604.000000	9.445529
1603.000000	9.423194
1602.000000	9.387670
1601.000000	9.369571
1600.000000	9.356190
1599.000000	9.340112
1598.000000	9.305647
1597.000000	9.277729
1596.000000	9.266561
1595.000000	9.251158
1594.000000	9.231134
1593.000000	9.233155
1592.000000	9.222084
1591.000000	9.184346
1590.000000	9.174911
1589.000000	9.165766
1588.000000	9.151229
1587.000000	9.156909
1586.000000	9.154117
1585.000000	9.142276
1584.000000	9.123406
1583.000000	9.111469
1582.000000	9.106078
1581.000000	9.102612
1580.000000	9.106174
1579.000000	9.096162
1578.000000	9.098761
1577.000000	9.112817
1576.000000	9.113394
1575.000000	9.102708
1574.000000	9.099435
1573.000000	9.112528
1572.000000	9.108677
1571.000000	9.125332
1570.000000	9.139387
1569.000000	9.144394
1568.000000	9.162878
1567.000000	9.171734
1566.000000	9.169328
1565.000000	9.183961
1564.000000	9.207258
1563.000000	9.215345
1562.000000	9.220544
1561.000000	9.221025
1560.000000	9.223913
1559.000000	9.235466
1558.000000	9.259919
1557.000000	9.279173
1556.000000	9.274167
1555.000000	9.278403
1554.000000	9.289763
1553.000000	9.286586
1552.000000	9.301411
1551.000000	9.312001
1550.000000	9.314601
1549.000000	9.310076
1548.000000	9.309787
1547.000000	9.319895
1546.000000	9.322880
1545.000000	9.330967
1544.000000	9.329619
1543.000000	9.334721
1542.000000	9.342134
1541.000000	9.356575
1540.000000	9.376984
1539.000000	9.380739
1538.000000	9.379969
1537.000000	9.391232
1536.000000	9.396527
1535.000000	9.412604
1534.000000	9.427623
1533.000000	9.426467
1532.000000	9.427815
1531.000000	9.431281
1530.000000	9.444566
1529.000000	9.446973
1528.000000	9.446588
1527.000000	9.465457
1526.000000	9.473544
1525.000000	9.458429
1524.000000	9.476913
1523.000000	9.499441
1522.000000	9.487118
1521.000000	9.476913
1520.000000	9.490488
1519.000000	9.480957
1518.000000	9.483941
1517.000000	9.505217
1516.000000	9.503869
1515.000000	9.500404
1514.000000	9.498863
1513.000000	9.494916
1512.000000	9.495494
1511.000000	9.496168
1510.000000	9.503677
1509.000000	9.494338
1508.000000	9.507431
1507.000000	9.506950
1506.000000	9.501174
1505.000000	9.498382
1504.000000	9.512726
1503.000000	9.502040
1502.000000	9.515518
1501.000000	9.524375
1500.000000	9.517636
1499.000000	9.506469
1498.000000	9.519754
1497.000000	9.526300
1496.000000	9.537564
1495.000000	9.546517
1494.000000	9.545458
1493.000000	9.539778
1492.000000	9.556626
1491.000000	9.556144
1490.000000	9.575591
1489.000000	9.582234
1488.000000	9.592727
1487.000000	9.606013
1486.000000	9.609093
1485.000000	9.612559
1484.000000	9.621705
1483.000000	9.636146
1482.000000	9.641152
1481.000000	9.665893
1480.000000	9.688517
1479.000000	9.690250
1478.000000	9.703535
1477.000000	9.734053
1476.000000	9.759084
1475.000000	9.769192
1474.000000	9.786039
1473.000000	9.785366
1472.000000	9.803176
1471.000000	9.822237
1470.000000	9.852370
1469.000000	9.869891
1468.000000	9.880000
1467.000000	9.900987
1466.000000	9.931986
1465.000000	9.923707
1464.000000	9.960579
1463.000000	10.006885
1462.000000	10.017186
1461.000000	10.058197
1460.000000	10.102578
1459.000000	10.135984
1458.000000	10.151003
1457.000000	10.207321
1456.000000	10.273941
1455.000000	10.309946
1454.000000	10.339405
1453.000000	10.410549
1452.000000	10.460899
1451.000000	10.519913
1450.000000	10.573055
1449.000000	10.621768
1448.000000	10.682515
1447.000000	10.764826
1446.000000	10.819412
1445.000000	10.902205
1444.000000	10.948511
1443.000000	11.034289
1442.000000	11.111209
1441.000000	11.169646
1440.000000	11.248877
1439.000000	11.297205
1438.000000	11.364691
1437.000000	11.448350
1436.000000	11.513044
1435.000000	11.559447
1434.000000	11.631265
1433.000000	11.713192
1432.000000	11.787898
1431.000000	11.824385
1430.000000	11.908910
1429.000000	11.986794
1428.000000	12.098468
1427.000000	12.180972
1426.000000	12.294379
1425.000000	12.448605
1424.000000	12.547957
1423.000000	12.652892
1422.000000	12.770439
1421.000000	12.878455
1420.000000	12.998987
1419.000000	13.113356
1418.000000	13.226860
1417.000000	13.305128
1416.000000	13.421135
1415.000000	13.518561
1414.000000	13.609441
1413.000000	13.709081
1412.000000	13.770887
1411.000000	13.868217
1410.000000	13.958615
1409.000000	14.139990
1408.000000	14.267742
1407.000000	14.472317
1406.000000	14.653210
1405.000000	14.849700
1404.000000	15.024913
1403.000000	15.242389
1402.000000	15.402680
1401.000000	15.631612
1400.000000	15.794984
1399.000000	15.894239
1398.000000	15.952002
1397.000000	16.038550
1396.000000	16.106613
1395.000000	16.122305
1394.000000	16.067623
1393.000000	16.037202
1392.000000	16.047599
1391.000000	16.028923
1390.000000	16.054627
1389.000000	16.081679
1388.000000	16.171692
1387.000000	16.266712
1386.000000	16.378579
1385.000000	16.547919
1384.000000	16.802171
1383.000000	17.048432
1382.000000	17.274765
1381.000000	17.450267
1380.000000	17.602375
1379.000000	17.761896
1378.000000	17.908517
1377.000000	18.072274
1376.000000	18.319786
1375.000000	18.633918
1374.000000	19.008027
1373.000000	19.427865
1372.000000	19.903251
1371.000000	20.356206
1370.000000	20.780953
1369.000000	21.170562
1368.000000	21.496632
1367.000000	21.779668
1366.000000	22.015340
1365.000000	22.247449
1364.000000	22.445960
1363.000000	22.622713
1362.000000	22.792535
1361.000000	22.897856
1360.000000	22.970155
1359.000000	23.021082
1358.000000	23.110229
1357.000000	23.279859
1356.000000	23.585423
1355.000000	24.050123
1354.000000	24.637087
1353.000000	25.294040
1352.000000	26.029261
1351.000000	26.712400
1350.000000	27.365598
1349.000000	27.958146
1348.000000	28.527878
1347.000000	29.022133
1346.000000	29.478939
1345.000000	29.906382
1344.000000	30.364824
1343.000000	30.767333
1342.000000	31.140575
1341.000000	31.523060
1340.000000	31.878107
1339.000000	32.216596
1338.000000	32.548153
1337.000000	32.869602
1336.000000	33.179498
1335.000000	33.471199
1334.000000	33.757701
1333.000000	34.003096
1332.000000	34.253112
1331.000000	34.497833
1330.000000	34.721374
1329.000000	34.938272
1328.000000	35.136687
1327.000000	35.320853
1326.000000	35.513395
1325.000000	35.678692
1324.000000	35.842930
1323.000000	35.997542
1322.000000	36.138097
1321.000000	36.289531
1320.000000	36.425370
1319.000000	36.536948
1318.000000	36.654398
1317.000000	36.763088
1316.000000	36.865039
1315.000000	36.958037
1314.000000	37.057389
1313.000000	37.141241
1312.000000	37.215080
1311.000000	37.291327
1310.000000	37.344276
1309.000000	37.389908
1308.000000	37.449885
1307.000000	37.500139
1306.000000	37.530753
1305.000000	37.551740
1304.000000	37.565410
1303.000000	37.569261
1302.000000	37.558094
1301.000000	37.543653
1300.000000	37.532004
1299.000000	37.513039
1298.000000	37.495036
1297.000000	37.467407
1296.000000	37.438429
1295.000000	37.404927
1294.000000	37.363049
1293.000000	37.332627
1292.000000	37.295274
1291.000000	37.246850
1290.000000	37.186969
1289.000000	37.119291
1288.000000	37.033417
1287.000000	36.945714
1286.000000	36.858204
1285.000000	36.747107
1284.000000	36.642076
1283.000000	36.534926
1282.000000	36.420749
1281.000000	36.311000
1280.000000	36.194608
1279.000000	36.077832
1278.000000	35.965387
1277.000000	35.862281
1276.000000	35.761389
1275.000000	35.660497
1274.000000	35.570772
1273.000000	35.491541
1272.000000	35.415872
1271.000000	35.320468
1270.000000	35.230840
1269.000000	35.143426
1268.000000	35.055434
1267.000000	34.967731
1266.000000	34.889655
1265.000000	34.795791
1264.000000	34.705296
1263.000000	34.629339
1262.000000	34.530276
1261.000000	34.438626
1260.000000	34.365460
1259.000000	34.277661
1258.000000	34.192365
1257.000000	34.104758
1256.000000	34.002807
1255.000000	33.896524
1254.000000	33.808532
1253.000000	33.704656
1252.000000	33.580467
1251.000000	33.450886
1250.000000	33.346336
1249.000000	33.224842
1248.000000	33.080531
1247.000000	32.940072
1246.000000	32.774294
1245.000000	32.606012
1244.000000	32.442255
1243.000000	32.257896
1242.000000	32.050047
1241.000000	31.846241
1240.000000	31.637719
1239.000000	31.436994
1238.000000	31.203922
1237.000000	30.966710
1236.000000	30.731520
1235.000000	30.515392
1234.000000	30.274329
1233.000000	30.019500
1232.000000	29.790953
1231.000000	29.549024
1230.000000	29.300452
1229.000000	29.056983
1228.000000	28.812358
1227.000000	28.548191
1226.000000	28.327249
1225.000000	28.099953
1224.000000	27.870732
1223.000000	27.655181
1222.000000	27.432603
1221.000000	27.232263
1220.000000	27.005256
1219.000000	26.825422
1218.000000	26.672544
1217.000000	26.501085
1216.000000	26.350325
1215.000000	26.211021
1214.000000	26.087313
1213.000000	25.958213
1212.000000	25.851930
1211.000000	25.742374
1210.000000	25.653131
1209.000000	25.571396
1208.000000	25.503044
1207.000000	25.459722
1206.000000	25.427953
1205.000000	25.440468
1204.000000	25.442490
1203.000000	25.466365
1202.000000	25.459145
1201.000000	25.471660
1200.000000	25.447207
1199.000000	25.397627
1198.000000	25.304245
1197.000000	25.197191
1196.000000	24.988572
1195.000000	24.713526
1194.000000	24.381872
1193.000000	23.953467
1192.000000	23.454109
1191.000000	22.935883
1190.000000	22.422181
1189.000000	22.002536
1188.000000	21.672037
1187.000000	21.488738
1186.000000	21.450614
1185.000000	21.531097
1184.000000	21.756371
1183.000000	22.137219
1182.000000	22.630030
1181.000000	23.229605
1180.000000	23.775365
1179.000000	24.363292
1178.000000	24.896152
1177.000000	25.356423
1176.000000	25.757970
1175.000000	26.132175
1174.000000	26.519280
1173.000000	26.902246
1172.000000	27.301193
1171.000000	27.768107
1170.000000	28.206910
1169.000000	28.685281
1168.000000	29.154602
1167.000000	29.643081
1166.000000	30.143016
1165.000000	30.628318
1164.000000	31.155497
1163.000000	31.685950
1162.000000	32.250291
1161.000000	32.752151
1160.000000	33.290498
1159.000000	33.774741
1158.000000	34.263028
1157.000000	34.718100
1156.000000	35.105013
1155.000000	35.402587
1154.000000	35.606104
1153.000000	35.719607
1152.000000	35.745023
1151.000000	35.719607
1150.000000	35.679944
1149.000000	35.625262
1148.000000	35.597536
1147.000000	35.625358
1146.000000	35.769668
1145.000000	36.047217
1144.000000	36.429317
1143.000000	36.932525
1142.000000	37.473760
1141.000000	38.028955
1140.000000	38.603500
1139.000000	39.201247
1138.000000	39.821039
1137.000000	40.464996
1136.000000	41.121371
1135.000000	41.766386
1134.000000	42.370487
1133.000000	42.878412
1132.000000	43.381813
1131.000000	43.878475
1130.000000	44.290515
1129.000000	44.636898
1128.000000	44.944002
1127.000000	45.196424
1126.000000	45.381361
1125.000000	45.524516
1124.000000	45.675950
1123.000000	45.812655
1122.000000	45.939444
1121.000000	46.045727
1120.000000	46.144212
1119.000000	46.234611
1118.000000	46.285249
1117.000000	46.332422
1116.000000	46.349462
1115.000000	46.372182
1114.000000	46.383060
1113.000000	46.389607
1112.000000	46.409246
1111.000000	46.432447
1110.000000	46.453723
1109.000000	46.453627
1108.000000	46.456708
1107.000000	46.481546
1106.000000	46.499356
1105.000000	46.501570
1104.000000	46.508501
1103.000000	46.516299
1102.000000	46.520246
1101.000000	46.516011
1100.000000	46.505806
1099.000000	46.485204
1098.000000	46.493772
1097.000000	46.469415
1096.000000	46.449102
1095.000000	46.425708
1094.000000	46.395672
1093.000000	46.375166
1092.000000	46.319714
1091.000000	46.280821
1090.000000	46.249244
1089.000000	46.200338
1088.000000	46.135355
1087.000000	46.098098
1086.000000	46.037833
1085.000000	45.988349
1084.000000	45.921249
1083.000000	45.876386
1082.000000	45.826903
1081.000000	45.800910
1080.000000	45.764808
1079.000000	45.719946
1078.000000	45.683652
1077.000000	45.656022
1076.000000	45.644951
1075.000000	45.605576
1074.000000	45.572748
1073.000000	45.553301
1072.000000	45.524805
1071.000000	45.491495
1070.000000	45.462614
1069.000000	45.439316
1068.000000	45.415730
1067.000000	45.397535
1066.000000	45.373852
1065.000000	45.347859
1064.000000	45.320807
1063.000000	45.301071
1062.000000	45.274885
1061.000000	45.242442
1060.000000	45.213464
1059.000000	45.190071
1058.000000	45.165040
1057.000000	45.130864
1056.000000	45.105737
1055.000000	45.078589
1054.000000	45.038155
1053.000000	45.023137
1052.000000	45.007252
1051.000000	45.001091
1050.000000	45.006193
1049.000000	45.015531
1048.000000	45.029779
1047.000000	45.042776
1046.000000	45.058564
1045.000000	45.077048
1044.000000	45.100057
1043.000000	45.115172
1042.000000	45.134426
1041.000000	45.161767
1040.000000	45.183332
1039.000000	45.199216
1038.000000	45.224728
1037.000000	45.240517
1036.000000	45.245908
1035.000000	45.266702
1034.000000	45.282876
1033.000000	45.292022
1032.000000	45.292022
1031.000000	45.303093
1030.000000	45.311950
1029.000000	45.307136
1028.000000	45.313297
1027.000000	45.307040
1026.000000	45.296739
1025.000000	45.277196
1024.000000	45.260060
1023.000000	45.234644
1022.000000	45.212598
1021.000000	45.194595
1020.000000	45.185642
1019.000000	45.196521
1018.000000	45.193921
1017.000000	45.191900
1016.000000	45.207688
1015.000000	45.228483
1014.000000	45.277196
1013.000000	45.341986
1012.000000	45.409087
1011.000000	45.478017
1010.000000	45.560521
1009.000000	45.674121
1008.000000	45.794748
1007.000000	45.908156
1006.000000	46.022141
1005.000000	46.131986
1004.000000	46.226524
1003.000000	46.336369
1002.000000	46.440727
1001.000000	46.541619
1000.000000	46.646361
999.000000	46.738493
998.000000	46.827447
997.000000	46.928820
996.000000	47.036163
995.000000	47.116260
994.000000	47.216574
993.000000	47.313134
992.000000	47.415278
991.000000	47.541296
990.000000	47.646424
989.000000	47.754055
988.000000	47.868714
987.000000	47.987897
986.000000	48.117478
985.000000	48.228382
984.000000	48.343137
983.000000	48.470792
982.000000	48.605861
981.000000	48.706464
980.000000	48.792626
979.000000	48.902086
978.000000	48.982184
977.000000	49.076722
976.000000	49.172511
975.000000	49.263391
974.000000	49.324234
973.000000	49.424453
972.000000	49.499159
971.000000	49.594948
970.000000	49.676875
969.000000	49.733579
968.000000	49.841883
967.000000	49.923136
966.000000	49.978973
965.000000	50.063884
964.000000	50.149854
963.000000	50.215511
962.000000	50.311589
961.000000	50.404780
960.000000	50.473132
959.000000	50.545624
958.000000	50.615709
957.000000	50.663941
956.000000	50.714676
955.000000	50.772920
954.000000	50.786205
953.000000	50.822885
952.000000	50.816627
951.000000	50.794966
950.000000	50.816819
949.000000	50.796410
948.000000	50.785628
947.000000	50.807385
946.000000	50.803630
945.000000	50.807577
944.000000	50.821922
943.000000	50.819708
942.000000	50.835015
941.000000	50.832704
940.000000	50.824232
939.000000	50.825195
938.000000	50.843583
937.000000	50.848493
936.000000	50.865436
935.000000	50.884690
934.000000	50.897398
933.000000	50.938025
932.000000	50.950058
931.000000	50.965366
930.000000	51.029001
929.000000	51.035451
928.000000	51.067413
927.000000	51.094176
926.000000	51.162721
925.000000	51.188425
924.000000	51.244359
923.000000	51.288355
922.000000	51.348717
921.000000	51.386936
920.000000	51.445084
919.000000	51.472040
918.000000	51.484170
917.000000	51.533268
916.000000	51.533653
915.000000	51.553389
914.000000	51.559357
913.000000	51.547324
912.000000	51.582174
911.000000	51.568503
910.000000	51.611536
909.000000	51.650045
908.000000	51.711080
907.000000	51.820733
906.000000	51.902371
905.000000	52.034647
904.000000	52.141219
903.000000	52.290439
902.000000	52.443702
901.000000	52.600720
900.000000	52.747919
899.000000	52.894924
898.000000	53.042123
897.000000	53.166312
896.000000	53.307542
895.000000	53.449060
894.000000	53.556210
893.000000	53.686079
892.000000	53.764829
891.000000	53.871305
890.000000	53.987504
889.000000	54.078191
888.000000	54.174654
887.000000	54.274198
886.000000	54.377016
885.000000	54.456439
884.000000	54.562434
883.000000	54.658897
882.000000	54.772401
881.000000	54.863473
880.000000	54.963595
879.000000	55.071130
878.000000	55.207353
877.000000	55.303720
876.000000	55.453133
875.000000	55.550270
874.000000	55.668780
873.000000	55.815593
872.000000	55.984260
871.000000	56.141663
870.000000	56.348549
869.000000	56.522222
868.000000	56.732574
867.000000	56.969593
866.000000	57.210559
865.000000	57.429768
864.000000	57.702600
863.000000	57.938945
862.000000	58.219960
861.000000	58.471901
860.000000	58.719125
859.000000	58.961150
858.000000	58.701700
857.000000	58.346000
856.000000	58.702700
855.000000	59.056400
854.000000	59.337200
853.000000	59.434800
852.000000	59.339400
851.000000	59.741000
850.000000	59.910800
849.000000	59.747800
848.000000	60.103700
847.000000	60.348400
846.000000	60.465700
845.000000	60.119600
844.000000	60.104700
843.000000	60.334200
842.000000	60.480200
841.000000	60.531700
840.000000	60.477800
839.000000	60.566100
838.000000	60.438800
837.000000	60.595100
836.000000	60.602600
835.000000	60.413300
834.000000	60.227100
833.000000	60.160400
832.000000	60.036900
831.000000	60.093500
830.000000	59.968100
829.000000	59.937000
828.000000	59.940700
827.000000	59.760000
826.000000	59.795400
825.000000	59.769700
824.000000	59.869600
823.000000	59.916100
822.000000	59.961300
821.000000	60.091300
820.000000	60.102400
819.000000	60.303200
818.000000	60.303900
817.000000	60.436500
816.000000	60.562100
815.000000	60.531600
814.000000	60.580100
813.000000	60.632800
812.000000	60.567400
811.000000	60.490500
810.000000	60.465300
809.000000	60.521400
808.000000	60.420400
807.000000	60.348300
806.000000	60.361000
805.000000	60.232900
804.000000	60.184100
803.000000	60.233800
802.000000	60.245600
801.000000	60.167100
800.000000	60.193500
799.000000	60.065200
798.000000	59.963700
797.000000	59.998300
796.000000	59.972800
795.000000	59.772100
794.000000	59.743400
793.000000	59.630400
792.000000	59.458500
791.000000	59.422800
790.000000	59.345200
789.000000	59.234500
788.000000	59.220200
787.000000	59.184100
786.000000	59.018900
785.000000	58.959600
784.000000	59.031200
783.000000	59.079700
782.000000	59.154000
781.000000	59.210400
780.000000	59.317600
779.000000	59.441200
778.000000	59.438200
777.000000	59.449000
776.000000	59.471300
775.000000	59.528600
774.000000	59.525000
773.000000	59.398900
772.000000	59.297400
771.000000	59.209500
770.000000	59.058800
769.000000	58.896500
768.000000	58.730600
767.000000	58.539500
766.000000	58.379000
765.000000	58.247300
764.000000	58.043100
763.000000	57.917600
762.000000	57.801100
761.000000	57.662500
760.000000	57.557700
759.000000	57.372600
758.000000	57.145300
757.000000	56.968600
756.000000	56.785100
755.000000	56.546700
754.000000	56.249200
753.000000	55.974900
752.000000	55.676500
751.000000	55.307700
750.000000	54.926600
749.000000	54.567300
748.000000	54.215800
747.000000	53.811700
746.000000	53.426100
745.000000	53.113200
744.000000	52.810300
743.000000	52.513300
742.000000	52.316300
741.000000	52.102300
740.000000	51.841500
739.000000	51.661700
738.000000	51.483900
737.000000	51.320100
736.000000	51.130300
735.000000	50.871200
734.000000	50.670700
733.000000	50.429800
732.000000	50.166600
731.000000	49.866500
730.000000	49.531600
729.000000	49.260700
728.000000	48.961600
727.000000	48.700900
726.000000	48.477500
725.000000	48.235500
724.000000	48.005300
723.000000	47.819100
722.000000	47.770800
721.000000	47.733300
720.000000	47.716400
719.000000	47.739900
718.000000	47.814700
717.000000	47.883800
716.000000	47.931000
715.000000	47.968200
714.000000	48.045500
713.000000	48.102700
712.000000	48.081200
711.000000	48.027500
710.000000	47.953100
709.000000	47.963200
708.000000	47.854100
707.000000	47.677900
706.000000	47.572100
705.000000	47.436000
704.000000	47.308000
703.000000	47.201600
702.000000	47.108800
701.000000	47.058600
700.000000	47.091500
699.000000	47.178800
698.000000	47.235100
697.000000	47.369100
696.000000	47.553000
695.000000	47.683600
694.000000	47.776500
693.000000	47.845800
692.000000	47.918700
691.000000	47.918500
690.000000	47.791100
689.000000	47.650700
688.000000	47.452100
687.000000	47.208100
686.000000	46.937200
685.000000	46.601000
684.000000	46.272100
683.000000	45.963600
682.000000	45.667800
681.000000	45.468700
680.000000	45.329600
679.000000	45.221100
678.000000	45.144900
677.000000	45.091400
676.000000	45.002200
675.000000	44.923100
674.000000	44.805500
673.000000	44.672600
672.000000	44.379400
671.000000	43.992500
670.000000	43.546400
669.000000	42.955200
668.000000	42.330000
667.000000	41.659600
666.000000	40.919200
665.000000	40.181500
664.000000	39.469600
663.000000	38.825000
662.000000	38.259600
661.000000	37.760900
660.000000	37.388800
659.000000	37.118800
658.000000	36.899000
657.000000	36.742500
656.000000	36.603000
655.000000	36.486400
654.000000	36.332900
653.000000	36.174200
652.000000	35.991700
651.000000	35.786300
650.000000	35.590400
649.000000	35.398000
648.000000	35.221100
647.000000	35.082100
646.000000	35.059100
645.000000	35.118700
644.000000	35.307100
643.000000	35.671400
642.000000	36.176400
641.000000	36.800300
640.000000	37.573300
639.000000	38.397400
638.000000	39.274800
637.000000	40.151100
636.000000	41.042000
635.000000	41.838500
634.000000	42.601600
633.000000	43.335600
632.000000	43.942000
631.000000	44.453100
630.000000	44.958100
629.000000	45.382900
628.000000	45.807800
627.000000	46.223000
626.000000	46.699900
625.000000	47.245200
624.000000	47.890100
623.000000	48.579900
622.000000	49.341600
621.000000	50.131600
620.000000	50.936300
619.000000	51.658700
618.000000	52.416000
617.000000	53.081400
616.000000	53.730200
615.000000	54.306900
614.000000	54.804700
613.000000	55.240400
612.000000	55.638100
611.000000	56.038400
610.000000	56.360600
609.000000	56.669500
608.000000	56.931900
607.000000	57.206100
606.000000	57.557000
605.000000	57.813100
604.000000	58.111000
603.000000	58.446000
602.000000	58.704400
601.000000	58.993500
600.000000	59.271900
599.000000	59.466800
598.000000	59.742600
597.000000	59.901100
596.000000	60.122000
595.000000	60.239100
594.000000	60.394000
593.000000	60.482800
592.000000	60.566400
591.000000	60.579400
590.000000	60.632600
589.000000	60.626100
588.000000	60.609000
587.000000	60.619100
586.000000	60.596800
585.000000	60.578100
584.000000	60.494900
583.000000	60.479200
582.000000	60.404600
581.000000	60.355900
580.000000	60.266800
579.000000	60.220300
578.000000	60.139000
577.000000	60.053100
576.000000	59.995200
575.000000	59.877500
574.000000	59.735900
573.000000	59.679500
572.000000	59.581400
571.000000	59.461300
570.000000	59.278100
569.000000	59.148800
568.000000	58.982800
567.000000	58.807500
566.000000	58.607100
565.000000	58.358500
564.000000	58.149200
563.000000	57.897000
562.000000	57.616500
561.000000	57.319000
560.000000	57.022000
559.000000	56.647800
558.000000	56.299100
557.000000	55.984700
556.000000	55.590500
555.000000	55.222900
554.000000	54.817100
553.000000	54.412200
552.000000	53.959800
551.000000	53.513800
550.000000	53.014100
549.000000	52.527700
548.000000	52.007700
547.000000	51.473800
546.000000	50.907900
545.000000	50.306600
544.000000	49.695700
543.000000	49.053400
542.000000	48.391900
541.000000	47.689200
540.000000	46.993400
539.000000	46.265800
538.000000	45.556200
537.000000	44.797000
536.000000	44.018500
535.000000	43.218700
534.000000	42.434600
533.000000	41.625900
532.000000	40.797700
531.000000	39.956900
530.000000	39.084300
529.000000	38.192200
528.000000	37.321900
527.000000	36.455600
526.000000	35.550800
525.000000	34.648600
524.000000	33.735900
523.000000	32.835700
522.000000	31.920200
521.000000	31.011800
520.000000	30.125500
519.000000	29.222300
518.000000	28.348700
517.000000	27.490300
516.000000	26.658600
515.000000	25.827900
514.000000	25.047000
513.000000	24.302900
512.000000	23.595200
511.000000	22.938900
510.000000	22.359900
509.000000	21.866000
508.000000	21.464000
507.000000	21.124200
506.000000	20.863000
505.000000	20.684900
504.000000	20.578400
503.000000	20.521100
502.000000	20.527600
501.000000	20.552000
500.000000	20.617600
499.000000	20.704800
498.000000	20.814400
497.000000	20.926500
496.000000	21.027500
495.000000	21.123900
494.000000	21.223500
493.000000	21.301600
492.000000	21.349400
491.000000	21.392500
490.000000	21.438600
489.000000	21.441600
488.000000	21.427900
487.000000	21.393700
486.000000	21.365200
485.000000	21.315400
484.000000	21.252400
483.000000	21.162200
482.000000	21.050600
481.000000	20.933500
480.000000	20.793600
479.000000	20.648000
478.000000	20.516900
477.000000	20.396800
476.000000	20.268500
475.000000	20.135500
474.000000	19.995100
473.000000	19.847100
472.000000	19.701200
471.000000	19.560200
470.000000	19.411400
469.000000	19.257300
468.000000	19.108200
467.000000	18.963100
466.000000	18.818900
465.000000	18.672200
464.000000	18.517200
463.000000	18.367300
462.000000	18.219900
461.000000	18.055500
460.000000	17.897600
459.000000	17.735300
458.000000	17.555500
457.000000	17.372700
456.000000	17.199200
455.000000	17.009900
454.000000	16.789100
453.000000	16.572600
452.000000	16.361100
451.000000	16.130700
450.000000	15.870600
449.000000	15.601500
448.000000	15.339700
447.000000	15.066100
446.000000	14.767900
445.000000	14.471500
444.000000	14.155800
443.000000	13.822400
442.000000	13.465400
441.000000	13.095600
440.000000	12.736600
439.000000	12.383500
438.000000	12.027000
437.000000	11.660100
436.000000	11.294000
435.000000	10.938500
434.000000	10.596300
433.000000	10.251000
432.000000	9.912200
431.000000	9.584600
430.000000	9.264700
429.000000	8.955800
428.000000	8.672500
427.000000	8.406200
426.000000	8.151500
425.000000	7.911700
424.000000	7.684000
423.000000	7.461800
422.000000	7.273300
421.000000	7.100300
420.000000	6.937200
419.000000	6.791400
418.000000	6.665500
417.000000	6.548000
416.000000	6.423000
415.000000	6.321000
414.000000	6.233700
413.000000	6.156800
412.000000	6.092900
411.000000	6.026200
410.000000	5.970300
409.000000	5.918500
408.000000	5.862400
407.000000	5.818300
406.000000	5.783400
405.000000	5.752300
404.000000	5.720400
403.000000	5.693300
402.000000	5.651500
401.000000	5.632800
400.000000	5.617400
399.000000	5.595800
398.000000	5.571500
397.000000	5.547800
396.000000	5.533500
395.000000	5.522700
394.000000	5.501300
393.000000	5.474300
392.000000	5.452500
391.000000	5.425000
390.000000	5.414300
389.000000	5.413400
388.000000	5.387900
387.000000	5.373600
386.000000	5.346500
385.000000	5.332000
384.000000	5.331000
383.000000	5.306700
382.000000	5.295300
381.000000	5.279000
380.000000	5.246200
379.000000	5.231700
378.000000	5.220400
377.000000	5.195700
376.000000	5.302000
375.000000	5.278800
374.000000	5.295700
373.000000	5.324500
372.000000	5.274700
371.000000	5.183500
370.000000	5.232000
369.000000	5.248200
368.000000	5.231900
367.000000	5.220100
366.000000	5.185100
365.000000	5.180100
364.000000	5.189500
363.000000	5.247500
362.000000	5.230900
361.000000	5.174600
360.000000	5.146100
359.000000	5.155400
358.000000	5.231200
357.000000	5.163100
356.000000	5.201300
355.000000	5.188600
354.000000	5.096900
353.000000	5.088600
352.000000	5.125700
351.000000	5.130800
350.000000	5.117500
349.000000	4.992600
348.000000	5.051600
347.000000	5.125000
346.000000	5.008700
345.000000	5.045300
344.000000	5.083100
343.000000	5.077300
342.000000	5.094600
341.000000	5.082400
340.000000	5.092600
339.000000	5.019000
338.000000	5.098300
337.000000	5.088500
336.000000	5.118100
335.000000	5.069600
334.000000	5.089500
333.000000	5.160100
332.000000	5.029600
331.000000	5.139500
330.000000	5.014600
329.000000	5.134200
328.000000	5.052400
327.000000	5.053400
326.000000	5.163800
325.000000	5.166800
324.000000	5.099500
323.000000	5.170600
322.000000	5.145200
321.000000	5.147200
320.000000	5.080000
319.000000	5.310300
318.000000	5.513800
317.000000	5.172100
316.000000	4.893700
315.000000	4.834000
314.000000	4.893200
313.000000	4.891800
312.000000	4.889600
311.000000	4.906700
310.000000	4.890500
309.000000	4.877400
308.000000	4.868000
307.000000	4.880300
306.000000	4.880600
305.000000	4.872500
304.000000	4.853400
303.000000	4.896600
302.000000	4.896600
301.000000	4.933200
300.000000	4.895000
299.000000	4.901700
298.000000	4.922600
297.000000	4.907200
296.000000	4.910600
295.000000	4.869900
294.000000	4.931300
293.000000	4.895700
292.000000	4.893100
291.000000	4.894700
290.000000	4.937000
289.000000	4.906200
288.000000	4.928600
287.000000	4.942000
286.000000	4.916900
285.000000	4.956400
284.000000	4.953100
283.000000	4.913300
282.000000	4.996200
281.000000	4.989000
280.000000	4.987000
279.000000	5.019200
278.000000	5.055700
277.000000	5.083200
276.000000	5.002900
275.000000	5.055500
274.000000	5.045800
273.000000	5.081100
272.000000	5.076600
271.000000	5.081600
270.000000	5.138200
269.000000	5.143700
268.000000	5.163000
267.000000	5.179100
266.000000	5.203700
265.000000	5.208600
264.000000	5.251500
263.000000	5.226000
262.000000	5.273000
261.000000	5.282400
260.000000	5.308600
259.000000	5.374500
258.000000	5.331000
257.000000	5.387700
256.000000	5.350700
255.000000	5.395100
254.000000	5.353200
253.000000	5.369000
252.000000	5.401300
251.000000	5.339900
250.000000	5.407800
