PE UV       SUBTECH     SPECTRUM    ASCII       PEDS        4.00        
   -1
CICIMAUCR0020-1.Sample.ASC
24/03/08
12:01:00.00
24/03/08
12:01:00.00
Vinicio Soto Monge
C. resplendens
250,000000
1
Lambda 1050
1050L1511233
PerkinElmer UV WinLab 6.3.2.0749 / 2.02.05 Lambda 900 UV/VIS/NIR, Aug  7 2015 09:38:08

0
0
3350/servo 860,8/2
0
0
UV/VIS
1
1
1
DoubleDePol,CommonBeamDepol,RBeamAtt,SBeamAtt,60mm sphere, WB InGaAs Detector
0
0
0
0
Program
Program
3350/servo 860,8/2
3350/0,2 860,8/0,2
3350/0,2 860,8/0,2
0
15.00
 
 
 
0
 
860,8
319,2
860,8
Front
100
on
S:100 R:100
0
0
0
0
 
0
 
 
 
0
 
 
0
0
0
0
0
 
 
 
 
0
0


0
0
#HDR
-1
-1
#GR
nm
%R
1.0
0.0
2500,000000
-1,000000
2251
8
26,391500
2,064300
#DATA
2500.000000	2.121483
2499.000000	2.111961
2498.000000	2.183142
2497.000000	2.164654
2496.000000	2.186933
2495.000000	2.102070
2494.000000	2.160771
2493.000000	2.102070
2492.000000	2.072395
2491.000000	2.039300
2490.000000	2.051226
2489.000000	2.151249
2488.000000	2.112423
2487.000000	2.087926
2486.000000	2.091531
2485.000000	2.055386
2484.000000	2.063243
2483.000000	1.949261
2482.000000	1.999827
2481.000000	2.016559
2480.000000	2.041057
2479.000000	2.052520
2478.000000	2.075631
2477.000000	2.052335
2476.000000	2.030611
2475.000000	2.015080
2474.000000	2.058344
2473.000000	2.030888
2472.000000	2.047343
2471.000000	2.022661
2470.000000	2.004172
2469.000000	2.013324
2468.000000	2.029779
2467.000000	2.047528
2466.000000	2.055293
2465.000000	2.033107
2464.000000	2.053259
2463.000000	2.068143
2462.000000	2.045032
2461.000000	2.030703
2460.000000	2.064815
2459.000000	2.092548
2458.000000	2.090052
2457.000000	2.110574
2456.000000	2.143392
2455.000000	2.126752
2454.000000	2.136181
2453.000000	2.154300
2452.000000	2.193496
2451.000000	2.185731
2450.000000	2.189891
2449.000000	2.240827
2448.000000	2.259870
2447.000000	2.267820
2446.000000	2.271888
2445.000000	2.296478
2444.000000	2.288898
2443.000000	2.328556
2442.000000	2.346952
2441.000000	2.362205
2440.000000	2.371912
2439.000000	2.406116
2438.000000	2.415268
2437.000000	2.425436
2436.000000	2.442169
2435.000000	2.455480
2434.000000	2.479238
2433.000000	2.488298
2432.000000	2.511224
2431.000000	2.545058
2430.000000	2.548479
2429.000000	2.561143
2428.000000	2.557630
2427.000000	2.578615
2426.000000	2.603667
2425.000000	2.624467
2424.000000	2.635375
2423.000000	2.647393
2422.000000	2.682336
2421.000000	2.705078
2420.000000	2.709515
2419.000000	2.705725
2418.000000	2.712935
2417.000000	2.729298
2416.000000	2.748156
2415.000000	2.759804
2414.000000	2.753610
2413.000000	2.774133
2412.000000	2.778108
2411.000000	2.787999
2410.000000	2.798445
2409.000000	2.801311
2408.000000	2.828582
2407.000000	2.822573
2406.000000	2.834498
2405.000000	2.847163
2404.000000	2.860013
2403.000000	2.867501
2402.000000	2.879796
2401.000000	2.873972
2400.000000	2.878779
2399.000000	2.887561
2398.000000	2.905680
2397.000000	2.905402
2396.000000	2.906974
2395.000000	2.917697
2394.000000	2.944968
2393.000000	2.957448
2392.000000	2.946262
2391.000000	2.954860
2390.000000	2.966415
2389.000000	2.966785
2388.000000	2.980744
2387.000000	2.987307
2386.000000	2.985181
2385.000000	2.977508
2384.000000	2.981483
2383.000000	3.001636
2382.000000	3.013284
2381.000000	3.000989
2380.000000	2.989896
2379.000000	2.988324
2378.000000	2.992484
2377.000000	3.005981
2376.000000	2.984811
2375.000000	2.976121
2374.000000	2.977970
2373.000000	2.966785
2372.000000	2.968264
2371.000000	2.964566
2370.000000	2.960776
2369.000000	2.956708
2368.000000	2.944413
2367.000000	2.946170
2366.000000	2.936371
2365.000000	2.912151
2364.000000	2.890519
2363.000000	2.888208
2362.000000	2.873324
2361.000000	2.855021
2360.000000	2.854281
2359.000000	2.836624
2358.000000	2.826086
2357.000000	2.811110
2356.000000	2.791789
2355.000000	2.787260
2354.000000	2.774687
2353.000000	2.763132
2352.000000	2.744458
2351.000000	2.743164
2350.000000	2.747694
2349.000000	2.758972
2348.000000	2.778015
2347.000000	2.782730
2346.000000	2.777646
2345.000000	2.779125
2344.000000	2.794285
2343.000000	2.804916
2342.000000	2.818598
2341.000000	2.819615
2340.000000	2.829137
2339.000000	2.832280
2338.000000	2.836347
2337.000000	2.843188
2336.000000	2.848365
2335.000000	2.847071
2334.000000	2.834776
2333.000000	2.830338
2332.000000	2.829321
2331.000000	2.810740
2330.000000	2.806950
2329.000000	2.789016
2328.000000	2.777183
2327.000000	2.753980
2326.000000	2.745845
2325.000000	2.735307
2324.000000	2.725138
2323.000000	2.706557
2322.000000	2.685757
2321.000000	2.651183
2320.000000	2.652292
2319.000000	2.621601
2318.000000	2.600894
2317.000000	2.573438
2316.000000	2.547369
2315.000000	2.526754
2314.000000	2.497172
2313.000000	2.483861
2312.000000	2.445127
2311.000000	2.428302
2310.000000	2.407133
2309.000000	2.392434
2308.000000	2.374315
2307.000000	2.363499
2306.000000	2.375425
2305.000000	2.370155
2304.000000	2.358600
2303.000000	2.364239
2302.000000	2.371542
2301.000000	2.379769
2300.000000	2.399367
2299.000000	2.409166
2298.000000	2.423310
2297.000000	2.439026
2296.000000	2.446883
2295.000000	2.454279
2294.000000	2.467128
2293.000000	2.480440
2292.000000	2.490517
2291.000000	2.488853
2290.000000	2.490054
2289.000000	2.494122
2288.000000	2.494307
2287.000000	2.479423
2286.000000	2.472583
2285.000000	2.461397
2284.000000	2.449934
2283.000000	2.413419
2282.000000	2.424512
2281.000000	2.408889
2280.000000	2.400662
2279.000000	2.382080
2278.000000	2.373021
2277.000000	2.360541
2276.000000	2.336598
2275.000000	2.312933
2274.000000	2.311639
2273.000000	2.288343
2272.000000	2.280578
2271.000000	2.279099
2270.000000	2.275863
2269.000000	2.269392
2268.000000	2.269207
2267.000000	2.288805
2266.000000	2.292318
2265.000000	2.296570
2264.000000	2.292041
2263.000000	2.324396
2262.000000	2.358138
2261.000000	2.386610
2260.000000	2.415360
2259.000000	2.436345
2258.000000	2.472120
2257.000000	2.509375
2256.000000	2.559017
2255.000000	2.617256
2254.000000	2.633434
2253.000000	2.675496
2252.000000	2.724768
2251.000000	2.756384
2250.000000	2.787629
2249.000000	2.809908
2248.000000	2.857517
2247.000000	2.893662
2246.000000	2.909932
2245.000000	2.934245
2244.000000	2.979449
2243.000000	2.975382
2242.000000	2.996182
2241.000000	3.029924
2240.000000	3.050723
2239.000000	3.070691
2238.000000	3.075221
2237.000000	3.101937
2236.000000	3.116081
2235.000000	3.113677
2234.000000	3.128376
2233.000000	3.131981
2232.000000	3.135586
2231.000000	3.152596
2230.000000	3.131426
2229.000000	3.138914
2228.000000	3.130502
2227.000000	3.122367
2226.000000	3.110904
2225.000000	3.101290
2224.000000	3.089642
2223.000000	3.086869
2222.000000	3.063758
2221.000000	3.055068
2220.000000	3.019570
2219.000000	2.999417
2218.000000	2.971037
2217.000000	2.954675
2216.000000	2.947279
2215.000000	2.920655
2214.000000	2.915016
2213.000000	2.898746
2212.000000	2.873879
2211.000000	2.848735
2210.000000	2.876930
2209.000000	2.894956
2208.000000	2.888947
2207.000000	2.893107
2206.000000	2.931102
2205.000000	2.944598
2204.000000	2.984811
2203.000000	3.011897
2202.000000	3.050446
2201.000000	3.095466
2200.000000	3.127729
2199.000000	3.155462
2198.000000	3.193178
2197.000000	3.258444
2196.000000	3.293942
2195.000000	3.337020
2194.000000	3.383797
2193.000000	3.431497
2192.000000	3.463206
2191.000000	3.489922
2190.000000	3.530319
2189.000000	3.545757
2188.000000	3.604644
2187.000000	3.618973
2186.000000	3.625351
2185.000000	3.640789
2184.000000	3.675825
2183.000000	3.678414
2182.000000	3.682019
2181.000000	3.706332
2180.000000	3.717055
2179.000000	3.727039
2178.000000	3.719181
2177.000000	3.723896
2176.000000	3.726854
2175.000000	3.718442
2174.000000	3.723249
2173.000000	3.758655
2172.000000	3.759117
2171.000000	3.770672
2170.000000	3.772983
2169.000000	3.779085
2168.000000	3.786665
2167.000000	3.805986
2166.000000	3.811255
2165.000000	3.822810
2164.000000	3.825861
2163.000000	3.835475
2162.000000	3.842316
2161.000000	3.841299
2160.000000	3.854981
2159.000000	3.870881
2158.000000	3.870603
2157.000000	3.893899
2156.000000	3.933465
2155.000000	3.918582
2154.000000	3.929952
2153.000000	3.952693
2152.000000	3.955744
2151.000000	3.978577
2150.000000	3.984863
2149.000000	4.010655
2148.000000	4.028127
2147.000000	4.050591
2146.000000	4.045968
2145.000000	4.062423
2144.000000	4.084240
2143.000000	4.100787
2142.000000	4.101804
2141.000000	4.112158
2140.000000	4.140908
2139.000000	4.150337
2138.000000	4.147102
2137.000000	4.160506
2136.000000	4.176591
2135.000000	4.201643
2134.000000	4.194063
2133.000000	4.193693
2132.000000	4.225031
2131.000000	4.227342
2130.000000	4.209686
2129.000000	4.221149
2128.000000	4.227805
2127.000000	4.218468
2126.000000	4.225493
2125.000000	4.226141
2124.000000	4.215047
2123.000000	4.217728
2122.000000	4.230485
2121.000000	4.225586
2120.000000	4.214215
2119.000000	4.211072
2118.000000	4.213661
2117.000000	4.205711
2116.000000	4.197483
2115.000000	4.197760
2114.000000	4.205618
2113.000000	4.198685
2112.000000	4.186113
2111.000000	4.182877
2110.000000	4.190735
2109.000000	4.192491
2108.000000	4.171691
2107.000000	4.158287
2106.000000	4.155606
2105.000000	4.149043
2104.000000	4.149505
2103.000000	4.135731
2102.000000	4.120755
2101.000000	4.124730
2100.000000	4.131294
2099.000000	4.134067
2098.000000	4.120016
2097.000000	4.105872
2096.000000	4.100325
2095.000000	4.096627
2094.000000	4.101712
2093.000000	4.105502
2092.000000	4.093947
2091.000000	4.086551
2090.000000	4.094316
2089.000000	4.102636
2088.000000	4.094224
2087.000000	4.107628
2086.000000	4.100510
2085.000000	4.088400
2084.000000	4.091358
2083.000000	4.085996
2082.000000	4.095980
2081.000000	4.086366
2080.000000	4.072130
2079.000000	4.075181
2078.000000	4.073794
2077.000000	4.065012
2076.000000	4.063625
2075.000000	4.055028
2074.000000	4.058633
2073.000000	4.047078
2072.000000	4.035615
2071.000000	4.035615
2070.000000	4.021101
2069.000000	4.012227
2068.000000	4.015185
2067.000000	4.003722
2066.000000	4.012227
2065.000000	4.000394
2064.000000	3.984031
2063.000000	3.981073
2062.000000	3.976081
2061.000000	3.965728
2060.000000	3.973400
2059.000000	3.975342
2058.000000	3.972661
2057.000000	3.979224
2056.000000	3.994015
2055.000000	3.999469
2054.000000	3.994662
2053.000000	4.007697
2052.000000	4.041161
2051.000000	4.058171
2050.000000	4.084055
2049.000000	4.115578
2048.000000	4.150799
2047.000000	4.181398
2046.000000	4.209963
2045.000000	4.243427
2044.000000	4.297322
2043.000000	4.338089
2042.000000	4.383109
2041.000000	4.430625
2040.000000	4.462148
2039.000000	4.504580
2038.000000	4.562172
2037.000000	4.593973
2036.000000	4.633354
2035.000000	4.682349
2034.000000	4.715443
2033.000000	4.744378
2032.000000	4.772851
2031.000000	4.795222
2030.000000	4.868807
2029.000000	4.891640
2028.000000	4.919743
2027.000000	4.951451
2026.000000	4.976041
2025.000000	5.004236
2024.000000	5.042138
2023.000000	5.073661
2022.000000	5.105000
2021.000000	5.123858
2020.000000	5.159449
2019.000000	5.171374
2018.000000	5.196241
2017.000000	5.220276
2016.000000	5.242278
2015.000000	5.257624
2014.000000	5.277129
2013.000000	5.291365
2012.000000	5.325015
2011.000000	5.329914
2010.000000	5.329267
2009.000000	5.339528
2008.000000	5.357278
2007.000000	5.354134
2006.000000	5.380203
2005.000000	5.374102
2004.000000	5.377338
2003.000000	5.390927
2002.000000	5.384826
2001.000000	5.373455
2000.000000	5.376598
1999.000000	5.372161
1998.000000	5.359681
1997.000000	5.353210
1996.000000	5.352933
1995.000000	5.337587
1994.000000	5.345445
1993.000000	5.325015
1992.000000	5.304123
1991.000000	5.305971
1990.000000	5.283508
1989.000000	5.275742
1988.000000	5.246900
1987.000000	5.248564
1986.000000	5.222403
1985.000000	5.199939
1984.000000	5.186812
1983.000000	5.171466
1982.000000	5.159356
1981.000000	5.125892
1980.000000	5.092058
1979.000000	5.079855
1978.000000	5.055727
1977.000000	5.031877
1976.000000	5.014867
1975.000000	4.999244
1974.000000	4.980756
1973.000000	4.965133
1972.000000	4.928987
1971.000000	4.915121
1970.000000	4.901624
1969.000000	4.881841
1968.000000	4.868345
1967.000000	4.837931
1966.000000	4.858083
1965.000000	4.820829
1964.000000	4.818425
1963.000000	4.781725
1962.000000	4.764716
1961.000000	4.743269
1960.000000	4.723578
1959.000000	4.705552
1958.000000	4.669037
1957.000000	4.661364
1956.000000	4.665616
1955.000000	4.621151
1954.000000	4.618378
1953.000000	4.603772
1952.000000	4.590552
1951.000000	4.574744
1950.000000	4.560786
1949.000000	4.564483
1948.000000	4.540263
1947.000000	4.530464
1946.000000	4.531481
1945.000000	4.491545
1944.000000	4.486646
1943.000000	4.502454
1942.000000	4.509387
1941.000000	4.497832
1940.000000	4.488125
1939.000000	4.506706
1938.000000	4.483041
1937.000000	4.482948
1936.000000	4.502546
1935.000000	4.515119
1934.000000	4.548121
1933.000000	4.568458
1932.000000	4.592586
1931.000000	4.599519
1930.000000	4.628824
1929.000000	4.636127
1928.000000	4.665154
1927.000000	4.683088
1926.000000	4.712023
1925.000000	4.739663
1924.000000	4.801600
1923.000000	4.862151
1922.000000	4.892472
1921.000000	4.930189
1920.000000	4.941652
1919.000000	4.992219
1918.000000	5.058038
1917.000000	5.129959
1916.000000	5.190695
1915.000000	5.259472
1914.000000	5.336108
1913.000000	5.370404
1912.000000	5.413945
1911.000000	5.472185
1910.000000	5.566200
1909.000000	5.662063
1908.000000	5.750069
1907.000000	5.848059
1906.000000	5.904542
1905.000000	5.946511
1904.000000	6.010482
1903.000000	6.108934
1902.000000	6.211639
1901.000000	6.280787
1900.000000	6.354464
1899.000000	6.428326
1898.000000	6.518366
1897.000000	6.606834
1896.000000	6.714069
1895.000000	6.821211
1894.000000	6.922806
1893.000000	7.008223
1892.000000	7.079590
1891.000000	7.155578
1890.000000	7.234987
1889.000000	7.313934
1888.000000	7.425698
1887.000000	7.536167
1886.000000	7.643864
1885.000000	7.763301
1884.000000	7.886343
1883.000000	8.006150
1882.000000	8.151286
1881.000000	8.307515
1880.000000	8.473358
1879.000000	8.624041
1878.000000	8.761966
1877.000000	8.880479
1876.000000	8.982721
1875.000000	9.087182
1874.000000	9.160675
1873.000000	9.219376
1872.000000	9.268648
1871.000000	9.304886
1870.000000	9.304239
1869.000000	9.321249
1868.000000	9.362663
1867.000000	9.393909
1866.000000	9.442719
1865.000000	9.487554
1864.000000	9.517229
1863.000000	9.559475
1862.000000	9.594419
1861.000000	9.585822
1860.000000	9.571216
1859.000000	9.532204
1858.000000	9.503177
1857.000000	9.505858
1856.000000	9.517229
1855.000000	9.487000
1854.000000	9.443366
1853.000000	9.398531
1852.000000	9.366546
1851.000000	9.400473
1850.000000	9.419701
1849.000000	9.373202
1848.000000	9.280943
1847.000000	9.173432
1846.000000	9.110848
1845.000000	9.135715
1844.000000	9.204863
1843.000000	9.231764
1842.000000	9.192013
1841.000000	9.114545
1840.000000	9.068416
1839.000000	9.059911
1838.000000	9.037355
1837.000000	8.992982
1836.000000	8.937054
1835.000000	8.894530
1834.000000	8.883160
1833.000000	8.888521
1832.000000	8.886210
1831.000000	8.848216
1830.000000	8.787111
1829.000000	8.743755
1828.000000	8.722216
1827.000000	8.690046
1826.000000	8.639109
1825.000000	8.611469
1824.000000	8.625058
1823.000000	8.654732
1822.000000	8.646042
1821.000000	8.608510
1820.000000	8.548330
1819.000000	8.512462
1818.000000	8.530396
1817.000000	8.546019
1816.000000	8.540380
1815.000000	8.526883
1814.000000	8.524479
1813.000000	8.531598
1812.000000	8.518933
1811.000000	8.495822
1810.000000	8.478720
1809.000000	8.482048
1808.000000	8.478443
1807.000000	8.450063
1806.000000	8.410404
1805.000000	8.382949
1804.000000	8.373150
1803.000000	8.370191
1802.000000	8.357619
1801.000000	8.322213
1800.000000	8.285513
1799.000000	8.255377
1798.000000	8.244191
1797.000000	8.235779
1796.000000	8.229030
1795.000000	8.204163
1794.000000	8.181792
1793.000000	8.153782
1792.000000	8.135478
1791.000000	8.124015
1790.000000	8.103585
1789.000000	8.074003
1788.000000	8.060691
1787.000000	8.033328
1786.000000	7.994964
1785.000000	7.953827
1784.000000	7.927480
1783.000000	7.896697
1782.000000	7.857501
1781.000000	7.841046
1780.000000	7.807027
1779.000000	7.765242
1778.000000	7.742224
1777.000000	7.700254
1776.000000	7.647747
1775.000000	7.600693
1774.000000	7.546336
1773.000000	7.486803
1772.000000	7.453708
1771.000000	7.403973
1770.000000	7.351558
1769.000000	7.300252
1768.000000	7.248206
1767.000000	7.226760
1766.000000	7.200043
1765.000000	7.172403
1764.000000	7.156410
1763.000000	7.148830
1762.000000	7.160940
1761.000000	7.173327
1760.000000	7.194312
1759.000000	7.221953
1758.000000	7.261149
1757.000000	7.282410
1756.000000	7.300992
1755.000000	7.314766
1754.000000	7.316430
1753.000000	7.312547
1752.000000	7.305059
1751.000000	7.293411
1750.000000	7.253291
1749.000000	7.251350
1748.000000	7.222507
1747.000000	7.171478
1746.000000	7.130711
1745.000000	7.081716
1744.000000	7.035494
1743.000000	6.940462
1742.000000	6.866878
1741.000000	6.782477
1740.000000	6.693454
1739.000000	6.632071
1738.000000	6.566622
1737.000000	6.526594
1736.000000	6.458555
1735.000000	6.445613
1734.000000	6.421670
1733.000000	6.424813
1732.000000	6.461791
1731.000000	6.487767
1730.000000	6.520030
1729.000000	6.551738
1728.000000	6.600733
1727.000000	6.626617
1726.000000	6.652132
1725.000000	6.679957
1724.000000	6.676999
1723.000000	6.705379
1722.000000	6.711295
1721.000000	6.726271
1720.000000	6.737642
1719.000000	6.741617
1718.000000	6.742911
1717.000000	6.780720
1716.000000	6.806512
1715.000000	6.811874
1714.000000	6.869004
1713.000000	6.907645
1712.000000	6.901174
1711.000000	6.929277
1710.000000	6.924285
1709.000000	6.927613
1708.000000	6.928815
1707.000000	6.903485
1706.000000	6.905334
1705.000000	6.889156
1704.000000	6.897014
1703.000000	6.851070
1702.000000	6.804663
1701.000000	6.741247
1700.000000	6.685226
1699.000000	6.632534
1698.000000	6.598052
1697.000000	6.530199
1696.000000	6.534544
1695.000000	6.527241
1694.000000	6.545452
1693.000000	6.565235
1692.000000	6.610994
1691.000000	6.658510
1690.000000	6.700110
1689.000000	6.727843
1688.000000	6.732650
1687.000000	6.743003
1686.000000	6.735238
1685.000000	6.722111
1684.000000	6.770736
1683.000000	6.838220
1682.000000	6.948228
1681.000000	7.107323
1680.000000	7.304504
1679.000000	7.511393
1678.000000	7.697389
1677.000000	7.860181
1676.000000	8.014469
1675.000000	8.151470
1674.000000	8.270260
1673.000000	8.356048
1672.000000	8.442575
1671.000000	8.511537
1670.000000	8.584105
1669.000000	8.647706
1668.000000	8.689491
1667.000000	8.749856
1666.000000	8.779900
1665.000000	8.828156
1664.000000	8.846829
1663.000000	8.882605
1662.000000	8.904976
1661.000000	8.907472
1660.000000	8.933449
1659.000000	8.945282
1658.000000	8.958224
1657.000000	8.960073
1656.000000	8.956282
1655.000000	8.965712
1654.000000	8.947962
1653.000000	8.947685
1652.000000	8.944912
1651.000000	8.916532
1650.000000	8.902850
1649.000000	8.908582
1648.000000	8.891295
1647.000000	8.864948
1646.000000	8.848586
1645.000000	8.819374
1644.000000	8.806339
1643.000000	8.774261
1642.000000	8.750966
1641.000000	8.732939
1640.000000	8.712787
1639.000000	8.686440
1638.000000	8.680431
1637.000000	8.641883
1636.000000	8.602224
1635.000000	8.582904
1634.000000	8.562936
1633.000000	8.534001
1632.000000	8.514033
1631.000000	8.475762
1630.000000	8.462358
1629.000000	8.428061
1628.000000	8.387294
1627.000000	8.366309
1626.000000	8.334231
1625.000000	8.305666
1624.000000	8.292447
1623.000000	8.261940
1622.000000	8.250108
1621.000000	8.211374
1620.000000	8.169867
1619.000000	8.138991
1618.000000	8.122258
1617.000000	8.106451
1616.000000	8.095450
1615.000000	8.073818
1614.000000	8.049598
1613.000000	8.027042
1612.000000	7.993392
1611.000000	7.973702
1610.000000	7.955860
1609.000000	7.936632
1608.000000	7.915093
1607.000000	7.889301
1606.000000	7.864804
1605.000000	7.850013
1604.000000	7.833743
1603.000000	7.815162
1602.000000	7.794639
1601.000000	7.772268
1600.000000	7.760897
1599.000000	7.741299
1598.000000	7.731870
1597.000000	7.704137
1596.000000	7.685371
1595.000000	7.680102
1594.000000	7.667437
1593.000000	7.643494
1592.000000	7.634065
1591.000000	7.630829
1590.000000	7.615946
1589.000000	7.603928
1588.000000	7.587289
1587.000000	7.578876
1586.000000	7.577490
1585.000000	7.574716
1584.000000	7.571758
1583.000000	7.564548
1582.000000	7.551513
1581.000000	7.560203
1580.000000	7.558631
1579.000000	7.559001
1578.000000	7.562052
1577.000000	7.563346
1576.000000	7.576380
1575.000000	7.577859
1574.000000	7.568985
1573.000000	7.574994
1572.000000	7.587843
1571.000000	7.594222
1570.000000	7.612433
1569.000000	7.622047
1568.000000	7.614559
1567.000000	7.633141
1566.000000	7.643587
1565.000000	7.642570
1564.000000	7.660596
1563.000000	7.670673
1562.000000	7.675757
1561.000000	7.678623
1560.000000	7.681488
1559.000000	7.694153
1558.000000	7.701086
1557.000000	7.707650
1556.000000	7.698221
1555.000000	7.680749
1554.000000	7.681581
1553.000000	7.689254
1552.000000	7.696464
1551.000000	7.688976
1550.000000	7.686111
1549.000000	7.674740
1548.000000	7.671967
1547.000000	7.672799
1546.000000	7.659117
1545.000000	7.648301
1544.000000	7.643309
1543.000000	7.633048
1542.000000	7.640906
1541.000000	7.642477
1540.000000	7.630737
1539.000000	7.636006
1538.000000	7.640444
1537.000000	7.639242
1536.000000	7.625283
1535.000000	7.629905
1534.000000	7.629998
1533.000000	7.622232
1532.000000	7.606240
1531.000000	7.615022
1530.000000	7.611509
1529.000000	7.596625
1528.000000	7.571111
1527.000000	7.568615
1526.000000	7.569817
1525.000000	7.561405
1524.000000	7.556135
1523.000000	7.540050
1522.000000	7.535151
1521.000000	7.533394
1520.000000	7.543748
1519.000000	7.515183
1518.000000	7.519343
1517.000000	7.519897
1516.000000	7.509451
1515.000000	7.506216
1514.000000	7.493736
1513.000000	7.489299
1512.000000	7.473583
1511.000000	7.464062
1510.000000	7.457128
1509.000000	7.460919
1508.000000	7.457221
1507.000000	7.455834
1506.000000	7.445573
1505.000000	7.445296
1504.000000	7.454355
1503.000000	7.447699
1502.000000	7.440119
1501.000000	7.440581
1500.000000	7.451027
1499.000000	7.451120
1498.000000	7.474508
1497.000000	7.484399
1496.000000	7.477374
1495.000000	7.471457
1494.000000	7.478298
1493.000000	7.500947
1492.000000	7.522948
1491.000000	7.509544
1490.000000	7.548647
1489.000000	7.552807
1488.000000	7.579801
1487.000000	7.588213
1486.000000	7.607441
1485.000000	7.626762
1484.000000	7.608828
1483.000000	7.641091
1482.000000	7.677791
1481.000000	7.686850
1480.000000	7.704045
1479.000000	7.733904
1478.000000	7.749527
1477.000000	7.760805
1476.000000	7.770789
1475.000000	7.814237
1474.000000	7.845945
1473.000000	7.867762
1472.000000	7.883662
1471.000000	7.898361
1470.000000	7.919345
1469.000000	7.923875
1468.000000	7.956507
1467.000000	7.967786
1466.000000	7.991359
1465.000000	8.020201
1464.000000	8.049968
1463.000000	8.084172
1462.000000	8.086021
1461.000000	8.126973
1460.000000	8.151933
1459.000000	8.157387
1458.000000	8.213685
1457.000000	8.254915
1456.000000	8.287270
1455.000000	8.307422
1454.000000	8.340147
1453.000000	8.385075
1452.000000	8.408001
1451.000000	8.459584
1450.000000	8.472988
1449.000000	8.501646
1448.000000	8.549901
1447.000000	8.612301
1446.000000	8.639664
1445.000000	8.678860
1444.000000	8.730628
1443.000000	8.755495
1442.000000	8.815861
1441.000000	8.844241
1440.000000	8.884177
1439.000000	8.937054
1438.000000	8.967376
1437.000000	8.998159
1436.000000	9.029313
1435.000000	9.084686
1434.000000	9.123235
1433.000000	9.161599
1432.000000	9.204863
1431.000000	9.245538
1430.000000	9.307844
1429.000000	9.344729
1428.000000	9.420256
1427.000000	9.458897
1426.000000	9.536364
1425.000000	9.652011
1424.000000	9.713024
1423.000000	9.768212
1422.000000	9.831998
1421.000000	9.929249
1420.000000	10.009952
1419.000000	10.055249
1418.000000	10.110992
1417.000000	10.178291
1416.000000	10.276189
1415.000000	10.365489
1414.000000	10.395256
1413.000000	10.442124
1412.000000	10.502675
1411.000000	10.593547
1410.000000	10.668703
1409.000000	10.761701
1408.000000	10.855993
1407.000000	10.962581
1406.000000	11.078135
1405.000000	11.204043
1404.000000	11.279107
1403.000000	11.408435
1402.000000	11.540352
1401.000000	11.633350
1400.000000	11.640930
1399.000000	11.686689
1398.000000	11.768317
1397.000000	11.851331
1396.000000	11.858449
1395.000000	11.793184
1394.000000	11.789486
1393.000000	11.781906
1392.000000	11.777839
1391.000000	11.760552
1390.000000	11.825632
1389.000000	11.850684
1388.000000	11.871484
1387.000000	11.900603
1386.000000	11.991198
1385.000000	12.099541
1384.000000	12.228685
1383.000000	12.329910
1382.000000	12.405437
1381.000000	12.478005
1380.000000	12.565271
1379.000000	12.674447
1378.000000	12.821062
1377.000000	12.958248
1376.000000	13.130192
1375.000000	13.300935
1374.000000	13.536389
1373.000000	13.779700
1372.000000	14.022826
1371.000000	14.213998
1370.000000	14.398608
1369.000000	14.562972
1368.000000	14.696368
1367.000000	14.822830
1366.000000	14.926090
1365.000000	15.001523
1364.000000	15.076402
1363.000000	15.174855
1362.000000	15.229858
1361.000000	15.205638
1360.000000	15.227270
1359.000000	15.271550
1358.000000	15.322579
1357.000000	15.416964
1356.000000	15.534459
1355.000000	15.709824
1354.000000	15.926512
1353.000000	16.153830
1352.000000	16.432639
1351.000000	16.686211
1350.000000	16.904193
1349.000000	17.097122
1348.000000	17.279605
1347.000000	17.437868
1346.000000	17.589105
1345.000000	17.734981
1344.000000	17.888714
1343.000000	18.036716
1342.000000	18.138589
1341.000000	18.259227
1340.000000	18.388648
1339.000000	18.500597
1338.000000	18.611344
1337.000000	18.701846
1336.000000	18.786524
1335.000000	18.875640
1334.000000	18.951166
1333.000000	19.025860
1332.000000	19.106563
1331.000000	19.180795
1330.000000	19.256784
1329.000000	19.332865
1328.000000	19.390826
1327.000000	19.451562
1326.000000	19.506658
1325.000000	19.560737
1324.000000	19.613153
1323.000000	19.655399
1322.000000	19.710033
1321.000000	19.751448
1320.000000	19.792863
1319.000000	19.830487
1318.000000	19.874767
1317.000000	19.917384
1316.000000	19.956210
1315.000000	19.991246
1314.000000	20.012416
1313.000000	20.037745
1312.000000	20.065848
1311.000000	20.098296
1310.000000	20.124272
1309.000000	20.146828
1308.000000	20.165225
1307.000000	20.192033
1306.000000	20.201000
1305.000000	20.200538
1304.000000	20.203219
1303.000000	20.207933
1302.000000	20.209412
1301.000000	20.201000
1300.000000	20.200445
1299.000000	20.201462
1298.000000	20.189537
1297.000000	20.174839
1296.000000	20.172528
1295.000000	20.164300
1294.000000	20.145072
1293.000000	20.122238
1292.000000	20.115028
1291.000000	20.098573
1290.000000	20.077403
1289.000000	20.067050
1288.000000	20.035711
1287.000000	20.010105
1286.000000	19.991154
1285.000000	19.961017
1284.000000	19.924317
1283.000000	19.894828
1282.000000	19.867095
1281.000000	19.828361
1280.000000	19.782324
1279.000000	19.753020
1278.000000	19.731665
1277.000000	19.689049
1276.000000	19.664551
1275.000000	19.636911
1274.000000	19.615464
1273.000000	19.594294
1272.000000	19.583201
1271.000000	19.569704
1270.000000	19.525794
1269.000000	19.483547
1268.000000	19.464874
1267.000000	19.439544
1266.000000	19.402105
1265.000000	19.370397
1264.000000	19.343588
1263.000000	19.315762
1262.000000	19.289693
1261.000000	19.266768
1260.000000	19.227294
1259.000000	19.185140
1258.000000	19.146961
1257.000000	19.117934
1256.000000	19.076334
1255.000000	19.046290
1254.000000	19.006355
1253.000000	18.971319
1252.000000	18.922971
1251.000000	18.894868
1250.000000	18.867505
1249.000000	18.821191
1248.000000	18.779036
1247.000000	18.740025
1246.000000	18.686408
1245.000000	18.638430
1244.000000	18.592671
1243.000000	18.521027
1242.000000	18.445316
1241.000000	18.403162
1240.000000	18.350099
1239.000000	18.279842
1238.000000	18.227889
1237.000000	18.167801
1236.000000	18.107250
1235.000000	18.065928
1234.000000	17.977090
1233.000000	17.907480
1232.000000	17.830660
1231.000000	17.768353
1230.000000	17.699668
1229.000000	17.643832
1228.000000	17.563221
1227.000000	17.482426
1226.000000	17.410597
1225.000000	17.344963
1224.000000	17.261024
1223.000000	17.190120
1222.000000	17.105719
1221.000000	17.039345
1220.000000	16.982122
1219.000000	16.909369
1218.000000	16.865644
1217.000000	16.801580
1216.000000	16.728828
1215.000000	16.689632
1214.000000	16.634998
1213.000000	16.597835
1212.000000	16.548933
1211.000000	16.490046
1210.000000	16.464440
1209.000000	16.397695
1208.000000	16.368206
1207.000000	16.352306
1206.000000	16.334187
1205.000000	16.311076
1204.000000	16.305807
1203.000000	16.299243
1202.000000	16.306546
1201.000000	16.286763
1200.000000	16.274746
1199.000000	16.221776
1198.000000	16.173151
1197.000000	16.100120
1196.000000	16.009064
1195.000000	15.882601
1194.000000	15.729515
1193.000000	15.558680
1192.000000	15.365843
1191.000000	15.170695
1190.000000	14.962882
1189.000000	14.801384
1188.000000	14.686754
1187.000000	14.631195
1186.000000	14.632674
1185.000000	14.692763
1184.000000	14.810073
1183.000000	14.970925
1182.000000	15.160803
1181.000000	15.387474
1180.000000	15.621541
1179.000000	15.832497
1178.000000	16.017661
1177.000000	16.179899
1176.000000	16.329934
1175.000000	16.473407
1174.000000	16.616879
1173.000000	16.767284
1172.000000	16.905302
1171.000000	17.069759
1170.000000	17.260007
1169.000000	17.409765
1168.000000	17.587072
1167.000000	17.774177
1166.000000	17.960820
1165.000000	18.140900
1164.000000	18.325694
1163.000000	18.512060
1162.000000	18.681416
1161.000000	18.854932
1160.000000	19.039172
1159.000000	19.193183
1158.000000	19.360598
1157.000000	19.498153
1156.000000	19.624893
1155.000000	19.717614
1154.000000	19.755700
1153.000000	19.776962
1152.000000	19.792216
1151.000000	19.781769
1150.000000	19.794804
1149.000000	19.787316
1148.000000	19.770399
1147.000000	19.796006
1146.000000	19.847034
1145.000000	19.933007
1144.000000	20.067974
1143.000000	20.201555
1142.000000	20.355196
1141.000000	20.528897
1140.000000	20.687067
1139.000000	20.853003
1138.000000	21.043252
1137.000000	21.240341
1136.000000	21.405260
1135.000000	21.556867
1134.000000	21.684901
1133.000000	21.810254
1132.000000	21.953634
1131.000000	22.073163
1130.000000	22.182431
1129.000000	22.256756
1128.000000	22.317491
1127.000000	22.402724
1126.000000	22.437760
1125.000000	22.467989
1124.000000	22.516336
1123.000000	22.518555
1122.000000	22.546750
1121.000000	22.549986
1120.000000	22.577719
1119.000000	22.597964
1118.000000	22.577072
1117.000000	22.591863
1116.000000	22.596023
1115.000000	22.571433
1114.000000	22.579568
1113.000000	22.590938
1112.000000	22.578089
1111.000000	22.577811
1110.000000	22.564592
1109.000000	22.573836
1108.000000	22.581509
1107.000000	22.569399
1106.000000	22.562835
1105.000000	22.565701
1104.000000	22.564222
1103.000000	22.564315
1102.000000	22.543792
1101.000000	22.538893
1100.000000	22.542683
1099.000000	22.542036
1098.000000	22.537506
1097.000000	22.536859
1096.000000	22.540464
1095.000000	22.539447
1094.000000	22.520866
1093.000000	22.514580
1092.000000	22.496369
1091.000000	22.505521
1090.000000	22.517631
1089.000000	22.509681
1088.000000	22.485645
1087.000000	22.449962
1086.000000	22.452088
1085.000000	22.448298
1084.000000	22.437760
1083.000000	22.432583
1082.000000	22.421490
1081.000000	22.410027
1080.000000	22.402631
1079.000000	22.387286
1078.000000	22.371478
1077.000000	22.365192
1076.000000	22.373789
1075.000000	22.376285
1074.000000	22.361217
1073.000000	22.350863
1072.000000	22.348829
1071.000000	22.341619
1070.000000	22.330248
1069.000000	22.308246
1068.000000	22.314995
1067.000000	22.306860
1066.000000	22.300111
1065.000000	22.298540
1064.000000	22.283194
1063.000000	22.267849
1062.000000	22.267294
1061.000000	22.251301
1060.000000	22.229022
1059.000000	22.204710
1058.000000	22.199718
1057.000000	22.198054
1056.000000	22.177716
1055.000000	22.149244
1054.000000	22.131495
1053.000000	22.129461
1052.000000	22.117628
1051.000000	22.094702
1050.000000	22.071869
1049.000000	22.067801
1048.000000	22.059666
1047.000000	22.044413
1046.000000	22.031009
1045.000000	22.020193
1044.000000	22.017882
1043.000000	22.007713
1042.000000	21.998284
1041.000000	21.996065
1040.000000	21.996343
1039.000000	21.990149
1038.000000	21.969719
1037.000000	21.946978
1036.000000	21.927750
1035.000000	21.912589
1034.000000	21.896226
1033.000000	21.878292
1032.000000	21.860358
1031.000000	21.843719
1030.000000	21.817834
1029.000000	21.794724
1028.000000	21.771983
1027.000000	21.757469
1026.000000	21.743140
1025.000000	21.723820
1024.000000	21.720492
1023.000000	21.709768
1022.000000	21.699137
1021.000000	21.693591
1020.000000	21.691834
1019.000000	21.680926
1018.000000	21.680741
1017.000000	21.699507
1016.000000	21.727240
1015.000000	21.739535
1014.000000	21.752569
1013.000000	21.776882
1012.000000	21.803044
1011.000000	21.833920
1010.000000	21.865720
1009.000000	21.894100
1008.000000	21.918228
1007.000000	21.958256
1006.000000	21.986913
1005.000000	22.007066
1004.000000	22.030362
1003.000000	22.060868
1002.000000	22.085920
1001.000000	22.113561
1000.000000	22.138336
999.000000	22.154975
998.000000	22.176330
997.000000	22.197499
996.000000	22.230132
995.000000	22.269975
994.000000	22.298263
993.000000	22.322390
992.000000	22.345778
991.000000	22.369629
990.000000	22.412060
989.000000	22.453383
988.000000	22.472518
987.000000	22.502100
986.000000	22.526875
985.000000	22.543422
984.000000	22.574206
983.000000	22.602309
982.000000	22.616915
981.000000	22.628563
980.000000	22.646219
979.000000	22.673860
978.000000	22.680886
977.000000	22.669330
976.000000	22.703627
975.000000	22.744024
974.000000	22.764547
973.000000	22.799121
972.000000	22.829257
971.000000	22.884169
970.000000	22.915414
969.000000	22.940467
968.000000	22.981696
967.000000	23.005824
966.000000	23.046592
965.000000	23.066744
964.000000	23.085048
963.000000	23.120176
962.000000	23.120269
961.000000	23.128404
960.000000	23.159003
959.000000	23.157986
958.000000	23.176012
957.000000	23.168339
956.000000	23.158356
955.000000	23.148372
954.000000	23.136262
953.000000	23.139682
952.000000	23.131085
951.000000	23.124521
950.000000	23.129421
949.000000	23.134690
948.000000	23.136631
947.000000	23.170281
946.000000	23.204115
945.000000	23.235916
944.000000	23.267901
943.000000	23.300811
942.000000	23.324384
941.000000	23.366076
940.000000	23.423576
939.000000	23.487824
938.000000	23.490782
937.000000	23.521750
936.000000	23.542550
935.000000	23.559282
934.000000	23.574905
933.000000	23.576477
932.000000	23.572779
931.000000	23.608185
930.000000	23.621959
929.000000	23.663651
928.000000	23.720226
927.000000	23.754893
926.000000	23.780315
925.000000	23.812023
924.000000	23.836428
923.000000	23.887271
922.000000	23.913063
921.000000	23.965479
920.000000	24.002641
919.000000	24.044055
918.000000	24.073637
917.000000	24.078167
916.000000	24.095269
915.000000	24.092403
914.000000	24.097765
913.000000	24.082419
912.000000	24.062544
911.000000	24.058107
910.000000	24.047938
909.000000	24.070772
908.000000	24.019281
907.000000	24.022793
906.000000	24.035643
905.000000	24.048400
904.000000	24.109413
903.000000	24.115699
902.000000	24.141860
901.000000	24.204630
900.000000	24.239111
899.000000	24.248355
898.000000	24.274239
897.000000	24.313250
896.000000	24.334697
895.000000	24.367053
894.000000	24.363632
893.000000	24.369826
892.000000	24.366775
891.000000	24.350043
890.000000	24.354018
889.000000	24.343849
888.000000	24.321108
887.000000	24.302804
886.000000	24.309368
885.000000	24.283669
884.000000	24.282374
883.000000	24.270634
882.000000	24.249742
881.000000	24.255196
880.000000	24.280526
879.000000	24.290047
878.000000	24.290047
877.000000	24.285887
876.000000	24.296333
875.000000	24.305947
874.000000	24.309460
873.000000	24.294947
872.000000	24.290325
871.000000	24.331739
870.000000	24.338672
869.000000	24.350505
868.000000	24.373893
867.000000	24.373154
866.000000	24.367977
865.000000	24.378793
864.000000	24.397189
863.000000	24.384432
862.000000	24.361968
861.000000	24.341908
860.000000	24.316578
859.000000	24.307981
858.000000	24.069200
857.000000	24.187500
856.000000	23.866200
855.000000	24.153900
854.000000	24.317600
853.000000	24.280700
852.000000	24.279200
851.000000	24.095800
850.000000	24.206900
849.000000	24.112200
848.000000	24.332500
847.000000	24.193100
846.000000	24.226800
845.000000	24.321200
844.000000	24.174700
843.000000	24.198600
842.000000	24.177900
841.000000	24.224800
840.000000	24.340300
839.000000	24.302700
838.000000	24.251200
837.000000	24.393800
836.000000	24.470500
835.000000	24.477600
834.000000	24.472100
833.000000	24.528600
832.000000	24.539800
831.000000	24.443900
830.000000	24.445000
829.000000	24.411800
828.000000	24.478500
827.000000	24.533800
826.000000	24.489600
825.000000	24.420800
824.000000	24.392600
823.000000	24.406800
822.000000	24.303100
821.000000	24.282200
820.000000	24.337300
819.000000	24.398500
818.000000	24.405500
817.000000	24.355300
816.000000	24.373800
815.000000	24.375900
814.000000	24.345500
813.000000	24.371900
812.000000	24.346800
811.000000	24.337500
810.000000	24.282400
809.000000	24.269700
808.000000	24.187600
807.000000	24.061800
806.000000	23.960100
805.000000	23.984000
804.000000	23.995500
803.000000	23.925600
802.000000	23.898600
801.000000	23.899200
800.000000	23.895400
799.000000	23.808800
798.000000	23.887900
797.000000	23.839300
796.000000	23.838100
795.000000	23.906000
794.000000	23.939400
793.000000	24.011100
792.000000	24.012800
791.000000	24.013100
790.000000	24.088900
789.000000	24.099400
788.000000	24.154100
787.000000	24.147400
786.000000	24.148200
785.000000	24.085800
784.000000	24.042800
783.000000	24.054700
782.000000	24.037800
781.000000	24.022200
780.000000	23.951400
779.000000	23.961400
778.000000	23.945300
777.000000	23.895900
776.000000	23.878000
775.000000	23.877400
774.000000	23.869300
773.000000	23.848200
772.000000	23.857000
771.000000	23.871600
770.000000	23.841100
769.000000	23.825800
768.000000	23.816900
767.000000	23.804400
766.000000	23.795300
765.000000	23.771700
764.000000	23.693600
763.000000	23.614000
762.000000	23.598800
761.000000	23.567800
760.000000	23.490900
759.000000	23.412200
758.000000	23.316200
757.000000	23.222200
756.000000	23.145500
755.000000	23.087700
754.000000	23.048400
753.000000	22.951900
752.000000	22.864000
751.000000	22.865900
750.000000	22.819500
749.000000	22.779000
748.000000	22.752300
747.000000	22.710300
746.000000	22.631600
745.000000	22.535000
744.000000	22.467500
743.000000	22.409000
742.000000	22.340300
741.000000	22.253000
740.000000	22.152600
739.000000	22.089600
738.000000	22.026600
737.000000	21.930000
736.000000	21.853400
735.000000	21.811100
734.000000	21.780700
733.000000	21.751000
732.000000	21.753400
731.000000	21.775600
730.000000	21.776700
729.000000	21.796200
728.000000	21.845000
727.000000	21.875700
726.000000	21.918400
725.000000	21.980600
724.000000	22.012900
723.000000	22.048400
722.000000	22.077100
721.000000	22.104200
720.000000	22.114400
719.000000	22.099200
718.000000	22.050600
717.000000	22.017100
716.000000	21.985500
715.000000	21.941800
714.000000	21.922000
713.000000	21.930200
712.000000	21.923700
711.000000	21.909400
710.000000	21.922600
709.000000	21.943400
708.000000	21.975600
707.000000	21.971100
706.000000	22.013900
705.000000	22.045000
704.000000	22.080800
703.000000	22.065900
702.000000	22.037700
701.000000	22.022400
700.000000	22.025700
699.000000	22.010300
698.000000	21.917600
697.000000	21.821700
696.000000	21.724800
695.000000	21.615900
694.000000	21.487900
693.000000	21.331300
692.000000	21.161300
691.000000	21.003900
690.000000	20.827800
689.000000	20.655500
688.000000	20.503400
687.000000	20.294100
686.000000	20.104000
685.000000	19.965500
684.000000	19.816800
683.000000	19.654300
682.000000	19.501100
681.000000	19.306800
680.000000	19.114600
679.000000	18.895800
678.000000	18.697600
677.000000	18.480900
676.000000	18.250500
675.000000	17.998500
674.000000	17.728000
673.000000	17.450100
672.000000	17.135900
671.000000	16.839500
670.000000	16.550000
669.000000	16.255000
668.000000	15.982400
667.000000	15.707500
666.000000	15.477800
665.000000	15.279500
664.000000	15.121100
663.000000	15.018000
662.000000	14.965900
661.000000	14.963200
660.000000	14.985800
659.000000	15.058900
658.000000	15.199500
657.000000	15.381100
656.000000	15.578700
655.000000	15.822300
654.000000	16.093100
653.000000	16.391100
652.000000	16.652300
651.000000	16.938500
650.000000	17.214000
649.000000	17.494500
648.000000	17.764800
647.000000	18.036000
646.000000	18.273700
645.000000	18.504800
644.000000	18.768700
643.000000	18.978400
642.000000	19.234400
641.000000	19.461600
640.000000	19.725200
639.000000	20.000900
638.000000	20.289200
637.000000	20.534400
636.000000	20.841400
635.000000	21.098400
634.000000	21.361700
633.000000	21.623200
632.000000	21.881800
631.000000	22.118800
630.000000	22.313700
629.000000	22.525400
628.000000	22.733900
627.000000	22.884600
626.000000	23.020900
625.000000	23.167200
624.000000	23.270700
623.000000	23.352500
622.000000	23.443400
621.000000	23.517800
620.000000	23.571100
619.000000	23.634800
618.000000	23.680100
617.000000	23.703900
616.000000	23.740800
615.000000	23.755100
614.000000	23.809300
613.000000	23.848800
612.000000	23.862100
611.000000	23.908800
610.000000	23.982400
609.000000	24.029300
608.000000	24.101500
607.000000	24.134600
606.000000	24.189200
605.000000	24.246800
604.000000	24.302200
603.000000	24.347900
602.000000	24.366800
601.000000	24.397300
600.000000	24.414900
599.000000	24.441700
598.000000	24.457900
597.000000	24.447900
596.000000	24.466600
595.000000	24.471300
594.000000	24.421500
593.000000	24.414600
592.000000	24.359000
591.000000	24.334300
590.000000	24.295900
589.000000	24.206800
588.000000	24.153800
587.000000	24.071700
586.000000	23.968300
585.000000	23.880000
584.000000	23.787900
583.000000	23.677800
582.000000	23.582200
581.000000	23.467100
580.000000	23.388200
579.000000	23.309200
578.000000	23.200500
577.000000	23.113900
576.000000	23.037800
575.000000	22.980000
574.000000	22.864900
573.000000	22.789600
572.000000	22.722100
571.000000	22.691800
570.000000	22.634800
569.000000	22.539000
568.000000	22.449300
567.000000	22.376500
566.000000	22.291600
565.000000	22.164100
564.000000	22.033700
563.000000	21.894800
562.000000	21.762500
561.000000	21.594700
560.000000	21.463100
559.000000	21.716500
558.000000	21.493100
557.000000	21.237800
556.000000	20.947100
555.000000	20.650300
554.000000	20.352400
553.000000	20.041600
552.000000	19.699000
551.000000	19.336600
550.000000	18.996000
549.000000	18.613300
548.000000	18.233000
547.000000	17.863100
546.000000	17.492300
545.000000	17.101100
544.000000	16.712100
543.000000	16.300900
542.000000	15.913100
541.000000	15.527600
540.000000	15.134100
539.000000	14.758800
538.000000	14.407400
537.000000	14.057500
536.000000	13.730000
535.000000	13.415600
534.000000	13.108800
533.000000	12.819800
532.000000	12.539700
531.000000	12.265900
530.000000	12.009900
529.000000	11.781500
528.000000	11.560900
527.000000	11.363900
526.000000	11.156900
525.000000	10.966200
524.000000	10.786800
523.000000	10.611700
522.000000	10.454500
521.000000	10.304000
520.000000	10.161700
519.000000	10.043900
518.000000	9.908900
517.000000	9.782000
516.000000	9.665000
515.000000	9.567300
514.000000	9.463600
513.000000	9.356300
512.000000	9.244300
511.000000	9.127800
510.000000	9.007500
509.000000	8.878200
508.000000	8.743900
507.000000	8.617300
506.000000	8.491400
505.000000	8.369300
504.000000	8.231600
503.000000	8.096200
502.000000	7.983200
501.000000	7.868900
500.000000	7.758500
499.000000	7.670300
498.000000	7.591000
497.000000	7.521900
496.000000	7.458800
495.000000	7.415500
494.000000	7.380400
493.000000	7.357400
492.000000	7.345000
491.000000	7.343900
490.000000	7.336500
489.000000	7.364500
488.000000	7.397700
487.000000	7.435900
486.000000	7.471700
485.000000	7.519700
484.000000	7.557800
483.000000	7.604300
482.000000	7.669000
481.000000	7.752000
480.000000	7.838500
479.000000	7.891200
478.000000	7.922300
477.000000	7.959100
476.000000	7.994600
475.000000	8.019600
474.000000	8.041000
473.000000	8.067900
472.000000	8.088000
471.000000	8.091300
470.000000	8.095600
469.000000	8.101400
468.000000	8.096700
467.000000	8.078400
466.000000	8.057000
465.000000	8.036900
464.000000	8.013500
463.000000	7.979500
462.000000	7.947900
461.000000	7.907100
460.000000	7.863600
459.000000	7.824100
458.000000	7.774400
457.000000	7.724400
456.000000	7.678300
455.000000	7.614600
454.000000	7.549900
453.000000	7.479200
452.000000	7.400200
451.000000	7.324800
450.000000	7.249200
449.000000	7.167900
448.000000	7.075300
447.000000	6.977100
446.000000	6.874600
445.000000	6.756900
444.000000	6.648100
443.000000	6.547800
442.000000	6.441000
441.000000	6.318900
440.000000	6.188800
439.000000	6.060000
438.000000	5.932900
437.000000	5.800200
436.000000	5.659800
435.000000	5.517700
434.000000	5.378500
433.000000	5.238200
432.000000	5.100200
431.000000	4.963200
430.000000	4.816200
429.000000	4.682800
428.000000	4.549200
427.000000	4.408300
426.000000	4.278200
425.000000	4.144500
424.000000	4.016100
423.000000	3.900600
422.000000	3.783500
421.000000	3.675900
420.000000	3.570200
419.000000	3.469800
418.000000	3.381000
417.000000	3.295600
416.000000	3.214500
415.000000	3.134100
414.000000	3.059300
413.000000	2.989900
412.000000	2.930600
411.000000	2.872500
410.000000	2.814000
409.000000	2.772600
408.000000	2.733000
407.000000	2.680200
406.000000	2.634900
405.000000	2.607000
404.000000	2.577600
403.000000	2.551500
402.000000	2.522800
401.000000	2.497000
400.000000	2.474000
399.000000	2.450200
398.000000	2.433400
397.000000	2.414800
396.000000	2.395000
395.000000	2.382500
394.000000	2.359000
393.000000	2.340700
392.000000	2.334900
391.000000	2.330300
390.000000	2.320900
389.000000	2.306700
388.000000	2.289800
387.000000	2.281500
386.000000	2.267300
385.000000	2.265600
384.000000	2.260500
383.000000	2.248300
382.000000	2.230600
381.000000	2.225200
380.000000	2.222900
379.000000	2.218000
378.000000	2.207800
377.000000	2.191700
376.000000	2.356200
375.000000	2.272000
374.000000	2.366800
373.000000	2.397300
372.000000	2.372100
371.000000	2.408300
370.000000	2.433800
369.000000	2.403400
368.000000	2.491500
367.000000	2.484200
366.000000	2.462400
365.000000	2.485200
364.000000	2.428100
363.000000	2.365300
362.000000	2.387600
361.000000	2.442400
360.000000	2.419700
359.000000	2.362400
358.000000	2.377400
357.000000	2.352000
356.000000	2.331600
355.000000	2.372500
354.000000	2.334200
353.000000	2.304100
352.000000	2.305800
351.000000	2.344200
350.000000	2.380500
349.000000	2.323100
348.000000	2.348000
347.000000	2.342600
346.000000	2.376500
345.000000	2.368100
344.000000	2.335700
343.000000	2.440500
342.000000	2.356400
341.000000	2.317200
340.000000	2.308100
339.000000	2.304600
338.000000	2.286900
337.000000	2.366600
336.000000	2.406600
335.000000	2.422200
334.000000	2.349800
333.000000	2.304900
332.000000	2.350400
331.000000	2.334600
330.000000	2.443400
329.000000	2.434000
328.000000	2.422700
327.000000	2.356600
326.000000	2.307600
325.000000	2.617700
324.000000	2.549600
323.000000	2.467500
322.000000	2.447700
321.000000	2.727400
320.000000	2.727200
319.000000	2.455500
318.000000	2.622900
317.000000	2.784600
316.000000	2.201100
315.000000	2.138700
314.000000	2.153900
313.000000	2.141300
312.000000	2.122000
311.000000	2.084700
310.000000	2.123300
309.000000	2.129500
308.000000	2.122100
307.000000	2.073900
306.000000	2.123600
305.000000	2.142000
304.000000	2.115100
303.000000	2.107500
302.000000	2.108900
301.000000	2.111600
300.000000	2.064300
299.000000	2.090800
298.000000	2.082100
297.000000	2.133100
296.000000	2.089900
295.000000	2.136000
294.000000	2.139000
293.000000	2.142100
292.000000	2.117500
291.000000	2.150700
290.000000	2.108600
289.000000	2.132600
288.000000	2.122400
287.000000	2.120600
286.000000	2.145500
285.000000	2.158600
284.000000	2.133200
283.000000	2.139500
282.000000	2.149900
281.000000	2.155700
280.000000	2.151000
279.000000	2.125500
278.000000	2.117900
277.000000	2.191800
276.000000	2.143300
275.000000	2.119800
274.000000	2.141100
273.000000	2.180200
272.000000	2.133200
271.000000	2.141100
270.000000	2.122800
269.000000	2.117900
268.000000	2.142500
267.000000	2.175100
266.000000	2.169200
265.000000	2.194300
264.000000	2.200900
263.000000	2.200100
262.000000	2.177200
261.000000	2.199100
260.000000	2.196400
259.000000	2.226400
258.000000	2.173600
257.000000	2.223300
256.000000	2.259600
255.000000	2.238200
254.000000	2.195900
253.000000	2.218000
252.000000	2.206100
251.000000	2.250100
250.000000	2.241000
