PE UV       SUBTECH     SPECTRUM    ASCII       PEDS        4.00        
   -1
CICIMAUCR0112-2.Sample.ASC
24/04/04
15:29:38.00
24/04/04
15:29:38.00
Vinicio Soto Monge
C. resplendens
250,000000
1
Lambda 1050
1050L1511233
PerkinElmer UV WinLab 6.3.2.0749 / 2.02.05 Lambda 900 UV/VIS/NIR, Aug  7 2015 09:38:08

0
0
3350/servo 860,8/2
0
0
UV/VIS
1
1
1
DoubleDePol,CommonBeamDepol,RBeamAtt,SBeamAtt,60mm sphere, WB InGaAs Detector
0
0
0
0
Program
Program
3350/servo 860,8/2
3350/0,2 860,8/0,2
3350/0,2 860,8/0,2
0
15.00
 
 
 
0
 
860,8
319,2
860,8
Front
100
on
S:100 R:100
0
0
0
0
 
0
 
 
 
0
 
 
0
0
0
0
0
 
 
 
 
0
0


0
0
#HDR
-1
-1
#GR
nm
%R
1.0
0.0
2500,000000
-1,000000
2251
8
62,626100
4,604700
#DATA
2500.000000	4.449618
2499.000000	4.554052
2498.000000	4.502887
2497.000000	4.426474
2496.000000	4.520771
2495.000000	4.403713
2494.000000	4.507764
2493.000000	4.449236
2492.000000	4.525074
2491.000000	4.432786
2490.000000	4.428005
2489.000000	4.483282
2488.000000	4.469128
2487.000000	4.457651
2486.000000	4.457651
2485.000000	4.488637
2484.000000	4.472379
2483.000000	4.496001
2482.000000	4.524787
2481.000000	4.502791
2480.000000	4.485194
2479.000000	4.446462
2478.000000	4.458130
2477.000000	4.459851
2476.000000	4.457556
2475.000000	4.504800
2474.000000	4.479456
2473.000000	4.487777
2472.000000	4.502600
2471.000000	4.477544
2470.000000	4.477830
2469.000000	4.486246
2468.000000	4.504417
2467.000000	4.461381
2466.000000	4.477830
2465.000000	4.478022
2464.000000	4.501739
2463.000000	4.530047
2462.000000	4.509294
2461.000000	4.535785
2460.000000	4.534255
2459.000000	4.542384
2458.000000	4.550991
2457.000000	4.568206
2456.000000	4.571362
2455.000000	4.557399
2454.000000	4.587715
2453.000000	4.602826
2452.000000	4.612867
2451.000000	4.620709
2450.000000	4.636394
2449.000000	4.668623
2448.000000	4.686124
2447.000000	4.698939
2446.000000	4.699800
2445.000000	4.721031
2444.000000	4.723804
2443.000000	4.739488
2442.000000	4.768657
2441.000000	4.783672
2440.000000	4.799356
2439.000000	4.808059
2438.000000	4.825273
2437.000000	4.813510
2436.000000	4.835219
2435.000000	4.863623
2434.000000	4.858458
2433.000000	4.871369
2432.000000	4.901399
2431.000000	4.903120
2430.000000	4.912397
2429.000000	4.919761
2428.000000	4.945869
2427.000000	4.941661
2426.000000	4.941757
2425.000000	4.951798
2424.000000	4.987470
2423.000000	4.985271
2422.000000	4.990339
2421.000000	4.993400
2420.000000	5.019126
2419.000000	5.050685
2418.000000	5.083966
2417.000000	5.079663
2416.000000	5.087409
2415.000000	5.102519
2414.000000	5.097738
2413.000000	5.106249
2412.000000	5.122698
2411.000000	5.142782
2410.000000	5.160283
2409.000000	5.165160
2408.000000	5.165256
2407.000000	5.173959
2406.000000	5.179793
2405.000000	5.197772
2404.000000	5.212213
2403.000000	5.213361
2402.000000	5.228758
2401.000000	5.221011
2400.000000	5.240712
2399.000000	5.244825
2398.000000	5.255440
2397.000000	5.262995
2396.000000	5.268255
2395.000000	5.278393
2394.000000	5.280114
2393.000000	5.285948
2392.000000	5.299241
2391.000000	5.308900
2390.000000	5.309665
2389.000000	5.318942
2388.000000	5.330705
2387.000000	5.334435
2386.000000	5.321811
2385.000000	5.317125
2384.000000	5.329270
2383.000000	5.323628
2382.000000	5.324776
2381.000000	5.325349
2380.000000	5.331661
2379.000000	5.335391
2378.000000	5.332426
2377.000000	5.322289
2376.000000	5.314638
2375.000000	5.328792
2374.000000	5.328218
2373.000000	5.330514
2372.000000	5.330322
2371.000000	5.315021
2370.000000	5.308900
2369.000000	5.309952
2368.000000	5.309761
2367.000000	5.296276
2366.000000	5.293885
2365.000000	5.301249
2364.000000	5.303258
2363.000000	5.287382
2362.000000	5.272272
2361.000000	5.262613
2360.000000	5.259648
2359.000000	5.255918
2358.000000	5.253814
2357.000000	5.254962
2356.000000	5.250945
2355.000000	5.239469
2354.000000	5.245398
2353.000000	5.240999
2352.000000	5.226558
2351.000000	5.220246
2350.000000	5.223211
2349.000000	5.223211
2348.000000	5.212787
2347.000000	5.226558
2346.000000	5.232870
2345.000000	5.227228
2344.000000	5.229045
2343.000000	5.230288
2342.000000	5.226654
2341.000000	5.229810
2340.000000	5.225698
2339.000000	5.219864
2338.000000	5.210874
2337.000000	5.209440
2336.000000	5.220246
2335.000000	5.216421
2334.000000	5.199398
2333.000000	5.177880
2332.000000	5.170803
2331.000000	5.164491
2330.000000	5.149668
2329.000000	5.134844
2328.000000	5.133792
2327.000000	5.133505
2326.000000	5.114474
2325.000000	5.096303
2324.000000	5.076985
2323.000000	5.068569
2322.000000	5.052502
2321.000000	5.048868
2320.000000	5.031558
2319.000000	5.010518
2318.000000	4.979150
2317.000000	4.962796
2316.000000	4.952181
2315.000000	4.945869
2314.000000	4.938123
2313.000000	4.933532
2312.000000	4.910962
2311.000000	4.890783
2310.000000	4.904459
2309.000000	4.886862
2308.000000	4.875673
2307.000000	4.870508
2306.000000	4.870317
2305.000000	4.864770
2304.000000	4.856259
2303.000000	4.851668
2302.000000	4.849182
2301.000000	4.840957
2300.000000	4.839810
2299.000000	4.833115
2298.000000	4.821448
2297.000000	4.835219
2296.000000	4.818483
2295.000000	4.834263
2294.000000	4.819439
2293.000000	4.815614
2292.000000	4.812458
2291.000000	4.791801
2290.000000	4.788932
2289.000000	4.786350
2288.000000	4.763875
2287.000000	4.751730
2286.000000	4.745035
2285.000000	4.734993
2284.000000	4.720266
2283.000000	4.702191
2282.000000	4.702669
2281.000000	4.695783
2280.000000	4.672065
2279.000000	4.658103
2278.000000	4.648444
2277.000000	4.626256
2276.000000	4.610763
2275.000000	4.595270
2274.000000	4.585994
2273.000000	4.556825
2272.000000	4.551661
2271.000000	4.557399
2270.000000	4.537507
2269.000000	4.527848
2268.000000	4.530239
2267.000000	4.522779
2266.000000	4.503461
2265.000000	4.505660
2264.000000	4.510729
2263.000000	4.494088
2262.000000	4.518571
2261.000000	4.533299
2260.000000	4.519910
2259.000000	4.517041
2258.000000	4.518954
2257.000000	4.541237
2256.000000	4.525074
2255.000000	4.545445
2254.000000	4.557112
2253.000000	4.570597
2252.000000	4.583985
2251.000000	4.602539
2250.000000	4.609520
2249.000000	4.629603
2248.000000	4.655329
2247.000000	4.668527
2246.000000	4.688323
2245.000000	4.693870
2244.000000	4.701712
2243.000000	4.710320
2242.000000	4.723135
2241.000000	4.715293
2240.000000	4.737097
2239.000000	4.760432
2238.000000	4.759285
2237.000000	4.782237
2236.000000	4.787497
2235.000000	4.786541
2234.000000	4.802512
2233.000000	4.796296
2232.000000	4.795052
2231.000000	4.788358
2230.000000	4.800408
2229.000000	4.781090
2228.000000	4.769326
2227.000000	4.779081
2226.000000	4.756798
2225.000000	4.739297
2224.000000	4.725717
2223.000000	4.712997
2222.000000	4.660494
2221.000000	4.653130
2220.000000	4.633811
2219.000000	4.608851
2218.000000	4.576048
2217.000000	4.570118
2216.000000	4.557495
2215.000000	4.540854
2214.000000	4.525457
2213.000000	4.516850
2212.000000	4.515319
2211.000000	4.503748
2210.000000	4.521918
2209.000000	4.529665
2208.000000	4.573561
2207.000000	4.616884
2206.000000	4.634003
2205.000000	4.695400
2204.000000	4.733081
2203.000000	4.799260
2202.000000	4.867066
2201.000000	4.933341
2200.000000	5.030697
2199.000000	5.108927
2198.000000	5.178263
2197.000000	5.263665
2196.000000	5.335774
2195.000000	5.411708
2194.000000	5.480852
2193.000000	5.562333
2192.000000	5.615698
2191.000000	5.672218
2190.000000	5.743180
2189.000000	5.783155
2188.000000	5.844457
2187.000000	5.890171
2186.000000	5.911976
2185.000000	5.944683
2184.000000	5.976625
2183.000000	6.003498
2182.000000	6.027407
2181.000000	6.057437
2180.000000	6.082302
2179.000000	6.115392
2178.000000	6.113766
2177.000000	6.138440
2176.000000	6.146760
2175.000000	6.187692
2174.000000	6.172677
2173.000000	6.180232
2172.000000	6.195821
2171.000000	6.204428
2170.000000	6.211409
2169.000000	6.218678
2168.000000	6.216765
2167.000000	6.229006
2166.000000	6.255497
2165.000000	6.261235
2164.000000	6.270703
2163.000000	6.254828
2162.000000	6.277015
2161.000000	6.304367
2160.000000	6.312209
2159.000000	6.316130
2158.000000	6.333249
2157.000000	6.344534
2156.000000	6.372842
2155.000000	6.371407
2154.000000	6.391586
2153.000000	6.403062
2152.000000	6.439882
2151.000000	6.453558
2150.000000	6.457957
2149.000000	6.460635
2148.000000	6.464843
2147.000000	6.485882
2146.000000	6.503670
2145.000000	6.505009
2144.000000	6.507113
2143.000000	6.525380
2142.000000	6.532361
2141.000000	6.527866
2140.000000	6.541064
2139.000000	6.545654
2138.000000	6.539438
2137.000000	6.539056
2136.000000	6.563156
2135.000000	6.573580
2134.000000	6.568989
2133.000000	6.567650
2132.000000	6.579127
2131.000000	6.593185
2130.000000	6.596437
2129.000000	6.589264
2128.000000	6.599593
2127.000000	6.614033
2126.000000	6.613364
2125.000000	6.624649
2124.000000	6.615851
2123.000000	6.599975
2122.000000	6.597680
2121.000000	6.598062
2120.000000	6.601410
2119.000000	6.612503
2118.000000	6.606478
2117.000000	6.592802
2116.000000	6.585439
2115.000000	6.588403
2114.000000	6.605235
2113.000000	6.599975
2112.000000	6.581518
2111.000000	6.569850
2110.000000	6.562104
2109.000000	6.568607
2108.000000	6.563921
2107.000000	6.561147
2106.000000	6.572241
2105.000000	6.554644
2104.000000	6.550723
2103.000000	6.557609
2102.000000	6.554261
2101.000000	6.551871
2100.000000	6.551488
2099.000000	6.548810
2098.000000	6.534848
2097.000000	6.538386
2096.000000	6.542498
2095.000000	6.536473
2094.000000	6.526719
2093.000000	6.517633
2092.000000	6.528823
2091.000000	6.529970
2090.000000	6.539247
2089.000000	6.541255
2088.000000	6.530831
2087.000000	6.536378
2086.000000	6.535134
2085.000000	6.536665
2084.000000	6.534943
2083.000000	6.538769
2082.000000	6.539629
2081.000000	6.550054
2080.000000	6.555696
2079.000000	6.547854
2078.000000	6.550436
2077.000000	6.554357
2076.000000	6.556270
2075.000000	6.555983
2074.000000	6.558278
2073.000000	6.564877
2072.000000	6.556174
2071.000000	6.563251
2070.000000	6.575684
2069.000000	6.580179
2068.000000	6.562964
2067.000000	6.556748
2066.000000	6.566407
2065.000000	6.580561
2064.000000	6.594620
2063.000000	6.605522
2062.000000	6.598062
2061.000000	6.606000
2060.000000	6.606478
2059.000000	6.614894
2058.000000	6.635743
2057.000000	6.645115
2056.000000	6.651427
2055.000000	6.673519
2054.000000	6.677631
2053.000000	6.680787
2052.000000	6.702783
2051.000000	6.732812
2050.000000	6.753661
2049.000000	6.771927
2048.000000	6.796505
2047.000000	6.813528
2046.000000	6.847670
2045.000000	6.876265
2044.000000	6.898166
2043.000000	6.933359
2042.000000	6.975534
2041.000000	7.006425
2040.000000	7.037410
2039.000000	7.058546
2038.000000	7.093548
2037.000000	7.134193
2036.000000	7.175699
2035.000000	7.202955
2034.000000	7.224090
2033.000000	7.252398
2032.000000	7.278602
2031.000000	7.339522
2030.000000	7.359127
2029.000000	7.368595
2028.000000	7.402067
2027.000000	7.425020
2026.000000	7.440991
2025.000000	7.459257
2024.000000	7.485079
2023.000000	7.523811
2022.000000	7.535670
2021.000000	7.570290
2020.000000	7.586261
2019.000000	7.601754
2018.000000	7.632644
2017.000000	7.657987
2016.000000	7.673480
2015.000000	7.685721
2014.000000	7.706379
2013.000000	7.723975
2012.000000	7.744059
2011.000000	7.757352
2010.000000	7.771124
2009.000000	7.777818
2008.000000	7.808995
2007.000000	7.803448
2006.000000	7.802970
2005.000000	7.804978
2004.000000	7.821045
2003.000000	7.825253
2002.000000	7.819897
2001.000000	7.830417
2000.000000	7.796945
1999.000000	7.794554
1998.000000	7.794554
1997.000000	7.774375
1996.000000	7.796562
1995.000000	7.757256
1994.000000	7.766055
1993.000000	7.758404
1992.000000	7.764716
1991.000000	7.725123
1990.000000	7.712786
1989.000000	7.702457
1988.000000	7.690503
1987.000000	7.665160
1986.000000	7.630635
1985.000000	7.642494
1984.000000	7.624037
1983.000000	7.600989
1982.000000	7.590756
1981.000000	7.546285
1980.000000	7.538634
1979.000000	7.507553
1978.000000	7.500093
1977.000000	7.497033
1976.000000	7.463178
1975.000000	7.425020
1974.000000	7.393747
1973.000000	7.394512
1972.000000	7.340478
1971.000000	7.340574
1970.000000	7.322499
1969.000000	7.312935
1968.000000	7.287114
1967.000000	7.273056
1966.000000	7.259762
1965.000000	7.236905
1964.000000	7.223803
1963.000000	7.199225
1962.000000	7.181341
1961.000000	7.165275
1960.000000	7.161162
1959.000000	7.134480
1958.000000	7.114875
1957.000000	7.086280
1956.000000	7.080446
1955.000000	7.055581
1954.000000	7.062180
1953.000000	7.047452
1952.000000	7.025073
1951.000000	7.023639
1950.000000	7.010537
1949.000000	6.982611
1948.000000	6.976586
1947.000000	6.964823
1946.000000	6.960233
1945.000000	6.940723
1944.000000	6.944740
1943.000000	6.935368
1942.000000	6.924274
1941.000000	6.921692
1940.000000	6.939767
1939.000000	6.917675
1938.000000	6.916814
1937.000000	6.926952
1936.000000	6.938715
1935.000000	6.941584
1934.000000	6.945888
1933.000000	6.934794
1932.000000	6.951243
1931.000000	6.983185
1930.000000	7.001547
1929.000000	7.016371
1928.000000	7.069639
1927.000000	7.077195
1926.000000	7.094887
1925.000000	7.127881
1924.000000	7.159632
1923.000000	7.188131
1922.000000	7.221699
1921.000000	7.261101
1920.000000	7.314561
1919.000000	7.368595
1918.000000	7.427315
1917.000000	7.472264
1916.000000	7.493686
1915.000000	7.548485
1914.000000	7.612465
1913.000000	7.699875
1912.000000	7.735260
1911.000000	7.817889
1910.000000	7.865802
1909.000000	7.918689
1908.000000	7.975113
1907.000000	8.061472
1906.000000	8.144483
1905.000000	8.231033
1904.000000	8.330111
1903.000000	8.402794
1902.000000	8.480163
1901.000000	8.547490
1900.000000	8.640830
1899.000000	8.765634
1898.000000	8.832770
1897.000000	8.921137
1896.000000	9.010938
1895.000000	9.086681
1894.000000	9.180690
1893.000000	9.278238
1892.000000	9.368614
1891.000000	9.484906
1890.000000	9.585514
1889.000000	9.678567
1888.000000	9.788452
1887.000000	9.904171
1886.000000	10.041216
1885.000000	10.198918
1884.000000	10.388563
1883.000000	10.592170
1882.000000	10.791761
1881.000000	11.041082
1880.000000	11.281413
1879.000000	11.516388
1878.000000	11.743044
1877.000000	11.968360
1876.000000	12.190521
1875.000000	12.382843
1874.000000	12.583486
1873.000000	12.765384
1872.000000	12.898699
1871.000000	13.029146
1870.000000	13.145438
1869.000000	13.239543
1868.000000	13.320737
1867.000000	13.375441
1866.000000	13.408531
1865.000000	13.430622
1864.000000	13.449271
1863.000000	13.446402
1862.000000	13.463999
1861.000000	13.492211
1860.000000	13.475284
1859.000000	13.442672
1858.000000	13.408913
1857.000000	13.376301
1856.000000	13.341586
1855.000000	13.283918
1854.000000	13.231605
1853.000000	13.173937
1852.000000	13.098673
1851.000000	13.033258
1850.000000	12.978842
1849.000000	12.925573
1848.000000	12.870009
1847.000000	12.789484
1846.000000	12.705421
1845.000000	12.647944
1844.000000	12.596875
1843.000000	12.571723
1842.000000	12.551257
1841.000000	12.524383
1840.000000	12.487851
1839.000000	12.444719
1838.000000	12.402257
1837.000000	12.364099
1836.000000	12.317524
1835.000000	12.251058
1834.000000	12.180192
1833.000000	12.116021
1832.000000	12.060553
1831.000000	12.007380
1830.000000	11.933932
1829.000000	11.862301
1828.000000	11.790001
1827.000000	11.725064
1826.000000	11.675812
1825.000000	11.617666
1824.000000	11.562867
1823.000000	11.549861
1822.000000	11.555312
1821.000000	11.519831
1820.000000	11.496018
1819.000000	11.475265
1818.000000	11.441889
1817.000000	11.430221
1816.000000	11.434812
1815.000000	11.428787
1814.000000	11.404113
1813.000000	11.390820
1812.000000	11.367963
1811.000000	11.342906
1810.000000	11.329039
1809.000000	11.308860
1808.000000	11.271084
1807.000000	11.243350
1806.000000	11.219537
1805.000000	11.171815
1804.000000	11.132509
1803.000000	11.099228
1802.000000	11.075128
1801.000000	11.050071
1800.000000	11.005505
1799.000000	10.966008
1798.000000	10.936074
1797.000000	10.901263
1796.000000	10.873911
1795.000000	10.847516
1794.000000	10.815574
1793.000000	10.781050
1792.000000	10.731797
1791.000000	10.688666
1790.000000	10.655385
1789.000000	10.624686
1788.000000	10.571322
1787.000000	10.521400
1786.000000	10.483433
1785.000000	10.439154
1784.000000	10.387033
1783.000000	10.325730
1782.000000	10.276478
1781.000000	10.240041
1780.000000	10.187633
1779.000000	10.135608
1778.000000	10.082148
1777.000000	10.024575
1776.000000	9.959639
1775.000000	9.886669
1774.000000	9.818099
1773.000000	9.749529
1772.000000	9.651789
1771.000000	9.583506
1770.000000	9.520195
1769.000000	9.456311
1768.000000	9.400556
1767.000000	9.342696
1766.000000	9.297365
1765.000000	9.266380
1764.000000	9.247539
1763.000000	9.224013
1762.000000	9.237498
1761.000000	9.269153
1760.000000	9.312954
1759.000000	9.335428
1758.000000	9.386976
1757.000000	9.424465
1756.000000	9.457363
1755.000000	9.490835
1754.000000	9.490644
1753.000000	9.488444
1752.000000	9.483663
1751.000000	9.477542
1750.000000	9.436993
1749.000000	9.401990
1748.000000	9.365362
1747.000000	9.343366
1746.000000	9.287898
1745.000000	9.227743
1744.000000	9.137368
1743.000000	9.050531
1742.000000	8.970676
1741.000000	8.858304
1740.000000	8.752436
1739.000000	8.659574
1738.000000	8.567860
1737.000000	8.513539
1736.000000	8.450707
1735.000000	8.422208
1734.000000	8.419434
1733.000000	8.391509
1732.000000	8.425746
1731.000000	8.473851
1730.000000	8.528937
1729.000000	8.562218
1728.000000	8.620268
1727.000000	8.648385
1726.000000	8.714086
1725.000000	8.753201
1724.000000	8.794324
1723.000000	8.813834
1722.000000	8.772615
1721.000000	8.785430
1720.000000	8.781414
1719.000000	8.785430
1718.000000	8.777301
1717.000000	8.784856
1716.000000	8.802645
1715.000000	8.835065
1714.000000	8.837647
1713.000000	8.850367
1712.000000	8.887282
1711.000000	8.880109
1710.000000	8.897897
1709.000000	8.878292
1708.000000	8.850367
1707.000000	8.855626
1706.000000	8.829518
1705.000000	8.820241
1704.000000	8.769364
1703.000000	8.740386
1702.000000	8.716095
1701.000000	8.650202
1700.000000	8.592917
1699.000000	8.518321
1698.000000	8.463140
1697.000000	8.413218
1696.000000	8.403081
1695.000000	8.371999
1694.000000	8.411592
1693.000000	8.433684
1692.000000	8.477485
1691.000000	8.550359
1690.000000	8.598942
1689.000000	8.655749
1688.000000	8.682718
1687.000000	8.679658
1686.000000	8.675163
1685.000000	8.657566
1684.000000	8.690560
1683.000000	8.736943
1682.000000	8.877909
1681.000000	9.078456
1680.000000	9.293636
1679.000000	9.569352
1678.000000	9.846885
1677.000000	10.131974
1676.000000	10.402812
1675.000000	10.609193
1674.000000	10.822938
1673.000000	11.020138
1672.000000	11.175640
1671.000000	11.310008
1670.000000	11.397514
1669.000000	11.501661
1668.000000	11.585820
1667.000000	11.691975
1666.000000	11.743522
1665.000000	11.785506
1664.000000	11.825290
1663.000000	11.882002
1662.000000	11.905050
1661.000000	11.941200
1660.000000	11.960901
1659.000000	11.973429
1658.000000	11.986531
1657.000000	11.989974
1656.000000	11.983662
1655.000000	11.989496
1654.000000	11.960423
1653.000000	11.947225
1652.000000	11.930489
1651.000000	11.911936
1650.000000	11.888983
1649.000000	11.871578
1648.000000	11.842122
1647.000000	11.802625
1646.000000	11.782063
1645.000000	11.730994
1644.000000	11.721143
1643.000000	11.678777
1642.000000	11.651138
1641.000000	11.618431
1640.000000	11.588593
1639.000000	11.539915
1638.000000	11.500322
1637.000000	11.463024
1636.000000	11.424483
1635.000000	11.390437
1634.000000	11.334490
1633.000000	11.283899
1632.000000	11.242968
1631.000000	11.211982
1630.000000	11.167224
1629.000000	11.127249
1628.000000	11.077136
1627.000000	11.051123
1626.000000	11.002636
1625.000000	10.953958
1624.000000	10.901167
1623.000000	10.877641
1622.000000	10.847516
1621.000000	10.803333
1620.000000	10.737440
1619.000000	10.704733
1618.000000	10.681876
1617.000000	10.637788
1616.000000	10.598865
1615.000000	10.568070
1614.000000	10.546170
1613.000000	10.508298
1612.000000	10.463445
1611.000000	10.439536
1610.000000	10.405203
1609.000000	10.381008
1608.000000	10.355664
1607.000000	10.332521
1606.000000	10.296179
1605.000000	10.249509
1604.000000	10.242719
1603.000000	10.225983
1602.000000	10.181417
1601.000000	10.149379
1600.000000	10.129105
1599.000000	10.093720
1598.000000	10.078705
1597.000000	10.053266
1596.000000	10.024193
1595.000000	10.009752
1594.000000	9.999041
1593.000000	9.977236
1592.000000	9.950936
1591.000000	9.930375
1590.000000	9.914021
1589.000000	9.910769
1588.000000	9.893842
1587.000000	9.872420
1586.000000	9.865725
1585.000000	9.854536
1584.000000	9.840764
1583.000000	9.826324
1582.000000	9.813222
1581.000000	9.818290
1580.000000	9.807388
1579.000000	9.796964
1578.000000	9.803180
1577.000000	9.812074
1576.000000	9.822116
1575.000000	9.823455
1574.000000	9.820299
1573.000000	9.814943
1572.000000	9.817238
1571.000000	9.838947
1570.000000	9.858361
1569.000000	9.853867
1568.000000	9.853101
1567.000000	9.868499
1566.000000	9.886478
1565.000000	9.899102
1564.000000	9.915360
1563.000000	9.937739
1562.000000	9.949693
1561.000000	9.951606
1560.000000	9.954953
1559.000000	9.973315
1558.000000	9.990338
1557.000000	9.991007
1556.000000	10.002484
1555.000000	10.014151
1554.000000	10.023428
1553.000000	10.020080
1552.000000	10.019124
1551.000000	10.032609
1550.000000	10.050492
1549.000000	10.057569
1548.000000	10.060630
1547.000000	10.061873
1546.000000	10.074497
1545.000000	10.086834
1544.000000	10.090659
1543.000000	10.079852
1542.000000	10.086451
1541.000000	10.090946
1540.000000	10.103666
1539.000000	10.112847
1538.000000	10.125184
1537.000000	10.138190
1536.000000	10.143067
1535.000000	10.149092
1534.000000	10.166211
1533.000000	10.163438
1532.000000	10.166880
1531.000000	10.176348
1530.000000	10.180556
1529.000000	10.176827
1528.000000	10.181417
1527.000000	10.185242
1526.000000	10.175583
1525.000000	10.180461
1524.000000	10.193084
1523.000000	10.209342
1522.000000	10.207908
1521.000000	10.204178
1520.000000	10.271027
1519.000000	10.343423
1518.000000	10.385502
1517.000000	10.402526
1516.000000	10.386746
1515.000000	10.384642
1514.000000	10.388658
1513.000000	10.392675
1512.000000	10.402239
1511.000000	10.396214
1510.000000	10.407116
1509.000000	10.395831
1508.000000	10.384546
1507.000000	10.395257
1506.000000	10.393058
1505.000000	10.401378
1504.000000	10.393345
1503.000000	10.394110
1502.000000	10.393536
1501.000000	10.405203
1500.000000	10.406447
1499.000000	10.409985
1498.000000	10.417158
1497.000000	10.417540
1496.000000	10.425765
1495.000000	10.418497
1494.000000	10.439345
1493.000000	10.436763
1492.000000	10.465262
1491.000000	10.462011
1490.000000	10.464019
1489.000000	10.481233
1488.000000	10.487258
1487.000000	10.523408
1486.000000	10.518435
1485.000000	10.516905
1484.000000	10.534311
1483.000000	10.565584
1482.000000	10.573808
1481.000000	10.583945
1480.000000	10.600586
1479.000000	10.599917
1478.000000	10.633389
1477.000000	10.637884
1476.000000	10.675181
1475.000000	10.708749
1474.000000	10.725007
1473.000000	10.742987
1472.000000	10.760488
1471.000000	10.787744
1470.000000	10.778563
1469.000000	10.804289
1468.000000	10.806393
1467.000000	10.837857
1466.000000	10.849237
1465.000000	10.888448
1464.000000	10.933875
1463.000000	10.956540
1462.000000	10.993647
1461.000000	11.022815
1460.000000	11.075702
1459.000000	11.100567
1458.000000	11.148384
1457.000000	11.212460
1456.000000	11.256930
1455.000000	11.298818
1454.000000	11.361268
1453.000000	11.406121
1452.000000	11.470197
1451.000000	11.539150
1450.000000	11.592897
1449.000000	11.663762
1448.000000	11.712154
1447.000000	11.782254
1446.000000	11.871291
1445.000000	11.967787
1444.000000	12.026028
1443.000000	12.100433
1442.000000	12.168334
1441.000000	12.243981
1440.000000	12.314368
1439.000000	12.405031
1438.000000	12.483451
1437.000000	12.551448
1436.000000	12.618680
1435.000000	12.677686
1434.000000	12.761750
1433.000000	12.803255
1432.000000	12.913905
1431.000000	12.975973
1430.000000	13.036605
1429.000000	13.145725
1428.000000	13.262496
1427.000000	13.367216
1426.000000	13.459313
1425.000000	13.596167
1424.000000	13.756069
1423.000000	13.865667
1422.000000	13.982820
1421.000000	14.111067
1420.000000	14.253946
1419.000000	14.391278
1418.000000	14.496189
1417.000000	14.595172
1416.000000	14.713855
1415.000000	14.833399
1414.000000	14.940797
1413.000000	15.011089
1412.000000	15.097257
1411.000000	15.213931
1410.000000	15.357862
1409.000000	15.525607
1408.000000	15.691438
1407.000000	15.885864
1406.000000	16.106399
1405.000000	16.320335
1404.000000	16.528915
1403.000000	16.769820
1402.000000	16.979357
1401.000000	17.244458
1400.000000	17.433337
1399.000000	17.526199
1398.000000	17.621260
1397.000000	17.713261
1396.000000	17.784127
1395.000000	17.792639
1394.000000	17.772459
1393.000000	17.763661
1392.000000	17.765191
1391.000000	17.761366
1390.000000	17.759071
1389.000000	17.812722
1388.000000	17.895829
1387.000000	18.013651
1386.000000	18.140368
1385.000000	18.369988
1384.000000	18.613380
1383.000000	18.874942
1382.000000	19.139851
1381.000000	19.351970
1380.000000	19.500874
1379.000000	19.681912
1378.000000	19.840379
1377.000000	20.042169
1376.000000	20.318555
1375.000000	20.648305
1374.000000	21.062214
1373.000000	21.529679
1372.000000	22.008524
1371.000000	22.507835
1370.000000	22.945653
1369.000000	23.342252
1368.000000	23.707483
1367.000000	24.019063
1366.000000	24.297361
1365.000000	24.527746
1364.000000	24.745316
1363.000000	24.928171
1362.000000	25.095341
1361.000000	25.221675
1360.000000	25.272840
1359.000000	25.338159
1358.000000	25.428725
1357.000000	25.616840
1356.000000	25.929375
1355.000000	26.400092
1354.000000	27.002211
1353.000000	27.695757
1352.000000	28.445537
1351.000000	29.170452
1350.000000	29.847740
1349.000000	30.444217
1348.000000	30.998996
1347.000000	31.509401
1346.000000	31.987195
1345.000000	32.466423
1344.000000	32.905675
1343.000000	33.319584
1342.000000	33.728042
1341.000000	34.127701
1340.000000	34.490159
1339.000000	34.855485
1338.000000	35.195181
1337.000000	35.516707
1336.000000	35.833737
1335.000000	36.117487
1334.000000	36.408983
1333.000000	36.691489
1332.000000	36.939662
1331.000000	37.181811
1330.000000	37.409614
1329.000000	37.632539
1328.000000	37.845806
1327.000000	38.039658
1326.000000	38.228347
1325.000000	38.409958
1324.000000	38.569477
1323.000000	38.722302
1322.000000	38.875032
1321.000000	39.017719
1320.000000	39.143384
1319.000000	39.260728
1318.000000	39.385819
1317.000000	39.506893
1316.000000	39.619838
1315.000000	39.719395
1314.000000	39.805179
1313.000000	39.892781
1312.000000	39.974071
1311.000000	40.036617
1310.000000	40.090937
1309.000000	40.146788
1308.000000	40.202735
1307.000000	40.243858
1306.000000	40.262889
1305.000000	40.285077
1304.000000	40.304873
1303.000000	40.309846
1302.000000	40.302291
1301.000000	40.294353
1300.000000	40.279434
1299.000000	40.249787
1298.000000	40.223392
1297.000000	40.201013
1296.000000	40.175288
1295.000000	40.151187
1294.000000	40.114750
1293.000000	40.070950
1292.000000	40.025045
1291.000000	39.976653
1290.000000	39.917264
1289.000000	39.835018
1288.000000	39.761378
1287.000000	39.670429
1286.000000	39.572212
1285.000000	39.468065
1284.000000	39.350243
1283.000000	39.239115
1282.000000	39.134586
1281.000000	39.024988
1280.000000	38.912042
1279.000000	38.801871
1278.000000	38.693899
1277.000000	38.585831
1276.000000	38.476807
1275.000000	38.380120
1274.000000	38.292422
1273.000000	38.211037
1272.000000	38.131564
1271.000000	38.046544
1270.000000	37.971279
1269.000000	37.888363
1268.000000	37.807360
1267.000000	37.707422
1266.000000	37.615612
1265.000000	37.530210
1264.000000	37.439834
1263.000000	37.363709
1262.000000	37.286531
1261.000000	37.211745
1260.000000	37.126342
1259.000000	37.039984
1258.000000	36.956877
1257.000000	36.851391
1256.000000	36.751261
1255.000000	36.657252
1254.000000	36.546315
1253.000000	36.445994
1252.000000	36.341560
1251.000000	36.228424
1250.000000	36.101707
1249.000000	35.984650
1248.000000	35.831633
1247.000000	35.703386
1246.000000	35.547310
1245.000000	35.354414
1244.000000	35.179019
1243.000000	34.975411
1242.000000	34.779838
1241.000000	34.585985
1240.000000	34.359043
1239.000000	34.141760
1238.000000	33.913096
1237.000000	33.689023
1236.000000	33.455003
1235.000000	33.213811
1234.000000	32.962960
1233.000000	32.714978
1232.000000	32.473308
1231.000000	32.232116
1230.000000	31.980405
1229.000000	31.734144
1228.000000	31.483197
1227.000000	31.231007
1226.000000	30.988668
1225.000000	30.737338
1224.000000	30.498059
1223.000000	30.274655
1222.000000	30.041306
1221.000000	29.831673
1220.000000	29.623954
1219.000000	29.421590
1218.000000	29.238831
1217.000000	29.079789
1216.000000	28.922278
1215.000000	28.784851
1214.000000	28.644076
1213.000000	28.513438
1212.000000	28.384617
1211.000000	28.289173
1210.000000	28.187609
1209.000000	28.086905
1208.000000	28.006093
1207.000000	27.965735
1206.000000	27.942783
1205.000000	27.931976
1204.000000	27.934941
1203.000000	27.955407
1202.000000	27.965448
1201.000000	27.959232
1200.000000	27.924803
1199.000000	27.880237
1198.000000	27.783550
1197.000000	27.631203
1196.000000	27.439072
1195.000000	27.154462
1194.000000	26.796213
1193.000000	26.343763
1192.000000	25.837470
1191.000000	25.291297
1190.000000	24.771138
1189.000000	24.308168
1188.000000	23.972010
1187.000000	23.769455
1186.000000	23.714082
1185.000000	23.792694
1184.000000	24.034747
1183.000000	24.432015
1182.000000	24.954375
1181.000000	25.530959
1180.000000	26.160430
1179.000000	26.772686
1178.000000	27.346784
1177.000000	27.811476
1176.000000	28.207118
1175.000000	28.601996
1174.000000	28.984537
1173.000000	29.385344
1172.000000	29.832343
1171.000000	30.286514
1170.000000	30.729401
1169.000000	31.209585
1168.000000	31.732136
1167.000000	32.202183
1166.000000	32.692217
1165.000000	33.233799
1164.000000	33.743917
1163.000000	34.290185
1162.000000	34.839036
1161.000000	35.366846
1160.000000	35.878686
1159.000000	36.396933
1158.000000	36.896244
1157.000000	37.336357
1156.000000	37.724827
1155.000000	38.032581
1154.000000	38.252064
1153.000000	38.357645
1152.000000	38.390066
1151.000000	38.389205
1150.000000	38.331154
1149.000000	38.275208
1148.000000	38.259811
1147.000000	38.313940
1146.000000	38.452994
1145.000000	38.751280
1144.000000	39.143958
1143.000000	39.619743
1142.000000	40.164481
1141.000000	40.742787
1140.000000	41.280735
1139.000000	41.895095
1138.000000	42.512133
1137.000000	43.141030
1136.000000	43.815258
1135.000000	44.458405
1134.000000	45.050578
1133.000000	45.582501
1132.000000	46.028734
1131.000000	46.530437
1130.000000	46.940616
1129.000000	47.287198
1128.000000	47.581180
1127.000000	47.821416
1126.000000	47.998341
1125.000000	48.157287
1124.000000	48.305904
1123.000000	48.428221
1122.000000	48.556468
1121.000000	48.655546
1120.000000	48.753955
1119.000000	48.836679
1118.000000	48.893008
1117.000000	48.926480
1116.000000	48.954980
1115.000000	48.965882
1114.000000	48.963587
1113.000000	48.974298
1112.000000	48.984340
1111.000000	48.984148
1110.000000	48.992660
1109.000000	49.007483
1108.000000	49.027662
1107.000000	49.043347
1106.000000	49.040764
1105.000000	49.037130
1104.000000	49.047363
1103.000000	49.035218
1102.000000	49.031105
1101.000000	49.036748
1100.000000	49.033592
1099.000000	49.024220
1098.000000	48.995816
1097.000000	48.985774
1096.000000	48.966838
1095.000000	48.945990
1094.000000	48.899511
1093.000000	48.868239
1092.000000	48.825298
1091.000000	48.791922
1090.000000	48.746878
1089.000000	48.694565
1088.000000	48.654207
1087.000000	48.602660
1086.000000	48.548721
1085.000000	48.479960
1084.000000	48.424491
1083.000000	48.382125
1082.000000	48.319197
1081.000000	48.284290
1080.000000	48.246514
1079.000000	48.207113
1078.000000	48.175936
1077.000000	48.149253
1076.000000	48.105357
1075.000000	48.063660
1074.000000	48.032674
1073.000000	48.014503
1072.000000	47.974145
1071.000000	47.940004
1070.000000	47.911026
1069.000000	47.870477
1068.000000	47.841212
1067.000000	47.801811
1066.000000	47.761453
1065.000000	47.733432
1064.000000	47.709331
1063.000000	47.670599
1062.000000	47.626511
1061.000000	47.593326
1060.000000	47.570756
1059.000000	47.527338
1058.000000	47.493292
1057.000000	47.458959
1056.000000	47.408081
1055.000000	47.377286
1054.000000	47.354429
1053.000000	47.310628
1052.000000	47.270175
1051.000000	47.265489
1050.000000	47.257168
1049.000000	47.249709
1048.000000	47.245118
1047.000000	47.240337
1046.000000	47.244258
1045.000000	47.251717
1044.000000	47.254395
1043.000000	47.256499
1042.000000	47.270462
1041.000000	47.282703
1040.000000	47.299535
1039.000000	47.308142
1038.000000	47.311202
1037.000000	47.315315
1036.000000	47.325834
1035.000000	47.343623
1034.000000	47.336354
1033.000000	47.321148
1032.000000	47.319236
1031.000000	47.318279
1030.000000	47.302499
1029.000000	47.294849
1028.000000	47.289780
1027.000000	47.257647
1026.000000	47.222835
1025.000000	47.196536
1024.000000	47.157803
1023.000000	47.126339
1022.000000	47.101092
1021.000000	47.074314
1020.000000	47.053752
1019.000000	47.041128
1018.000000	47.038929
1017.000000	47.035008
1016.000000	47.032904
1015.000000	47.043328
1014.000000	47.078426
1013.000000	47.126818
1012.000000	47.179226
1011.000000	47.252291
1010.000000	47.330807
1009.000000	47.431129
1008.000000	47.532024
1007.000000	47.623547
1006.000000	47.728363
1005.000000	47.828684
1004.000000	47.929101
1003.000000	48.011060
1002.000000	48.099332
1001.000000	48.192098
1000.000000	48.275970
999.000000	48.362137
998.000000	48.444957
997.000000	48.535237
996.000000	48.624656
995.000000	48.727272
994.000000	48.819369
993.000000	48.904389
992.000000	49.009014
991.000000	49.118133
990.000000	49.210995
989.000000	49.302996
988.000000	49.417854
987.000000	49.539980
986.000000	49.645179
985.000000	49.752003
984.000000	49.850794
983.000000	49.960966
982.000000	50.065782
981.000000	50.163139
980.000000	50.251793
979.000000	50.333752
978.000000	50.423840
977.000000	50.506182
976.000000	50.567484
975.000000	50.642271
974.000000	50.743166
973.000000	50.820440
972.000000	50.884898
971.000000	50.966379
970.000000	51.050538
969.000000	51.114326
968.000000	51.171708
967.000000	51.235209
966.000000	51.310187
965.000000	51.389947
964.000000	51.477166
963.000000	51.542772
962.000000	51.606943
961.000000	51.695788
960.000000	51.804047
959.000000	51.875678
958.000000	51.929903
957.000000	51.982216
956.000000	52.035580
955.000000	52.080624
954.000000	52.098795
953.000000	52.119835
952.000000	52.143648
951.000000	52.146995
950.000000	52.156176
949.000000	52.149386
948.000000	52.150916
947.000000	52.180372
946.000000	52.166792
945.000000	52.156654
944.000000	52.148143
943.000000	52.178459
942.000000	52.162201
941.000000	52.195482
940.000000	52.183910
939.000000	52.204950
938.000000	52.198829
937.000000	52.226564
936.000000	52.223216
935.000000	52.230963
934.000000	52.243300
933.000000	52.251620
932.000000	52.287579
931.000000	52.314739
930.000000	52.325068
929.000000	52.379771
928.000000	52.377667
927.000000	52.415921
926.000000	52.456757
925.000000	52.526571
924.000000	52.556409
923.000000	52.620676
922.000000	52.627562
921.000000	52.674519
920.000000	52.735534
919.000000	52.726640
918.000000	52.748445
917.000000	52.763555
916.000000	52.782491
915.000000	52.814146
914.000000	52.773979
913.000000	52.765946
912.000000	52.780578
911.000000	52.774362
910.000000	52.819502
909.000000	52.849436
908.000000	52.915041
907.000000	52.998244
906.000000	53.093975
905.000000	53.215144
904.000000	53.333636
903.000000	53.484836
902.000000	53.632496
901.000000	53.794694
900.000000	53.935660
899.000000	54.088389
898.000000	54.226582
897.000000	54.393083
896.000000	54.520852
895.000000	54.656845
894.000000	54.773711
893.000000	54.889334
892.000000	55.010791
891.000000	55.124597
890.000000	55.242037
889.000000	55.331168
888.000000	55.432255
887.000000	55.523969
886.000000	55.646095
885.000000	55.756363
884.000000	55.878106
883.000000	55.955475
882.000000	56.050823
881.000000	56.158508
880.000000	56.281208
879.000000	56.372540
878.000000	56.461576
877.000000	56.557785
876.000000	56.708985
875.000000	56.806915
874.000000	56.961175
873.000000	57.046194
872.000000	57.198541
871.000000	57.369632
870.000000	57.538046
869.000000	57.725587
868.000000	57.898208
867.000000	58.101146
866.000000	58.306570
865.000000	58.533895
864.000000	58.747544
863.000000	58.994570
862.000000	59.221034
861.000000	59.446733
860.000000	59.667076
859.000000	59.892584
858.000000	59.615433
857.000000	59.648400
856.000000	59.568400
855.000000	59.629500
854.000000	59.711100
853.000000	59.977000
852.000000	60.562400
851.000000	60.602800
850.000000	60.788600
849.000000	60.834900
848.000000	60.750700
847.000000	60.991200
846.000000	61.304400
845.000000	61.265800
844.000000	61.381800
843.000000	61.507700
842.000000	61.526200
841.000000	61.482100
840.000000	61.604400
839.000000	61.692100
838.000000	61.529900
837.000000	61.572400
836.000000	61.507200
835.000000	61.441600
834.000000	61.507300
833.000000	61.479200
832.000000	61.404200
831.000000	61.372600
830.000000	61.327400
829.000000	61.272900
828.000000	61.346400
827.000000	61.332600
826.000000	61.131000
825.000000	61.136000
824.000000	61.066600
823.000000	61.264700
822.000000	61.345200
821.000000	61.463000
820.000000	61.489500
819.000000	61.555200
818.000000	61.615800
817.000000	61.594700
816.000000	61.770600
815.000000	61.821200
814.000000	61.814900
813.000000	61.784500
812.000000	61.880100
811.000000	61.965500
810.000000	61.799300
809.000000	61.769200
808.000000	61.706700
807.000000	61.787500
806.000000	61.620600
805.000000	61.529200
804.000000	61.504000
803.000000	61.471100
802.000000	61.514900
801.000000	61.413900
800.000000	61.357100
799.000000	61.344600
798.000000	61.354500
797.000000	61.231300
796.000000	61.079400
795.000000	61.084800
794.000000	60.998700
793.000000	60.908700
792.000000	60.847200
791.000000	60.755600
790.000000	60.613200
789.000000	60.508600
788.000000	60.458700
787.000000	60.347900
786.000000	60.301800
785.000000	60.341000
784.000000	60.371000
783.000000	60.403300
782.000000	60.491900
781.000000	60.501500
780.000000	60.503100
779.000000	60.574100
778.000000	60.624000
777.000000	60.725900
776.000000	60.705900
775.000000	60.688600
774.000000	60.739200
773.000000	60.707900
772.000000	60.590900
771.000000	60.517500
770.000000	60.460300
769.000000	60.327600
768.000000	60.053600
767.000000	59.914200
766.000000	59.805300
765.000000	59.650500
764.000000	59.499500
763.000000	59.362900
762.000000	59.219700
761.000000	59.059500
760.000000	58.903500
759.000000	58.786900
758.000000	58.609600
757.000000	58.414800
756.000000	58.254400
755.000000	58.043400
754.000000	57.799400
753.000000	57.540900
752.000000	57.275800
751.000000	56.990000
750.000000	56.612600
749.000000	56.246600
748.000000	55.876000
747.000000	55.523300
746.000000	55.189800
745.000000	54.870100
744.000000	54.561400
743.000000	54.299300
742.000000	54.034000
741.000000	53.776300
740.000000	53.569500
739.000000	53.291200
738.000000	53.078400
737.000000	52.910300
736.000000	52.721400
735.000000	52.512400
734.000000	52.274500
733.000000	52.009900
732.000000	51.729300
731.000000	51.481100
730.000000	51.173500
729.000000	50.842500
728.000000	50.504900
727.000000	50.204500
726.000000	49.914500
725.000000	49.669200
724.000000	49.454700
723.000000	49.272100
722.000000	49.145900
721.000000	49.044900
720.000000	48.970400
719.000000	48.922000
718.000000	48.917500
717.000000	48.892400
716.000000	48.882100
715.000000	48.923300
714.000000	48.965500
713.000000	48.982700
712.000000	48.990300
711.000000	48.958100
710.000000	48.926900
709.000000	48.842300
708.000000	48.715900
707.000000	48.584300
706.000000	48.480900
705.000000	48.362200
704.000000	48.279800
703.000000	48.149700
702.000000	48.039700
701.000000	47.961500
700.000000	47.962300
699.000000	48.013200
698.000000	48.044300
697.000000	48.145900
696.000000	48.273700
695.000000	48.374200
694.000000	48.462900
693.000000	48.532900
692.000000	48.606900
691.000000	48.615500
690.000000	48.566300
689.000000	48.456100
688.000000	48.305100
687.000000	48.092300
686.000000	47.847900
685.000000	47.571500
684.000000	47.235600
683.000000	46.973500
682.000000	46.698500
681.000000	46.495500
680.000000	46.349400
679.000000	46.212600
678.000000	46.125000
677.000000	46.025000
676.000000	45.967400
675.000000	45.894100
674.000000	45.778900
673.000000	45.607500
672.000000	45.388800
671.000000	45.079500
670.000000	44.731400
669.000000	44.261000
668.000000	43.721600
667.000000	43.121200
666.000000	42.492000
665.000000	41.806300
664.000000	41.107400
663.000000	40.477100
662.000000	39.909900
661.000000	39.391100
660.000000	38.960700
659.000000	38.546300
658.000000	38.272300
657.000000	38.032300
656.000000	37.821400
655.000000	37.626700
654.000000	37.454700
653.000000	37.308800
652.000000	37.071100
651.000000	36.842400
650.000000	36.625700
649.000000	36.389100
648.000000	36.146300
647.000000	35.975400
646.000000	35.811800
645.000000	35.758200
644.000000	35.856800
643.000000	36.053200
642.000000	36.370300
641.000000	36.815200
640.000000	37.390600
639.000000	38.077900
638.000000	38.781500
637.000000	39.528400
636.000000	40.309700
635.000000	41.082400
634.000000	41.785700
633.000000	42.470100
632.000000	43.147200
631.000000	43.732500
630.000000	44.226100
629.000000	44.718200
628.000000	45.150600
627.000000	45.628800
626.000000	46.137100
625.000000	46.658700
624.000000	47.248800
623.000000	47.930400
622.000000	48.639200
621.000000	49.391500
620.000000	50.125900
619.000000	50.935400
618.000000	51.657400
617.000000	52.373400
616.000000	53.021300
615.000000	53.640500
614.000000	54.202200
613.000000	54.710900
612.000000	55.176600
611.000000	55.616500
610.000000	56.023200
609.000000	56.412500
608.000000	56.794200
607.000000	57.109700
606.000000	57.433300
605.000000	57.782300
604.000000	58.115500
603.000000	58.383200
602.000000	58.710100
601.000000	58.989000
600.000000	59.269500
599.000000	59.541200
598.000000	59.773600
597.000000	59.978400
596.000000	60.145000
595.000000	60.314900
594.000000	60.489900
593.000000	60.585000
592.000000	60.650800
591.000000	60.760500
590.000000	60.792700
589.000000	60.847500
588.000000	60.831000
587.000000	60.829800
586.000000	60.845400
585.000000	60.821300
584.000000	60.796900
583.000000	60.767200
582.000000	60.692200
581.000000	60.607400
580.000000	60.568900
579.000000	60.512600
578.000000	60.440300
577.000000	60.364200
576.000000	60.271500
575.000000	60.195400
574.000000	60.084700
573.000000	59.973500
572.000000	59.871900
571.000000	59.737300
570.000000	59.601400
569.000000	59.455400
568.000000	59.296100
567.000000	59.102600
566.000000	58.898900
565.000000	58.717300
564.000000	58.486700
563.000000	58.245000
562.000000	57.975000
561.000000	57.700000
560.000000	57.428400
559.000000	57.097600
558.000000	56.764700
557.000000	56.435900
556.000000	56.068900
555.000000	55.706700
554.000000	55.293100
553.000000	54.887200
552.000000	54.454400
551.000000	54.007600
550.000000	53.527200
549.000000	53.042600
548.000000	52.543900
547.000000	52.010700
546.000000	51.469700
545.000000	50.915300
544.000000	50.327700
543.000000	49.695900
542.000000	49.054900
541.000000	48.401400
540.000000	47.714500
539.000000	47.001100
538.000000	46.257200
537.000000	45.525400
536.000000	44.775100
535.000000	44.016000
534.000000	43.251200
533.000000	42.442500
532.000000	41.624900
531.000000	40.794200
530.000000	39.950300
529.000000	39.094200
528.000000	38.246800
527.000000	37.397000
526.000000	36.512600
525.000000	35.623800
524.000000	34.727500
523.000000	33.809600
522.000000	32.903400
521.000000	31.991100
520.000000	31.093900
519.000000	30.174500
518.000000	29.275800
517.000000	28.414700
516.000000	27.540500
515.000000	26.698600
514.000000	25.884200
513.000000	25.088300
512.000000	24.348300
511.000000	23.651500
510.000000	23.025300
509.000000	22.464800
508.000000	21.992300
507.000000	21.592200
506.000000	21.261300
505.000000	21.030200
504.000000	20.854400
503.000000	20.729500
502.000000	20.662100
501.000000	20.649300
500.000000	20.671500
499.000000	20.716700
498.000000	20.794200
497.000000	20.864600
496.000000	20.944200
495.000000	21.009300
494.000000	21.087000
493.000000	21.167700
492.000000	21.231500
491.000000	21.255500
490.000000	21.280000
489.000000	21.285000
488.000000	21.272500
487.000000	21.247600
486.000000	21.219600
485.000000	21.156300
484.000000	21.082400
483.000000	21.003700
482.000000	20.898200
481.000000	20.765900
480.000000	20.633300
479.000000	20.508500
478.000000	20.390900
477.000000	20.283400
476.000000	20.158300
475.000000	20.015800
474.000000	19.879600
473.000000	19.750700
472.000000	19.615300
471.000000	19.466100
470.000000	19.313700
469.000000	19.157500
468.000000	19.009600
467.000000	18.884000
466.000000	18.738400
465.000000	18.574300
464.000000	18.419900
463.000000	18.270900
462.000000	18.117100
461.000000	17.956500
460.000000	17.782800
459.000000	17.634500
458.000000	17.474000
457.000000	17.282500
456.000000	17.091400
455.000000	16.912100
454.000000	16.719000
453.000000	16.503900
452.000000	16.293300
451.000000	16.058400
450.000000	15.811900
449.000000	15.563300
448.000000	15.299900
447.000000	15.009300
446.000000	14.723800
445.000000	14.444400
444.000000	14.139300
443.000000	13.814300
442.000000	13.488200
441.000000	13.154600
440.000000	12.802900
439.000000	12.459200
438.000000	12.112700
437.000000	11.768600
436.000000	11.428000
435.000000	11.086600
434.000000	10.748900
433.000000	10.413800
432.000000	10.079000
431.000000	9.768700
430.000000	9.473100
429.000000	9.167200
428.000000	8.885000
427.000000	8.622900
426.000000	8.366400
425.000000	8.127600
424.000000	7.905500
423.000000	7.701000
422.000000	7.507100
421.000000	7.322400
420.000000	7.153700
419.000000	7.008600
418.000000	6.878800
417.000000	6.756300
416.000000	6.647800
415.000000	6.545000
414.000000	6.451100
413.000000	6.369400
412.000000	6.302600
411.000000	6.229000
410.000000	6.167400
409.000000	6.123000
408.000000	6.085400
407.000000	6.041000
406.000000	5.994600
405.000000	5.953500
404.000000	5.913600
403.000000	5.881700
402.000000	5.858000
401.000000	5.833200
400.000000	5.812600
399.000000	5.793100
398.000000	5.773200
397.000000	5.751300
396.000000	5.732000
395.000000	5.711400
394.000000	5.694400
393.000000	5.678200
392.000000	5.665300
391.000000	5.656000
390.000000	5.643400
389.000000	5.622200
388.000000	5.591600
387.000000	5.568300
386.000000	5.549600
385.000000	5.545800
384.000000	5.521400
383.000000	5.502200
382.000000	5.496200
381.000000	5.483900
380.000000	5.461700
379.000000	5.433200
378.000000	5.425600
377.000000	5.423900
376.000000	5.618200
375.000000	5.490400
374.000000	5.434200
373.000000	5.452400
372.000000	5.438900
371.000000	5.466800
370.000000	5.479600
369.000000	5.506300
368.000000	5.390900
367.000000	5.389700
366.000000	5.386500
365.000000	5.417500
364.000000	5.444200
363.000000	5.444600
362.000000	5.376900
361.000000	5.451000
360.000000	5.332400
359.000000	5.362400
358.000000	5.370700
357.000000	5.402200
356.000000	5.328300
355.000000	5.363800
354.000000	5.391600
353.000000	5.345400
352.000000	5.277800
351.000000	5.286300
350.000000	5.308300
349.000000	5.291500
348.000000	5.243400
347.000000	5.321500
346.000000	5.276400
345.000000	5.289000
344.000000	5.298500
343.000000	5.325000
342.000000	5.234500
341.000000	5.225800
340.000000	5.241500
339.000000	5.376700
338.000000	5.368100
337.000000	5.275000
336.000000	5.221400
335.000000	5.263300
334.000000	5.395500
333.000000	5.296500
332.000000	5.276900
331.000000	5.318400
330.000000	5.388200
329.000000	5.350400
328.000000	5.255500
327.000000	5.291900
326.000000	5.398900
325.000000	5.481900
324.000000	5.365800
323.000000	5.406300
322.000000	5.568100
321.000000	5.446200
320.000000	5.606900
319.000000	5.343100
318.000000	5.587200
317.000000	5.560900
316.000000	5.109700
315.000000	5.069200
314.000000	5.061300
313.000000	5.091400
312.000000	5.102900
311.000000	5.104800
310.000000	5.117900
309.000000	5.121000
308.000000	5.100800
307.000000	5.094500
306.000000	5.106600
305.000000	5.119400
304.000000	5.108100
303.000000	5.113000
302.000000	5.092900
301.000000	5.053400
300.000000	5.074300
299.000000	5.102000
298.000000	5.103600
297.000000	5.131700
296.000000	5.113500
295.000000	5.126500
294.000000	5.083500
293.000000	5.087000
292.000000	5.079800
291.000000	5.098700
290.000000	5.115200
289.000000	5.132200
288.000000	5.143400
287.000000	5.154000
286.000000	5.168600
285.000000	5.149700
284.000000	5.162800
283.000000	5.232600
282.000000	5.195900
281.000000	5.204700
280.000000	5.232800
279.000000	5.230100
278.000000	5.243200
277.000000	5.235000
276.000000	5.296200
275.000000	5.303200
274.000000	5.341600
273.000000	5.330200
272.000000	5.320900
271.000000	5.339900
270.000000	5.336600
269.000000	5.362600
268.000000	5.400400
267.000000	5.431900
266.000000	5.434500
265.000000	5.475200
264.000000	5.457100
263.000000	5.523200
262.000000	5.554300
261.000000	5.530600
260.000000	5.540400
259.000000	5.537700
258.000000	5.549300
257.000000	5.633000
256.000000	5.619400
255.000000	5.612600
254.000000	5.590800
253.000000	5.629300
252.000000	5.625000
251.000000	5.669500
250.000000	5.693200
