PE UV       SUBTECH     SPECTRUM    ASCII       PEDS        4.00        
   -1
CICIMAUCR0001-2.Sample.ASC
24/04/04
14:58:11.00
24/04/04
14:58:11.00
Vinicio Soto Monge
C. kalinini
250,000000
1
Lambda 1050
1050L1511233
PerkinElmer UV WinLab 6.3.2.0749 / 2.02.05 Lambda 900 UV/VIS/NIR, Aug  7 2015 09:38:08

0
0
3350/servo 860,8/2
0
0
UV/VIS
1
1
1
DoubleDePol,CommonBeamDepol,RBeamAtt,SBeamAtt,60mm sphere, WB InGaAs Detector
0
0
0
0
Program
Program
3350/servo 860,8/2
3350/0,2 860,8/0,2
3350/0,2 860,8/0,2
0
15.00
 
 
 
0
 
860,8
319,2
860,8
Front
100
on
S:100 R:100
0
0
0
0
 
0
 
 
 
0
 
 
0
0
0
0
0
 
 
 
 
0
0


0
0
#HDR
-1
-1
#GR
nm
%R
1.0
0.0
2500,000000
-1,000000
2251
8
78,942500
5,296700
#DATA
2500.000000	9.418671
2499.000000	9.352645
2498.000000	9.322298
2497.000000	9.396936
2496.000000	9.430462
2495.000000	9.389554
2494.000000	9.392835
2493.000000	9.368947
2492.000000	9.390067
2491.000000	9.423798
2490.000000	9.435075
2489.000000	9.486953
2488.000000	9.514532
2487.000000	9.455683
2486.000000	9.508688
2485.000000	9.527040
2484.000000	9.545495
2483.000000	9.550416
2482.000000	9.574612
2481.000000	9.587223
2480.000000	9.625362
2479.000000	9.668525
2478.000000	9.667705
2477.000000	9.754544
2476.000000	9.808164
2475.000000	9.787147
2474.000000	9.770537
2473.000000	9.832155
2472.000000	9.895003
2471.000000	9.941754
2470.000000	9.994555
2469.000000	9.980509
2468.000000	10.028285
2467.000000	10.063657
2466.000000	10.145574
2465.000000	10.178895
2464.000000	10.246869
2463.000000	10.259787
2462.000000	10.303770
2461.000000	10.370719
2460.000000	10.442794
2459.000000	10.464837
2458.000000	10.547267
2457.000000	10.573411
2456.000000	10.664249
2455.000000	10.726994
2454.000000	10.779794
2453.000000	10.853305
2452.000000	10.941476
2451.000000	11.010988
2450.000000	11.092086
2449.000000	11.182513
2448.000000	11.238594
2447.000000	11.322255
2446.000000	11.448463
2445.000000	11.503211
2444.000000	11.580105
2443.000000	11.677401
2442.000000	11.764753
2441.000000	11.850361
2440.000000	11.932586
2439.000000	12.040648
2438.000000	12.118567
2437.000000	12.205508
2436.000000	12.282402
2435.000000	12.364627
2434.000000	12.442546
2433.000000	12.537792
2432.000000	12.625861
2431.000000	12.709726
2430.000000	12.785390
2429.000000	12.879610
2428.000000	12.951378
2427.000000	13.029092
2426.000000	13.116136
2425.000000	13.187698
2424.000000	13.239063
2423.000000	13.341076
2422.000000	13.402591
2421.000000	13.467182
2420.000000	13.547049
2419.000000	13.627838
2418.000000	13.703502
2417.000000	13.769221
2416.000000	13.831966
2415.000000	13.871233
2414.000000	13.909680
2413.000000	13.997954
2412.000000	14.068389
2411.000000	14.111142
2410.000000	14.161071
2409.000000	14.205055
2408.000000	14.255805
2407.000000	14.304299
2406.000000	14.338235
2405.000000	14.376169
2404.000000	14.405901
2403.000000	14.452550
2402.000000	14.500634
2401.000000	14.528624
2400.000000	14.554563
2399.000000	14.592907
2398.000000	14.633815
2397.000000	14.655857
2396.000000	14.685077
2395.000000	14.717988
2394.000000	14.733571
2393.000000	14.754076
2392.000000	14.783501
2391.000000	14.790268
2390.000000	14.805647
2389.000000	14.824614
2388.000000	14.838044
2387.000000	14.849425
2386.000000	14.859165
2385.000000	14.866854
2384.000000	14.873416
2383.000000	14.889205
2382.000000	14.898227
2381.000000	14.901918
2380.000000	14.884488
2379.000000	14.871468
2378.000000	14.878849
2377.000000	14.884488
2376.000000	14.874646
2375.000000	14.857832
2374.000000	14.845119
2373.000000	14.851988
2372.000000	14.856704
2371.000000	14.832406
2370.000000	14.827279
2369.000000	14.822358
2368.000000	14.823999
2367.000000	14.816822
2366.000000	14.823281
2365.000000	14.845221
2364.000000	14.840608
2363.000000	14.827382
2362.000000	14.821538
2361.000000	14.813233
2360.000000	14.814156
2359.000000	14.795497
2358.000000	14.786782
2357.000000	14.783091
2356.000000	14.771198
2355.000000	14.771916
2354.000000	14.761971
2353.000000	14.747310
2352.000000	14.730496
2351.000000	14.718193
2350.000000	14.708043
2349.000000	14.693279
2348.000000	14.688050
2347.000000	14.666930
2346.000000	14.638941
2345.000000	14.628893
2344.000000	14.625920
2343.000000	14.614027
2342.000000	14.595368
2341.000000	14.588191
2340.000000	14.595265
2339.000000	14.596290
2338.000000	14.578861
2337.000000	14.558151
2336.000000	14.547591
2335.000000	14.556408
2334.000000	14.562765
2333.000000	14.566558
2332.000000	14.553127
2331.000000	14.555075
2330.000000	14.555075
2329.000000	14.571172
2328.000000	14.578759
2327.000000	14.589524
2326.000000	14.597931
2325.000000	14.596803
2324.000000	14.592907
2323.000000	14.603570
2322.000000	14.610439
2321.000000	14.616180
2320.000000	14.607773
2319.000000	14.587678
2318.000000	14.585525
2317.000000	14.554563
2316.000000	14.535596
2315.000000	14.524625
2314.000000	14.492843
2313.000000	14.454703
2312.000000	14.408464
2311.000000	14.380783
2310.000000	14.327470
2309.000000	14.294662
2308.000000	14.256522
2307.000000	14.207823
2306.000000	14.167838
2305.000000	14.118113
2304.000000	14.080487
2303.000000	14.057008
2302.000000	14.025021
2301.000000	13.984626
2300.000000	13.962890
2299.000000	13.923931
2298.000000	13.896249
2297.000000	13.852163
2296.000000	13.833709
2295.000000	13.813409
2294.000000	13.796902
2293.000000	13.772911
2292.000000	13.754149
2291.000000	13.751586
2290.000000	13.726365
2289.000000	13.700836
2288.000000	13.690174
2287.000000	13.677666
2286.000000	13.670694
2285.000000	13.659621
2284.000000	13.646088
2283.000000	13.633477
2282.000000	13.632555
2281.000000	13.607539
2280.000000	13.589699
2279.000000	13.552483
2278.000000	13.551457
2277.000000	13.528492
2276.000000	13.508397
2275.000000	13.500810
2274.000000	13.470565
2273.000000	13.437347
2272.000000	13.405564
2271.000000	13.373679
2270.000000	13.342409
2269.000000	13.323442
2268.000000	13.286430
2267.000000	13.267155
2266.000000	13.269308
2265.000000	13.259978
2264.000000	13.243574
2263.000000	13.251059
2262.000000	13.260184
2261.000000	13.285712
2260.000000	13.290941
2259.000000	13.306627
2258.000000	13.375422
2257.000000	13.408435
2256.000000	13.447702
2255.000000	13.504398
2254.000000	13.560377
2253.000000	13.614203
2252.000000	13.678998
2251.000000	13.737540
2250.000000	13.795877
2249.000000	13.891738
2248.000000	13.927314
2247.000000	13.989034
2246.000000	14.059264
2245.000000	14.115243
2244.000000	14.142309
2243.000000	14.213769
2242.000000	14.254779
2241.000000	14.280821
2240.000000	14.316704
2239.000000	14.347359
2238.000000	14.334544
2237.000000	14.370120
2236.000000	14.362943
2235.000000	14.350128
2234.000000	14.355254
2233.000000	14.317115
2232.000000	14.282564
2231.000000	14.247500
2230.000000	14.204952
2229.000000	14.142514
2228.000000	14.066236
2227.000000	13.984011
2226.000000	13.919932
2225.000000	13.791674
2224.000000	13.700016
2223.000000	13.598311
2222.000000	13.490352
2221.000000	13.387930
2220.000000	13.252802
2219.000000	13.142177
2218.000000	13.023761
2217.000000	12.943381
2216.000000	12.816455
2215.000000	12.720902
2214.000000	12.655696
2213.000000	12.571728
2212.000000	12.506214
2211.000000	12.468382
2210.000000	12.447775
2209.000000	12.450748
2208.000000	12.502933
2207.000000	12.517697
2206.000000	12.599409
2205.000000	12.687581
2204.000000	12.839933
2203.000000	12.938460
2202.000000	13.112855
2201.000000	13.251264
2200.000000	13.413766
2199.000000	13.602412
2198.000000	13.811666
2197.000000	13.996211
2196.000000	14.170196
2195.000000	14.348590
2194.000000	14.541132
2193.000000	14.703224
2192.000000	14.840403
2191.000000	15.004648
2190.000000	15.142852
2189.000000	15.257475
2188.000000	15.364818
2187.000000	15.460064
2186.000000	15.563409
2185.000000	15.630358
2184.000000	15.707252
2183.000000	15.749185
2182.000000	15.819312
2181.000000	15.843918
2180.000000	15.871702
2179.000000	15.944803
2178.000000	15.968281
2177.000000	15.990836
2176.000000	16.019236
2175.000000	16.060041
2174.000000	16.084749
2173.000000	16.117352
2172.000000	16.147700
2171.000000	16.185532
2170.000000	16.197630
2169.000000	16.247252
2168.000000	16.284673
2167.000000	16.330605
2166.000000	16.358696
2165.000000	16.404320
2164.000000	16.462452
2163.000000	16.518225
2162.000000	16.545907
2161.000000	16.605679
2160.000000	16.679190
2159.000000	16.738142
2158.000000	16.814318
2157.000000	16.890904
2156.000000	16.952624
2155.000000	17.040283
2154.000000	17.120048
2153.000000	17.201658
2152.000000	17.300594
2151.000000	17.400966
2150.000000	17.502261
2149.000000	17.587665
2148.000000	17.675734
2147.000000	17.790562
2146.000000	17.892574
2145.000000	17.984949
2144.000000	18.073223
2143.000000	18.167239
2142.000000	18.257768
2141.000000	18.338251
2140.000000	18.424884
2139.000000	18.529562
2138.000000	18.606866
2137.000000	18.694730
2136.000000	18.779109
2135.000000	18.860308
2134.000000	18.932384
2133.000000	19.003023
2132.000000	19.073868
2131.000000	19.139074
2130.000000	19.203460
2129.000000	19.247135
2128.000000	19.307010
2127.000000	19.359606
2126.000000	19.417430
2125.000000	19.464591
2124.000000	19.495349
2123.000000	19.545996
2122.000000	19.586186
2121.000000	19.617456
2120.000000	19.653750
2119.000000	19.682457
2118.000000	19.697118
2117.000000	19.729208
2116.000000	19.757300
2115.000000	19.773089
2114.000000	19.787443
2113.000000	19.793697
2112.000000	19.813484
2111.000000	19.830708
2110.000000	19.840448
2109.000000	19.845267
2108.000000	19.855417
2107.000000	19.875512
2106.000000	19.861363
2105.000000	19.849573
2104.000000	19.860235
2103.000000	19.866489
2102.000000	19.869258
2101.000000	19.877152
2100.000000	19.878177
2099.000000	19.878177
2098.000000	19.888635
2097.000000	19.898477
2096.000000	19.889763
2095.000000	19.885252
2094.000000	19.900220
2093.000000	19.926159
2092.000000	19.941743
2091.000000	19.946254
2090.000000	19.949227
2089.000000	19.965529
2088.000000	19.971065
2087.000000	19.974756
2086.000000	19.973423
2085.000000	19.965734
2084.000000	19.960300
2083.000000	19.949842
2082.000000	19.915189
2081.000000	19.886379
2080.000000	19.878485
2079.000000	19.854494
2078.000000	19.793184
2077.000000	19.742127
2076.000000	19.688916
2075.000000	19.630887
2074.000000	19.577164
2073.000000	19.507652
2072.000000	19.430143
2071.000000	19.368730
2070.000000	19.270716
2069.000000	19.184903
2068.000000	19.099909
2067.000000	19.018607
2066.000000	18.934229
2065.000000	18.845647
2064.000000	18.750504
2063.000000	18.667664
2062.000000	18.584721
2061.000000	18.513364
2060.000000	18.419451
2059.000000	18.352912
2058.000000	18.308929
2057.000000	18.270174
2056.000000	18.219014
2055.000000	18.199944
2054.000000	18.197791
2053.000000	18.198714
2052.000000	18.218399
2051.000000	18.244338
2050.000000	18.293960
2049.000000	18.357423
2048.000000	18.443441
2047.000000	18.528230
2046.000000	18.600407
2045.000000	18.706008
2044.000000	18.810994
2043.000000	18.882864
2042.000000	18.993694
2041.000000	19.089042
2040.000000	19.201102
2039.000000	19.285993
2038.000000	19.381033
2037.000000	19.482841
2036.000000	19.566911
2035.000000	19.626581
2034.000000	19.696708
2033.000000	19.775652
2032.000000	19.839833
2031.000000	19.891301
2030.000000	19.944819
2029.000000	19.996696
2028.000000	20.052675
2027.000000	20.080869
2026.000000	20.123212
2025.000000	20.153047
2024.000000	20.171092
2023.000000	20.189546
2022.000000	20.227378
2021.000000	20.237938
2020.000000	20.251471
2019.000000	20.251266
2018.000000	20.248088
2017.000000	20.255675
2016.000000	20.237425
2015.000000	20.229428
2014.000000	20.215792
2013.000000	20.196415
2012.000000	20.175090
2011.000000	20.140642
2010.000000	20.094505
2009.000000	20.052675
2008.000000	20.004591
2007.000000	19.965221
2006.000000	19.909037
2005.000000	19.856545
2004.000000	19.792159
2003.000000	19.720494
2002.000000	19.640627
2001.000000	19.583213
2000.000000	19.494016
1999.000000	19.430450
1998.000000	19.346892
1997.000000	19.255030
1996.000000	19.175676
1995.000000	19.081660
1994.000000	18.978315
1993.000000	18.890553
1992.000000	18.789566
1991.000000	18.714005
1990.000000	18.608507
1989.000000	18.504956
1988.000000	18.409916
1987.000000	18.315798
1986.000000	18.214913
1985.000000	18.115874
1984.000000	17.985975
1983.000000	17.898008
1982.000000	17.783693
1981.000000	17.697571
1980.000000	17.596584
1979.000000	17.498673
1978.000000	17.375130
1977.000000	17.288496
1976.000000	17.197762
1975.000000	17.109078
1974.000000	16.995685
1973.000000	16.904027
1972.000000	16.815651
1971.000000	16.718457
1970.000000	16.626389
1969.000000	16.573281
1968.000000	16.463375
1967.000000	16.373460
1966.000000	16.311227
1965.000000	16.217314
1964.000000	16.127297
1963.000000	16.069268
1962.000000	15.965718
1961.000000	15.872112
1960.000000	15.814186
1959.000000	15.726527
1958.000000	15.630256
1957.000000	15.555002
1956.000000	15.506508
1955.000000	15.412595
1954.000000	15.309352
1953.000000	15.260858
1952.000000	15.183964
1951.000000	15.109018
1950.000000	15.048016
1949.000000	14.984245
1948.000000	14.931547
1947.000000	14.864291
1946.000000	14.805544
1945.000000	14.758280
1944.000000	14.716347
1943.000000	14.677080
1942.000000	14.662932
1941.000000	14.638326
1940.000000	14.613617
1939.000000	14.594650
1938.000000	14.566763
1937.000000	14.578964
1936.000000	14.555280
1935.000000	14.570454
1934.000000	14.593625
1933.000000	14.605518
1932.000000	14.653602
1931.000000	14.672877
1930.000000	14.727933
1929.000000	14.800418
1928.000000	14.883771
1927.000000	14.944055
1926.000000	15.013567
1925.000000	15.119783
1924.000000	15.220361
1923.000000	15.313351
1922.000000	15.451965
1921.000000	15.601241
1920.000000	15.731756
1919.000000	15.885338
1918.000000	16.054402
1917.000000	16.234436
1916.000000	16.410369
1915.000000	16.592556
1914.000000	16.827544
1913.000000	17.091956
1912.000000	17.348679
1911.000000	17.586229
1910.000000	17.850846
1909.000000	18.112798
1908.000000	18.384079
1907.000000	18.710007
1906.000000	19.086069
1905.000000	19.497912
1904.000000	19.909960
1903.000000	20.300478
1902.000000	20.731699
1901.000000	21.153487
1900.000000	21.633817
1899.000000	22.137625
1898.000000	22.658247
1897.000000	23.209422
1896.000000	23.710872
1895.000000	24.187819
1894.000000	24.710594
1893.000000	25.266383
1892.000000	25.870153
1891.000000	26.473206
1890.000000	27.056573
1889.000000	27.592984
1888.000000	28.172661
1887.000000	28.702203
1886.000000	29.226824
1885.000000	29.746114
1884.000000	30.295956
1883.000000	30.796381
1882.000000	31.267278
1881.000000	31.706496
1880.000000	32.121312
1879.000000	32.535513
1878.000000	32.922341
1877.000000	33.315524
1876.000000	33.694764
1875.000000	34.031252
1874.000000	34.362305
1873.000000	34.686490
1872.000000	34.980839
1871.000000	35.250480
1870.000000	35.460041
1869.000000	35.661708
1868.000000	35.865118
1867.000000	36.007833
1866.000000	36.131786
1865.000000	36.272040
1864.000000	36.417318
1863.000000	36.545372
1862.000000	36.687574
1861.000000	36.822087
1860.000000	36.948398
1859.000000	37.050308
1858.000000	37.126689
1857.000000	37.199482
1856.000000	37.267763
1855.000000	37.327946
1854.000000	37.366393
1853.000000	37.385052
1852.000000	37.408735
1851.000000	37.460613
1850.000000	37.546222
1849.000000	37.625986
1848.000000	37.627011
1847.000000	37.583131
1846.000000	37.506134
1845.000000	37.472506
1844.000000	37.505724
1843.000000	37.531355
1842.000000	37.576364
1841.000000	37.569802
1840.000000	37.508185
1839.000000	37.461126
1838.000000	37.435084
1837.000000	37.393664
1836.000000	37.329176
1835.000000	37.252487
1834.000000	37.177849
1833.000000	37.152320
1832.000000	37.137044
1831.000000	37.113463
1830.000000	37.097264
1829.000000	37.056459
1828.000000	36.989613
1827.000000	36.957523
1826.000000	36.934454
1825.000000	36.885550
1824.000000	36.854895
1823.000000	36.882269
1822.000000	36.933634
1821.000000	36.945835
1820.000000	36.912822
1819.000000	36.851717
1818.000000	36.817473
1817.000000	36.826906
1816.000000	36.822292
1815.000000	36.803530
1814.000000	36.785588
1813.000000	36.778616
1812.000000	36.755036
1811.000000	36.717409
1810.000000	36.681935
1809.000000	36.658970
1808.000000	36.643078
1807.000000	36.621855
1806.000000	36.586587
1805.000000	36.547115
1804.000000	36.522304
1803.000000	36.527532
1802.000000	36.527943
1801.000000	36.491751
1800.000000	36.442744
1799.000000	36.416908
1798.000000	36.398453
1797.000000	36.382664
1796.000000	36.367798
1795.000000	36.356521
1794.000000	36.339399
1793.000000	36.319099
1792.000000	36.301055
1791.000000	36.283113
1790.000000	36.275013
1789.000000	36.279627
1788.000000	36.287726
1787.000000	36.309769
1786.000000	36.308231
1785.000000	36.313460
1784.000000	36.307103
1783.000000	36.313973
1782.000000	36.313665
1781.000000	36.315306
1780.000000	36.314485
1779.000000	36.294083
1778.000000	36.266093
1777.000000	36.262710
1776.000000	36.234823
1775.000000	36.210935
1774.000000	36.189097
1773.000000	36.151675
1772.000000	36.129940
1771.000000	36.100721
1770.000000	36.080215
1769.000000	36.045357
1768.000000	36.029055
1767.000000	36.000759
1766.000000	35.981279
1765.000000	35.948573
1764.000000	35.929914
1763.000000	35.918738
1762.000000	35.916175
1761.000000	35.899669
1760.000000	35.894132
1759.000000	35.892902
1758.000000	35.908178
1757.000000	35.916175
1756.000000	35.913920
1755.000000	35.915253
1754.000000	35.928991
1753.000000	35.913715
1752.000000	35.907768
1751.000000	35.897106
1750.000000	35.873217
1749.000000	35.852917
1748.000000	35.805243
1747.000000	35.772128
1746.000000	35.727427
1745.000000	35.686622
1744.000000	35.596605
1743.000000	35.530886
1742.000000	35.478393
1741.000000	35.405806
1740.000000	35.359157
1739.000000	35.276009
1738.000000	35.212956
1737.000000	35.132064
1736.000000	35.075265
1735.000000	35.042354
1734.000000	34.993245
1733.000000	34.939829
1732.000000	34.887234
1731.000000	34.845096
1730.000000	34.805521
1729.000000	34.750158
1728.000000	34.715812
1727.000000	34.674289
1726.000000	34.646607
1725.000000	34.607955
1724.000000	34.619131
1723.000000	34.633177
1722.000000	34.701458
1721.000000	34.780198
1720.000000	34.914095
1719.000000	35.076905
1718.000000	35.247302
1717.000000	35.435845
1716.000000	35.634642
1715.000000	35.821135
1714.000000	35.997170
1713.000000	36.170438
1712.000000	36.337656
1711.000000	36.440796
1710.000000	36.567620
1709.000000	36.660712
1708.000000	36.759239
1707.000000	36.835210
1706.000000	36.901031
1705.000000	36.947168
1704.000000	36.980693
1703.000000	37.011656
1702.000000	37.005607
1701.000000	37.037595
1700.000000	37.027547
1699.000000	37.026419
1698.000000	37.021191
1697.000000	36.995149
1696.000000	36.976285
1695.000000	36.945937
1694.000000	36.906670
1693.000000	36.830391
1692.000000	36.760572
1691.000000	36.692598
1690.000000	36.635799
1689.000000	36.595199
1688.000000	36.590790
1687.000000	36.660302
1686.000000	36.735351
1685.000000	36.857151
1684.000000	37.006837
1683.000000	37.200507
1682.000000	37.396022
1681.000000	37.609069
1680.000000	37.809301
1679.000000	38.009430
1678.000000	38.215813
1677.000000	38.396360
1676.000000	38.545739
1675.000000	38.711932
1674.000000	38.868180
1673.000000	39.056621
1672.000000	39.219021
1671.000000	39.378242
1670.000000	39.557456
1669.000000	39.717600
1668.000000	39.871593
1667.000000	40.020664
1666.000000	40.150769
1665.000000	40.313373
1664.000000	40.447989
1663.000000	40.591216
1662.000000	40.704917
1661.000000	40.817387
1660.000000	40.939289
1659.000000	41.006751
1658.000000	41.105482
1657.000000	41.177557
1656.000000	41.247377
1655.000000	41.304688
1654.000000	41.344468
1653.000000	41.390297
1652.000000	41.420747
1651.000000	41.436536
1650.000000	41.440944
1649.000000	41.442790
1648.000000	41.456528
1647.000000	41.452632
1646.000000	41.442277
1645.000000	41.441764
1644.000000	41.429974
1643.000000	41.416851
1642.000000	41.405471
1641.000000	41.395936
1640.000000	41.385581
1639.000000	41.373585
1638.000000	41.361180
1637.000000	41.318324
1636.000000	41.294641
1635.000000	41.272906
1634.000000	41.240713
1633.000000	41.210981
1632.000000	41.169765
1631.000000	41.126500
1630.000000	41.085797
1629.000000	41.033817
1628.000000	40.997933
1627.000000	40.949849
1626.000000	40.900124
1625.000000	40.839840
1624.000000	40.803546
1623.000000	40.744491
1622.000000	40.689846
1621.000000	40.632739
1620.000000	40.587833
1619.000000	40.538211
1618.000000	40.507043
1617.000000	40.460805
1616.000000	40.405236
1615.000000	40.352230
1614.000000	40.291331
1613.000000	40.249705
1612.000000	40.187165
1611.000000	40.134775
1610.000000	40.087613
1609.000000	40.013795
1608.000000	39.919882
1607.000000	39.863698
1606.000000	39.790906
1605.000000	39.700479
1604.000000	39.622457
1603.000000	39.534080
1602.000000	39.462723
1601.000000	39.371988
1600.000000	39.276640
1599.000000	39.189801
1598.000000	39.122237
1597.000000	39.056211
1596.000000	38.985776
1595.000000	38.909600
1594.000000	38.838243
1593.000000	38.780008
1592.000000	38.713162
1591.000000	38.640369
1590.000000	38.577726
1589.000000	38.528207
1588.000000	38.471510
1587.000000	38.418710
1586.000000	38.362321
1585.000000	38.306548
1584.000000	38.254670
1583.000000	38.209456
1582.000000	38.153273
1581.000000	38.094218
1580.000000	38.057822
1579.000000	38.041930
1578.000000	38.008610
1577.000000	37.974879
1576.000000	37.952939
1575.000000	37.927410
1574.000000	37.904239
1573.000000	37.892141
1572.000000	37.884964
1571.000000	37.884554
1570.000000	37.882606
1569.000000	37.886707
1568.000000	37.891731
1567.000000	37.889783
1566.000000	37.895319
1565.000000	37.900343
1564.000000	37.907725
1563.000000	37.912236
1562.000000	37.904854
1561.000000	37.897165
1560.000000	37.873687
1559.000000	37.846518
1558.000000	37.825397
1557.000000	37.783875
1556.000000	37.733432
1555.000000	37.680632
1554.000000	37.627421
1553.000000	37.576979
1552.000000	37.505827
1551.000000	37.434777
1550.000000	37.354192
1549.000000	37.284680
1548.000000	37.218756
1547.000000	37.143196
1546.000000	37.073376
1545.000000	37.000891
1544.000000	36.934044
1543.000000	36.879398
1542.000000	36.842695
1541.000000	36.797481
1540.000000	36.746731
1539.000000	36.714743
1538.000000	36.676604
1537.000000	36.636619
1536.000000	36.589868
1535.000000	36.531941
1534.000000	36.475757
1533.000000	36.422239
1532.000000	36.374873
1531.000000	36.318381
1530.000000	36.259122
1529.000000	36.194531
1528.000000	36.132811
1527.000000	36.060633
1526.000000	35.999733
1525.000000	35.919456
1524.000000	35.847073
1523.000000	35.796221
1522.000000	35.724966
1521.000000	35.645304
1520.000000	35.573537
1519.000000	35.490184
1518.000000	35.403037
1517.000000	35.335371
1516.000000	35.256939
1515.000000	35.167127
1514.000000	35.089516
1513.000000	35.014672
1512.000000	34.920554
1511.000000	34.839047
1510.000000	34.758155
1509.000000	34.657885
1508.000000	34.570124
1507.000000	34.495280
1506.000000	34.419822
1505.000000	34.339955
1504.000000	34.262036
1503.000000	34.188935
1502.000000	34.114092
1501.000000	34.048168
1500.000000	33.983988
1499.000000	33.914066
1498.000000	33.859215
1497.000000	33.810003
1496.000000	33.765609
1495.000000	33.720293
1494.000000	33.707990
1493.000000	33.669953
1492.000000	33.654370
1491.000000	33.635813
1490.000000	33.630174
1489.000000	33.622997
1488.000000	33.593982
1487.000000	33.591727
1486.000000	33.580141
1485.000000	33.585985
1484.000000	33.581679
1483.000000	33.576143
1482.000000	33.584653
1481.000000	33.595008
1480.000000	33.580962
1479.000000	33.578399
1478.000000	33.586601
1477.000000	33.605978
1476.000000	33.621869
1475.000000	33.622689
1474.000000	33.672619
1473.000000	33.714859
1472.000000	33.755869
1471.000000	33.793496
1470.000000	33.834916
1469.000000	33.840453
1468.000000	33.890587
1467.000000	33.952718
1466.000000	34.010952
1465.000000	34.055038
1464.000000	34.102097
1463.000000	34.155307
1462.000000	34.218873
1461.000000	34.281516
1460.000000	34.362613
1459.000000	34.400342
1458.000000	34.471289
1457.000000	34.577710
1456.000000	34.632254
1455.000000	34.708738
1454.000000	34.771790
1453.000000	34.815569
1452.000000	34.930807
1451.000000	35.020311
1450.000000	35.073829
1449.000000	35.112071
1448.000000	35.159438
1447.000000	35.254479
1446.000000	35.375151
1445.000000	35.398526
1444.000000	35.452454
1443.000000	35.523607
1442.000000	35.611368
1441.000000	35.690723
1440.000000	35.769359
1439.000000	35.860709
1438.000000	35.946113
1437.000000	36.001169
1436.000000	36.107897
1435.000000	36.196684
1434.000000	36.330684
1433.000000	36.441411
1432.000000	36.572643
1431.000000	36.648717
1430.000000	36.732070
1429.000000	36.891394
1428.000000	37.049180
1427.000000	37.187179
1426.000000	37.337173
1425.000000	37.515669
1424.000000	37.728101
1423.000000	37.880146
1422.000000	38.040905
1421.000000	38.264307
1420.000000	38.519595
1419.000000	38.786570
1418.000000	38.957889
1417.000000	39.179549
1416.000000	39.428480
1415.000000	39.750613
1414.000000	40.065775
1413.000000	40.292971
1412.000000	40.564662
1411.000000	40.878492
1410.000000	41.230255
1409.000000	41.595450
1408.000000	41.909689
1407.000000	42.239102
1406.000000	42.582458
1405.000000	42.929096
1404.000000	43.197506
1403.000000	43.521998
1402.000000	43.888731
1401.000000	44.334202
1400.000000	44.567652
1399.000000	44.778853
1398.000000	44.966782
1397.000000	45.286865
1396.000000	45.582650
1395.000000	45.804514
1394.000000	45.938719
1393.000000	46.095378
1392.000000	46.271721
1391.000000	46.406541
1390.000000	46.538491
1389.000000	46.720576
1388.000000	46.946644
1387.000000	47.059626
1386.000000	47.242633
1385.000000	47.469009
1384.000000	47.755361
1383.000000	48.002344
1382.000000	48.329604
1381.000000	48.659120
1380.000000	48.979613
1379.000000	49.473477
1378.000000	49.970518
1377.000000	50.552861
1376.000000	51.157451
1375.000000	51.759273
1374.000000	52.331773
1373.000000	52.927136
1372.000000	53.446426
1371.000000	53.867496
1370.000000	54.233511
1369.000000	54.527553
1368.000000	54.805601
1367.000000	54.997733
1366.000000	55.196837
1365.000000	55.400246
1364.000000	55.560596
1363.000000	55.689367
1362.000000	55.845000
1361.000000	55.939221
1360.000000	55.989868
1359.000000	56.051383
1358.000000	56.119255
1357.000000	56.219524
1356.000000	56.329739
1355.000000	56.470301
1354.000000	56.602045
1353.000000	56.700572
1352.000000	56.866868
1351.000000	57.042391
1350.000000	57.222322
1349.000000	57.407995
1348.000000	57.607406
1347.000000	57.776778
1346.000000	57.918775
1345.000000	58.107831
1344.000000	58.311036
1343.000000	58.482458
1342.000000	58.656443
1341.000000	58.818637
1340.000000	58.976936
1339.000000	59.147025
1338.000000	59.297840
1337.000000	59.444553
1336.000000	59.590754
1335.000000	59.720346
1334.000000	59.838967
1333.000000	59.973890
1332.000000	60.108813
1331.000000	60.224359
1330.000000	60.332215
1329.000000	60.433818
1328.000000	60.537675
1327.000000	60.635895
1326.000000	60.733908
1325.000000	60.825566
1324.000000	60.895283
1323.000000	60.980174
1322.000000	61.064654
1321.000000	61.145649
1320.000000	61.215469
1319.000000	61.286109
1318.000000	61.357363
1317.000000	61.424107
1316.000000	61.487365
1315.000000	61.548060
1314.000000	61.606602
1313.000000	61.678370
1312.000000	61.742653
1311.000000	61.801092
1310.000000	61.850817
1309.000000	61.901874
1308.000000	61.931709
1307.000000	61.957238
1306.000000	62.005425
1305.000000	62.051356
1304.000000	62.078832
1303.000000	62.106002
1302.000000	62.129480
1301.000000	62.141783
1300.000000	62.159417
1299.000000	62.179307
1298.000000	62.192840
1297.000000	62.198684
1296.000000	62.207706
1295.000000	62.206989
1294.000000	62.208117
1293.000000	62.215908
1292.000000	62.208014
1291.000000	62.193763
1290.000000	62.185356
1289.000000	62.172233
1288.000000	62.152035
1287.000000	62.144346
1286.000000	62.128557
1285.000000	62.106002
1284.000000	62.082933
1283.000000	62.047152
1282.000000	62.013319
1281.000000	61.987688
1280.000000	61.958160
1279.000000	61.937655
1278.000000	61.917048
1277.000000	61.904130
1276.000000	61.887931
1275.000000	61.867426
1274.000000	61.857891
1273.000000	61.842000
1272.000000	61.822520
1271.000000	61.807038
1270.000000	61.798939
1269.000000	61.788584
1268.000000	61.789917
1267.000000	61.796068
1266.000000	61.792685
1265.000000	61.779049
1264.000000	61.765516
1263.000000	61.754751
1262.000000	61.728607
1261.000000	61.711690
1260.000000	61.691185
1259.000000	61.670988
1258.000000	61.641358
1257.000000	61.630900
1256.000000	61.604756
1255.000000	61.569283
1254.000000	61.536065
1253.000000	61.507050
1252.000000	61.463477
1251.000000	61.422057
1250.000000	61.366796
1249.000000	61.335218
1248.000000	61.291952
1247.000000	61.238742
1246.000000	61.193528
1245.000000	61.161336
1244.000000	61.097975
1243.000000	61.062296
1242.000000	61.038203
1241.000000	61.011956
1240.000000	60.994835
1239.000000	60.979969
1238.000000	60.943060
1237.000000	60.923375
1236.000000	60.913020
1235.000000	60.910559
1234.000000	60.895591
1233.000000	60.893643
1232.000000	60.872215
1231.000000	60.847096
1230.000000	60.830180
1229.000000	60.790092
1228.000000	60.772765
1227.000000	60.746417
1226.000000	60.725296
1225.000000	60.691053
1224.000000	60.653734
1223.000000	60.620516
1222.000000	60.567203
1221.000000	60.528551
1220.000000	60.504765
1219.000000	60.468881
1218.000000	60.426743
1217.000000	60.386451
1216.000000	60.359179
1215.000000	60.329139
1214.000000	60.269470
1213.000000	60.205289
1212.000000	60.162229
1211.000000	60.089026
1210.000000	60.037866
1209.000000	59.986603
1208.000000	59.915143
1207.000000	59.830355
1206.000000	59.763919
1205.000000	59.683539
1204.000000	59.632994
1203.000000	59.556203
1202.000000	59.496943
1201.000000	59.408977
1200.000000	59.349205
1199.000000	59.284922
1198.000000	59.218280
1197.000000	59.144462
1196.000000	59.056291
1195.000000	58.985446
1194.000000	58.912756
1193.000000	58.844781
1192.000000	58.779575
1191.000000	58.704322
1190.000000	58.652342
1189.000000	58.602822
1188.000000	58.545716
1187.000000	58.554840
1186.000000	58.532695
1185.000000	58.542743
1184.000000	58.545203
1183.000000	58.546126
1182.000000	58.592877
1181.000000	58.635220
1180.000000	58.689353
1179.000000	58.728928
1178.000000	58.817715
1177.000000	58.870413
1176.000000	58.924136
1175.000000	58.993135
1174.000000	59.056803
1173.000000	59.137388
1172.000000	59.186805
1171.000000	59.276822
1170.000000	59.370735
1169.000000	59.461060
1168.000000	59.579374
1167.000000	59.690511
1166.000000	59.800623
1165.000000	59.907659
1164.000000	60.004648
1163.000000	60.137725
1162.000000	60.278800
1161.000000	60.374148
1160.000000	60.504252
1159.000000	60.615902
1158.000000	60.735139
1157.000000	60.851402
1156.000000	60.944905
1155.000000	61.014520
1154.000000	61.129040
1153.000000	61.233923
1152.000000	61.293080
1151.000000	61.366181
1150.000000	61.425030
1149.000000	61.522941
1148.000000	61.577690
1147.000000	61.649560
1146.000000	61.715894
1145.000000	61.769104
1144.000000	61.844255
1143.000000	61.907103
1142.000000	61.994352
1141.000000	62.079345
1140.000000	62.163108
1139.000000	62.283473
1138.000000	62.361289
1137.000000	62.464942
1136.000000	62.617192
1135.000000	62.738991
1134.000000	62.827163
1133.000000	62.884064
1132.000000	62.943734
1131.000000	63.013861
1130.000000	63.079580
1129.000000	63.152065
1128.000000	63.196971
1127.000000	63.246183
1126.000000	63.266278
1125.000000	63.327485
1124.000000	63.354757
1123.000000	63.359063
1122.000000	63.379568
1121.000000	63.353527
1120.000000	63.349836
1119.000000	63.341121
1118.000000	63.362651
1117.000000	63.335482
1116.000000	63.302982
1115.000000	63.293345
1114.000000	63.276735
1113.000000	63.265253
1112.000000	63.251104
1111.000000	63.231214
1110.000000	63.204250
1109.000000	63.182617
1108.000000	63.167956
1107.000000	63.144888
1106.000000	63.117514
1105.000000	63.098752
1104.000000	63.069737
1103.000000	63.044414
1102.000000	63.023806
1101.000000	62.991921
1100.000000	62.971928
1099.000000	62.943426
1098.000000	62.906517
1097.000000	62.877400
1096.000000	62.841311
1095.000000	62.796508
1094.000000	62.774568
1093.000000	62.759291
1092.000000	62.730789
1091.000000	62.695418
1090.000000	62.660252
1089.000000	62.635031
1088.000000	62.597609
1087.000000	62.567364
1086.000000	62.531378
1085.000000	62.498058
1084.000000	62.469145
1083.000000	62.439516
1082.000000	62.410194
1081.000000	62.391124
1080.000000	62.347756
1079.000000	62.320382
1078.000000	62.292495
1077.000000	62.264915
1076.000000	62.236619
1075.000000	62.210680
1074.000000	62.191610
1073.000000	62.158187
1072.000000	62.120560
1071.000000	62.094314
1070.000000	62.061301
1069.000000	62.011473
1068.000000	61.983689
1067.000000	61.951189
1066.000000	61.912229
1065.000000	61.872244
1064.000000	61.830927
1063.000000	61.790634
1062.000000	61.758442
1061.000000	61.713126
1060.000000	61.682881
1059.000000	61.654071
1058.000000	61.611216
1057.000000	61.575844
1056.000000	61.546932
1055.000000	61.506435
1054.000000	61.467065
1053.000000	61.429336
1052.000000	61.395195
1051.000000	61.366488
1050.000000	61.342292
1049.000000	61.302000
1048.000000	61.266526
1047.000000	61.246739
1046.000000	61.205216
1045.000000	61.178457
1044.000000	61.154671
1043.000000	61.127092
1042.000000	61.102076
1041.000000	61.064039
1040.000000	61.034204
1039.000000	61.007240
1038.000000	60.975355
1037.000000	60.943162
1036.000000	60.914455
1035.000000	60.887901
1034.000000	60.846686
1033.000000	60.812545
1032.000000	60.790400
1031.000000	60.768972
1030.000000	60.741393
1029.000000	60.708687
1028.000000	60.678545
1027.000000	60.652093
1026.000000	60.624514
1025.000000	60.591194
1024.000000	60.564947
1023.000000	60.552029
1022.000000	60.542699
1021.000000	60.518606
1020.000000	60.488463
1019.000000	60.479544
1018.000000	60.466216
1017.000000	60.451862
1016.000000	60.439046
1015.000000	60.409007
1014.000000	60.392808
1013.000000	60.388912
1012.000000	60.382555
1011.000000	60.367894
1010.000000	60.353335
1009.000000	60.342878
1008.000000	60.332215
1007.000000	60.328422
1006.000000	60.325244
1005.000000	60.322168
1004.000000	60.312838
1003.000000	60.291820
1002.000000	60.274391
1001.000000	60.271008
1000.000000	60.254296
999.000000	60.231023
998.000000	60.209185
997.000000	60.195037
996.000000	60.190115
995.000000	60.183144
994.000000	60.158230
993.000000	60.131574
992.000000	60.113119
991.000000	60.101636
990.000000	60.097023
989.000000	60.082157
988.000000	60.058268
987.000000	60.036430
986.000000	60.031509
985.000000	60.015720
984.000000	59.993882
983.000000	59.986911
982.000000	59.993267
981.000000	59.986296
980.000000	59.970917
979.000000	59.962920
978.000000	59.949079
977.000000	59.950412
976.000000	59.937699
975.000000	59.943440
974.000000	59.954718
973.000000	59.953795
972.000000	59.957794
971.000000	59.942620
970.000000	59.948874
969.000000	59.929702
968.000000	59.911760
967.000000	59.927549
966.000000	59.938416
965.000000	59.919039
964.000000	59.902943
963.000000	59.917604
962.000000	59.943850
961.000000	59.937289
960.000000	59.926626
959.000000	59.927651
958.000000	59.939954
957.000000	59.948771
956.000000	59.927036
955.000000	59.935956
954.000000	59.922833
953.000000	59.917501
952.000000	59.902430
951.000000	59.896279
950.000000	59.898022
949.000000	59.852090
948.000000	59.832303
947.000000	59.801443
946.000000	59.791908
945.000000	59.757050
944.000000	59.739210
943.000000	59.736750
942.000000	59.716757
941.000000	59.708760
940.000000	59.701891
939.000000	59.684667
938.000000	59.671236
937.000000	59.685077
936.000000	59.707940
935.000000	59.690203
934.000000	59.690408
933.000000	59.695534
932.000000	59.697277
931.000000	59.720038
930.000000	59.741158
929.000000	59.739108
928.000000	59.732238
927.000000	59.736032
926.000000	59.776939
925.000000	59.823486
924.000000	59.817334
923.000000	59.837942
922.000000	59.866956
921.000000	59.881105
920.000000	59.910530
919.000000	59.939032
918.000000	60.005570
917.000000	59.977068
916.000000	60.000854
915.000000	60.019206
914.000000	60.034892
913.000000	60.075287
912.000000	60.066060
911.000000	60.067290
910.000000	60.088206
909.000000	60.098150
908.000000	60.101329
907.000000	60.131779
906.000000	60.148183
905.000000	60.154949
904.000000	60.179043
903.000000	60.198010
902.000000	60.230613
901.000000	60.245376
900.000000	60.279517
899.000000	60.306379
898.000000	60.377224
897.000000	60.395166
896.000000	60.448991
895.000000	60.516658
894.000000	60.546698
893.000000	60.607393
892.000000	60.624104
891.000000	60.659373
890.000000	60.735344
889.000000	60.773688
888.000000	60.835716
887.000000	60.872625
886.000000	60.924400
885.000000	60.932089
884.000000	60.971562
883.000000	61.008266
882.000000	61.039433
881.000000	61.046097
880.000000	61.091106
879.000000	61.103819
878.000000	61.081366
877.000000	61.117557
876.000000	61.167897
875.000000	61.184301
874.000000	61.185326
873.000000	61.203473
872.000000	61.215674
871.000000	61.224491
870.000000	61.243458
869.000000	61.284673
868.000000	61.301897
867.000000	61.339011
866.000000	61.336653
865.000000	61.374178
864.000000	61.373870
863.000000	61.392940
862.000000	61.362695
861.000000	61.317174
860.000000	61.280777
859.000000	61.273088
858.000000	61.564567
857.000000	61.852000
856.000000	61.521200
855.000000	61.320500
854.000000	61.626400
853.000000	62.124300
852.000000	61.931900
851.000000	61.851000
850.000000	62.378100
849.000000	62.163000
848.000000	62.613000
847.000000	62.856500
846.000000	63.104700
845.000000	63.203300
844.000000	63.612400
843.000000	64.049700
842.000000	64.244700
841.000000	64.586000
840.000000	64.862400
839.000000	65.195600
838.000000	65.768300
837.000000	66.091100
836.000000	66.302700
835.000000	66.621100
834.000000	66.957300
833.000000	67.389900
832.000000	67.790000
831.000000	68.315200
830.000000	68.459900
829.000000	68.987200
828.000000	69.293700
827.000000	69.662600
826.000000	69.949300
825.000000	70.294800
824.000000	70.606700
823.000000	71.068200
822.000000	71.603100
821.000000	71.814500
820.000000	72.271400
819.000000	72.644200
818.000000	72.916900
817.000000	73.301200
816.000000	73.566200
815.000000	73.946500
814.000000	74.334200
813.000000	74.549000
812.000000	74.811500
811.000000	75.143100
810.000000	75.399500
809.000000	75.698700
808.000000	75.933100
807.000000	76.306200
806.000000	76.567300
805.000000	76.721900
804.000000	76.841400
803.000000	77.041300
802.000000	77.365600
801.000000	77.557200
800.000000	77.616400
799.000000	77.835900
798.000000	78.083200
797.000000	78.095600
796.000000	78.303400
795.000000	78.470700
794.000000	78.596100
793.000000	78.644400
792.000000	78.690500
791.000000	78.786800
790.000000	78.818100
789.000000	78.882100
788.000000	78.897200
787.000000	78.806600
786.000000	78.942500
785.000000	78.892900
784.000000	78.896800
783.000000	78.886200
782.000000	78.814100
781.000000	78.772000
780.000000	78.822000
779.000000	78.821900
778.000000	78.767800
777.000000	78.755500
776.000000	78.656500
775.000000	78.743600
774.000000	78.775900
773.000000	78.657700
772.000000	78.657800
771.000000	78.627400
770.000000	78.531000
769.000000	78.508200
768.000000	78.480500
767.000000	78.527400
766.000000	78.498000
765.000000	78.399600
764.000000	78.453700
763.000000	78.463200
762.000000	78.287500
761.000000	78.238800
760.000000	78.210900
759.000000	78.052400
758.000000	77.926300
757.000000	77.806500
756.000000	77.626300
755.000000	77.550100
754.000000	77.443000
753.000000	77.238100
752.000000	77.066900
751.000000	76.916900
750.000000	76.784000
749.000000	76.593200
748.000000	76.389000
747.000000	76.237200
746.000000	76.161700
745.000000	76.036900
744.000000	75.750900
743.000000	75.514800
742.000000	75.407700
741.000000	75.217100
740.000000	74.974800
739.000000	74.759000
738.000000	74.571700
737.000000	74.389700
736.000000	74.191200
735.000000	73.991700
734.000000	73.743500
733.000000	73.482300
732.000000	73.171500
731.000000	72.977100
730.000000	72.820300
729.000000	72.528400
728.000000	72.178900
727.000000	71.876100
726.000000	71.536300
725.000000	71.171100
724.000000	70.852000
723.000000	70.498400
722.000000	70.098600
721.000000	69.659300
720.000000	69.265100
719.000000	68.815300
718.000000	68.318200
717.000000	67.937900
716.000000	67.485600
715.000000	67.038000
714.000000	66.568600
713.000000	66.105000
712.000000	65.675800
711.000000	65.268200
710.000000	64.802400
709.000000	64.391100
708.000000	64.052100
707.000000	63.717000
706.000000	63.306700
705.000000	62.912300
704.000000	62.611800
703.000000	62.324600
702.000000	61.975800
701.000000	61.651600
700.000000	61.351600
699.000000	61.062000
698.000000	60.775200
697.000000	60.486800
696.000000	60.153400
695.000000	59.808100
694.000000	59.465600
693.000000	59.128600
692.000000	58.719900
691.000000	58.304400
690.000000	57.929000
689.000000	57.504100
688.000000	57.088200
687.000000	56.666200
686.000000	56.234800
685.000000	55.845300
684.000000	55.472100
683.000000	55.094400
682.000000	54.697000
681.000000	54.372600
680.000000	54.068900
679.000000	53.698600
678.000000	53.362300
677.000000	53.036600
676.000000	52.702400
675.000000	52.378500
674.000000	52.032100
673.000000	51.655300
672.000000	51.274900
671.000000	50.906400
670.000000	50.531600
669.000000	50.191500
668.000000	49.791600
667.000000	49.378100
666.000000	48.958700
665.000000	48.609300
664.000000	48.254900
663.000000	47.946000
662.000000	47.623600
661.000000	47.379600
660.000000	47.161700
659.000000	46.988500
658.000000	46.854000
657.000000	46.773300
656.000000	46.769900
655.000000	46.773900
654.000000	46.881300
653.000000	46.981500
652.000000	47.114500
651.000000	47.278900
650.000000	47.423300
649.000000	47.576400
648.000000	47.714700
647.000000	47.836000
646.000000	47.908100
645.000000	47.870900
644.000000	47.866800
643.000000	47.727200
642.000000	47.578900
641.000000	47.321400
640.000000	47.054900
639.000000	46.669400
638.000000	46.313700
637.000000	45.884700
636.000000	45.406400
635.000000	44.957400
634.000000	44.546400
633.000000	44.144300
632.000000	43.748000
631.000000	43.405200
630.000000	43.084100
629.000000	42.868000
628.000000	42.692300
627.000000	42.586900
626.000000	42.571700
625.000000	42.593100
624.000000	42.697900
623.000000	42.852500
622.000000	43.070700
621.000000	43.354000
620.000000	43.693800
619.000000	44.020900
618.000000	44.381700
617.000000	44.840300
616.000000	45.314800
615.000000	45.757200
614.000000	46.263200
613.000000	46.783000
612.000000	47.356800
611.000000	47.908600
610.000000	48.541300
609.000000	49.183200
608.000000	49.807400
607.000000	50.461200
606.000000	51.072200
605.000000	51.676600
604.000000	52.336500
603.000000	52.928600
602.000000	53.488100
601.000000	54.114900
600.000000	54.665000
599.000000	55.229500
598.000000	55.759900
597.000000	56.240900
596.000000	56.726500
595.000000	57.169900
594.000000	57.619700
593.000000	58.001100
592.000000	58.373400
591.000000	58.660800
590.000000	58.946500
589.000000	59.196700
588.000000	59.402200
587.000000	59.637300
586.000000	59.844700
585.000000	60.000700
584.000000	60.226300
583.000000	60.341200
582.000000	60.466900
581.000000	60.563100
580.000000	60.604900
579.000000	60.629300
578.000000	60.641800
577.000000	60.615100
576.000000	60.606800
575.000000	60.552900
574.000000	60.522300
573.000000	60.498700
572.000000	60.446700
571.000000	60.391500
570.000000	60.367200
569.000000	60.260300
568.000000	60.141700
567.000000	60.010100
566.000000	59.888700
565.000000	59.738500
564.000000	59.580600
563.000000	59.460100
562.000000	59.279700
561.000000	59.127400
560.000000	58.935900
559.000000	58.729200
558.000000	58.508800
557.000000	58.254200
556.000000	57.982600
555.000000	57.642900
554.000000	57.303500
553.000000	57.012100
552.000000	56.646700
551.000000	56.300000
550.000000	55.933200
549.000000	55.523200
548.000000	55.080700
547.000000	54.632800
546.000000	54.153000
545.000000	53.647700
544.000000	53.136800
543.000000	52.585700
542.000000	52.025000
541.000000	51.456100
540.000000	50.780300
539.000000	50.091100
538.000000	49.417600
537.000000	48.686000
536.000000	47.905900
535.000000	47.133000
534.000000	46.294800
533.000000	45.448900
532.000000	44.588700
531.000000	43.735200
530.000000	42.833200
529.000000	41.943100
528.000000	41.071500
527.000000	40.230400
526.000000	39.389000
525.000000	38.601100
524.000000	37.823100
523.000000	37.066100
522.000000	36.344300
521.000000	35.673200
520.000000	35.014700
519.000000	34.374200
518.000000	33.764900
517.000000	33.194200
516.000000	32.683600
515.000000	32.154400
514.000000	31.656700
513.000000	31.189700
512.000000	30.757300
511.000000	30.351600
510.000000	29.989000
509.000000	29.646700
508.000000	29.318700
507.000000	29.018200
506.000000	28.749700
505.000000	28.492800
504.000000	28.246900
503.000000	28.014800
502.000000	27.807000
501.000000	27.599400
500.000000	27.434700
499.000000	27.254200
498.000000	27.088900
497.000000	26.937400
496.000000	26.785000
495.000000	26.621100
494.000000	26.475600
493.000000	26.348000
492.000000	26.213400
491.000000	26.060500
490.000000	25.932500
489.000000	25.816600
488.000000	25.689400
487.000000	25.557200
486.000000	25.425300
485.000000	25.311600
484.000000	25.191900
483.000000	25.063100
482.000000	24.903900
481.000000	24.726900
480.000000	24.536400
479.000000	24.316300
478.000000	24.123600
477.000000	23.919700
476.000000	23.712900
475.000000	23.487400
474.000000	23.269200
473.000000	23.049200
472.000000	22.819300
471.000000	22.580700
470.000000	22.348200
469.000000	22.122300
468.000000	21.864600
467.000000	21.609900
466.000000	21.342100
465.000000	21.081600
464.000000	20.814200
463.000000	20.533300
462.000000	20.242200
461.000000	19.941200
460.000000	19.627100
459.000000	19.301800
458.000000	18.970900
457.000000	18.638900
456.000000	18.289400
455.000000	17.931500
454.000000	17.568200
453.000000	17.201800
452.000000	16.833600
451.000000	16.447200
450.000000	16.046700
449.000000	15.659800
448.000000	15.269100
447.000000	14.856400
446.000000	14.450800
445.000000	14.059600
444.000000	13.677300
443.000000	13.282700
442.000000	12.874300
441.000000	12.480600
440.000000	12.106600
439.000000	11.726700
438.000000	11.376000
437.000000	11.051500
436.000000	10.724200
435.000000	10.409500
434.000000	10.097000
433.000000	9.806800
432.000000	9.541600
431.000000	9.284100
430.000000	9.048100
429.000000	8.824300
428.000000	8.595700
427.000000	8.392900
426.000000	8.225200
425.000000	8.064400
424.000000	7.921100
423.000000	7.788700
422.000000	7.658800
421.000000	7.530600
420.000000	7.421400
419.000000	7.327100
418.000000	7.238000
417.000000	7.153500
416.000000	7.080900
415.000000	7.005900
414.000000	6.935100
413.000000	6.883200
412.000000	6.834000
411.000000	6.777400
410.000000	6.738200
409.000000	6.690800
408.000000	6.649900
407.000000	6.621000
406.000000	6.591300
405.000000	6.561300
404.000000	6.550500
403.000000	6.530300
402.000000	6.513300
401.000000	6.474200
400.000000	6.451600
399.000000	6.435000
398.000000	6.415800
397.000000	6.403000
396.000000	6.394300
395.000000	6.388100
394.000000	6.361500
393.000000	6.344000
392.000000	6.324300
391.000000	6.298100
390.000000	6.270800
389.000000	6.255600
388.000000	6.237200
387.000000	6.209800
386.000000	6.177400
385.000000	6.145000
384.000000	6.121300
383.000000	6.095700
382.000000	6.073100
381.000000	6.054300
380.000000	6.031200
379.000000	6.017500
378.000000	6.009800
377.000000	5.964900
376.000000	5.952300
375.000000	5.887700
374.000000	5.834400
373.000000	5.742500
372.000000	5.803000
371.000000	5.828100
370.000000	5.839800
369.000000	5.800300
368.000000	5.752000
367.000000	5.825800
366.000000	5.763400
365.000000	5.776100
364.000000	5.748200
363.000000	5.752800
362.000000	5.687100
361.000000	5.669400
360.000000	5.659100
359.000000	5.698700
358.000000	5.731100
357.000000	5.657100
356.000000	5.618900
355.000000	5.555400
354.000000	5.575700
353.000000	5.604800
352.000000	5.568200
351.000000	5.563900
350.000000	5.618600
349.000000	5.552600
348.000000	5.547300
347.000000	5.464100
346.000000	5.543600
345.000000	5.575000
344.000000	5.506500
343.000000	5.547400
342.000000	5.541400
341.000000	5.518100
340.000000	5.472800
339.000000	5.463500
338.000000	5.485200
337.000000	5.573500
336.000000	5.525800
335.000000	5.449300
334.000000	5.422100
333.000000	5.605600
332.000000	5.500600
331.000000	5.399100
330.000000	5.491100
329.000000	5.537300
328.000000	5.592500
327.000000	5.391800
326.000000	5.464800
325.000000	5.517100
324.000000	5.576900
323.000000	5.655100
322.000000	5.648600
321.000000	5.664600
320.000000	5.479000
319.000000	5.640700
318.000000	5.561000
317.000000	5.691300
316.000000	5.387700
315.000000	5.351400
314.000000	5.345700
313.000000	5.383600
312.000000	5.411800
311.000000	5.397200
310.000000	5.342300
309.000000	5.386000
308.000000	5.438600
307.000000	5.382800
306.000000	5.359300
305.000000	5.296700
304.000000	5.379200
303.000000	5.393900
302.000000	5.443100
301.000000	5.409400
300.000000	5.387600
299.000000	5.394900
298.000000	5.384300
297.000000	5.391000
296.000000	5.375000
295.000000	5.428100
294.000000	5.420800
293.000000	5.456700
292.000000	5.454500
291.000000	5.371400
290.000000	5.374100
289.000000	5.413800
288.000000	5.423100
287.000000	5.382300
286.000000	5.417000
285.000000	5.401700
284.000000	5.428700
283.000000	5.421400
282.000000	5.402500
281.000000	5.423700
280.000000	5.429100
279.000000	5.444000
278.000000	5.439300
277.000000	5.484900
276.000000	5.556600
275.000000	5.494600
274.000000	5.526000
273.000000	5.520400
272.000000	5.497000
271.000000	5.565600
270.000000	5.562700
269.000000	5.634400
268.000000	5.616500
267.000000	5.601100
266.000000	5.661500
265.000000	5.697500
264.000000	5.639400
263.000000	5.774800
262.000000	5.745000
261.000000	5.778400
260.000000	5.794500
259.000000	5.770400
258.000000	5.788900
257.000000	5.820500
256.000000	5.864900
255.000000	5.867300
254.000000	5.896000
253.000000	5.863100
252.000000	5.894700
251.000000	5.915100
250.000000	5.925300
