PE UV       SUBTECH     SPECTRUM    ASCII       PEDS        4.00        
   -1
CICIMAUCR0013-1.Sample.ASC
24/04/04
13:29:52.00
24/04/04
13:29:52.00
Vinicio Soto Monge
C. resplendens
250,000000
1
Lambda 1050
1050L1511233
PerkinElmer UV WinLab 6.3.2.0749 / 2.02.05 Lambda 900 UV/VIS/NIR, Aug  7 2015 09:38:08

0
0
3350/servo 860,8/2
0
0
UV/VIS
1
1
1
DoubleDePol,CommonBeamDepol,RBeamAtt,SBeamAtt,60mm sphere, WB InGaAs Detector
0
0
0
0
Program
Program
3350/servo 860,8/2
3350/0,2 860,8/0,2
3350/0,2 860,8/0,2
0
15.00
 
 
 
0
 
860,8
319,2
860,8
Front
100
on
S:100 R:100
0
0
0
0
 
0
 
 
 
0
 
 
0
0
0
0
0
 
 
 
 
0
0


0
0
#HDR
-1
-1
#GR
nm
%R
1.0
0.0
2500,000000
-1,000000
2251
8
69,170400
4,972700
#DATA
2500.000000	6.380892
2499.000000	6.284749
2498.000000	6.264748
2497.000000	6.266134
2496.000000	6.290096
2495.000000	6.249104
2494.000000	6.309701
2493.000000	6.265342
2492.000000	6.168308
2491.000000	6.203161
2490.000000	6.244747
2489.000000	6.185735
2488.000000	6.232073
2487.000000	6.190091
2486.000000	6.175437
2485.000000	6.252569
2484.000000	6.182170
2483.000000	6.218806
2482.000000	6.202072
2481.000000	6.187715
2480.000000	6.239797
2479.000000	6.205042
2478.000000	6.240688
2477.000000	6.181180
2476.000000	6.199696
2475.000000	6.240985
2474.000000	6.223954
2473.000000	6.258708
2472.000000	6.238113
2471.000000	6.275145
2470.000000	6.255540
2469.000000	6.235935
2468.000000	6.261382
2467.000000	6.283165
2466.000000	6.272075
2465.000000	6.319404
2464.000000	6.338316
2463.000000	6.364159
2462.000000	6.378813
2461.000000	6.397626
2460.000000	6.425548
2459.000000	6.493670
2458.000000	6.553277
2457.000000	6.594170
2456.000000	6.605655
2455.000000	6.663084
2454.000000	6.691402
2453.000000	6.740216
2452.000000	6.811605
2451.000000	6.892896
2450.000000	6.930621
2449.000000	7.009536
2448.000000	7.055874
2447.000000	7.132611
2446.000000	7.174197
2445.000000	7.246081
2444.000000	7.310144
2443.000000	7.367869
2442.000000	7.422327
2441.000000	7.487974
2440.000000	7.556294
2439.000000	7.582236
2438.000000	7.658972
2437.000000	7.686993
2436.000000	7.746204
2435.000000	7.793533
2434.000000	7.853733
2433.000000	7.905221
2432.000000	7.945025
2431.000000	7.996710
2430.000000	8.047109
2429.000000	8.082952
2428.000000	8.116716
2427.000000	8.151074
2426.000000	8.184244
2425.000000	8.218503
2424.000000	8.267713
2423.000000	8.289496
2422.000000	8.319894
2421.000000	8.346430
2420.000000	8.396927
2419.000000	8.431087
2418.000000	8.454455
2417.000000	8.483763
2416.000000	8.509111
2415.000000	8.528814
2414.000000	8.548914
2413.000000	8.579906
2412.000000	8.619116
2411.000000	8.633374
2410.000000	8.652484
2409.000000	8.678821
2408.000000	8.694961
2407.000000	8.726844
2406.000000	8.738032
2405.000000	8.756746
2404.000000	8.802689
2403.000000	8.814075
2402.000000	8.839225
2401.000000	8.871999
2400.000000	8.868632
2399.000000	8.909228
2398.000000	8.947646
2397.000000	8.974974
2396.000000	9.014283
2395.000000	9.021016
2394.000000	9.032402
2393.000000	9.068741
2392.000000	9.096663
2391.000000	9.109832
2390.000000	9.117852
2389.000000	9.123001
2388.000000	9.136764
2387.000000	9.150329
2386.000000	9.152507
2385.000000	9.156468
2384.000000	9.169934
2383.000000	9.176270
2382.000000	9.157557
2381.000000	9.151913
2380.000000	9.145774
2379.000000	9.135377
2378.000000	9.129041
2377.000000	9.118743
2376.000000	9.107059
2375.000000	9.087157
2374.000000	9.053789
2373.000000	9.041116
2372.000000	9.022105
2371.000000	8.996361
2370.000000	8.976162
2369.000000	8.931209
2368.000000	8.887247
2367.000000	8.858137
2366.000000	8.809620
2365.000000	8.758924
2364.000000	8.706744
2363.000000	8.658226
2362.000000	8.605749
2361.000000	8.533567
2360.000000	8.469703
2359.000000	8.428216
2358.000000	8.396135
2357.000000	8.354351
2356.000000	8.310784
2355.000000	8.280783
2354.000000	8.257614
2353.000000	8.236821
2352.000000	8.228899
2351.000000	8.226325
2350.000000	8.246425
2349.000000	8.283555
2348.000000	8.294447
2347.000000	8.313161
2346.000000	8.351083
2345.000000	8.391184
2344.000000	8.434256
2343.000000	8.464356
2342.000000	8.489506
2341.000000	8.507625
2340.000000	8.523369
2339.000000	8.532181
2338.000000	8.537231
2337.000000	8.545746
2336.000000	8.545548
2335.000000	8.529409
2334.000000	8.502378
2333.000000	8.472079
2332.000000	8.428018
2331.000000	8.388412
2330.000000	8.345043
2329.000000	8.293457
2328.000000	8.237019
2327.000000	8.178303
2326.000000	8.131865
2325.000000	8.044732
2324.000000	7.947005
2323.000000	7.871457
2322.000000	7.813633
2321.000000	7.712935
2320.000000	7.629267
2319.000000	7.537580
2318.000000	7.448467
2317.000000	7.342620
2316.000000	7.259448
2315.000000	7.163008
2314.000000	7.061023
2313.000000	6.982901
2312.000000	6.906362
2311.000000	6.820814
2310.000000	6.755266
2309.000000	6.714472
2308.000000	6.678530
2307.000000	6.645756
2306.000000	6.628726
2305.000000	6.633478
2304.000000	6.660311
2303.000000	6.687837
2302.000000	6.710314
2301.000000	6.745266
2300.000000	6.788733
2299.000000	6.858439
2298.000000	6.910026
2297.000000	6.945671
2296.000000	6.993297
2295.000000	7.048151
2294.000000	7.088747
2293.000000	7.102609
2292.000000	7.107956
2291.000000	7.128749
2290.000000	7.123105
2289.000000	7.116768
2288.000000	7.106174
2287.000000	7.068152
2286.000000	7.027259
2285.000000	6.987158
2284.000000	6.950226
2283.000000	6.875866
2282.000000	6.833587
2281.000000	6.787050
2280.000000	6.732988
2279.000000	6.671896
2278.000000	6.606150
2277.000000	6.540207
2276.000000	6.501195
2275.000000	6.469609
2274.000000	6.435053
2273.000000	6.389804
2272.000000	6.350792
2271.000000	6.327920
2270.000000	6.333464
2269.000000	6.332177
2268.000000	6.337227
2267.000000	6.363862
2266.000000	6.400497
2265.000000	6.439311
2264.000000	6.504858
2263.000000	6.582090
2262.000000	6.667638
2261.000000	6.751009
2260.000000	6.873490
2259.000000	6.962108
2258.000000	7.086371
2257.000000	7.200832
2256.000000	7.337868
2255.000000	7.468270
2254.000000	7.588672
2253.000000	7.706499
2252.000000	7.807296
2251.000000	7.936708
2250.000000	8.006414
2249.000000	8.144935
2248.000000	8.219196
2247.000000	8.311478
2246.000000	8.363757
2245.000000	8.450395
2244.000000	8.507427
2243.000000	8.562479
2242.000000	8.652682
2241.000000	8.690703
2240.000000	8.745359
2239.000000	8.792985
2238.000000	8.825264
2237.000000	8.854770
2236.000000	8.901406
2235.000000	8.931309
2234.000000	8.958339
2233.000000	8.954082
2232.000000	8.972400
2231.000000	8.963488
2230.000000	8.963785
2229.000000	8.928734
2228.000000	8.922991
2227.000000	8.894475
2226.000000	8.862988
2225.000000	8.829819
2224.000000	8.793678
2223.000000	8.764766
2222.000000	8.689416
2221.000000	8.651295
2220.000000	8.585748
2219.000000	8.542577
2218.000000	8.482971
2217.000000	8.435345
2216.000000	8.385738
2215.000000	8.334053
2214.000000	8.289694
2213.000000	8.255039
2212.000000	8.255039
2211.000000	8.216226
2210.000000	8.222563
2209.000000	8.253356
2208.000000	8.286130
2207.000000	8.326231
2206.000000	8.390194
2205.000000	8.450593
2204.000000	8.547231
2203.000000	8.624958
2202.000000	8.766746
2201.000000	8.866553
2200.000000	9.003490
2199.000000	9.118545
2198.000000	9.266968
2197.000000	9.396182
2196.000000	9.534307
2195.000000	9.665303
2194.000000	9.787982
2193.000000	9.911255
2192.000000	10.013339
2191.000000	10.100175
2190.000000	10.223844
2189.000000	10.311274
2188.000000	10.391971
2187.000000	10.456330
2186.000000	10.520789
2185.000000	10.590990
2184.000000	10.618516
2183.000000	10.674855
2182.000000	10.700203
2181.000000	10.726937
2180.000000	10.763671
2179.000000	10.805951
2178.000000	10.823971
2177.000000	10.865260
2176.000000	10.896252
2175.000000	10.934372
2174.000000	10.950215
2173.000000	10.989722
2172.000000	11.016356
2171.000000	11.048338
2170.000000	11.075666
2169.000000	11.105965
2168.000000	11.124381
2167.000000	11.157551
2166.000000	11.205474
2165.000000	11.231911
2164.000000	11.262507
2163.000000	11.282904
2162.000000	11.309439
2161.000000	11.357759
2160.000000	11.398454
2159.000000	11.435386
2158.000000	11.481131
2157.000000	11.528262
2156.000000	11.571531
2155.000000	11.619454
2154.000000	11.647970
2153.000000	11.700448
2152.000000	11.745301
2151.000000	11.801047
2150.000000	11.838771
2149.000000	11.885308
2148.000000	11.935409
2147.000000	11.962836
2146.000000	12.005809
2145.000000	12.058583
2144.000000	12.097991
2143.000000	12.152548
2142.000000	12.196115
2141.000000	12.214432
2140.000000	12.242057
2139.000000	12.274435
2138.000000	12.294238
2137.000000	12.331269
2136.000000	12.362558
2135.000000	12.392559
2134.000000	12.432561
2133.000000	12.446621
2132.000000	12.443057
2131.000000	12.456424
2130.000000	12.494346
2129.000000	12.512169
2128.000000	12.521278
2127.000000	12.535338
2126.000000	12.534051
2125.000000	12.533160
2124.000000	12.536527
2123.000000	12.536923
2122.000000	12.529496
2121.000000	12.523061
2120.000000	12.499297
2119.000000	12.503060
2118.000000	12.512466
2117.000000	12.485732
2116.000000	12.467414
2115.000000	12.462959
2114.000000	12.452661
2113.000000	12.437413
2112.000000	12.424343
2111.000000	12.410877
2110.000000	12.395629
2109.000000	12.378499
2108.000000	12.361667
2107.000000	12.346122
2106.000000	12.331071
2105.000000	12.315229
2104.000000	12.307605
2103.000000	12.296515
2102.000000	12.272950
2101.000000	12.259781
2100.000000	12.247305
2099.000000	12.214333
2098.000000	12.188986
2097.000000	12.183342
2096.000000	12.184233
2095.000000	12.180866
2094.000000	12.159875
2093.000000	12.138884
2092.000000	12.128290
2091.000000	12.120765
2090.000000	12.115814
2089.000000	12.105318
2088.000000	12.102051
2087.000000	12.092050
2086.000000	12.079971
2085.000000	12.072643
2084.000000	12.056207
2083.000000	12.040167
2082.000000	12.034721
2081.000000	12.019968
2080.000000	12.018681
2079.000000	12.000066
2078.000000	11.981055
2077.000000	11.975114
2076.000000	11.952935
2075.000000	11.937390
2074.000000	11.912339
2073.000000	11.898378
2072.000000	11.879664
2071.000000	11.867287
2070.000000	11.854118
2069.000000	11.831444
2068.000000	11.811839
2067.000000	11.804017
2066.000000	11.798571
2065.000000	11.778471
2064.000000	11.769263
2063.000000	11.758173
2062.000000	11.737875
2061.000000	11.747282
2060.000000	11.740450
2059.000000	11.731835
2058.000000	11.751044
2057.000000	11.765302
2056.000000	11.781244
2055.000000	11.798769
2054.000000	11.845702
2053.000000	11.883526
2052.000000	11.931845
2051.000000	12.003036
2050.000000	12.068386
2049.000000	12.130468
2048.000000	12.205026
2047.000000	12.286911
2046.000000	12.396124
2045.000000	12.481177
2044.000000	12.576429
2043.000000	12.687326
2042.000000	12.784162
2041.000000	12.894860
2040.000000	12.996152
2039.000000	13.116158
2038.000000	13.226658
2037.000000	13.307256
2036.000000	13.385774
2035.000000	13.497165
2034.000000	13.591823
2033.000000	13.686877
2032.000000	13.769752
2031.000000	13.848271
2030.000000	13.918967
2029.000000	13.983030
2028.000000	14.065608
2027.000000	14.138780
2026.000000	14.210565
2025.000000	14.288391
2024.000000	14.327006
2023.000000	14.401366
2022.000000	14.477112
2021.000000	14.531966
2020.000000	14.587513
2019.000000	14.649596
2018.000000	14.702469
2017.000000	14.760591
2016.000000	14.809999
2015.000000	14.841090
2014.000000	14.872972
2013.000000	14.914756
2012.000000	14.979512
2011.000000	15.006048
2010.000000	15.033277
2009.000000	15.047634
2008.000000	15.090012
2007.000000	15.077635
2006.000000	15.109122
2005.000000	15.129222
2004.000000	15.130707
2003.000000	15.126846
2002.000000	15.111795
2001.000000	15.116647
2000.000000	15.122687
1999.000000	15.122093
1998.000000	15.099320
1997.000000	15.102587
1996.000000	15.072685
1995.000000	15.064169
1994.000000	15.035653
1993.000000	15.005256
1992.000000	14.972185
1991.000000	14.940797
1990.000000	14.906736
1989.000000	14.874260
1988.000000	14.836832
1987.000000	14.792176
1986.000000	14.763165
1985.000000	14.719104
1984.000000	14.657616
1983.000000	14.617614
1982.000000	14.580582
1981.000000	14.535927
1980.000000	14.475033
1979.000000	14.444933
1978.000000	14.393346
1977.000000	14.327303
1976.000000	14.300965
1975.000000	14.244428
1974.000000	14.209575
1973.000000	14.165910
1972.000000	14.112838
1971.000000	14.090956
1970.000000	14.021546
1969.000000	13.999664
1968.000000	13.952236
1967.000000	13.915700
1966.000000	13.887679
1965.000000	13.857974
1964.000000	13.828963
1963.000000	13.793120
1962.000000	13.738167
1961.000000	13.702027
1960.000000	13.675392
1959.000000	13.645192
1958.000000	13.601626
1957.000000	13.562515
1956.000000	13.516176
1955.000000	13.494987
1954.000000	13.469342
1953.000000	13.432707
1952.000000	13.394784
1951.000000	13.379734
1950.000000	13.328742
1949.000000	13.310424
1948.000000	13.285769
1947.000000	13.269135
1946.000000	13.250619
1945.000000	13.240916
1944.000000	13.215073
1943.000000	13.226064
1942.000000	13.209330
1941.000000	13.221113
1940.000000	13.268145
1939.000000	13.286463
1938.000000	13.292304
1937.000000	13.312701
1936.000000	13.358842
1935.000000	13.389240
1934.000000	13.420924
1933.000000	13.490928
1932.000000	13.547366
1931.000000	13.611329
1930.000000	13.680936
1929.000000	13.763614
1928.000000	13.838766
1927.000000	13.932928
1926.000000	14.023230
1925.000000	14.123036
1924.000000	14.224031
1923.000000	14.350770
1922.000000	14.459191
1921.000000	14.598306
1920.000000	14.735441
1919.000000	14.855447
1918.000000	15.002384
1917.000000	15.128133
1916.000000	15.267149
1915.000000	15.414582
1914.000000	15.600432
1913.000000	15.777470
1912.000000	15.956785
1911.000000	16.112634
1910.000000	16.267592
1909.000000	16.437600
1908.000000	16.606123
1907.000000	16.794844
1906.000000	16.999111
1905.000000	17.198527
1904.000000	17.394971
1903.000000	17.575574
1902.000000	17.754988
1901.000000	17.939650
1900.000000	18.138174
1899.000000	18.321153
1898.000000	18.522054
1897.000000	18.726816
1896.000000	18.900190
1895.000000	19.073169
1894.000000	19.247533
1893.000000	19.431601
1892.000000	19.604679
1891.000000	19.808649
1890.000000	20.000935
1889.000000	20.161833
1888.000000	20.354417
1887.000000	20.561060
1886.000000	20.802754
1885.000000	21.064945
1884.000000	21.361691
1883.000000	21.680023
1882.000000	22.020039
1881.000000	22.345599
1880.000000	22.679872
1879.000000	22.998204
1878.000000	23.320991
1877.000000	23.615955
1876.000000	23.894978
1875.000000	24.152713
1874.000000	24.364703
1873.000000	24.562138
1872.000000	24.742444
1871.000000	24.894926
1870.000000	24.991861
1869.000000	25.089985
1868.000000	25.168602
1867.000000	25.200188
1866.000000	25.217614
1865.000000	25.224050
1864.000000	25.251279
1863.000000	25.272567
1862.000000	25.281380
1861.000000	25.276825
1860.000000	25.280092
1859.000000	25.247121
1858.000000	25.199693
1857.000000	25.149789
1856.000000	25.090084
1855.000000	25.030378
1854.000000	24.954731
1853.000000	24.851360
1852.000000	24.766207
1851.000000	24.712937
1850.000000	24.665707
1849.000000	24.609269
1848.000000	24.508472
1847.000000	24.392724
1846.000000	24.289947
1845.000000	24.202319
1844.000000	24.153010
1843.000000	24.140336
1842.000000	24.118157
1841.000000	24.071323
1840.000000	23.998052
1839.000000	23.949634
1838.000000	23.913494
1837.000000	23.847154
1836.000000	23.771507
1835.000000	23.678037
1834.000000	23.583379
1833.000000	23.522287
1832.000000	23.450007
1831.000000	23.370993
1830.000000	23.301485
1829.000000	23.199698
1828.000000	23.109001
1827.000000	23.048998
1826.000000	22.965727
1825.000000	22.890575
1824.000000	22.860969
1823.000000	22.864237
1822.000000	22.886416
1821.000000	22.873940
1820.000000	22.804927
1819.000000	22.764925
1818.000000	22.759480
1817.000000	22.753440
1816.000000	22.760371
1815.000000	22.762846
1814.000000	22.767896
1813.000000	22.770965
1812.000000	22.760767
1811.000000	22.737696
1810.000000	22.702150
1809.000000	22.680169
1808.000000	22.660465
1807.000000	22.650762
1806.000000	22.611255
1805.000000	22.557886
1804.000000	22.509765
1803.000000	22.482536
1802.000000	22.457980
1801.000000	22.418176
1800.000000	22.378373
1799.000000	22.340648
1798.000000	22.315003
1797.000000	22.290646
1796.000000	22.257773
1795.000000	22.217870
1794.000000	22.191037
1793.000000	22.158164
1792.000000	22.111330
1791.000000	22.064695
1790.000000	22.027465
1789.000000	21.965383
1788.000000	21.927857
1787.000000	21.878448
1786.000000	21.808940
1785.000000	21.742996
1784.000000	21.681211
1783.000000	21.626654
1782.000000	21.554275
1781.000000	21.474568
1780.000000	21.398525
1779.000000	21.338522
1778.000000	21.258122
1777.000000	21.176336
1776.000000	21.065044
1775.000000	20.954742
1774.000000	20.836419
1773.000000	20.719186
1772.000000	20.603537
1771.000000	20.465511
1770.000000	20.343723
1769.000000	20.242926
1768.000000	20.139357
1767.000000	20.042323
1766.000000	19.956180
1765.000000	19.893504
1764.000000	19.840531
1763.000000	19.826273
1762.000000	19.834986
1761.000000	19.868453
1760.000000	19.924892
1759.000000	19.983607
1758.000000	20.052323
1757.000000	20.093711
1756.000000	20.135397
1755.000000	20.174408
1754.000000	20.174111
1753.000000	20.160348
1752.000000	20.131436
1751.000000	20.094603
1750.000000	20.026877
1749.000000	19.965983
1748.000000	19.895781
1747.000000	19.796272
1746.000000	19.678246
1745.000000	19.546854
1744.000000	19.375064
1743.000000	19.193669
1742.000000	19.010492
1741.000000	18.798799
1740.000000	18.587106
1739.000000	18.363036
1738.000000	18.174810
1737.000000	18.002525
1736.000000	17.872816
1735.000000	17.788257
1734.000000	17.748057
1733.000000	17.740334
1732.000000	17.766078
1731.000000	17.823407
1730.000000	17.901827
1729.000000	17.991237
1728.000000	18.101242
1727.000000	18.190850
1726.000000	18.256794
1725.000000	18.320460
1724.000000	18.352640
1723.000000	18.367492
1722.000000	18.361848
1721.000000	18.342837
1720.000000	18.336303
1719.000000	18.353432
1718.000000	18.345907
1717.000000	18.357591
1716.000000	18.379869
1715.000000	18.424723
1714.000000	18.450565
1713.000000	18.496310
1712.000000	18.516806
1711.000000	18.532450
1710.000000	18.545718
1709.000000	18.531361
1708.000000	18.494132
1707.000000	18.472348
1706.000000	18.443139
1705.000000	18.390166
1704.000000	18.364621
1703.000000	18.266002
1702.000000	18.168968
1701.000000	18.047675
1700.000000	17.914006
1699.000000	17.771623
1698.000000	17.641023
1697.000000	17.524185
1696.000000	17.465767
1695.000000	17.449825
1694.000000	17.489035
1693.000000	17.612506
1692.000000	17.747859
1691.000000	17.894005
1690.000000	18.037972
1689.000000	18.125600
1688.000000	18.193821
1687.000000	18.193722
1686.000000	18.196296
1685.000000	18.206792
1684.000000	18.279171
1683.000000	18.468586
1682.000000	18.737905
1681.000000	19.125052
1680.000000	19.590916
1679.000000	20.127673
1678.000000	20.613736
1677.000000	21.104650
1676.000000	21.525560
1675.000000	21.897855
1674.000000	22.237970
1673.000000	22.530459
1672.000000	22.769282
1671.000000	23.004144
1670.000000	23.196728
1669.000000	23.349507
1668.000000	23.498425
1667.000000	23.604965
1666.000000	23.710910
1665.000000	23.807548
1664.000000	23.882205
1663.000000	23.974784
1662.000000	24.043005
1661.000000	24.107760
1660.000000	24.160733
1659.000000	24.180437
1658.000000	24.216577
1657.000000	24.235984
1656.000000	24.267174
1655.000000	24.272025
1654.000000	24.277669
1653.000000	24.289155
1652.000000	24.272125
1651.000000	24.265590
1650.000000	24.231132
1649.000000	24.219449
1648.000000	24.207567
1647.000000	24.168258
1646.000000	24.139841
1645.000000	24.094988
1644.000000	24.036866
1643.000000	23.995973
1642.000000	23.950921
1641.000000	23.919039
1640.000000	23.865670
1639.000000	23.803489
1638.000000	23.748239
1637.000000	23.686652
1636.000000	23.626055
1635.000000	23.581003
1634.000000	23.519911
1633.000000	23.456047
1632.000000	23.389905
1631.000000	23.324853
1630.000000	23.259107
1629.000000	23.174647
1628.000000	23.102763
1627.000000	23.024046
1626.000000	22.943152
1625.000000	22.847702
1624.000000	22.776906
1623.000000	22.714428
1622.000000	22.647593
1621.000000	22.560262
1620.000000	22.485605
1619.000000	22.411146
1618.000000	22.330945
1617.000000	22.240346
1616.000000	22.172719
1615.000000	22.104399
1614.000000	22.036872
1613.000000	21.955482
1612.000000	21.888944
1611.000000	21.813099
1610.000000	21.731709
1609.000000	21.677053
1608.000000	21.610218
1607.000000	21.527838
1606.000000	21.458825
1605.000000	21.375355
1604.000000	21.313174
1603.000000	21.250102
1602.000000	21.172277
1601.000000	21.098907
1600.000000	21.039003
1599.000000	20.971376
1598.000000	20.915730
1597.000000	20.852658
1596.000000	20.785823
1595.000000	20.724632
1594.000000	20.671659
1593.000000	20.622152
1592.000000	20.573536
1591.000000	20.533732
1590.000000	20.480066
1589.000000	20.442045
1588.000000	20.419073
1587.000000	20.379962
1586.000000	20.343030
1585.000000	20.305107
1584.000000	20.279166
1583.000000	20.256590
1582.000000	20.235401
1581.000000	20.211935
1580.000000	20.185498
1579.000000	20.178765
1578.000000	20.179557
1577.000000	20.187478
1576.000000	20.186191
1575.000000	20.184211
1574.000000	20.198073
1573.000000	20.206786
1572.000000	20.216687
1571.000000	20.246392
1570.000000	20.261442
1569.000000	20.286988
1568.000000	20.322732
1567.000000	20.337089
1566.000000	20.370754
1565.000000	20.416598
1564.000000	20.445906
1563.000000	20.462342
1562.000000	20.489076
1561.000000	20.535712
1560.000000	20.577298
1559.000000	20.607894
1558.000000	20.630766
1557.000000	20.646609
1556.000000	20.673045
1555.000000	20.692353
1554.000000	20.704433
1553.000000	20.722454
1552.000000	20.729385
1551.000000	20.738692
1550.000000	20.755723
1549.000000	20.756911
1548.000000	20.762951
1547.000000	20.775426
1546.000000	20.783645
1545.000000	20.803646
1544.000000	20.808893
1543.000000	20.832459
1542.000000	20.849390
1541.000000	20.858896
1540.000000	20.881570
1539.000000	20.911373
1538.000000	20.929889
1537.000000	20.949395
1536.000000	20.951573
1535.000000	20.960485
1534.000000	20.975238
1533.000000	20.992367
1532.000000	21.001576
1531.000000	21.011081
1530.000000	21.010586
1529.000000	21.010883
1528.000000	21.013061
1527.000000	21.016230
1526.000000	21.012269
1525.000000	21.016824
1524.000000	21.000387
1523.000000	20.987516
1522.000000	20.999496
1521.000000	20.991971
1520.000000	20.985238
1519.000000	20.969792
1518.000000	20.973654
1517.000000	20.955039
1516.000000	20.936523
1515.000000	20.933058
1514.000000	20.911868
1513.000000	20.906819
1512.000000	20.896224
1511.000000	20.875926
1510.000000	20.851866
1509.000000	20.837211
1508.000000	20.818201
1507.000000	20.790378
1506.000000	20.773248
1505.000000	20.752257
1504.000000	20.725523
1503.000000	20.702750
1502.000000	20.696809
1501.000000	20.694532
1500.000000	20.673639
1499.000000	20.668788
1498.000000	20.661560
1497.000000	20.645618
1496.000000	20.634628
1495.000000	20.630568
1494.000000	20.622944
1493.000000	20.636806
1492.000000	20.630073
1491.000000	20.639876
1490.000000	20.646807
1489.000000	20.650074
1488.000000	20.648688
1487.000000	20.682452
1486.000000	20.681165
1485.000000	20.676214
1484.000000	20.697106
1483.000000	20.714830
1482.000000	20.732355
1481.000000	20.757307
1480.000000	20.788298
1479.000000	20.796913
1478.000000	20.851173
1477.000000	20.883055
1476.000000	20.905730
1475.000000	20.933355
1474.000000	20.988704
1473.000000	21.031973
1472.000000	21.073658
1471.000000	21.122076
1470.000000	21.145741
1469.000000	21.167227
1468.000000	21.209902
1467.000000	21.278915
1466.000000	21.316145
1465.000000	21.358424
1464.000000	21.406347
1463.000000	21.463082
1462.000000	21.556948
1461.000000	21.620713
1460.000000	21.672102
1459.000000	21.761908
1458.000000	21.865774
1457.000000	21.962017
1456.000000	22.080339
1455.000000	22.157669
1454.000000	22.282527
1453.000000	22.389066
1452.000000	22.506893
1451.000000	22.616602
1450.000000	22.700764
1449.000000	22.805422
1448.000000	22.923349
1447.000000	23.069197
1446.000000	23.214847
1445.000000	23.330298
1444.000000	23.445947
1443.000000	23.554269
1442.000000	23.717841
1441.000000	23.834084
1440.000000	23.962803
1439.000000	24.065382
1438.000000	24.203705
1437.000000	24.306978
1436.000000	24.437380
1435.000000	24.524711
1434.000000	24.650855
1433.000000	24.773534
1432.000000	24.882351
1431.000000	24.993247
1430.000000	25.106421
1429.000000	25.254052
1428.000000	25.411584
1427.000000	25.561789
1426.000000	25.706746
1425.000000	25.916756
1424.000000	26.089338
1423.000000	26.250435
1422.000000	26.398858
1421.000000	26.589461
1420.000000	26.793529
1419.000000	26.965221
1418.000000	27.092751
1417.000000	27.189588
1416.000000	27.350387
1415.000000	27.520395
1414.000000	27.656243
1413.000000	27.736346
1412.000000	27.810805
1411.000000	27.947247
1410.000000	28.101511
1409.000000	28.329839
1408.000000	28.519452
1407.000000	28.772434
1406.000000	28.970166
1405.000000	29.243446
1404.000000	29.488804
1403.000000	29.707032
1402.000000	29.931597
1401.000000	30.200520
1400.000000	30.371320
1399.000000	30.457661
1398.000000	30.493900
1397.000000	30.601925
1396.000000	30.635788
1395.000000	30.611332
1394.000000	30.520139
1393.000000	30.456275
1392.000000	30.433898
1391.000000	30.347062
1390.000000	30.359439
1389.000000	30.393797
1388.000000	30.469840
1387.000000	30.510832
1386.000000	30.637769
1385.000000	30.823124
1384.000000	31.115118
1383.000000	31.344237
1382.000000	31.636528
1381.000000	31.862974
1380.000000	32.047240
1379.000000	32.308738
1378.000000	32.564492
1377.000000	32.889953
1376.000000	33.276803
1375.000000	33.726032
1374.000000	34.273978
1373.000000	34.855589
1372.000000	35.451954
1371.000000	36.016634
1370.000000	36.481309
1369.000000	36.903210
1368.000000	37.298377
1367.000000	37.616412
1366.000000	37.885434
1365.000000	38.139109
1364.000000	38.349515
1363.000000	38.552990
1362.000000	38.748742
1361.000000	38.852905
1360.000000	38.916967
1359.000000	38.990832
1358.000000	39.102719
1357.000000	39.297480
1356.000000	39.612544
1355.000000	40.066031
1354.000000	40.652296
1353.000000	41.254007
1352.000000	41.886710
1351.000000	42.506937
1350.000000	43.083103
1349.000000	43.599463
1348.000000	44.068198
1347.000000	44.514358
1346.000000	44.895861
1345.000000	45.275284
1344.000000	45.671937
1343.000000	46.013141
1342.000000	46.325928
1341.000000	46.634754
1340.000000	46.941897
1339.000000	47.214682
1338.000000	47.471130
1337.000000	47.722924
1336.000000	47.964222
1335.000000	48.191856
1334.000000	48.407411
1333.000000	48.608806
1332.000000	48.797825
1331.000000	48.975655
1330.000000	49.149525
1329.000000	49.313196
1328.000000	49.452113
1327.000000	49.575089
1326.000000	49.701234
1325.000000	49.819160
1324.000000	49.935799
1323.000000	50.047983
1322.000000	50.137591
1321.000000	50.222644
1320.000000	50.316015
1319.000000	50.396712
1318.000000	50.478399
1317.000000	50.553353
1316.000000	50.615534
1315.000000	50.680785
1314.000000	50.742570
1313.000000	50.791186
1312.000000	50.836336
1311.000000	50.884754
1310.000000	50.923865
1309.000000	50.954857
1308.000000	50.980303
1307.000000	51.004463
1306.000000	51.018226
1305.000000	51.022781
1304.000000	51.022979
1303.000000	51.033870
1302.000000	51.028425
1301.000000	51.005255
1300.000000	50.989809
1299.000000	50.980799
1298.000000	50.957035
1297.000000	50.937034
1296.000000	50.923865
1295.000000	50.890992
1294.000000	50.851189
1293.000000	50.819405
1292.000000	50.791483
1291.000000	50.761877
1290.000000	50.713657
1289.000000	50.656031
1288.000000	50.606722
1287.000000	50.537114
1286.000000	50.462358
1285.000000	50.387999
1284.000000	50.314926
1283.000000	50.242348
1282.000000	50.173929
1281.000000	50.102738
1280.000000	50.022833
1279.000000	49.945701
1278.000000	49.878569
1277.000000	49.823418
1276.000000	49.762227
1275.000000	49.701135
1274.000000	49.648855
1273.000000	49.608853
1272.000000	49.569049
1271.000000	49.510037
1270.000000	49.463896
1269.000000	49.410329
1268.000000	49.358743
1267.000000	49.305869
1266.000000	49.250025
1265.000000	49.200220
1264.000000	49.141901
1263.000000	49.088334
1262.000000	49.030509
1261.000000	48.976150
1260.000000	48.922187
1259.000000	48.861393
1258.000000	48.801588
1257.000000	48.739704
1256.000000	48.638412
1255.000000	48.560883
1254.000000	48.490484
1253.000000	48.393945
1252.000000	48.319090
1251.000000	48.218491
1250.000000	48.109377
1249.000000	48.007986
1248.000000	47.874416
1247.000000	47.758965
1246.000000	47.621335
1245.000000	47.504002
1244.000000	47.360332
1243.000000	47.189532
1242.000000	47.045664
1241.000000	46.886647
1240.000000	46.719312
1239.000000	46.565444
1238.000000	46.384049
1237.000000	46.200872
1236.000000	46.021062
1235.000000	45.857490
1234.000000	45.670649
1233.000000	45.479353
1232.000000	45.300929
1231.000000	45.108940
1230.000000	44.901901
1229.000000	44.705654
1228.000000	44.512080
1227.000000	44.291872
1226.000000	44.115824
1225.000000	43.926607
1224.000000	43.729767
1223.000000	43.532233
1222.000000	43.362918
1221.000000	43.184989
1220.000000	43.022110
1219.000000	42.875766
1218.000000	42.731007
1217.000000	42.585654
1216.000000	42.455351
1215.000000	42.337622
1214.000000	42.222468
1213.000000	42.118404
1212.000000	41.994141
1211.000000	41.922256
1210.000000	41.833638
1209.000000	41.739674
1208.000000	41.667888
1207.000000	41.627193
1206.000000	41.583726
1205.000000	41.579171
1204.000000	41.580557
1203.000000	41.578874
1202.000000	41.555705
1201.000000	41.535308
1200.000000	41.518277
1199.000000	41.443620
1198.000000	41.343516
1197.000000	41.184598
1196.000000	40.999639
1195.000000	40.734577
1194.000000	40.411196
1193.000000	39.985136
1192.000000	39.510361
1191.000000	39.004100
1190.000000	38.507839
1189.000000	38.073661
1188.000000	37.741368
1187.000000	37.547299
1186.000000	37.508387
1185.000000	37.570271
1184.000000	37.787806
1183.000000	38.140495
1182.000000	38.603685
1181.000000	39.134106
1180.000000	39.668290
1179.000000	40.178214
1178.000000	40.643484
1177.000000	41.025383
1176.000000	41.356784
1175.000000	41.653630
1174.000000	41.961466
1173.000000	42.319503
1172.000000	42.655162
1171.000000	43.012604
1170.000000	43.389454
1169.000000	43.756699
1168.000000	44.142954
1167.000000	44.520695
1166.000000	44.889524
1165.000000	45.311425
1164.000000	45.746296
1163.000000	46.138196
1162.000000	46.551978
1161.000000	46.929124
1160.000000	47.317459
1159.000000	47.692328
1158.000000	48.058088
1157.000000	48.354042
1156.000000	48.635144
1155.000000	48.849511
1154.000000	48.987735
1153.000000	49.063877
1152.000000	49.087344
1151.000000	49.081106
1150.000000	49.051599
1149.000000	49.042094
1148.000000	49.016944
1147.000000	49.050411
1146.000000	49.150416
1145.000000	49.342900
1144.000000	49.612418
1143.000000	49.928769
1142.000000	50.288489
1141.000000	50.674547
1140.000000	51.046346
1139.000000	51.423294
1138.000000	51.847968
1137.000000	52.233035
1136.000000	52.640084
1135.000000	53.045747
1134.000000	53.422695
1133.000000	53.700728
1132.000000	53.996187
1131.000000	54.306003
1130.000000	54.531757
1129.000000	54.738796
1128.000000	54.902962
1127.000000	55.056633
1126.000000	55.163370
1125.000000	55.236443
1124.000000	55.311991
1123.000000	55.377935
1122.000000	55.439918
1121.000000	55.480316
1120.000000	55.525763
1119.000000	55.548636
1118.000000	55.560716
1117.000000	55.558933
1116.000000	55.559131
1115.000000	55.541210
1114.000000	55.530813
1113.000000	55.531605
1112.000000	55.506456
1111.000000	55.506456
1110.000000	55.486554
1109.000000	55.492098
1108.000000	55.475959
1107.000000	55.460612
1106.000000	55.457839
1105.000000	55.447047
1104.000000	55.417640
1103.000000	55.410312
1102.000000	55.410412
1101.000000	55.384074
1100.000000	55.353280
1099.000000	55.314367
1098.000000	55.296644
1097.000000	55.260206
1096.000000	55.230205
1095.000000	55.204263
1094.000000	55.150993
1093.000000	55.104457
1092.000000	55.080000
1091.000000	55.031978
1090.000000	54.977223
1089.000000	54.925537
1088.000000	54.877020
1087.000000	54.817513
1086.000000	54.753846
1085.000000	54.687011
1084.000000	54.650277
1083.000000	54.596710
1082.000000	54.543044
1081.000000	54.473140
1080.000000	54.411751
1079.000000	54.372046
1078.000000	54.327985
1077.000000	54.275012
1076.000000	54.235901
1075.000000	54.198771
1074.000000	54.149362
1073.000000	54.100548
1072.000000	54.065299
1071.000000	54.005098
1070.000000	53.961334
1069.000000	53.924401
1068.000000	53.880835
1067.000000	53.839546
1066.000000	53.797465
1065.000000	53.753007
1064.000000	53.706966
1063.000000	53.656963
1062.000000	53.612308
1061.000000	53.573989
1060.000000	53.532403
1059.000000	53.478044
1058.000000	53.432992
1057.000000	53.378039
1056.000000	53.324670
1055.000000	53.268727
1054.000000	53.218824
1053.000000	53.160504
1052.000000	53.104462
1051.000000	53.063965
1050.000000	53.017032
1049.000000	52.975842
1048.000000	52.933068
1047.000000	52.890195
1046.000000	52.843064
1045.000000	52.808013
1044.000000	52.778308
1043.000000	52.744940
1042.000000	52.702463
1041.000000	52.651174
1040.000000	52.620182
1039.000000	52.595329
1038.000000	52.555031
1037.000000	52.501959
1036.000000	52.456808
1035.000000	52.419876
1034.000000	52.376705
1033.000000	52.331951
1032.000000	52.280760
1031.000000	52.234620
1030.000000	52.188875
1029.000000	52.148180
1028.000000	52.098871
1027.000000	52.055502
1026.000000	52.026590
1025.000000	51.977677
1024.000000	51.926783
1023.000000	51.886088
1022.000000	51.845294
1021.000000	51.810639
1020.000000	51.785985
1019.000000	51.755686
1018.000000	51.719645
1017.000000	51.696476
1016.000000	51.680831
1015.000000	51.662811
1014.000000	51.657365
1013.000000	51.661028
1012.000000	51.658454
1011.000000	51.671029
1010.000000	51.700139
1009.000000	51.726972
1008.000000	51.751231
1007.000000	51.785391
1006.000000	51.819551
1005.000000	51.850047
1004.000000	51.882623
1003.000000	51.913416
1002.000000	51.941437
1001.000000	51.979162
1000.000000	52.022530
999.000000	52.058374
998.000000	52.095702
997.000000	52.144219
996.000000	52.191944
995.000000	52.258680
994.000000	52.314524
993.000000	52.386310
992.000000	52.457402
991.000000	52.525821
990.000000	52.598597
989.000000	52.685829
988.000000	52.773259
987.000000	52.854549
986.000000	52.955742
985.000000	53.051192
984.000000	53.133869
983.000000	53.227636
982.000000	53.322888
981.000000	53.415170
980.000000	53.496461
979.000000	53.589336
978.000000	53.682707
977.000000	53.740630
976.000000	53.800039
975.000000	53.869151
974.000000	53.933115
973.000000	53.966681
972.000000	54.009554
971.000000	54.053417
970.000000	54.088667
969.000000	54.094904
968.000000	54.103816
967.000000	54.091736
966.000000	54.108965
965.000000	54.121143
964.000000	54.127678
963.000000	54.127876
962.000000	54.150452
961.000000	54.181740
960.000000	54.219960
959.000000	54.247783
958.000000	54.289171
957.000000	54.333133
956.000000	54.375413
955.000000	54.422940
954.000000	54.487992
953.000000	54.526806
952.000000	54.571164
951.000000	54.630474
950.000000	54.692754
949.000000	54.746618
948.000000	54.789392
947.000000	54.846425
946.000000	54.894447
945.000000	54.967421
944.000000	55.026136
943.000000	55.096337
942.000000	55.149310
941.000000	55.218521
940.000000	55.272979
939.000000	55.329121
938.000000	55.386648
937.000000	55.472494
936.000000	55.563290
935.000000	55.604876
934.000000	55.677256
933.000000	55.722802
932.000000	55.772211
931.000000	55.824688
930.000000	55.836867
929.000000	55.877859
928.000000	55.902217
927.000000	55.908851
926.000000	55.940436
925.000000	55.982616
924.000000	55.983310
923.000000	56.027470
922.000000	56.039847
921.000000	56.083512
920.000000	56.109652
919.000000	56.148070
918.000000	56.210944
917.000000	56.214508
916.000000	56.265798
915.000000	56.287581
914.000000	56.344911
913.000000	56.382635
912.000000	56.447094
911.000000	56.487195
910.000000	56.549871
909.000000	56.635716
908.000000	56.700967
907.000000	56.783248
906.000000	56.895035
905.000000	56.985931
904.000000	57.085440
903.000000	57.198218
902.000000	57.308718
901.000000	57.420208
900.000000	57.537343
899.000000	57.650219
898.000000	57.770027
897.000000	57.863893
896.000000	57.961917
895.000000	58.073110
894.000000	58.157075
893.000000	58.273219
892.000000	58.339558
891.000000	58.443623
890.000000	58.524418
889.000000	58.602343
888.000000	58.660662
887.000000	58.774727
886.000000	58.844334
885.000000	58.921962
884.000000	58.998896
883.000000	59.094445
882.000000	59.169894
881.000000	59.239501
880.000000	59.329902
879.000000	59.416638
878.000000	59.504266
877.000000	59.583379
876.000000	59.674571
875.000000	59.734376
874.000000	59.823192
873.000000	59.933098
872.000000	60.028845
871.000000	60.108255
870.000000	60.213903
869.000000	60.311433
868.000000	60.408269
867.000000	60.514808
866.000000	60.612932
865.000000	60.703530
864.000000	60.781455
863.000000	60.857300
862.000000	60.940274
861.000000	60.976612
860.000000	60.979583
859.000000	61.037407
858.000000	61.081667
857.000000	61.302800
856.000000	60.964500
855.000000	60.977700
854.000000	60.889800
853.000000	61.360000
852.000000	61.443100
851.000000	61.686000
850.000000	62.084000
849.000000	62.259000
848.000000	62.343100
847.000000	62.464600
846.000000	62.588600
845.000000	63.050200
844.000000	63.116300
843.000000	63.452300
842.000000	63.623200
841.000000	63.569100
840.000000	63.840500
839.000000	64.328100
838.000000	64.460700
837.000000	64.420800
836.000000	64.920800
835.000000	65.034700
834.000000	65.297100
833.000000	65.512300
832.000000	65.509300
831.000000	65.752400
830.000000	66.101300
829.000000	66.215100
828.000000	66.554100
827.000000	66.529000
826.000000	66.709100
825.000000	67.049100
824.000000	67.297800
823.000000	67.473500
822.000000	67.762100
821.000000	67.912900
820.000000	67.997100
819.000000	68.236700
818.000000	68.410500
817.000000	68.669600
816.000000	68.771900
815.000000	68.859800
814.000000	68.989200
813.000000	69.066300
812.000000	69.113300
811.000000	69.046600
810.000000	69.102800
809.000000	69.170400
808.000000	69.120700
807.000000	69.124900
806.000000	69.043300
805.000000	68.880300
804.000000	68.688700
803.000000	68.569800
802.000000	68.533700
801.000000	68.280200
800.000000	68.088000
799.000000	67.994900
798.000000	67.880600
797.000000	67.812000
796.000000	67.762200
795.000000	67.706700
794.000000	67.622500
793.000000	67.562500
792.000000	67.615500
791.000000	67.698500
790.000000	67.699200
789.000000	67.653200
788.000000	67.726900
787.000000	67.895000
786.000000	67.866900
785.000000	67.883100
784.000000	67.956800
783.000000	68.106500
782.000000	68.164900
781.000000	68.271100
780.000000	68.331700
779.000000	68.373200
778.000000	68.437300
777.000000	68.439700
776.000000	68.332400
775.000000	68.367900
774.000000	68.273500
773.000000	68.181400
772.000000	68.077500
771.000000	67.945700
770.000000	67.818800
769.000000	67.731700
768.000000	67.641600
767.000000	67.489300
766.000000	67.284100
765.000000	67.113100
764.000000	66.968100
763.000000	66.907000
762.000000	66.825600
761.000000	66.738200
760.000000	66.633200
759.000000	66.522500
758.000000	66.468900
757.000000	66.458100
756.000000	66.459400
755.000000	66.409700
754.000000	66.318500
753.000000	66.268200
752.000000	66.238300
751.000000	66.153100
750.000000	66.093300
749.000000	66.023900
748.000000	65.948200
747.000000	65.835900
746.000000	65.676100
745.000000	65.546700
744.000000	65.372300
743.000000	65.192300
742.000000	64.977900
741.000000	64.692000
740.000000	64.472000
739.000000	64.259100
738.000000	64.004700
737.000000	63.715300
736.000000	63.378600
735.000000	63.032800
734.000000	62.650200
733.000000	62.263000
732.000000	61.847700
731.000000	61.438900
730.000000	61.071100
729.000000	60.654600
728.000000	60.209800
727.000000	59.790500
726.000000	59.394100
725.000000	58.995800
724.000000	58.611400
723.000000	58.170700
722.000000	57.715400
721.000000	57.348200
720.000000	57.015300
719.000000	56.619200
718.000000	56.286100
717.000000	55.981200
716.000000	55.728400
715.000000	55.474500
714.000000	55.230100
713.000000	55.033200
712.000000	54.832600
711.000000	54.707100
710.000000	54.648400
709.000000	54.607500
708.000000	54.622300
707.000000	54.706300
706.000000	54.760300
705.000000	54.886600
704.000000	55.101900
703.000000	55.283800
702.000000	55.433800
701.000000	55.642400
700.000000	55.900400
699.000000	56.125200
698.000000	56.372700
697.000000	56.584000
696.000000	56.782500
695.000000	56.963700
694.000000	57.137600
693.000000	57.314000
692.000000	57.462300
691.000000	57.671000
690.000000	57.804500
689.000000	57.910200
688.000000	57.986800
687.000000	58.008000
686.000000	58.024900
685.000000	58.086200
684.000000	58.067000
683.000000	57.999000
682.000000	57.929000
681.000000	57.784600
680.000000	57.633100
679.000000	57.487200
678.000000	57.297400
677.000000	57.103700
676.000000	56.838600
675.000000	56.668800
674.000000	56.436900
673.000000	56.207200
672.000000	55.958400
671.000000	55.725700
670.000000	55.489700
669.000000	55.224300
668.000000	54.971600
667.000000	54.689700
666.000000	54.460200
665.000000	54.211200
664.000000	53.916900
663.000000	53.575900
662.000000	53.248200
661.000000	52.904300
660.000000	52.481700
659.000000	52.041900
658.000000	51.579800
657.000000	51.087500
656.000000	50.587800
655.000000	50.059800
654.000000	49.527500
653.000000	48.981000
652.000000	48.375600
651.000000	47.776200
650.000000	47.226700
649.000000	46.687900
648.000000	46.148300
647.000000	45.616200
646.000000	45.115400
645.000000	44.670400
644.000000	44.222200
643.000000	43.830400
642.000000	43.536100
641.000000	43.252200
640.000000	43.050100
639.000000	42.917800
638.000000	42.839400
637.000000	42.883900
636.000000	42.926200
635.000000	43.142000
634.000000	43.420200
633.000000	43.774800
632.000000	44.224800
631.000000	44.772100
630.000000	45.393700
629.000000	45.997700
628.000000	46.666800
627.000000	47.399800
626.000000	48.092500
625.000000	48.839800
624.000000	49.549600
623.000000	50.283000
622.000000	50.965200
621.000000	51.682700
620.000000	52.318500
619.000000	52.948800
618.000000	53.569000
617.000000	54.176800
616.000000	54.762600
615.000000	55.358700
614.000000	55.996100
613.000000	56.566200
612.000000	57.178400
611.000000	57.780500
610.000000	58.437900
609.000000	59.016100
608.000000	59.500700
607.000000	60.086800
606.000000	60.536300
605.000000	60.991200
604.000000	61.459500
603.000000	61.837300
602.000000	62.179800
601.000000	62.505900
600.000000	62.828500
599.000000	63.104900
598.000000	63.426900
597.000000	63.749600
596.000000	64.080100
595.000000	64.430100
594.000000	64.744800
593.000000	65.123500
592.000000	65.490500
591.000000	65.833900
590.000000	66.157500
589.000000	66.524000
588.000000	66.772700
587.000000	67.085600
586.000000	67.312900
585.000000	67.565100
584.000000	67.803800
583.000000	67.969400
582.000000	68.108300
581.000000	68.233400
580.000000	68.357000
579.000000	68.457800
578.000000	68.519900
577.000000	68.581800
576.000000	68.635700
575.000000	68.715300
574.000000	68.753100
573.000000	68.755600
572.000000	68.746900
571.000000	68.748700
570.000000	68.720500
569.000000	68.707100
568.000000	68.671700
567.000000	68.664200
566.000000	68.582700
565.000000	68.489500
564.000000	68.427200
563.000000	68.387200
562.000000	68.268900
561.000000	68.134500
560.000000	68.034900
559.000000	67.986800
558.000000	67.871800
557.000000	67.720600
556.000000	67.546400
555.000000	67.367200
554.000000	67.148200
553.000000	66.941700
552.000000	66.722500
551.000000	66.408800
550.000000	66.138200
549.000000	65.860100
548.000000	65.537200
547.000000	65.212000
546.000000	64.897500
545.000000	64.506900
544.000000	64.110400
543.000000	63.694400
542.000000	63.237700
541.000000	62.773300
540.000000	62.287300
539.000000	61.770200
538.000000	61.218800
537.000000	60.639300
536.000000	60.016300
535.000000	59.410200
534.000000	58.717600
533.000000	57.977200
532.000000	57.186400
531.000000	56.371600
530.000000	55.548900
529.000000	54.640900
528.000000	53.696000
527.000000	52.696000
526.000000	51.664000
525.000000	50.603700
524.000000	49.539500
523.000000	48.454700
522.000000	47.361200
521.000000	46.241700
520.000000	45.152300
519.000000	44.081900
518.000000	43.010600
517.000000	41.962400
516.000000	40.949000
515.000000	39.972100
514.000000	38.989600
513.000000	38.041000
512.000000	37.138000
511.000000	36.259000
510.000000	35.414600
509.000000	34.637600
508.000000	33.879900
507.000000	33.155900
506.000000	32.477900
505.000000	31.796000
504.000000	31.171900
503.000000	30.551900
502.000000	29.958600
501.000000	29.398700
500.000000	28.868700
499.000000	28.348800
498.000000	27.875700
497.000000	27.412700
496.000000	26.960500
495.000000	26.542800
494.000000	26.156500
493.000000	25.796000
492.000000	25.420700
491.000000	25.113200
490.000000	24.824300
489.000000	24.566300
488.000000	24.350300
487.000000	24.180100
486.000000	24.043300
485.000000	23.925700
484.000000	23.810800
483.000000	23.731200
482.000000	23.675200
481.000000	23.595200
480.000000	23.511100
479.000000	23.448600
478.000000	23.356000
477.000000	23.268300
476.000000	23.152500
475.000000	23.035900
474.000000	22.885700
473.000000	22.712900
472.000000	22.509900
471.000000	22.285900
470.000000	22.047100
469.000000	21.755400
468.000000	21.462600
467.000000	21.146800
466.000000	20.814200
465.000000	20.472700
464.000000	20.107500
463.000000	19.739800
462.000000	19.390000
461.000000	19.033000
460.000000	18.679700
459.000000	18.339800
458.000000	18.027900
457.000000	17.733400
456.000000	17.464000
455.000000	17.232800
454.000000	17.019600
453.000000	16.851200
452.000000	16.732800
451.000000	16.649200
450.000000	16.608600
449.000000	16.601900
448.000000	16.624100
447.000000	16.657900
446.000000	16.732700
445.000000	16.837400
444.000000	16.947100
443.000000	17.060700
442.000000	17.161600
441.000000	17.277700
440.000000	17.393200
439.000000	17.497000
438.000000	17.598800
437.000000	17.695800
436.000000	17.766900
435.000000	17.845000
434.000000	17.903100
433.000000	17.918500
432.000000	17.943500
431.000000	17.953700
430.000000	17.947400
429.000000	17.926900
428.000000	17.895100
427.000000	17.853200
426.000000	17.790600
425.000000	17.719000
424.000000	17.615500
423.000000	17.517300
422.000000	17.406300
421.000000	17.285100
420.000000	17.156800
419.000000	17.003900
418.000000	16.857800
417.000000	16.694000
416.000000	16.516000
415.000000	16.335500
414.000000	16.124800
413.000000	15.921100
412.000000	15.710100
411.000000	15.484400
410.000000	15.260600
409.000000	15.030900
408.000000	14.793700
407.000000	14.522200
406.000000	14.260000
405.000000	13.998900
404.000000	13.693600
403.000000	13.392900
402.000000	13.092000
401.000000	12.796300
400.000000	12.476400
399.000000	12.167600
398.000000	11.845200
397.000000	11.532800
396.000000	11.225400
395.000000	10.912000
394.000000	10.609000
393.000000	10.300300
392.000000	9.980400
391.000000	9.681700
390.000000	9.388200
389.000000	9.124800
388.000000	8.859000
387.000000	8.595900
386.000000	8.330900
385.000000	8.106100
384.000000	7.871600
383.000000	7.664000
382.000000	7.483600
381.000000	7.288600
380.000000	7.094700
379.000000	6.945800
378.000000	6.799600
377.000000	6.665600
376.000000	6.646300
375.000000	6.346700
374.000000	6.270300
373.000000	6.222200
372.000000	6.178700
371.000000	6.059300
370.000000	6.026900
369.000000	5.985300
368.000000	5.890200
367.000000	5.826800
366.000000	5.747600
365.000000	5.671700
364.000000	5.670700
363.000000	5.668300
362.000000	5.640200
361.000000	5.615100
360.000000	5.629700
359.000000	5.626400
358.000000	5.497600
357.000000	5.512000
356.000000	5.433000
355.000000	5.314800
354.000000	5.281600
353.000000	5.330900
352.000000	5.280500
351.000000	5.206000
350.000000	5.232800
349.000000	5.262600
348.000000	5.270200
347.000000	5.145900
346.000000	5.255400
345.000000	5.229800
344.000000	5.115800
343.000000	5.099800
342.000000	5.169700
341.000000	5.072700
340.000000	5.161000
339.000000	5.205400
338.000000	5.114900
337.000000	5.097400
336.000000	5.222700
335.000000	5.152500
334.000000	5.006600
333.000000	5.234700
332.000000	5.236000
331.000000	5.267400
330.000000	5.176200
329.000000	5.276600
328.000000	5.261300
327.000000	5.324300
326.000000	5.288000
325.000000	5.022200
324.000000	5.190600
323.000000	5.069700
322.000000	5.277100
321.000000	5.063000
320.000000	5.153100
319.000000	5.136100
318.000000	5.043700
317.000000	5.165600
316.000000	5.007400
315.000000	5.012700
314.000000	4.989400
313.000000	5.016700
312.000000	5.026500
311.000000	4.972700
310.000000	5.035200
309.000000	5.054800
308.000000	4.976900
307.000000	5.013500
306.000000	5.101800
305.000000	5.048800
304.000000	5.030900
303.000000	5.065200
302.000000	5.035500
301.000000	5.105200
300.000000	5.116800
299.000000	5.029400
298.000000	5.067800
297.000000	5.097800
296.000000	5.022400
295.000000	5.128200
294.000000	5.054700
293.000000	5.081400
292.000000	5.105200
291.000000	5.060200
290.000000	5.082200
289.000000	5.096000
288.000000	5.101600
287.000000	5.108900
286.000000	5.096000
285.000000	5.087200
284.000000	5.081300
283.000000	5.120100
282.000000	5.136300
281.000000	5.150700
280.000000	5.224900
279.000000	5.144800
278.000000	5.202800
277.000000	5.215800
276.000000	5.184900
275.000000	5.141700
274.000000	5.177200
273.000000	5.166000
272.000000	5.200200
271.000000	5.211700
270.000000	5.209700
269.000000	5.244000
268.000000	5.268100
267.000000	5.182500
266.000000	5.225500
265.000000	5.284000
264.000000	5.332000
263.000000	5.315800
262.000000	5.340600
261.000000	5.366000
260.000000	5.335100
259.000000	5.432300
258.000000	5.401700
257.000000	5.476100
256.000000	5.408100
255.000000	5.407000
254.000000	5.460000
253.000000	5.431100
252.000000	5.436300
251.000000	5.478500
250.000000	5.461000
