PE UV       SUBTECH     SPECTRUM    ASCII       PEDS        4.00        
   -1
CICIMAUCR0116-1.ASC
24/04/03
16:59:00.00
24/04/03
16:59:00.00
Vinicio Soto Monge
C. kalinini
250,000000
1
Lambda 1050
1050L1511233
PerkinElmer UV WinLab 6.3.2.0749 / 2.02.05 Lambda 900 UV/VIS/NIR, Aug  7 2015 09:38:08

0
0
3350/servo 860,8/2
0
0
UV/VIS
1
1
1
DoubleDePol,CommonBeamDepol,RBeamAtt,SBeamAtt,60mm sphere, WB InGaAs Detector
0
0
0
0
Program
Program
3350/servo 860,8/2
3350/0,2 860,8/0,2
3350/0,2 860,8/0,2
0
15.00
 
 
 
0
 
860,8
319,2
860,8
Front
100
on
S:100 R:100
0
0
0
0
 
0
 
 
 
0
 
 
0
0
0
0
0
 
 
 
 
0
0


0
0
#HDR
-1
-1
#GR
nm
%R
1.0
0.0
2500,000000
-1,000000
2251
8
74,972100
3,970100
#DATA
2500.000000	4.531120
2499.000000	4.607288
2498.000000	4.502988
2497.000000	4.524620
2496.000000	4.672590
2495.000000	4.564837
2494.000000	4.484403
2493.000000	4.522995
2492.000000	4.489176
2491.000000	4.552345
2490.000000	4.470388
2489.000000	4.511417
2488.000000	4.434741
2487.000000	4.459623
2486.000000	4.576110
2485.000000	4.501465
2484.000000	4.482168
2483.000000	4.479833
2482.000000	4.474145
2481.000000	4.485317
2480.000000	4.502988
2479.000000	4.461247
2478.000000	4.482879
2477.000000	4.503597
2476.000000	4.464091
2475.000000	4.477598
2474.000000	4.513042
2473.000000	4.520253
2472.000000	4.451092
2471.000000	4.453428
2470.000000	4.481254
2469.000000	4.467443
2468.000000	4.497808
2467.000000	4.479833
2466.000000	4.459115
2465.000000	4.502277
2464.000000	4.476786
2463.000000	4.478411
2462.000000	4.482676
2461.000000	4.498824
2460.000000	4.542088
2459.000000	4.518526
2458.000000	4.528276
2457.000000	4.524924
2456.000000	4.531120
2455.000000	4.574282
2454.000000	4.576618
2453.000000	4.589008
2452.000000	4.607897
2451.000000	4.650349
2450.000000	4.641513
2449.000000	4.650349
2448.000000	4.648013
2447.000000	4.689753
2446.000000	4.710776
2445.000000	4.699503
2444.000000	4.733119
2443.000000	4.742767
2442.000000	4.778921
2441.000000	4.790194
2440.000000	4.772016
2439.000000	4.790296
2438.000000	4.805733
2437.000000	4.825740
2436.000000	4.834372
2435.000000	4.868597
2434.000000	4.874183
2433.000000	4.876722
2432.000000	4.916025
2431.000000	4.925673
2430.000000	4.939180
2429.000000	4.946696
2428.000000	4.957969
2427.000000	4.980514
2426.000000	4.984374
2425.000000	4.986913
2424.000000	5.012404
2423.000000	5.013419
2422.000000	5.026419
2421.000000	5.039824
2420.000000	5.041246
2419.000000	5.024997
2418.000000	5.032614
2417.000000	5.035051
2416.000000	5.029262
2415.000000	5.053738
2414.000000	5.064605
2413.000000	5.070698
2412.000000	5.071815
2411.000000	5.082276
2410.000000	5.098119
2409.000000	5.109696
2408.000000	5.109493
2407.000000	5.105533
2406.000000	5.119649
2405.000000	5.120969
2404.000000	5.127266
2403.000000	5.139453
2402.000000	5.151538
2401.000000	5.157733
2400.000000	5.170631
2399.000000	5.193990
2398.000000	5.203841
2397.000000	5.183732
2396.000000	5.194599
2395.000000	5.211661
2394.000000	5.214911
2393.000000	5.228012
2392.000000	5.247206
2391.000000	5.246698
2390.000000	5.247714
2389.000000	5.242433
2388.000000	5.258885
2387.000000	5.268533
2386.000000	5.261831
2385.000000	5.256854
2384.000000	5.267518
2383.000000	5.279806
2382.000000	5.282650
2381.000000	5.291993
2380.000000	5.292603
2379.000000	5.276049
2378.000000	5.288134
2377.000000	5.304079
2376.000000	5.289861
2375.000000	5.296056
2374.000000	5.290572
2373.000000	5.271682
2372.000000	5.274627
2371.000000	5.275338
2370.000000	5.272088
2369.000000	5.260003
2368.000000	5.244667
2367.000000	5.238168
2366.000000	5.241722
2365.000000	5.241925
2364.000000	5.221207
2363.000000	5.208614
2362.000000	5.194091
2361.000000	5.182311
2360.000000	5.179772
2359.000000	5.162100
2358.000000	5.158546
2357.000000	5.151843
2356.000000	5.151335
2355.000000	5.160679
2354.000000	5.150624
2353.000000	5.154179
2352.000000	5.146460
2351.000000	5.143008
2350.000000	5.161694
2349.000000	5.174694
2348.000000	5.187693
2347.000000	5.200794
2346.000000	5.200693
2345.000000	5.217957
2344.000000	5.225879
2343.000000	5.224254
2342.000000	5.229230
2341.000000	5.235019
2340.000000	5.250355
2339.000000	5.254011
2338.000000	5.249948
2337.000000	5.252487
2336.000000	5.241621
2335.000000	5.242738
2334.000000	5.243550
2333.000000	5.236746
2332.000000	5.213083
2331.000000	5.202521
2330.000000	5.203232
2329.000000	5.178248
2328.000000	5.174694
2327.000000	5.160577
2326.000000	5.130516
2325.000000	5.106954
2324.000000	5.089283
2323.000000	5.075167
2322.000000	5.048660
2321.000000	5.018497
2320.000000	5.012911
2319.000000	4.982241
2318.000000	4.948422
2317.000000	4.932173
2316.000000	4.884847
2315.000000	4.851536
2314.000000	4.850926
2313.000000	4.826755
2312.000000	4.809795
2311.000000	4.766938
2310.000000	4.751298
2309.000000	4.743478
2308.000000	4.732509
2307.000000	4.705698
2306.000000	4.722354
2305.000000	4.715143
2304.000000	4.692089
2303.000000	4.700315
2302.000000	4.695339
2301.000000	4.684980
2300.000000	4.682746
2299.000000	4.698691
2298.000000	4.701331
2297.000000	4.706206
2296.000000	4.680512
2295.000000	4.683457
2294.000000	4.688027
2293.000000	4.677465
2292.000000	4.670254
2291.000000	4.652583
2290.000000	4.636842
2289.000000	4.605054
2288.000000	4.596320
2287.000000	4.582813
2286.000000	4.561993
2285.000000	4.531018
2284.000000	4.509488
2283.000000	4.479426
2282.000000	4.438194
2281.000000	4.410875
2280.000000	4.392493
2279.000000	4.363955
2278.000000	4.343237
2277.000000	4.303934
2276.000000	4.286974
2275.000000	4.245436
2274.000000	4.221469
2273.000000	4.201157
2272.000000	4.179424
2271.000000	4.154440
2270.000000	4.148245
2269.000000	4.125598
2268.000000	4.120317
2267.000000	4.077459
2266.000000	4.088224
2265.000000	4.100005
2264.000000	4.071670
2263.000000	4.073701
2262.000000	4.104067
2261.000000	4.107520
2260.000000	4.118286
2259.000000	4.117168
2258.000000	4.132504
2257.000000	4.165409
2256.000000	4.165713
2255.000000	4.178205
2254.000000	4.226039
2253.000000	4.220758
2252.000000	4.240866
2251.000000	4.267982
2250.000000	4.285450
2249.000000	4.303528
2248.000000	4.304239
2247.000000	4.335925
2246.000000	4.364361
2245.000000	4.377564
2244.000000	4.370962
2243.000000	4.382540
2242.000000	4.381524
2241.000000	4.420015
2240.000000	4.412195
2239.000000	4.428546
2238.000000	4.432913
2237.000000	4.425397
2236.000000	4.442053
2235.000000	4.426515
2234.000000	4.425804
2233.000000	4.441444
2232.000000	4.438702
2231.000000	4.415445
2230.000000	4.392391
2229.000000	4.382946
2228.000000	4.394118
2227.000000	4.360603
2226.000000	4.322417
2225.000000	4.318863
2224.000000	4.312769
2223.000000	4.262498
2222.000000	4.251733
2221.000000	4.217914
2220.000000	4.207047
2219.000000	4.185111
2218.000000	4.174955
2217.000000	4.132402
2216.000000	4.096349
2215.000000	4.085279
2214.000000	4.085685
2213.000000	4.064663
2212.000000	4.033383
2211.000000	4.031961
2210.000000	4.053695
2209.000000	4.086193
2208.000000	4.094724
2207.000000	4.122145
2206.000000	4.175463
2205.000000	4.209688
2204.000000	4.263717
2203.000000	4.316426
2202.000000	4.378173
2201.000000	4.422859
2200.000000	4.501363
2199.000000	4.590429
2198.000000	4.646286
2197.000000	4.710268
2196.000000	4.789687
2195.000000	4.865449
2194.000000	4.931462
2193.000000	4.982139
2192.000000	5.074253
2191.000000	5.145648
2190.000000	5.185053
2189.000000	5.216434
2188.000000	5.269955
2187.000000	5.309868
2186.000000	5.347241
2185.000000	5.373240
2184.000000	5.434987
2183.000000	5.477743
2182.000000	5.484446
2181.000000	5.508008
2180.000000	5.527405
2179.000000	5.534006
2178.000000	5.575442
2177.000000	5.603472
2176.000000	5.607738
2175.000000	5.635057
2174.000000	5.665017
2173.000000	5.683195
2172.000000	5.714171
2171.000000	5.743216
2170.000000	5.764442
2169.000000	5.770231
2168.000000	5.794199
2167.000000	5.813190
2166.000000	5.837158
2165.000000	5.840306
2164.000000	5.882046
2163.000000	5.900936
2162.000000	5.926732
2161.000000	5.956082
2160.000000	5.979136
2159.000000	6.014681
2158.000000	6.033673
2157.000000	6.050430
2156.000000	6.067187
2155.000000	6.099584
2154.000000	6.127309
2153.000000	6.137059
2152.000000	6.171589
2151.000000	6.199314
2150.000000	6.218509
2149.000000	6.236687
2148.000000	6.264819
2147.000000	6.279443
2146.000000	6.289904
2145.000000	6.320270
2144.000000	6.351448
2143.000000	6.369322
2142.000000	6.377041
2141.000000	6.393798
2140.000000	6.414719
2139.000000	6.428226
2138.000000	6.435234
2137.000000	6.449655
2136.000000	6.476365
2135.000000	6.483779
2134.000000	6.487739
2133.000000	6.507340
2132.000000	6.506324
2131.000000	6.511199
2130.000000	6.506629
2129.000000	6.508356
2128.000000	6.521558
2127.000000	6.523285
2126.000000	6.512113
2125.000000	6.516582
2124.000000	6.503684
2123.000000	6.500840
2122.000000	6.506020
2121.000000	6.501551
2120.000000	6.493122
2119.000000	6.496169
2118.000000	6.475857
2117.000000	6.457170
2116.000000	6.453311
2115.000000	6.441530
2114.000000	6.420203
2113.000000	6.413907
2112.000000	6.390447
2111.000000	6.373588
2110.000000	6.373689
2109.000000	6.358760
2108.000000	6.345456
2107.000000	6.328801
2106.000000	6.302091
2105.000000	6.287670
2104.000000	6.266850
2103.000000	6.253648
2102.000000	6.247757
2101.000000	6.231305
2100.000000	6.219524
2099.000000	6.196978
2098.000000	6.163870
2097.000000	6.142238
2096.000000	6.133301
2095.000000	6.118068
2094.000000	6.101920
2093.000000	6.092373
2092.000000	6.077140
2091.000000	6.064546
2090.000000	6.039157
2089.000000	6.014275
2088.000000	6.012853
2087.000000	5.990714
2086.000000	5.963090
2085.000000	5.955778
2084.000000	5.939935
2083.000000	5.923787
2082.000000	5.905913
2081.000000	5.877070
2080.000000	5.857165
2079.000000	5.842845
2078.000000	5.829947
2077.000000	5.817354
2076.000000	5.790339
2075.000000	5.771246
2074.000000	5.761801
2073.000000	5.735092
2072.000000	5.706452
2071.000000	5.697312
2070.000000	5.689086
2069.000000	5.666134
2068.000000	5.636783
2067.000000	5.611495
2066.000000	5.595652
2065.000000	5.581942
2064.000000	5.566404
2063.000000	5.550865
2062.000000	5.520804
2061.000000	5.501914
2060.000000	5.488813
2059.000000	5.480892
2058.000000	5.485259
2057.000000	5.469415
2056.000000	5.473579
2055.000000	5.465861
2054.000000	5.452760
2053.000000	5.457838
2052.000000	5.483837
2051.000000	5.481196
2050.000000	5.501102
2049.000000	5.513796
2048.000000	5.517453
2047.000000	5.533905
2046.000000	5.564880
2045.000000	5.579505
2044.000000	5.594840
2043.000000	5.620737
2042.000000	5.626729
2041.000000	5.661259
2040.000000	5.689492
2039.000000	5.710007
2038.000000	5.729100
2037.000000	5.763934
2036.000000	5.781707
2035.000000	5.807401
2034.000000	5.827510
2033.000000	5.833908
2032.000000	5.864578
2031.000000	5.876765
2030.000000	5.897179
2029.000000	5.927951
2028.000000	5.941661
2027.000000	5.949583
2026.000000	5.977917
2025.000000	5.988073
2024.000000	5.988276
2023.000000	6.010721
2022.000000	6.019251
2021.000000	6.031438
2020.000000	6.059062
2019.000000	6.060992
2018.000000	6.084249
2017.000000	6.097959
2016.000000	6.108115
2015.000000	6.134012
2014.000000	6.134418
2013.000000	6.150871
2012.000000	6.158589
2011.000000	6.166511
2010.000000	6.182659
2009.000000	6.165292
2008.000000	6.181745
2007.000000	6.181643
2006.000000	6.203783
2005.000000	6.194338
2004.000000	6.208657
2003.000000	6.212110
2002.000000	6.209064
2001.000000	6.198908
2000.000000	6.179815
1999.000000	6.209978
1998.000000	6.200431
1997.000000	6.199314
1996.000000	6.185908
1995.000000	6.196978
1994.000000	6.179510
1993.000000	6.172706
1992.000000	6.175651
1991.000000	6.156253
1990.000000	6.137973
1989.000000	6.137770
1988.000000	6.129950
1987.000000	6.114208
1986.000000	6.119997
1985.000000	6.112482
1984.000000	6.116443
1983.000000	6.068101
1982.000000	6.055406
1981.000000	6.037227
1980.000000	6.026462
1979.000000	6.019962
1978.000000	6.031134
1977.000000	5.996096
1976.000000	5.982691
1975.000000	5.977511
1974.000000	5.939224
1973.000000	5.930997
1972.000000	5.909061
1971.000000	5.907639
1970.000000	5.873515
1969.000000	5.869859
1968.000000	5.842439
1967.000000	5.833705
1966.000000	5.812479
1965.000000	5.797347
1964.000000	5.792269
1963.000000	5.760481
1962.000000	5.748599
1961.000000	5.719960
1960.000000	5.710413
1959.000000	5.664712
1958.000000	5.654150
1957.000000	5.639018
1956.000000	5.628963
1955.000000	5.619417
1954.000000	5.589051
1953.000000	5.565083
1952.000000	5.539084
1951.000000	5.530858
1950.000000	5.513187
1949.000000	5.482720
1948.000000	5.477946
1947.000000	5.430620
1946.000000	5.419957
1945.000000	5.396090
1944.000000	5.389388
1943.000000	5.385528
1942.000000	5.361764
1941.000000	5.353030
1940.000000	5.334648
1939.000000	5.320430
1938.000000	5.310883
1937.000000	5.293618
1936.000000	5.298798
1935.000000	5.279705
1934.000000	5.280416
1933.000000	5.253604
1932.000000	5.268838
1931.000000	5.256956
1930.000000	5.245277
1929.000000	5.248526
1928.000000	5.277471
1927.000000	5.281431
1926.000000	5.291790
1925.000000	5.291790
1924.000000	5.282752
1923.000000	5.301438
1922.000000	5.323883
1921.000000	5.351811
1920.000000	5.380857
1919.000000	5.395278
1918.000000	5.425847
1917.000000	5.450932
1916.000000	5.440471
1915.000000	5.488407
1914.000000	5.504047
1913.000000	5.541319
1912.000000	5.612511
1911.000000	5.644806
1910.000000	5.667555
1909.000000	5.685430
1908.000000	5.714577
1907.000000	5.765965
1906.000000	5.837665
1905.000000	5.910787
1904.000000	5.988073
1903.000000	6.023314
1902.000000	6.075718
1901.000000	6.131473
1900.000000	6.203376
1899.000000	6.274772
1898.000000	6.348808
1897.000000	6.421828
1896.000000	6.483474
1895.000000	6.518613
1894.000000	6.585337
1893.000000	6.668208
1892.000000	6.754939
1891.000000	6.863606
1890.000000	6.966688
1889.000000	7.063879
1888.000000	7.173054
1887.000000	7.262527
1886.000000	7.387646
1885.000000	7.557655
1884.000000	7.705117
1883.000000	7.865985
1882.000000	8.056204
1881.000000	8.244797
1880.000000	8.426688
1879.000000	8.600352
1878.000000	8.809258
1877.000000	9.020702
1876.000000	9.221584
1875.000000	9.431911
1874.000000	9.622434
1873.000000	9.821285
1872.000000	10.027245
1871.000000	10.185879
1870.000000	10.331818
1869.000000	10.486999
1868.000000	10.614556
1867.000000	10.692451
1866.000000	10.761815
1865.000000	10.832093
1864.000000	10.889271
1863.000000	10.942081
1862.000000	11.012461
1861.000000	11.097566
1860.000000	11.174446
1859.000000	11.222178
1858.000000	11.285449
1857.000000	11.319674
1856.000000	11.346282
1855.000000	11.371977
1854.000000	11.380609
1853.000000	11.388734
1852.000000	11.394319
1851.000000	11.395538
1850.000000	11.382437
1849.000000	11.385890
1848.000000	11.402749
1847.000000	11.421842
1846.000000	11.400413
1845.000000	11.365172
1844.000000	11.336228
1843.000000	11.326072
1842.000000	11.352579
1841.000000	11.384265
1840.000000	11.392288
1839.000000	11.382031
1838.000000	11.372078
1837.000000	11.356540
1836.000000	11.348314
1835.000000	11.332674
1834.000000	11.291543
1833.000000	11.244521
1832.000000	11.211108
1831.000000	11.203187
1830.000000	11.188156
1829.000000	11.164899
1828.000000	11.127323
1827.000000	11.094113
1826.000000	11.055217
1825.000000	11.014796
1824.000000	10.979962
1823.000000	10.952338
1822.000000	10.948987
1821.000000	10.954776
1820.000000	10.953760
1819.000000	10.939542
1818.000000	10.914051
1817.000000	10.892622
1816.000000	10.887544
1815.000000	10.883177
1814.000000	10.874240
1813.000000	10.878201
1812.000000	10.861037
1811.000000	10.823055
1810.000000	10.811274
1809.000000	10.776846
1808.000000	10.746480
1807.000000	10.717536
1806.000000	10.689709
1805.000000	10.673967
1804.000000	10.629180
1803.000000	10.585104
1802.000000	10.564589
1801.000000	10.534426
1800.000000	10.502943
1799.000000	10.454703
1798.000000	10.409916
1797.000000	10.385644
1796.000000	10.353247
1795.000000	10.293023
1794.000000	10.260219
1793.000000	10.228025
1792.000000	10.208425
1791.000000	10.174504
1790.000000	10.127280
1789.000000	10.087875
1788.000000	10.051111
1787.000000	10.002566
1786.000000	9.963060
1785.000000	9.920304
1784.000000	9.869119
1783.000000	9.823621
1782.000000	9.785130
1781.000000	9.743085
1780.000000	9.707946
1779.000000	9.664682
1778.000000	9.598771
1777.000000	9.557944
1776.000000	9.524227
1775.000000	9.483705
1774.000000	9.411599
1773.000000	9.363664
1772.000000	9.301612
1771.000000	9.241388
1770.000000	9.176898
1769.000000	9.123682
1768.000000	9.074020
1767.000000	9.053607
1766.000000	9.001101
1765.000000	8.974797
1764.000000	8.957228
1763.000000	8.950931
1762.000000	8.952759
1761.000000	8.976422
1760.000000	8.988609
1759.000000	9.027201
1758.000000	9.047919
1757.000000	9.079605
1756.000000	9.127236
1755.000000	9.137087
1754.000000	9.176187
1753.000000	9.199850
1752.000000	9.212342
1751.000000	9.206350
1750.000000	9.211326
1749.000000	9.214576
1748.000000	9.191218
1747.000000	9.179437
1746.000000	9.151915
1745.000000	9.117385
1744.000000	9.083058
1743.000000	9.038271
1742.000000	8.992367
1741.000000	8.905535
1740.000000	8.863388
1739.000000	8.775033
1738.000000	8.710949
1737.000000	8.660780
1736.000000	8.641382
1735.000000	8.633765
1734.000000	8.603095
1733.000000	8.610407
1732.000000	8.642093
1731.000000	8.684950
1730.000000	8.737964
1729.000000	8.814843
1728.000000	8.855670
1727.000000	8.935291
1726.000000	9.005468
1725.000000	9.050865
1724.000000	9.084988
1723.000000	9.103675
1722.000000	9.140744
1721.000000	9.179336
1720.000000	9.206553
1719.000000	9.231638
1718.000000	9.268605
1717.000000	9.308010
1716.000000	9.354930
1715.000000	9.366609
1714.000000	9.423278
1713.000000	9.449785
1712.000000	9.484112
1711.000000	9.490510
1710.000000	9.528696
1709.000000	9.530524
1708.000000	9.563429
1707.000000	9.543015
1706.000000	9.542609
1705.000000	9.538344
1704.000000	9.525040
1703.000000	9.489494
1702.000000	9.479542
1701.000000	9.401443
1700.000000	9.364781
1699.000000	9.311666
1698.000000	9.244231
1697.000000	9.205436
1696.000000	9.177304
1695.000000	9.150290
1694.000000	9.163493
1693.000000	9.182687
1692.000000	9.238646
1691.000000	9.264848
1690.000000	9.352391
1689.000000	9.385600
1688.000000	9.401443
1687.000000	9.416576
1686.000000	9.392608
1685.000000	9.381538
1684.000000	9.403474
1683.000000	9.440239
1682.000000	9.564850
1681.000000	9.705712
1680.000000	9.866681
1679.000000	10.077110
1678.000000	10.284593
1677.000000	10.472171
1676.000000	10.697123
1675.000000	10.863983
1674.000000	11.032975
1673.000000	11.146010
1672.000000	11.271637
1671.000000	11.391882
1670.000000	11.476175
1669.000000	11.510400
1668.000000	11.574077
1667.000000	11.622724
1666.000000	11.667409
1665.000000	11.686908
1664.000000	11.721540
1663.000000	11.731696
1662.000000	11.774045
1661.000000	11.776686
1660.000000	11.767952
1659.000000	11.788771
1658.000000	11.792021
1657.000000	11.796794
1656.000000	11.772319
1655.000000	11.778108
1654.000000	11.758812
1653.000000	11.731696
1652.000000	11.735758
1651.000000	11.721134
1650.000000	11.703869
1649.000000	11.673909
1648.000000	11.656441
1647.000000	11.648215
1646.000000	11.614498
1645.000000	11.591342
1644.000000	11.562500
1643.000000	11.535891
1642.000000	11.514260
1641.000000	11.491307
1640.000000	11.455965
1639.000000	11.443169
1638.000000	11.423060
1637.000000	11.404374
1636.000000	11.373297
1635.000000	11.338462
1634.000000	11.313479
1633.000000	11.292761
1632.000000	11.279457
1631.000000	11.266864
1630.000000	11.241068
1629.000000	11.210194
1628.000000	11.185922
1627.000000	11.156165
1626.000000	11.131487
1625.000000	11.116862
1624.000000	11.111988
1623.000000	11.105488
1622.000000	11.072482
1621.000000	11.062427
1620.000000	11.039678
1619.000000	11.012461
1618.000000	11.005859
1617.000000	10.986563
1616.000000	10.980165
1615.000000	10.968791
1614.000000	10.965642
1613.000000	10.949190
1612.000000	10.928878
1611.000000	10.915168
1610.000000	10.895161
1609.000000	10.880841
1608.000000	10.854030
1607.000000	10.842249
1606.000000	10.820109
1605.000000	10.811375
1604.000000	10.793501
1603.000000	10.784564
1602.000000	10.768518
1601.000000	10.749222
1600.000000	10.716215
1599.000000	10.699154
1598.000000	10.676709
1597.000000	10.650406
1596.000000	10.622173
1595.000000	10.604603
1594.000000	10.584291
1593.000000	10.544988
1592.000000	10.527622
1591.000000	10.516755
1590.000000	10.482124
1589.000000	10.457445
1588.000000	10.431853
1587.000000	10.407580
1586.000000	10.394581
1585.000000	10.345427
1584.000000	10.322474
1583.000000	10.322271
1582.000000	10.297390
1581.000000	10.250267
1580.000000	10.234119
1579.000000	10.221424
1578.000000	10.186285
1577.000000	10.157138
1576.000000	10.151247
1575.000000	10.122709
1574.000000	10.087977
1573.000000	10.059236
1572.000000	10.035166
1571.000000	10.028971
1570.000000	10.012722
1569.000000	9.996168
1568.000000	9.978294
1567.000000	9.970778
1566.000000	9.976567
1565.000000	9.947217
1564.000000	9.927210
1563.000000	9.906492
1562.000000	9.893086
1561.000000	9.875720
1560.000000	9.855611
1559.000000	9.859268
1558.000000	9.834691
1557.000000	9.800059
1556.000000	9.797012
1555.000000	9.789700
1554.000000	9.752428
1553.000000	9.726633
1552.000000	9.719320
1551.000000	9.716578
1550.000000	9.692001
1549.000000	9.677885
1548.000000	9.679002
1547.000000	9.664479
1546.000000	9.649144
1545.000000	9.648128
1544.000000	9.640105
1543.000000	9.634519
1542.000000	9.624465
1541.000000	9.607911
1540.000000	9.619083
1539.000000	9.647011
1538.000000	9.645386
1537.000000	9.637668
1536.000000	9.638582
1535.000000	9.644675
1534.000000	9.641222
1533.000000	9.653308
1532.000000	9.664276
1531.000000	9.669049
1530.000000	9.675346
1529.000000	9.672401
1528.000000	9.685908
1527.000000	9.703985
1526.000000	9.702868
1525.000000	9.712313
1524.000000	9.709165
1523.000000	9.719117
1522.000000	9.726125
1521.000000	9.718305
1520.000000	9.718813
1519.000000	9.732523
1518.000000	9.747655
1517.000000	9.744304
1516.000000	9.747960
1515.000000	9.752632
1514.000000	9.747554
1513.000000	9.747655
1512.000000	9.741562
1511.000000	9.739937
1510.000000	9.752124
1509.000000	9.723383
1508.000000	9.728765
1507.000000	9.734351
1506.000000	9.722977
1505.000000	9.704696
1504.000000	9.675143
1503.000000	9.676564
1502.000000	9.677072
1501.000000	9.640918
1500.000000	9.624668
1499.000000	9.625074
1498.000000	9.601005
1497.000000	9.564343
1496.000000	9.564749
1495.000000	9.558960
1494.000000	9.544539
1493.000000	9.511532
1492.000000	9.500970
1491.000000	9.491525
1490.000000	9.465628
1489.000000	9.456793
1488.000000	9.426934
1487.000000	9.387428
1486.000000	9.385803
1485.000000	9.357164
1484.000000	9.322837
1483.000000	9.291253
1482.000000	9.291761
1481.000000	9.259465
1480.000000	9.241286
1479.000000	9.205944
1478.000000	9.201374
1477.000000	9.153641
1476.000000	9.146837
1475.000000	9.125814
1474.000000	9.107432
1473.000000	9.084887
1472.000000	9.046802
1471.000000	9.049443
1470.000000	9.030959
1469.000000	9.018569
1468.000000	9.018061
1467.000000	9.014710
1466.000000	8.995414
1465.000000	8.971243
1464.000000	8.959462
1463.000000	8.957431
1462.000000	8.959462
1461.000000	8.964235
1460.000000	8.987188
1459.000000	8.998460
1458.000000	9.009733
1457.000000	9.037459
1456.000000	9.069653
1455.000000	9.087324
1454.000000	9.110276
1453.000000	9.117690
1452.000000	9.191421
1451.000000	9.224326
1450.000000	9.250325
1449.000000	9.293081
1448.000000	9.347313
1447.000000	9.387530
1446.000000	9.457707
1445.000000	9.481167
1444.000000	9.572772
1443.000000	9.599380
1442.000000	9.673010
1441.000000	9.738515
1440.000000	9.812043
1439.000000	9.832355
1438.000000	9.937874
1437.000000	9.993832
1436.000000	10.052736
1435.000000	10.129412
1434.000000	10.203651
1433.000000	10.294952
1432.000000	10.336997
1431.000000	10.420681
1430.000000	10.506498
1429.000000	10.594752
1428.000000	10.687678
1427.000000	10.763135
1426.000000	10.860022
1425.000000	10.941776
1424.000000	11.065271
1423.000000	11.151595
1422.000000	11.258739
1421.000000	11.353087
1420.000000	11.467137
1419.000000	11.574890
1418.000000	11.681627
1417.000000	11.779428
1416.000000	11.866159
1415.000000	11.996153
1414.000000	12.107766
1413.000000	12.220597
1412.000000	12.301437
1411.000000	12.406143
1410.000000	12.527099
1409.000000	12.699748
1408.000000	12.836750
1407.000000	12.991017
1406.000000	13.137565
1405.000000	13.317425
1404.000000	13.465598
1403.000000	13.638450
1402.000000	13.780835
1401.000000	13.954499
1400.000000	14.119836
1399.000000	14.215809
1398.000000	14.285376
1397.000000	14.370177
1396.000000	14.478235
1395.000000	14.586699
1394.000000	14.614729
1393.000000	14.669063
1392.000000	14.714358
1391.000000	14.774683
1390.000000	14.844657
1389.000000	14.952105
1388.000000	15.105255
1387.000000	15.253327
1386.000000	15.445069
1385.000000	15.676114
1384.000000	15.936813
1383.000000	16.261089
1382.000000	16.579880
1381.000000	16.881914
1380.000000	17.092850
1379.000000	17.357003
1378.000000	17.584290
1377.000000	17.850576
1376.000000	18.116760
1375.000000	18.417372
1374.000000	18.769677
1373.000000	19.155801
1372.000000	19.523137
1371.000000	19.917589
1370.000000	20.263699
1369.000000	20.556289
1368.000000	20.852940
1367.000000	21.089469
1366.000000	21.339810
1365.000000	21.517537
1364.000000	21.683077
1363.000000	21.850241
1362.000000	22.033655
1361.000000	22.190563
1360.000000	22.280543
1359.000000	22.363212
1358.000000	22.462129
1357.000000	22.601061
1356.000000	22.817481
1355.000000	23.106617
1354.000000	23.495281
1353.000000	23.907505
1352.000000	24.336690
1351.000000	24.784155
1350.000000	25.221160
1349.000000	25.609823
1348.000000	25.966191
1347.000000	26.301638
1346.000000	26.628350
1345.000000	26.958821
1344.000000	27.281268
1343.000000	27.563396
1342.000000	27.856493
1341.000000	28.154465
1340.000000	28.439640
1339.000000	28.703895
1338.000000	28.964595
1337.000000	29.231591
1336.000000	29.489853
1335.000000	29.730445
1334.000000	29.972966
1333.000000	30.220158
1332.000000	30.443383
1331.000000	30.655944
1330.000000	30.875107
1329.000000	31.072028
1328.000000	31.263567
1327.000000	31.447997
1326.000000	31.618716
1325.000000	31.799286
1324.000000	31.964623
1323.000000	32.107820
1322.000000	32.243603
1321.000000	32.389644
1320.000000	32.531622
1319.000000	32.657859
1318.000000	32.769472
1317.000000	32.888091
1316.000000	32.996759
1315.000000	33.103192
1314.000000	33.206679
1313.000000	33.297676
1312.000000	33.386133
1311.000000	33.489722
1310.000000	33.571273
1309.000000	33.638403
1308.000000	33.721376
1307.000000	33.782210
1306.000000	33.838168
1305.000000	33.908853
1304.000000	33.958819
1303.000000	33.982076
1302.000000	34.027066
1301.000000	34.064744
1300.000000	34.095110
1299.000000	34.128320
1298.000000	34.156147
1297.000000	34.178794
1296.000000	34.190169
1295.000000	34.212105
1294.000000	34.236581
1293.000000	34.246026
1292.000000	34.249580
1291.000000	34.254557
1290.000000	34.256588
1289.000000	34.241963
1288.000000	34.220941
1287.000000	34.215965
1286.000000	34.201645
1285.000000	34.162647
1284.000000	34.114914
1283.000000	34.080283
1282.000000	34.044230
1281.000000	33.999747
1280.000000	33.965928
1279.000000	33.911392
1278.000000	33.859800
1277.000000	33.820396
1276.000000	33.771851
1275.000000	33.731837
1274.000000	33.691417
1273.000000	33.651707
1272.000000	33.612709
1271.000000	33.561727
1270.000000	33.508307
1269.000000	33.463215
1268.000000	33.424319
1267.000000	33.384305
1266.000000	33.329260
1265.000000	33.267614
1264.000000	33.208507
1263.000000	33.139042
1262.000000	33.072623
1261.000000	33.022148
1260.000000	32.955932
1259.000000	32.869913
1258.000000	32.795166
1257.000000	32.719708
1256.000000	32.628712
1255.000000	32.545536
1254.000000	32.463070
1253.000000	32.367809
1252.000000	32.275594
1251.000000	32.186020
1250.000000	32.101320
1249.000000	31.988794
1248.000000	31.872713
1247.000000	31.766585
1246.000000	31.647965
1245.000000	31.526196
1244.000000	31.417834
1243.000000	31.270473
1242.000000	31.147892
1241.000000	31.034249
1240.000000	30.905067
1239.000000	30.770299
1238.000000	30.638883
1237.000000	30.484920
1236.000000	30.353707
1235.000000	30.234275
1234.000000	30.105093
1233.000000	29.951131
1232.000000	29.808848
1231.000000	29.651737
1230.000000	29.496455
1229.000000	29.359250
1228.000000	29.199295
1227.000000	29.041271
1226.000000	28.898683
1225.000000	28.758431
1224.000000	28.618078
1223.000000	28.468584
1222.000000	28.311474
1221.000000	28.173659
1220.000000	28.041329
1219.000000	27.914788
1218.000000	27.794949
1217.000000	27.672470
1216.000000	27.572841
1215.000000	27.465393
1214.000000	27.345249
1213.000000	27.229981
1212.000000	27.135430
1211.000000	27.047786
1210.000000	26.939220
1209.000000	26.847513
1208.000000	26.768094
1207.000000	26.690809
1206.000000	26.643584
1205.000000	26.600422
1204.000000	26.550963
1203.000000	26.544971
1202.000000	26.510644
1201.000000	26.457529
1200.000000	26.411016
1199.000000	26.341144
1198.000000	26.266295
1197.000000	26.138535
1196.000000	26.010267
1195.000000	25.782675
1194.000000	25.529491
1193.000000	25.216285
1192.000000	24.872613
1191.000000	24.481410
1190.000000	24.118949
1189.000000	23.799244
1188.000000	23.500663
1187.000000	23.335022
1186.000000	23.261900
1185.000000	23.300187
1184.000000	23.422768
1183.000000	23.684483
1182.000000	24.022367
1181.000000	24.419663
1180.000000	24.844786
1179.000000	25.281486
1178.000000	25.674313
1177.000000	26.034540
1176.000000	26.341245
1175.000000	26.635764
1174.000000	26.921346
1173.000000	27.207130
1172.000000	27.527648
1171.000000	27.857610
1170.000000	28.168378
1169.000000	28.511747
1168.000000	28.848006
1167.000000	29.169336
1166.000000	29.500923
1165.000000	29.853127
1164.000000	30.246868
1163.000000	30.611056
1162.000000	30.992203
1161.000000	31.354157
1160.000000	31.702704
1159.000000	32.065775
1158.000000	32.387207
1157.000000	32.680303
1156.000000	32.973807
1155.000000	33.210843
1154.000000	33.414671
1153.000000	33.520494
1152.000000	33.623474
1151.000000	33.665621
1150.000000	33.717517
1149.000000	33.747172
1148.000000	33.781092
1147.000000	33.843449
1146.000000	33.984006
1145.000000	34.166607
1144.000000	34.431573
1143.000000	34.739395
1142.000000	35.082662
1141.000000	35.431819
1140.000000	35.788593
1139.000000	36.171670
1138.000000	36.591715
1137.000000	37.031970
1136.000000	37.485630
1135.000000	37.925478
1134.000000	38.365835
1133.000000	38.737335
1132.000000	39.112186
1131.000000	39.512731
1130.000000	39.845740
1129.000000	40.100144
1128.000000	40.349977
1127.000000	40.534406
1126.000000	40.685220
1125.000000	40.831058
1124.000000	40.943381
1123.000000	41.077844
1122.000000	41.175239
1121.000000	41.247345
1120.000000	41.324935
1119.000000	41.383027
1118.000000	41.439696
1117.000000	41.477374
1116.000000	41.509873
1115.000000	41.555574
1114.000000	41.574667
1113.000000	41.609298
1112.000000	41.624633
1111.000000	41.642101
1110.000000	41.678561
1109.000000	41.684959
1108.000000	41.693591
1107.000000	41.704458
1106.000000	41.702833
1105.000000	41.701818
1104.000000	41.696435
1103.000000	41.703443
1102.000000	41.708927
1101.000000	41.710653
1100.000000	41.692677
1099.000000	41.665561
1098.000000	41.643828
1097.000000	41.636719
1096.000000	41.630828
1095.000000	41.604931
1094.000000	41.582487
1093.000000	41.555574
1092.000000	41.530286
1091.000000	41.499108
1090.000000	41.485194
1089.000000	41.450156
1088.000000	41.417861
1087.000000	41.379269
1086.000000	41.338239
1085.000000	41.297413
1084.000000	41.275172
1083.000000	41.236884
1082.000000	41.214135
1081.000000	41.180215
1080.000000	41.139490
1079.000000	41.132686
1078.000000	41.102624
1077.000000	41.071243
1076.000000	41.046260
1075.000000	41.020870
1074.000000	41.004621
1073.000000	40.998324
1072.000000	40.975778
1071.000000	40.948764
1070.000000	40.932514
1069.000000	40.911086
1068.000000	40.914843
1067.000000	40.905906
1066.000000	40.889048
1065.000000	40.868431
1064.000000	40.851573
1063.000000	40.838573
1062.000000	40.819886
1061.000000	40.799981
1060.000000	40.787997
1059.000000	40.763928
1058.000000	40.733968
1057.000000	40.709696
1056.000000	40.684713
1055.000000	40.660643
1054.000000	40.642667
1053.000000	40.632816
1052.000000	40.635051
1051.000000	40.636472
1050.000000	40.643988
1049.000000	40.643074
1048.000000	40.651401
1047.000000	40.669682
1046.000000	40.686947
1045.000000	40.699235
1044.000000	40.711422
1043.000000	40.734171
1042.000000	40.756108
1041.000000	40.765350
1040.000000	40.793989
1039.000000	40.831363
1038.000000	40.854010
1037.000000	40.875845
1036.000000	40.903164
1035.000000	40.938913
1034.000000	40.973239
1033.000000	41.005027
1032.000000	41.036104
1031.000000	41.081805
1030.000000	41.120803
1029.000000	41.146498
1028.000000	41.180824
1027.000000	41.224900
1026.000000	41.264203
1025.000000	41.304928
1024.000000	41.322295
1023.000000	41.344333
1022.000000	41.400596
1021.000000	41.458687
1020.000000	41.507842
1019.000000	41.561972
1018.000000	41.608993
1017.000000	41.657437
1016.000000	41.731066
1015.000000	41.804899
1014.000000	41.869389
1013.000000	41.955510
1012.000000	42.058287
1011.000000	42.170610
1010.000000	42.266684
1009.000000	42.378094
1008.000000	42.518244
1007.000000	42.643059
1006.000000	42.760257
1005.000000	42.891775
1004.000000	42.994856
1003.000000	43.088188
1002.000000	43.213206
1001.000000	43.318827
1000.000000	43.410839
999.000000	43.511381
998.000000	43.622994
997.000000	43.737754
996.000000	43.854445
995.000000	43.959557
994.000000	44.078787
993.000000	44.227671
992.000000	44.377165
991.000000	44.524018
990.000000	44.656856
989.000000	44.815998
988.000000	44.986514
987.000000	45.155100
986.000000	45.331608
985.000000	45.506187
984.000000	45.677109
983.000000	45.847727
982.000000	46.026673
981.000000	46.187845
980.000000	46.337136
979.000000	46.490387
978.000000	46.645771
977.000000	46.786632
976.000000	46.925869
975.000000	47.054441
974.000000	47.201396
973.000000	47.347741
972.000000	47.468595
971.000000	47.596559
970.000000	47.745341
969.000000	47.884679
968.000000	48.034681
967.000000	48.179300
966.000000	48.334176
965.000000	48.495755
964.000000	48.656115
963.000000	48.800429
962.000000	48.953274
961.000000	49.099417
960.000000	49.248199
959.000000	49.393123
958.000000	49.522508
957.000000	49.649253
956.000000	49.771732
955.000000	49.876540
954.000000	50.019229
953.000000	50.137341
952.000000	50.238188
951.000000	50.341067
950.000000	50.467913
949.000000	50.615579
948.000000	50.738769
947.000000	50.871404
946.000000	51.017546
945.000000	51.166633
944.000000	51.332681
943.000000	51.487760
942.000000	51.630246
941.000000	51.773748
940.000000	51.918164
939.000000	52.088071
938.000000	52.247923
937.000000	52.386855
936.000000	52.543254
935.000000	52.679850
934.000000	52.840820
933.000000	52.976400
932.000000	53.140924
931.000000	53.282192
930.000000	53.415030
929.000000	53.555688
928.000000	53.734024
927.000000	53.871331
926.000000	54.035347
925.000000	54.172755
924.000000	54.317476
923.000000	54.473063
922.000000	54.602956
921.000000	54.734778
920.000000	54.866194
919.000000	54.973745
918.000000	55.127707
917.000000	55.227437
916.000000	55.334682
915.000000	55.443553
914.000000	55.537596
913.000000	55.659872
912.000000	55.766101
911.000000	55.871417
910.000000	55.997248
909.000000	56.141359
908.000000	56.306289
907.000000	56.454463
906.000000	56.653517
905.000000	56.805346
904.000000	56.991299
903.000000	57.182330
902.000000	57.380064
901.000000	57.577087
900.000000	57.785586
899.000000	58.004545
898.000000	58.188670
897.000000	58.402450
896.000000	58.599879
895.000000	58.797918
894.000000	58.971988
893.000000	59.174495
892.000000	59.368370
891.000000	59.556862
890.000000	59.696301
889.000000	59.878497
888.000000	60.057747
887.000000	60.213435
886.000000	60.382022
885.000000	60.542586
884.000000	60.703758
883.000000	60.841674
882.000000	61.031791
881.000000	61.178644
880.000000	61.320216
879.000000	61.478546
878.000000	61.648859
877.000000	61.814297
876.000000	61.975267
875.000000	62.145580
874.000000	62.310713
873.000000	62.489354
872.000000	62.682010
871.000000	62.872533
870.000000	63.087329
869.000000	63.262720
868.000000	63.504631
867.000000	63.722372
866.000000	63.944784
865.000000	64.169837
864.000000	64.382399
863.000000	64.621771
862.000000	64.859519
861.000000	65.060299
860.000000	65.263009
859.000000	65.456681
858.000000	65.766433
857.000000	65.388300
856.000000	65.848300
855.000000	66.062700
854.000000	66.390000
853.000000	66.789500
852.000000	67.044300
851.000000	66.741400
850.000000	67.552900
849.000000	67.553100
848.000000	68.163800
847.000000	68.247400
846.000000	68.742500
845.000000	68.950200
844.000000	69.160000
843.000000	69.205900
842.000000	69.705700
841.000000	69.850100
840.000000	70.176600
839.000000	70.359400
838.000000	70.553700
837.000000	70.880300
836.000000	70.782800
835.000000	71.115100
834.000000	71.364100
833.000000	71.575000
832.000000	71.663600
831.000000	72.019600
830.000000	72.233400
829.000000	72.327000
828.000000	72.364500
827.000000	72.587300
826.000000	72.734700
825.000000	72.794700
824.000000	73.009600
823.000000	72.973000
822.000000	73.143800
821.000000	73.334100
820.000000	73.577100
819.000000	73.740600
818.000000	73.803600
817.000000	73.894600
816.000000	73.995000
815.000000	74.176500
814.000000	74.334400
813.000000	74.451100
812.000000	74.483100
811.000000	74.528100
810.000000	74.719900
809.000000	74.695800
808.000000	74.556800
807.000000	74.670100
806.000000	74.753500
805.000000	74.848600
804.000000	74.842600
803.000000	74.904600
802.000000	74.898100
801.000000	74.895000
800.000000	74.914300
799.000000	74.880300
798.000000	74.972100
797.000000	74.918300
796.000000	74.871400
795.000000	74.797600
794.000000	74.767500
793.000000	74.748000
792.000000	74.676000
791.000000	74.665900
790.000000	74.546200
789.000000	74.532800
788.000000	74.499600
787.000000	74.356300
786.000000	74.311900
785.000000	74.237300
784.000000	74.261700
783.000000	74.105500
782.000000	73.984200
781.000000	74.034300
780.000000	74.033700
779.000000	73.932900
778.000000	73.839600
777.000000	73.788900
776.000000	73.683900
775.000000	73.563400
774.000000	73.428700
773.000000	73.353800
772.000000	73.383700
771.000000	73.412900
770.000000	73.300700
769.000000	73.232500
768.000000	73.155900
767.000000	73.048800
766.000000	72.943500
765.000000	72.886500
764.000000	72.808000
763.000000	72.664000
762.000000	72.580500
761.000000	72.573400
760.000000	72.505300
759.000000	72.326300
758.000000	72.144900
757.000000	72.118900
756.000000	72.059700
755.000000	71.884000
754.000000	71.765800
753.000000	71.671900
752.000000	71.532900
751.000000	71.413400
750.000000	71.290900
749.000000	71.163400
748.000000	71.047500
747.000000	70.834900
746.000000	70.561200
745.000000	70.329500
744.000000	70.148300
743.000000	69.935100
742.000000	69.756600
741.000000	69.509300
740.000000	69.263900
739.000000	69.058800
738.000000	68.775400
737.000000	68.576200
736.000000	68.325500
735.000000	68.041900
734.000000	67.817100
733.000000	67.570300
732.000000	67.265000
731.000000	67.008800
730.000000	66.831400
729.000000	66.597300
728.000000	66.266400
727.000000	65.971000
726.000000	65.639800
725.000000	65.313400
724.000000	65.027000
723.000000	64.694200
722.000000	64.353100
721.000000	64.016900
720.000000	63.667300
719.000000	63.334100
718.000000	63.010400
717.000000	62.596300
716.000000	62.245400
715.000000	61.912800
714.000000	61.585400
713.000000	61.258500
712.000000	60.889600
711.000000	60.487300
710.000000	60.104100
709.000000	59.694400
708.000000	59.252300
707.000000	58.859100
706.000000	58.415700
705.000000	57.911400
704.000000	57.412200
703.000000	56.944800
702.000000	56.398600
701.000000	55.912900
700.000000	55.433300
699.000000	54.925800
698.000000	54.443100
697.000000	53.975500
696.000000	53.583500
695.000000	53.202400
694.000000	52.858800
693.000000	52.525300
692.000000	52.237400
691.000000	51.939000
690.000000	51.737900
689.000000	51.504700
688.000000	51.263500
687.000000	51.081200
686.000000	50.909500
685.000000	50.732400
684.000000	50.561600
683.000000	50.391300
682.000000	50.293500
681.000000	50.208500
680.000000	50.143300
679.000000	50.089400
678.000000	50.047100
677.000000	50.046600
676.000000	50.053500
675.000000	50.049800
674.000000	50.101600
673.000000	50.145800
672.000000	50.203000
671.000000	50.244800
670.000000	50.274200
669.000000	50.244700
668.000000	50.211400
667.000000	50.147200
666.000000	49.989000
665.000000	49.783100
664.000000	49.539800
663.000000	49.261700
662.000000	48.925500
661.000000	48.570300
660.000000	48.247800
659.000000	47.894100
658.000000	47.548300
657.000000	47.252700
656.000000	46.957000
655.000000	46.711700
654.000000	46.435000
653.000000	46.226000
652.000000	46.071000
651.000000	45.944700
650.000000	45.824700
649.000000	45.693700
648.000000	45.598400
647.000000	45.471200
646.000000	45.330500
645.000000	45.209300
644.000000	45.101000
643.000000	45.000700
642.000000	44.893700
641.000000	44.876200
640.000000	44.822700
639.000000	44.866700
638.000000	44.930900
637.000000	45.079900
636.000000	45.222200
635.000000	45.453300
634.000000	45.662600
633.000000	45.950100
632.000000	46.258400
631.000000	46.585400
630.000000	47.016100
629.000000	47.415800
628.000000	47.828500
627.000000	48.183000
626.000000	48.601700
625.000000	48.968600
624.000000	49.331500
623.000000	49.721700
622.000000	50.096500
621.000000	50.442400
620.000000	50.773300
619.000000	51.135600
618.000000	51.472200
617.000000	51.817000
616.000000	52.155100
615.000000	52.522600
614.000000	52.855100
613.000000	53.251400
612.000000	53.619800
611.000000	53.972600
610.000000	54.312900
609.000000	54.642200
608.000000	54.970200
607.000000	55.255700
606.000000	55.559500
605.000000	55.819300
604.000000	56.074600
603.000000	56.302900
602.000000	56.513900
601.000000	56.715300
600.000000	56.853400
599.000000	57.039100
598.000000	57.091900
597.000000	57.146400
596.000000	57.179400
595.000000	57.123300
594.000000	57.147800
593.000000	57.112200
592.000000	57.074000
591.000000	57.041800
590.000000	57.029400
589.000000	56.964300
588.000000	56.932100
587.000000	56.881300
586.000000	56.793400
585.000000	56.625200
584.000000	56.515400
583.000000	56.407800
582.000000	56.245200
581.000000	56.171100
580.000000	56.028800
579.000000	55.962600
578.000000	55.805500
577.000000	55.651600
576.000000	55.478300
575.000000	55.300200
574.000000	55.087100
573.000000	54.892300
572.000000	54.680100
571.000000	54.463000
570.000000	54.243700
569.000000	53.990100
568.000000	53.707400
567.000000	53.418000
566.000000	53.090500
565.000000	52.761700
564.000000	52.418100
563.000000	52.024600
562.000000	51.651200
561.000000	51.225000
560.000000	50.795500
559.000000	50.336200
558.000000	49.861900
557.000000	49.385200
556.000000	48.912900
555.000000	48.381400
554.000000	47.855000
553.000000	47.317200
552.000000	46.794500
551.000000	46.252900
550.000000	45.681700
549.000000	45.123700
548.000000	44.582200
547.000000	44.046600
546.000000	43.510000
545.000000	42.987400
544.000000	42.497100
543.000000	42.000800
542.000000	41.482400
541.000000	40.977700
540.000000	40.501500
539.000000	40.012800
538.000000	39.530300
537.000000	39.042600
536.000000	38.539700
535.000000	38.029900
534.000000	37.547700
533.000000	37.011300
532.000000	36.467200
531.000000	35.919500
530.000000	35.385600
529.000000	34.820300
528.000000	34.217600
527.000000	33.614200
526.000000	32.995400
525.000000	32.350500
524.000000	31.677600
523.000000	30.989200
522.000000	30.295600
521.000000	29.584200
520.000000	28.879600
519.000000	28.208800
518.000000	27.590500
517.000000	26.997900
516.000000	26.447300
515.000000	25.943600
514.000000	25.515500
513.000000	25.179500
512.000000	24.916000
511.000000	24.706400
510.000000	24.548900
509.000000	24.459400
508.000000	24.422600
507.000000	24.446900
506.000000	24.492200
505.000000	24.551700
504.000000	24.618000
503.000000	24.692700
502.000000	24.796900
501.000000	24.921700
500.000000	25.001700
499.000000	25.080200
498.000000	25.169400
497.000000	25.261300
496.000000	25.341800
495.000000	25.381500
494.000000	25.438100
493.000000	25.483900
492.000000	25.529700
491.000000	25.572200
490.000000	25.599100
489.000000	25.607700
488.000000	25.613700
487.000000	25.627100
486.000000	25.602000
485.000000	25.592400
484.000000	25.579400
483.000000	25.522300
482.000000	25.474500
481.000000	25.395900
480.000000	25.278600
479.000000	25.166000
478.000000	25.069600
477.000000	24.958400
476.000000	24.817500
475.000000	24.700000
474.000000	24.576000
473.000000	24.422800
472.000000	24.286200
471.000000	24.141800
470.000000	23.986700
469.000000	23.834300
468.000000	23.665100
467.000000	23.494700
466.000000	23.320300
465.000000	23.138900
464.000000	22.958400
463.000000	22.760800
462.000000	22.550100
461.000000	22.327400
460.000000	22.104800
459.000000	21.863000
458.000000	21.610900
457.000000	21.338700
456.000000	21.065000
455.000000	20.781000
454.000000	20.453100
453.000000	20.133900
452.000000	19.790000
451.000000	19.408800
450.000000	19.035600
449.000000	18.643700
448.000000	18.248200
447.000000	17.846300
446.000000	17.411700
445.000000	16.952700
444.000000	16.491100
443.000000	16.022300
442.000000	15.534500
441.000000	15.052100
440.000000	14.559900
439.000000	14.076600
438.000000	13.598600
437.000000	13.121700
436.000000	12.659700
435.000000	12.208800
434.000000	11.782100
433.000000	11.376600
432.000000	10.962900
431.000000	10.568000
430.000000	10.214100
429.000000	9.870900
428.000000	9.544600
427.000000	9.255000
426.000000	8.983100
425.000000	8.723400
424.000000	8.479700
423.000000	8.248000
422.000000	8.040400
421.000000	7.858300
420.000000	7.674500
419.000000	7.518300
418.000000	7.377900
417.000000	7.245300
416.000000	7.124700
415.000000	7.006900
414.000000	6.901100
413.000000	6.809500
412.000000	6.727700
411.000000	6.660300
410.000000	6.579900
409.000000	6.507800
408.000000	6.451800
407.000000	6.403500
406.000000	6.359200
405.000000	6.299700
404.000000	6.252800
403.000000	6.230900
402.000000	6.199100
401.000000	6.158300
400.000000	6.127700
399.000000	6.093300
398.000000	6.066600
397.000000	6.038000
396.000000	6.017700
395.000000	5.993000
394.000000	5.970800
393.000000	5.948100
392.000000	5.929700
391.000000	5.918000
390.000000	5.893100
389.000000	5.868100
388.000000	5.854900
387.000000	5.822300
386.000000	5.809400
385.000000	5.797900
384.000000	5.778300
383.000000	5.754000
382.000000	5.723400
381.000000	5.722100
380.000000	5.694400
379.000000	5.678100
378.000000	5.655200
377.000000	5.671600
376.000000	5.664400
375.000000	5.569000
374.000000	5.612400
373.000000	5.620800
372.000000	5.572100
371.000000	5.533900
370.000000	5.576500
369.000000	5.580600
368.000000	5.574800
367.000000	5.543700
366.000000	5.622200
365.000000	5.561200
364.000000	5.538700
363.000000	5.590300
362.000000	5.581400
361.000000	5.582900
360.000000	5.532600
359.000000	5.517800
358.000000	5.514900
357.000000	5.426700
356.000000	5.516400
355.000000	5.396600
354.000000	5.402400
353.000000	5.366500
352.000000	5.425000
351.000000	5.444100
350.000000	5.329400
349.000000	5.277200
348.000000	5.370500
347.000000	5.263500
346.000000	5.449900
345.000000	5.435600
344.000000	5.405900
343.000000	5.354500
342.000000	5.363700
341.000000	5.428500
340.000000	5.143800
339.000000	5.402500
338.000000	5.327400
337.000000	5.217000
336.000000	5.460800
335.000000	5.329000
334.000000	5.391700
333.000000	5.274200
332.000000	5.189400
331.000000	5.389900
330.000000	5.261600
329.000000	5.299300
328.000000	5.292200
327.000000	5.241600
326.000000	5.578600
325.000000	5.465600
324.000000	5.404800
323.000000	5.444300
322.000000	5.349100
321.000000	5.445500
320.000000	5.327400
319.000000	5.798000
318.000000	5.589700
317.000000	5.758500
316.000000	5.304100
315.000000	5.267900
314.000000	5.298700
313.000000	5.228400
312.000000	5.281000
311.000000	5.308800
310.000000	5.331700
309.000000	5.259200
308.000000	5.381600
307.000000	5.383900
306.000000	5.312500
305.000000	5.294000
304.000000	5.340500
303.000000	5.288500
302.000000	5.345300
301.000000	5.357600
300.000000	5.354600
299.000000	5.382200
298.000000	5.400700
297.000000	5.342400
296.000000	5.360900
295.000000	5.406600
294.000000	5.332800
293.000000	5.376100
292.000000	5.406700
291.000000	5.378600
290.000000	5.445100
289.000000	5.440500
288.000000	5.374200
287.000000	5.353600
286.000000	5.399500
285.000000	5.404700
284.000000	5.424100
283.000000	5.429500
282.000000	5.466300
281.000000	5.383600
280.000000	5.375500
279.000000	5.453400
278.000000	5.432600
277.000000	5.434500
276.000000	5.446600
275.000000	5.503800
274.000000	5.513600
273.000000	5.529600
272.000000	5.502200
271.000000	5.551300
270.000000	5.534800
269.000000	5.539400
268.000000	5.529500
267.000000	5.622000
266.000000	5.633500
265.000000	5.600300
264.000000	5.600900
263.000000	5.670600
262.000000	5.722000
261.000000	5.711500
260.000000	5.752700
259.000000	5.762800
258.000000	5.769000
257.000000	5.805100
256.000000	5.798700
255.000000	5.819200
254.000000	5.889000
253.000000	5.839800
252.000000	5.860200
251.000000	5.902700
250.000000	5.892400
