PE UV       SUBTECH     SPECTRUM    ASCII       PEDS        4.00        
   -1
CICIMAUCR0108-3.Sample.ASC
24/04/04
14:31:49.00
24/04/04
14:31:49.00
Vinicio Soto Monge
C. resplendens
250,000000
1
Lambda 1050
1050L1511233
PerkinElmer UV WinLab 6.3.2.0749 / 2.02.05 Lambda 900 UV/VIS/NIR, Aug  7 2015 09:38:08

0
0
3350/servo 860,8/2
0
0
UV/VIS
1
1
1
DoubleDePol,CommonBeamDepol,RBeamAtt,SBeamAtt,60mm sphere, WB InGaAs Detector
0
0
0
0
Program
Program
3350/servo 860,8/2
3350/0,2 860,8/0,2
3350/0,2 860,8/0,2
0
15.00
 
 
 
0
 
860,8
319,2
860,8
Front
100
on
S:100 R:100
0
0
0
0
 
0
 
 
 
0
 
 
0
0
0
0
0
 
 
 
 
0
0


0
0
#HDR
-1
-1
#GR
nm
%R
1.0
0.0
2500,000000
-1,000000
2251
8
68,128600
5,096800
#DATA
2500.000000	5.363682
2499.000000	5.452701
2498.000000	5.373137
2497.000000	5.381787
2496.000000	5.297194
2495.000000	5.382391
2494.000000	5.387319
2493.000000	5.313891
2492.000000	5.371829
2491.000000	5.368309
2490.000000	5.346280
2489.000000	5.351611
2488.000000	5.345375
2487.000000	5.252634
2486.000000	5.257663
2485.000000	5.177496
2484.000000	5.232919
2483.000000	5.330689
2482.000000	5.315802
2481.000000	5.363078
2480.000000	5.238351
2479.000000	5.355936
2478.000000	5.273858
2477.000000	5.334310
2476.000000	5.291561
2475.000000	5.289449
2474.000000	5.282810
2473.000000	5.300815
2472.000000	5.314696
2471.000000	5.297294
2470.000000	5.312584
2469.000000	5.300111
2468.000000	5.290153
2467.000000	5.374344
2466.000000	5.337931
2465.000000	5.355735
2464.000000	5.372433
2463.000000	5.351712
2462.000000	5.382190
2461.000000	5.402106
2460.000000	5.450790
2459.000000	5.466984
2458.000000	5.476741
2457.000000	5.512952
2456.000000	5.546548
2455.000000	5.526431
2454.000000	5.573807
2453.000000	5.609012
2452.000000	5.645123
2451.000000	5.685659
2450.000000	5.700446
2449.000000	5.751242
2448.000000	5.786950
2447.000000	5.801032
2446.000000	5.855550
2445.000000	5.861988
2444.000000	5.894980
2443.000000	5.942859
2442.000000	5.973035
2441.000000	5.992952
2440.000000	6.034494
2439.000000	6.071208
2438.000000	6.098769
2437.000000	6.142122
2436.000000	6.144837
2435.000000	6.180143
2434.000000	6.207101
2433.000000	6.235466
2432.000000	6.279925
2431.000000	6.285357
2430.000000	6.306882
2429.000000	6.323781
2428.000000	6.345407
2427.000000	6.371761
2426.000000	6.403345
2425.000000	6.415717
2424.000000	6.442373
2423.000000	6.450218
2422.000000	6.464703
2421.000000	6.468626
2420.000000	6.513789
2419.000000	6.524049
2418.000000	6.522540
2417.000000	6.546782
2416.000000	6.554728
2415.000000	6.569816
2414.000000	6.582792
2413.000000	6.589632
2412.000000	6.602909
2411.000000	6.611258
2410.000000	6.623328
2409.000000	6.641735
2408.000000	6.657729
2407.000000	6.670805
2406.000000	6.679455
2405.000000	6.686698
2404.000000	6.694443
2403.000000	6.722607
2402.000000	6.742322
2401.000000	6.754795
2400.000000	6.765055
2399.000000	6.791710
2398.000000	6.806496
2397.000000	6.817963
2396.000000	6.828223
2395.000000	6.832548
2394.000000	6.849547
2393.000000	6.878416
2392.000000	6.871073
2391.000000	6.864434
2390.000000	6.885759
2389.000000	6.897628
2388.000000	6.895817
2387.000000	6.889983
2386.000000	6.890486
2385.000000	6.910201
2384.000000	6.912615
2383.000000	6.901551
2382.000000	6.891391
2381.000000	6.891693
2380.000000	6.888977
2379.000000	6.873085
2378.000000	6.859505
2377.000000	6.855180
2376.000000	6.869765
2375.000000	6.852163
2374.000000	6.830034
2373.000000	6.817661
2372.000000	6.796941
2371.000000	6.777125
2370.000000	6.753789
2369.000000	6.745239
2368.000000	6.725323
2367.000000	6.686496
2366.000000	6.655214
2365.000000	6.623429
2364.000000	6.586212
2363.000000	6.562976
2362.000000	6.528575
2361.000000	6.481903
2360.000000	6.435533
2359.000000	6.402540
2358.000000	6.379003
2357.000000	6.355969
2356.000000	6.324787
2355.000000	6.297327
2354.000000	6.265743
2353.000000	6.249448
2352.000000	6.256388
2351.000000	6.255784
2350.000000	6.269867
2349.000000	6.295114
2348.000000	6.306983
2347.000000	6.334343
2346.000000	6.352247
2345.000000	6.359992
2344.000000	6.397712
2343.000000	6.420445
2342.000000	6.447603
2341.000000	6.469129
2340.000000	6.484921
2339.000000	6.488341
2338.000000	6.482104
2337.000000	6.489850
2336.000000	6.487737
2335.000000	6.476371
2334.000000	6.457762
2333.000000	6.424167
2332.000000	6.403848
2331.000000	6.387251
2330.000000	6.356069
2329.000000	6.323479
2328.000000	6.281535
2327.000000	6.229230
2326.000000	6.188291
2325.000000	6.131359
2324.000000	6.078148
2323.000000	6.017696
2322.000000	5.958953
2321.000000	5.881803
2320.000000	5.809180
2319.000000	5.733740
2318.000000	5.665743
2317.000000	5.595534
2316.000000	5.545039
2315.000000	5.477244
2314.000000	5.405928
2313.000000	5.348895
2312.000000	5.294076
2311.000000	5.241368
2310.000000	5.208275
2309.000000	5.179105
2308.000000	5.163112
2307.000000	5.161301
2306.000000	5.142492
2305.000000	5.156071
2304.000000	5.162106
2303.000000	5.177596
2302.000000	5.192785
2301.000000	5.205459
2300.000000	5.244889
2299.000000	5.276875
2298.000000	5.293472
2297.000000	5.304939
2296.000000	5.343263
2295.000000	5.379775
2294.000000	5.384905
2293.000000	5.409348
2292.000000	5.403011
2291.000000	5.405827
2290.000000	5.416490
2289.000000	5.422122
2288.000000	5.390035
2287.000000	5.371226
2286.000000	5.375450
2285.000000	5.338937
2284.000000	5.327068
2283.000000	5.305442
2282.000000	5.299809
2281.000000	5.275970
2280.000000	5.244587
2279.000000	5.213707
2278.000000	5.186549
2277.000000	5.179910
2276.000000	5.170656
2275.000000	5.166230
2274.000000	5.144101
2273.000000	5.141586
2272.000000	5.127605
2271.000000	5.132433
2270.000000	5.126700
2269.000000	5.148225
2268.000000	5.143296
2267.000000	5.176490
2266.000000	5.194294
2265.000000	5.217127
2264.000000	5.260580
2263.000000	5.294076
2262.000000	5.358351
2261.000000	5.417093
2260.000000	5.514059
2259.000000	5.529951
2258.000000	5.631946
2257.000000	5.684754
2256.000000	5.774679
2255.000000	5.838652
2254.000000	5.919523
2253.000000	6.001401
2252.000000	6.058534
2251.000000	6.124921
2250.000000	6.188894
2249.000000	6.256287
2248.000000	6.307687
2247.000000	6.354259
2246.000000	6.422959
2245.000000	6.477075
2244.000000	6.507050
2243.000000	6.559657
2242.000000	6.592649
2241.000000	6.643244
2240.000000	6.697561
2239.000000	6.706211
2238.000000	6.748860
2237.000000	6.777628
2236.000000	6.790503
2235.000000	6.795029
2234.000000	6.834560
2233.000000	6.827720
2232.000000	6.840998
2231.000000	6.832045
2230.000000	6.843210
2229.000000	6.832246
2228.000000	6.816957
2227.000000	6.805692
2226.000000	6.770889
2225.000000	6.747854
2224.000000	6.731257
2223.000000	6.685289
2222.000000	6.651090
2221.000000	6.625239
2220.000000	6.572331
2219.000000	6.538534
2218.000000	6.507050
2217.000000	6.475466
2216.000000	6.461685
2215.000000	6.427586
2214.000000	6.398014
2213.000000	6.391275
2212.000000	6.391476
2211.000000	6.368140
2210.000000	6.392683
2209.000000	6.414108
2208.000000	6.439053
2207.000000	6.488643
2206.000000	6.546078
2205.000000	6.604317
2204.000000	6.702590
2203.000000	6.770386
2202.000000	6.871676
2201.000000	6.975784
2200.000000	7.078483
2199.000000	7.181182
2198.000000	7.283981
2197.000000	7.403478
2196.000000	7.500745
2195.000000	7.613603
2194.000000	7.724148
2193.000000	7.800996
2192.000000	7.873016
2191.000000	7.958917
2190.000000	8.050652
2189.000000	8.109496
2188.000000	8.176989
2187.000000	8.239554
2186.000000	8.272546
2185.000000	8.331792
2184.000000	8.364583
2183.000000	8.394256
2182.000000	8.445053
2181.000000	8.466779
2180.000000	8.508120
2179.000000	8.533971
2178.000000	8.563644
2177.000000	8.584767
2176.000000	8.611121
2175.000000	8.637374
2174.000000	8.678212
2173.000000	8.697424
2172.000000	8.725991
2171.000000	8.748623
2170.000000	8.786947
2169.000000	8.812395
2168.000000	8.848003
2167.000000	8.882001
2166.000000	8.913686
2165.000000	8.940442
2164.000000	8.977055
2163.000000	9.006225
2162.000000	9.038514
2161.000000	9.060341
2160.000000	9.099771
2159.000000	9.131355
2158.000000	9.146443
2157.000000	9.182856
2156.000000	9.234255
2155.000000	9.285655
2154.000000	9.320156
2153.000000	9.351338
2152.000000	9.375479
2151.000000	9.415412
2150.000000	9.446895
2149.000000	9.496988
2148.000000	9.527767
2147.000000	9.545370
2146.000000	9.586007
2145.000000	9.613165
2144.000000	9.627549
2143.000000	9.661748
2142.000000	9.691824
2141.000000	9.727934
2140.000000	9.755294
2139.000000	9.762737
2138.000000	9.788387
2137.000000	9.808001
2136.000000	9.819167
2135.000000	9.846224
2134.000000	9.860306
2133.000000	9.870063
2132.000000	9.882637
2131.000000	9.889577
2130.000000	9.891187
2129.000000	9.904464
2128.000000	9.909996
2127.000000	9.906576
2126.000000	9.912913
2125.000000	9.903458
2124.000000	9.881128
2123.000000	9.886258
2122.000000	9.889477
2121.000000	9.879519
2120.000000	9.870868
2119.000000	9.867951
2118.000000	9.844615
2117.000000	9.830231
2116.000000	9.824900
2115.000000	9.809208
2114.000000	9.799452
2113.000000	9.780340
2112.000000	9.765755
2111.000000	9.756602
2110.000000	9.739401
2109.000000	9.723911
2108.000000	9.713349
2107.000000	9.704297
2106.000000	9.686292
2105.000000	9.663157
2104.000000	9.653199
2103.000000	9.644749
2102.000000	9.626443
2101.000000	9.611254
2100.000000	9.596971
2099.000000	9.585604
2098.000000	9.587214
2097.000000	9.568907
2096.000000	9.554020
2095.000000	9.549594
2094.000000	9.530785
2093.000000	9.523542
2092.000000	9.515797
2091.000000	9.520122
2090.000000	9.523442
2089.000000	9.524749
2088.000000	9.526258
2087.000000	9.513484
2086.000000	9.494272
2085.000000	9.490047
2084.000000	9.493568
2083.000000	9.490550
2082.000000	9.472143
2081.000000	9.451724
2080.000000	9.440458
2079.000000	9.420240
2078.000000	9.418530
2077.000000	9.420441
2076.000000	9.405856
2075.000000	9.398614
2074.000000	9.385236
2073.000000	9.352847
2072.000000	9.330517
2071.000000	9.321062
2070.000000	9.304465
2069.000000	9.281028
2068.000000	9.257692
2067.000000	9.237575
2066.000000	9.211623
2065.000000	9.189192
2064.000000	9.163744
2063.000000	9.146443
2062.000000	9.130349
2061.000000	9.103694
2060.000000	9.080659
2059.000000	9.072914
2058.000000	9.047466
2057.000000	9.017491
2056.000000	9.013870
2055.000000	9.018899
2054.000000	9.034993
2053.000000	9.057323
2052.000000	9.048069
2051.000000	9.077038
2050.000000	9.109327
2049.000000	9.150165
2048.000000	9.199151
2047.000000	9.268153
2046.000000	9.330718
2045.000000	9.406359
2044.000000	9.496686
2043.000000	9.592847
2042.000000	9.675428
2041.000000	9.761933
2040.000000	9.864229
2039.000000	9.952243
2038.000000	10.055042
2037.000000	10.152812
2036.000000	10.226643
2035.000000	10.304698
2034.000000	10.395126
2033.000000	10.465737
2032.000000	10.532024
2031.000000	10.608570
2030.000000	10.669727
2029.000000	10.733901
2028.000000	10.794253
2027.000000	10.861445
2026.000000	10.923407
2025.000000	10.966458
2024.000000	11.025100
2023.000000	11.079416
2022.000000	11.127296
2021.000000	11.191369
2020.000000	11.235929
2019.000000	11.264999
2018.000000	11.299500
2017.000000	11.346977
2016.000000	11.397773
2015.000000	11.433582
2014.000000	11.450481
2013.000000	11.501880
2012.000000	11.537186
2011.000000	11.582450
2010.000000	11.605283
2009.000000	11.646624
2008.000000	11.666541
2007.000000	11.695107
2006.000000	11.718041
2005.000000	11.736046
2004.000000	11.759080
2003.000000	11.788049
2002.000000	11.795191
2001.000000	11.798309
2000.000000	11.823959
1999.000000	11.819231
1998.000000	11.835224
1997.000000	11.828988
1996.000000	11.808368
1995.000000	11.815107
1994.000000	11.806557
1993.000000	11.805350
1992.000000	11.775878
1991.000000	11.748921
1990.000000	11.739466
1989.000000	11.749525
1988.000000	11.734839
1987.000000	11.682534
1986.000000	11.651754
1985.000000	11.613129
1984.000000	11.594219
1983.000000	11.579734
1982.000000	11.542819
1981.000000	11.493230
1980.000000	11.461344
1979.000000	11.427446
1978.000000	11.404010
1977.000000	11.363473
1976.000000	11.301914
1975.000000	11.281093
1974.000000	11.241864
1973.000000	11.212191
1972.000000	11.192476
1971.000000	11.139668
1970.000000	11.122870
1969.000000	11.070665
1968.000000	11.047028
1967.000000	11.016852
1966.000000	10.984865
1965.000000	10.941613
1964.000000	10.907011
1963.000000	10.881261
1962.000000	10.858528
1961.000000	10.811454
1960.000000	10.768704
1959.000000	10.751303
1958.000000	10.710163
1957.000000	10.688537
1956.000000	10.631202
1955.000000	10.606860
1954.000000	10.564815
1953.000000	10.554455
1952.000000	10.514120
1951.000000	10.467548
1950.000000	10.437573
1949.000000	10.410817
1948.000000	10.372494
1947.000000	10.371890
1946.000000	10.350163
1945.000000	10.346844
1944.000000	10.314757
1943.000000	10.300876
1942.000000	10.299267
1941.000000	10.258730
1940.000000	10.267682
1939.000000	10.298361
1938.000000	10.294438
1937.000000	10.311236
1936.000000	10.304195
1935.000000	10.317171
1934.000000	10.324111
1933.000000	10.360423
1932.000000	10.388286
1931.000000	10.427112
1930.000000	10.462418
1929.000000	10.488369
1928.000000	10.569241
1927.000000	10.604748
1926.000000	10.667313
1925.000000	10.716299
1924.000000	10.756936
1923.000000	10.822619
1922.000000	10.904899
1921.000000	11.013633
1920.000000	11.116231
1919.000000	11.208570
1918.000000	11.277773
1917.000000	11.345468
1916.000000	11.414973
1915.000000	11.490413
1914.000000	11.630631
1913.000000	11.739768
1912.000000	11.868016
1911.000000	11.982383
1910.000000	12.071201
1909.000000	12.143020
1908.000000	12.215643
1907.000000	12.337152
1906.000000	12.494872
1905.000000	12.671301
1904.000000	12.815240
1903.000000	12.925282
1902.000000	13.019431
1901.000000	13.128668
1900.000000	13.256916
1899.000000	13.416145
1898.000000	13.560185
1897.000000	13.704225
1896.000000	13.775742
1895.000000	13.850377
1894.000000	13.973596
1893.000000	14.095406
1892.000000	14.249605
1891.000000	14.398775
1890.000000	14.541105
1889.000000	14.653762
1888.000000	14.793377
1887.000000	14.943351
1886.000000	15.104189
1885.000000	15.296813
1884.000000	15.517399
1883.000000	15.760316
1882.000000	15.978086
1881.000000	16.227139
1880.000000	16.477800
1879.000000	16.709753
1878.000000	16.952771
1877.000000	17.171245
1876.000000	17.389216
1875.000000	17.603365
1874.000000	17.775670
1873.000000	17.948779
1872.000000	18.117564
1871.000000	18.248226
1870.000000	18.369131
1869.000000	18.461771
1868.000000	18.515283
1867.000000	18.542241
1866.000000	18.550891
1865.000000	18.545158
1864.000000	18.522023
1863.000000	18.509248
1862.000000	18.522928
1861.000000	18.540229
1860.000000	18.534194
1859.000000	18.545862
1858.000000	18.541838
1857.000000	18.510254
1856.000000	18.451612
1855.000000	18.413188
1854.000000	18.385325
1853.000000	18.315619
1852.000000	18.233943
1851.000000	18.191495
1850.000000	18.139492
1849.000000	18.108209
1848.000000	18.085275
1847.000000	18.053289
1846.000000	17.983281
1845.000000	17.890942
1844.000000	17.811277
1843.000000	17.774060
1842.000000	17.778989
1841.000000	17.761387
1840.000000	17.714413
1839.000000	17.683834
1838.000000	17.655569
1837.000000	17.617849
1836.000000	17.566751
1835.000000	17.498855
1834.000000	17.421806
1833.000000	17.340130
1832.000000	17.287623
1831.000000	17.236727
1830.000000	17.182209
1829.000000	17.137548
1828.000000	17.071463
1827.000000	17.010105
1826.000000	16.948948
1825.000000	16.879745
1824.000000	16.826937
1823.000000	16.797062
1822.000000	16.795151
1821.000000	16.798471
1820.000000	16.782578
1819.000000	16.758337
1818.000000	16.713877
1817.000000	16.674850
1816.000000	16.679074
1815.000000	16.684506
1814.000000	16.673441
1813.000000	16.656342
1812.000000	16.626870
1811.000000	16.602830
1810.000000	16.575370
1809.000000	16.540466
1808.000000	16.501841
1807.000000	16.475889
1806.000000	16.453056
1805.000000	16.396225
1804.000000	16.348245
1803.000000	16.311028
1802.000000	16.285781
1801.000000	16.250676
1800.000000	16.201187
1799.000000	16.149586
1798.000000	16.115286
1797.000000	16.077868
1796.000000	16.053124
1795.000000	16.017717
1794.000000	15.988547
1793.000000	15.960383
1792.000000	15.926988
1791.000000	15.879712
1790.000000	15.824390
1789.000000	15.783250
1788.000000	15.724910
1787.000000	15.682462
1786.000000	15.622009
1785.000000	15.569201
1784.000000	15.502412
1783.000000	15.426570
1782.000000	15.366318
1781.000000	15.313812
1780.000000	15.254667
1779.000000	15.187173
1778.000000	15.094131
1777.000000	15.015874
1776.000000	14.930979
1775.000000	14.842362
1774.000000	14.742279
1773.000000	14.643301
1772.000000	14.534567
1771.000000	14.430963
1770.000000	14.313277
1769.000000	14.197703
1768.000000	14.086052
1767.000000	13.995021
1766.000000	13.899664
1765.000000	13.841123
1764.000000	13.801090
1763.000000	13.763269
1762.000000	13.770813
1761.000000	13.792640
1760.000000	13.831165
1759.000000	13.864962
1758.000000	13.930746
1757.000000	13.966957
1756.000000	14.013830
1755.000000	14.041190
1754.000000	14.066437
1753.000000	14.071869
1752.000000	14.066437
1751.000000	14.054668
1750.000000	14.035054
1749.000000	14.006990
1748.000000	13.966555
1747.000000	13.923101
1746.000000	13.847661
1745.000000	13.755624
1744.000000	13.660168
1743.000000	13.534736
1742.000000	13.391903
1741.000000	13.259330
1740.000000	13.098794
1739.000000	12.918844
1738.000000	12.770077
1737.000000	12.646757
1736.000000	12.495475
1735.000000	12.418225
1734.000000	12.323070
1733.000000	12.301745
1732.000000	12.301544
1731.000000	12.323271
1730.000000	12.392877
1729.000000	12.470027
1728.000000	12.561561
1727.000000	12.647059
1726.000000	12.750965
1725.000000	12.810512
1724.000000	12.843203
1723.000000	12.882935
1722.000000	12.930211
1721.000000	12.953446
1720.000000	12.973563
1719.000000	13.014603
1718.000000	13.047897
1717.000000	13.092859
1716.000000	13.149691
1715.000000	13.175240
1714.000000	13.238810
1713.000000	13.312440
1712.000000	13.368366
1711.000000	13.398844
1710.000000	13.445214
1709.000000	13.450143
1708.000000	13.488064
1707.000000	13.487460
1706.000000	13.513814
1705.000000	13.529305
1704.000000	13.539766
1703.000000	13.529506
1702.000000	13.517737
1701.000000	13.463722
1700.000000	13.428014
1699.000000	13.338190
1698.000000	13.331954
1697.000000	13.273915
1696.000000	13.284175
1695.000000	13.282163
1694.000000	13.349757
1693.000000	13.419363
1692.000000	13.508382
1691.000000	13.623856
1690.000000	13.732590
1689.000000	13.822917
1688.000000	13.882665
1687.000000	13.889405
1686.000000	13.889606
1685.000000	13.903587
1684.000000	13.938592
1683.000000	14.035054
1682.000000	14.197502
1681.000000	14.444241
1680.000000	14.758272
1679.000000	15.096847
1678.000000	15.402731
1677.000000	15.728430
1676.000000	15.983317
1675.000000	16.247759
1674.000000	16.473676
1673.000000	16.672134
1672.000000	16.812855
1671.000000	16.955688
1670.000000	17.062108
1669.000000	17.181907
1668.000000	17.251010
1667.000000	17.313474
1666.000000	17.378453
1665.000000	17.428445
1664.000000	17.459325
1663.000000	17.489601
1662.000000	17.545427
1661.000000	17.574798
1660.000000	17.599643
1659.000000	17.602057
1658.000000	17.624388
1657.000000	17.615536
1656.000000	17.630322
1655.000000	17.610708
1654.000000	17.592703
1653.000000	17.588277
1652.000000	17.575100
1651.000000	17.552367
1650.000000	17.508411
1649.000000	17.500465
1648.000000	17.464958
1647.000000	17.448461
1646.000000	17.392133
1645.000000	17.365578
1644.000000	17.327154
1643.000000	17.272234
1642.000000	17.230390
1641.000000	17.205746
1640.000000	17.151027
1639.000000	17.117632
1638.000000	17.067641
1637.000000	17.018655
1636.000000	16.958001
1635.000000	16.899963
1634.000000	16.867171
1633.000000	16.833475
1632.000000	16.777951
1631.000000	16.711061
1630.000000	16.657851
1629.000000	16.603131
1628.000000	16.551530
1627.000000	16.517331
1626.000000	16.465931
1625.000000	16.412419
1624.000000	16.346636
1623.000000	16.308010
1622.000000	16.262947
1621.000000	16.222512
1620.000000	16.160148
1619.000000	16.112570
1618.000000	16.080383
1617.000000	16.039142
1616.000000	15.975270
1615.000000	15.942981
1614.000000	15.917835
1613.000000	15.870660
1612.000000	15.824893
1611.000000	15.773895
1610.000000	15.753074
1609.000000	15.704893
1608.000000	15.662143
1607.000000	15.620601
1606.000000	15.579662
1605.000000	15.545664
1604.000000	15.521825
1603.000000	15.486821
1602.000000	15.458757
1601.000000	15.418120
1600.000000	15.386033
1599.000000	15.359277
1598.000000	15.340669
1597.000000	15.309587
1596.000000	15.291281
1595.000000	15.258288
1594.000000	15.231432
1593.000000	15.228012
1592.000000	15.212219
1591.000000	15.182949
1590.000000	15.169470
1589.000000	15.164944
1588.000000	15.151465
1587.000000	15.133158
1586.000000	15.120283
1585.000000	15.108012
1584.000000	15.105095
1583.000000	15.087894
1582.000000	15.062547
1581.000000	15.053594
1580.000000	15.057618
1579.000000	15.063351
1578.000000	15.056612
1577.000000	15.059026
1576.000000	15.064458
1575.000000	15.060736
1574.000000	15.062345
1573.000000	15.069487
1572.000000	15.073410
1571.000000	15.092018
1570.000000	15.110627
1569.000000	15.123301
1568.000000	15.146838
1567.000000	15.165246
1566.000000	15.184156
1565.000000	15.204977
1564.000000	15.222580
1563.000000	15.248431
1562.000000	15.279009
1561.000000	15.283636
1560.000000	15.290677
1559.000000	15.309487
1558.000000	15.320149
1557.000000	15.329202
1556.000000	15.329805
1555.000000	15.325882
1554.000000	15.320652
1553.000000	15.322664
1552.000000	15.322060
1551.000000	15.311197
1550.000000	15.308079
1549.000000	15.294600
1548.000000	15.291281
1547.000000	15.280618
1546.000000	15.260300
1545.000000	15.228414
1544.000000	15.208297
1543.000000	15.216243
1542.000000	15.214734
1541.000000	15.192605
1540.000000	15.181339
1539.000000	15.180334
1538.000000	15.178221
1537.000000	15.169068
1536.000000	15.170275
1535.000000	15.179730
1534.000000	15.174499
1533.000000	15.174298
1532.000000	15.179026
1531.000000	15.170979
1530.000000	15.166453
1529.000000	15.157903
1528.000000	15.169973
1527.000000	15.152471
1526.000000	15.148246
1525.000000	15.153678
1524.000000	15.154181
1523.000000	15.149655
1522.000000	15.144122
1521.000000	15.165648
1520.000000	15.151666
1519.000000	15.133259
1518.000000	15.137886
1517.000000	15.139596
1516.000000	15.139797
1515.000000	15.128230
1514.000000	15.136880
1513.000000	15.133460
1512.000000	15.143720
1511.000000	15.138489
1510.000000	15.137785
1509.000000	15.122396
1508.000000	15.122094
1507.000000	15.126721
1506.000000	15.130945
1505.000000	15.132253
1504.000000	15.128531
1503.000000	15.139596
1502.000000	15.162731
1501.000000	15.156696
1500.000000	15.146235
1499.000000	15.159613
1498.000000	15.155589
1497.000000	15.171080
1496.000000	15.204273
1495.000000	15.215036
1494.000000	15.221172
1493.000000	15.223888
1492.000000	15.254667
1491.000000	15.267140
1490.000000	15.278808
1489.000000	15.308079
1488.000000	15.329503
1487.000000	15.330409
1486.000000	15.346704
1485.000000	15.375975
1484.000000	15.378690
1483.000000	15.408967
1482.000000	15.436829
1481.000000	15.449101
1480.000000	15.471230
1479.000000	15.499394
1478.000000	15.518808
1477.000000	15.566083
1476.000000	15.590224
1475.000000	15.618187
1474.000000	15.645245
1473.000000	15.693024
1472.000000	15.711532
1471.000000	15.753979
1470.000000	15.772889
1469.000000	15.793007
1468.000000	15.822680
1467.000000	15.849335
1466.000000	15.872973
1465.000000	15.909184
1464.000000	15.932621
1463.000000	15.983820
1462.000000	16.020936
1461.000000	16.049804
1460.000000	16.076460
1459.000000	16.106334
1458.000000	16.181673
1457.000000	16.235487
1456.000000	16.290810
1455.000000	16.354481
1454.000000	16.394213
1453.000000	16.460500
1452.000000	16.524774
1451.000000	16.588144
1450.000000	16.640751
1449.000000	16.708345
1448.000000	16.765478
1447.000000	16.820197
1446.000000	16.931547
1445.000000	17.001052
1444.000000	17.074581
1443.000000	17.107473
1442.000000	17.197096
1441.000000	17.274346
1440.000000	17.349384
1439.000000	17.424622
1438.000000	17.500968
1437.000000	17.569065
1436.000000	17.602963
1435.000000	17.671060
1434.000000	17.774161
1433.000000	17.827774
1432.000000	17.911261
1431.000000	17.983381
1430.000000	18.036893
1429.000000	18.128930
1428.000000	18.246918
1427.000000	18.334127
1426.000000	18.448494
1425.000000	18.580966
1424.000000	18.722592
1423.000000	18.816239
1422.000000	18.945291
1421.000000	19.079574
1420.000000	19.179960
1419.000000	19.316456
1418.000000	19.423581
1417.000000	19.498417
1416.000000	19.607151
1415.000000	19.737914
1414.000000	19.839808
1413.000000	19.928727
1412.000000	19.979322
1411.000000	20.116421
1410.000000	20.239338
1409.000000	20.421400
1408.000000	20.602255
1407.000000	20.783914
1406.000000	20.971408
1405.000000	21.186060
1404.000000	21.364400
1403.000000	21.587300
1402.000000	21.757291
1401.000000	22.018414
1400.000000	22.153200
1399.000000	22.225723
1398.000000	22.251775
1397.000000	22.320073
1396.000000	22.397626
1395.000000	22.373183
1394.000000	22.330735
1393.000000	22.276922
1392.000000	22.255296
1391.000000	22.234072
1390.000000	22.218481
1389.000000	22.260124
1388.000000	22.367550
1387.000000	22.410601
1386.000000	22.531305
1385.000000	22.717089
1384.000000	22.957591
1383.000000	23.180693
1382.000000	23.413349
1381.000000	23.614824
1380.000000	23.760675
1379.000000	23.954103
1378.000000	24.129224
1377.000000	24.377774
1376.000000	24.663138
1375.000000	25.015896
1374.000000	25.411302
1373.000000	25.899247
1372.000000	26.379549
1371.000000	26.834603
1370.000000	27.213512
1369.000000	27.552288
1368.000000	27.888851
1367.000000	28.146554
1366.000000	28.361809
1365.000000	28.573745
1364.000000	28.752186
1363.000000	28.913225
1362.000000	29.057366
1361.000000	29.166301
1360.000000	29.203015
1359.000000	29.241741
1358.000000	29.316477
1357.000000	29.456997
1356.000000	29.707860
1355.000000	30.082243
1354.000000	30.555302
1353.000000	31.082678
1352.000000	31.630070
1351.000000	32.181386
1350.000000	32.683414
1349.000000	33.130320
1348.000000	33.554796
1347.000000	33.929984
1346.000000	34.280729
1345.000000	34.623428
1344.000000	34.968340
1343.000000	35.277643
1342.000000	35.565925
1341.000000	35.847768
1340.000000	36.117341
1339.000000	36.354423
1338.000000	36.593920
1337.000000	36.825269
1336.000000	37.027147
1335.000000	37.228923
1334.000000	37.440960
1333.000000	37.637406
1332.000000	37.812929
1331.000000	37.969845
1330.000000	38.128570
1329.000000	38.284882
1328.000000	38.419266
1327.000000	38.546307
1326.000000	38.661579
1325.000000	38.781679
1324.000000	38.893029
1323.000000	38.995527
1322.000000	39.103657
1321.000000	39.198812
1320.000000	39.274856
1319.000000	39.364579
1318.000000	39.448166
1317.000000	39.522902
1316.000000	39.588485
1315.000000	39.658191
1314.000000	39.721661
1313.000000	39.767831
1312.000000	39.824159
1311.000000	39.875056
1310.000000	39.915391
1309.000000	39.950295
1308.000000	39.982080
1307.000000	40.011552
1306.000000	40.039616
1305.000000	40.060538
1304.000000	40.056414
1303.000000	40.046657
1302.000000	40.038308
1301.000000	40.026640
1300.000000	40.013463
1299.000000	39.995156
1298.000000	39.969306
1297.000000	39.952608
1296.000000	39.931787
1295.000000	39.896984
1294.000000	39.864494
1293.000000	39.843572
1292.000000	39.819733
1291.000000	39.759180
1290.000000	39.705165
1289.000000	39.667143
1288.000000	39.608703
1287.000000	39.542315
1286.000000	39.477839
1285.000000	39.394554
1284.000000	39.311268
1283.000000	39.230195
1282.000000	39.157773
1281.000000	39.079919
1280.000000	38.979232
1279.000000	38.897354
1278.000000	38.828754
1277.000000	38.765485
1276.000000	38.685418
1275.000000	38.610380
1274.000000	38.549626
1273.000000	38.493297
1272.000000	38.436365
1271.000000	38.372493
1270.000000	38.311437
1269.000000	38.255511
1268.000000	38.198478
1267.000000	38.151404
1266.000000	38.081395
1265.000000	38.013700
1264.000000	37.953449
1263.000000	37.904162
1262.000000	37.849040
1261.000000	37.798143
1260.000000	37.742418
1259.000000	37.672812
1258.000000	37.610247
1257.000000	37.549191
1256.000000	37.470231
1255.000000	37.392880
1254.000000	37.319753
1253.000000	37.245520
1252.000000	37.157205
1251.000000	37.072109
1250.000000	36.986208
1249.000000	36.882201
1248.000000	36.777994
1247.000000	36.669662
1246.000000	36.568874
1245.000000	36.431473
1244.000000	36.291657
1243.000000	36.148925
1242.000000	36.001867
1241.000000	35.866478
1240.000000	35.698096
1239.000000	35.543092
1238.000000	35.384064
1237.000000	35.222321
1236.000000	35.048205
1235.000000	34.874392
1234.000000	34.686395
1233.000000	34.502925
1232.000000	34.319455
1231.000000	34.131660
1230.000000	33.942054
1229.000000	33.746011
1228.000000	33.550671
1227.000000	33.358450
1226.000000	33.163815
1225.000000	32.974813
1224.000000	32.777864
1223.000000	32.595199
1222.000000	32.385979
1221.000000	32.226549
1220.000000	32.042576
1219.000000	31.879425
1218.000000	31.730959
1217.000000	31.588025
1216.000000	31.473658
1215.000000	31.357078
1214.000000	31.254279
1213.000000	31.141823
1212.000000	31.056626
1211.000000	30.971831
1210.000000	30.896794
1209.000000	30.836241
1208.000000	30.781421
1207.000000	30.729820
1206.000000	30.701555
1205.000000	30.696425
1204.000000	30.695922
1203.000000	30.686970
1202.000000	30.700750
1201.000000	30.691496
1200.000000	30.677414
1199.000000	30.635369
1198.000000	30.549267
1197.000000	30.449384
1196.000000	30.316912
1195.000000	30.120366
1194.000000	29.847876
1193.000000	29.513426
1192.000000	29.115304
1191.000000	28.709236
1190.000000	28.302765
1189.000000	27.978776
1188.000000	27.714233
1187.000000	27.565666
1186.000000	27.547259
1185.000000	27.606605
1184.000000	27.809689
1183.000000	28.111349
1182.000000	28.511482
1181.000000	28.994399
1180.000000	29.487273
1179.000000	29.924322
1178.000000	30.363584
1177.000000	30.726098
1176.000000	31.034597
1175.000000	31.313927
1174.000000	31.595770
1173.000000	31.886667
1172.000000	32.227555
1171.000000	32.557378
1170.000000	32.912751
1169.000000	33.237646
1168.000000	33.583362
1167.000000	33.934510
1166.000000	34.288173
1165.000000	34.633185
1164.000000	35.005255
1163.000000	35.383058
1162.000000	35.758347
1161.000000	36.115832
1160.000000	36.463459
1159.000000	36.809779
1158.000000	37.143626
1157.000000	37.417725
1156.000000	37.675930
1155.000000	37.874388
1154.000000	37.999819
1153.000000	38.064899
1152.000000	38.085720
1151.000000	38.077875
1150.000000	38.053633
1149.000000	38.027280
1148.000000	38.000121
1147.000000	38.013197
1146.000000	38.102820
1145.000000	38.280657
1144.000000	38.503054
1143.000000	38.803205
1142.000000	39.136147
1141.000000	39.469793
1140.000000	39.802533
1139.000000	40.163840
1138.000000	40.541945
1137.000000	40.912507
1136.000000	41.310528
1135.000000	41.674450
1134.000000	42.009404
1133.000000	42.284709
1132.000000	42.571482
1131.000000	42.857550
1130.000000	43.090107
1129.000000	43.278908
1128.000000	43.434012
1127.000000	43.564171
1126.000000	43.658823
1125.000000	43.730743
1124.000000	43.802662
1123.000000	43.871967
1122.000000	43.927088
1121.000000	43.960785
1120.000000	44.002930
1119.000000	44.034313
1118.000000	44.075554
1117.000000	44.080784
1116.000000	44.076660
1115.000000	44.079376
1114.000000	44.078773
1113.000000	44.074649
1112.000000	44.077767
1111.000000	44.077264
1110.000000	44.079074
1109.000000	44.060969
1108.000000	44.048898
1107.000000	44.052419
1106.000000	44.051815
1105.000000	44.061271
1104.000000	44.065395
1103.000000	44.050407
1102.000000	44.043064
1101.000000	44.052620
1100.000000	44.045378
1099.000000	44.027675
1098.000000	44.003534
1097.000000	43.981505
1096.000000	43.968228
1095.000000	43.958471
1094.000000	43.938857
1093.000000	43.908278
1092.000000	43.900634
1091.000000	43.873475
1090.000000	43.838169
1089.000000	43.811011
1088.000000	43.765345
1087.000000	43.724004
1086.000000	43.670894
1085.000000	43.625630
1084.000000	43.587206
1083.000000	43.549888
1082.000000	43.511967
1081.000000	43.470827
1080.000000	43.430995
1079.000000	43.390056
1078.000000	43.361288
1077.000000	43.311598
1076.000000	43.271766
1075.000000	43.246016
1074.000000	43.197533
1073.000000	43.165446
1072.000000	43.127827
1071.000000	43.080853
1070.000000	43.042227
1069.000000	43.005714
1068.000000	42.960953
1067.000000	42.914482
1066.000000	42.867106
1065.000000	42.829386
1064.000000	42.783116
1063.000000	42.735539
1062.000000	42.694198
1061.000000	42.650945
1060.000000	42.610308
1059.000000	42.561222
1058.000000	42.513846
1057.000000	42.472404
1056.000000	42.427241
1055.000000	42.384491
1054.000000	42.355925
1053.000000	42.319311
1052.000000	42.279680
1051.000000	42.252321
1050.000000	42.247090
1049.000000	42.242463
1048.000000	42.226973
1047.000000	42.229890
1046.000000	42.247392
1045.000000	42.250409
1044.000000	42.249303
1043.000000	42.258658
1042.000000	42.273444
1041.000000	42.288230
1040.000000	42.298792
1039.000000	42.317400
1038.000000	42.323737
1037.000000	42.324441
1036.000000	42.334399
1035.000000	42.336713
1034.000000	42.338121
1033.000000	42.336713
1032.000000	42.345061
1031.000000	42.352605
1030.000000	42.363268
1029.000000	42.358439
1028.000000	42.349688
1027.000000	42.360250
1026.000000	42.358942
1025.000000	42.349487
1024.000000	42.331683
1023.000000	42.310761
1022.000000	42.307945
1021.000000	42.301004
1020.000000	42.293863
1019.000000	42.280988
1018.000000	42.261072
1017.000000	42.241457
1016.000000	42.240451
1015.000000	42.245380
1014.000000	42.257953
1013.000000	42.273041
1012.000000	42.293963
1011.000000	42.326252
1010.000000	42.369605
1009.000000	42.427945
1008.000000	42.485380
1007.000000	42.537685
1006.000000	42.596427
1005.000000	42.646922
1004.000000	42.697517
1003.000000	42.752638
1002.000000	42.819327
1001.000000	42.878774
1000.000000	42.946368
999.000000	43.010945
998.000000	43.079444
997.000000	43.156293
996.000000	43.228413
995.000000	43.315722
994.000000	43.397298
993.000000	43.476963
992.000000	43.565278
991.000000	43.652185
990.000000	43.753677
989.000000	43.850340
988.000000	43.950726
987.000000	44.060667
986.000000	44.185294
985.000000	44.300767
984.000000	44.425797
983.000000	44.569535
982.000000	44.710960
981.000000	44.843030
980.000000	44.985963
979.000000	45.128696
978.000000	45.253222
977.000000	45.389819
976.000000	45.527622
975.000000	45.672367
974.000000	45.815803
973.000000	45.963666
972.000000	46.083766
971.000000	46.226297
970.000000	46.367823
969.000000	46.501603
968.000000	46.649163
967.000000	46.795115
966.000000	46.938752
965.000000	47.077461
964.000000	47.216371
963.000000	47.389883
962.000000	47.539959
961.000000	47.690034
960.000000	47.854292
959.000000	48.013521
958.000000	48.161886
957.000000	48.323026
956.000000	48.472799
955.000000	48.612916
954.000000	48.751826
953.000000	48.856738
952.000000	48.995347
951.000000	49.097140
950.000000	49.191289
949.000000	49.280309
948.000000	49.387132
947.000000	49.497173
946.000000	49.595547
945.000000	49.680342
944.000000	49.769361
943.000000	49.890266
942.000000	49.983007
941.000000	50.100291
940.000000	50.215463
939.000000	50.338681
938.000000	50.460190
937.000000	50.584615
936.000000	50.695361
935.000000	50.819485
934.000000	50.948739
933.000000	51.068236
932.000000	51.170030
931.000000	51.303206
930.000000	51.430951
929.000000	51.558898
928.000000	51.699618
927.000000	51.834907
926.000000	52.000171
925.000000	52.123390
924.000000	52.299416
923.000000	52.459349
922.000000	52.617572
921.000000	52.812006
920.000000	52.975157
919.000000	53.149977
918.000000	53.325098
917.000000	53.526171
916.000000	53.708736
915.000000	53.885165
914.000000	54.077486
913.000000	54.251602
912.000000	54.432054
911.000000	54.620755
910.000000	54.807444
909.000000	54.985281
908.000000	55.194300
907.000000	55.380486
906.000000	55.592220
905.000000	55.786755
904.000000	55.985715
903.000000	56.213443
902.000000	56.432219
901.000000	56.632286
900.000000	56.842613
899.000000	57.039360
898.000000	57.241841
897.000000	57.442713
896.000000	57.631816
895.000000	57.818605
894.000000	57.990005
893.000000	58.154263
892.000000	58.315805
891.000000	58.468395
890.000000	58.614849
889.000000	58.767640
888.000000	58.915100
887.000000	59.046567
886.000000	59.175720
885.000000	59.318150
884.000000	59.456155
883.000000	59.593255
882.000000	59.714160
881.000000	59.850153
880.000000	59.994495
879.000000	60.112483
878.000000	60.264067
877.000000	60.398451
876.000000	60.542592
875.000000	60.666011
874.000000	60.820311
873.000000	60.951275
872.000000	61.090588
871.000000	61.238148
870.000000	61.371627
869.000000	61.512850
868.000000	61.676203
867.000000	61.801232
866.000000	61.944769
865.000000	62.077946
864.000000	62.186378
863.000000	62.290586
862.000000	62.407367
861.000000	62.484517
860.000000	62.552916
859.000000	62.625540
858.000000	62.795933
857.000000	62.952400
856.000000	62.690600
855.000000	62.744800
854.000000	62.505000
853.000000	62.987000
852.000000	63.292200
851.000000	63.071200
850.000000	63.507900
849.000000	63.514500
848.000000	63.623700
847.000000	63.976900
846.000000	63.796800
845.000000	64.002600
844.000000	63.957800
843.000000	64.369300
842.000000	64.477700
841.000000	64.541600
840.000000	64.772000
839.000000	64.908100
838.000000	65.050100
837.000000	65.053300
836.000000	65.207400
835.000000	65.564800
834.000000	65.690300
833.000000	65.752400
832.000000	65.875700
831.000000	65.867100
830.000000	65.952400
829.000000	66.072000
828.000000	66.145600
827.000000	66.180300
826.000000	66.201300
825.000000	66.195400
824.000000	66.203500
823.000000	66.235600
822.000000	66.363800
821.000000	66.322900
820.000000	66.147800
819.000000	66.051000
818.000000	66.059400
817.000000	65.890900
816.000000	65.804100
815.000000	65.623900
814.000000	65.408000
813.000000	65.325900
812.000000	65.157200
811.000000	64.956600
810.000000	64.825300
809.000000	64.669300
808.000000	64.621500
807.000000	64.387800
806.000000	64.140800
805.000000	64.010600
804.000000	63.858400
803.000000	63.760400
802.000000	63.684200
801.000000	63.666400
800.000000	63.597000
799.000000	63.416300
798.000000	63.338300
797.000000	63.292200
796.000000	63.238600
795.000000	63.154000
794.000000	63.131200
793.000000	63.105600
792.000000	63.152200
791.000000	63.155100
790.000000	63.210200
789.000000	63.152200
788.000000	63.007100
787.000000	63.061800
786.000000	63.151500
785.000000	63.077500
784.000000	63.079100
783.000000	62.999800
782.000000	63.025600
781.000000	63.004200
780.000000	62.973200
779.000000	62.906500
778.000000	62.817800
777.000000	62.780200
776.000000	62.732900
775.000000	62.670500
774.000000	62.639200
773.000000	62.461000
772.000000	62.400400
771.000000	62.383300
770.000000	62.319900
769.000000	62.236200
768.000000	62.162700
767.000000	62.083600
766.000000	62.013800
765.000000	62.039600
764.000000	61.990900
763.000000	61.879200
762.000000	61.767700
761.000000	61.681100
760.000000	61.625800
759.000000	61.562600
758.000000	61.432500
757.000000	61.280300
756.000000	61.187900
755.000000	61.094800
754.000000	61.047000
753.000000	60.923400
752.000000	60.819600
751.000000	60.693000
750.000000	60.509300
749.000000	60.427200
748.000000	60.305200
747.000000	60.192800
746.000000	60.004500
745.000000	59.799000
744.000000	59.610300
743.000000	59.329800
742.000000	59.099700
741.000000	58.926700
740.000000	58.639900
739.000000	58.320800
738.000000	58.036900
737.000000	57.739600
736.000000	57.427600
735.000000	57.040800
734.000000	56.700000
733.000000	56.362000
732.000000	55.962800
731.000000	55.579500
730.000000	55.178100
729.000000	54.794400
728.000000	54.456900
727.000000	54.089700
726.000000	53.734200
725.000000	53.383400
724.000000	53.077800
723.000000	52.858800
722.000000	52.553300
721.000000	52.255700
720.000000	52.015800
719.000000	51.822400
718.000000	51.647500
717.000000	51.457900
716.000000	51.312800
715.000000	51.183100
714.000000	51.094000
713.000000	51.040800
712.000000	50.960100
711.000000	50.893600
710.000000	50.883200
709.000000	50.896900
708.000000	50.916300
707.000000	50.985400
706.000000	51.107300
705.000000	51.191700
704.000000	51.334800
703.000000	51.443300
702.000000	51.553000
701.000000	51.700200
700.000000	51.851900
699.000000	51.948000
698.000000	52.033200
697.000000	52.180800
696.000000	52.318500
695.000000	52.423300
694.000000	52.462500
693.000000	52.477000
692.000000	52.505700
691.000000	52.531200
690.000000	52.534000
689.000000	52.544700
688.000000	52.535600
687.000000	52.490000
686.000000	52.478800
685.000000	52.481200
684.000000	52.400500
683.000000	52.350200
682.000000	52.310600
681.000000	52.187200
680.000000	52.049700
679.000000	51.870000
678.000000	51.723900
677.000000	51.522900
676.000000	51.258300
675.000000	50.956700
674.000000	50.585300
673.000000	50.174100
672.000000	49.758300
671.000000	49.211200
670.000000	48.624500
669.000000	48.092400
668.000000	47.507300
667.000000	46.826500
666.000000	46.201900
665.000000	45.581000
664.000000	44.946700
663.000000	44.265900
662.000000	43.608400
661.000000	42.983300
660.000000	42.384300
659.000000	41.796700
658.000000	41.230800
657.000000	40.700100
656.000000	40.239100
655.000000	39.821600
654.000000	39.421400
653.000000	39.070200
652.000000	38.787200
651.000000	38.571400
650.000000	38.439300
649.000000	38.390200
648.000000	38.444000
647.000000	38.607700
646.000000	38.921300
645.000000	39.315900
644.000000	39.872100
643.000000	40.525100
642.000000	41.297900
641.000000	42.145200
640.000000	43.101200
639.000000	44.086300
638.000000	45.067800
637.000000	46.100200
636.000000	47.102900
635.000000	48.110900
634.000000	49.062100
633.000000	50.062900
632.000000	50.971400
631.000000	51.830000
630.000000	52.723700
629.000000	53.554300
628.000000	54.348400
627.000000	55.094600
626.000000	55.894400
625.000000	56.633000
624.000000	57.396600
623.000000	58.148000
622.000000	58.808100
621.000000	59.569400
620.000000	60.208100
619.000000	60.845000
618.000000	61.499500
617.000000	62.019700
616.000000	62.605900
615.000000	63.094600
614.000000	63.569100
613.000000	64.038600
612.000000	64.420400
611.000000	64.785500
610.000000	65.132900
609.000000	65.473400
608.000000	65.700900
607.000000	65.978600
606.000000	66.209500
605.000000	66.401500
604.000000	66.627300
603.000000	66.826900
602.000000	66.977400
601.000000	67.133600
600.000000	67.248600
599.000000	67.411000
598.000000	67.527400
597.000000	67.644600
596.000000	67.701600
595.000000	67.805900
594.000000	67.849700
593.000000	67.901600
592.000000	67.916000
591.000000	68.067100
590.000000	68.087700
589.000000	68.106500
588.000000	68.123300
587.000000	68.123800
586.000000	68.128600
585.000000	68.096500
584.000000	68.127400
583.000000	68.071400
582.000000	68.055100
581.000000	67.982800
580.000000	67.940200
579.000000	67.879400
578.000000	67.761400
577.000000	67.664200
576.000000	67.591200
575.000000	67.429000
574.000000	67.316400
573.000000	67.187200
572.000000	66.986600
571.000000	66.823800
570.000000	66.683500
569.000000	66.530300
568.000000	66.386300
567.000000	66.166000
566.000000	65.982400
565.000000	65.791300
564.000000	65.580700
563.000000	65.376100
562.000000	65.148000
561.000000	64.858400
560.000000	64.589400
559.000000	64.188200
558.000000	63.897600
557.000000	63.541000
556.000000	63.155700
555.000000	62.786300
554.000000	62.377600
553.000000	61.923800
552.000000	61.437100
551.000000	60.959800
550.000000	60.404300
549.000000	59.832000
548.000000	59.235600
547.000000	58.575600
546.000000	57.856300
545.000000	57.144800
544.000000	56.311100
543.000000	55.480600
542.000000	54.589300
541.000000	53.601600
540.000000	52.583500
539.000000	51.490100
538.000000	50.394400
537.000000	49.246100
536.000000	48.065300
535.000000	46.892000
534.000000	45.703200
533.000000	44.490500
532.000000	43.282000
531.000000	42.114400
530.000000	40.995000
529.000000	39.886400
528.000000	38.833700
527.000000	37.830300
526.000000	36.860400
525.000000	35.940500
524.000000	35.065500
523.000000	34.235000
522.000000	33.472600
521.000000	32.754500
520.000000	32.102100
519.000000	31.496800
518.000000	30.932800
517.000000	30.445300
516.000000	30.003100
515.000000	29.573200
514.000000	29.148700
513.000000	28.748100
512.000000	28.354000
511.000000	27.996900
510.000000	27.623000
509.000000	27.243500
508.000000	26.871300
507.000000	26.489700
506.000000	26.110500
505.000000	25.727300
504.000000	25.370000
503.000000	25.015300
502.000000	24.662400
501.000000	24.333000
500.000000	24.017900
499.000000	23.711700
498.000000	23.464400
497.000000	23.241000
496.000000	23.038000
495.000000	22.865700
494.000000	22.695300
493.000000	22.550000
492.000000	22.446800
491.000000	22.353000
490.000000	22.291800
489.000000	22.259900
488.000000	22.221000
487.000000	22.256800
486.000000	22.262500
485.000000	22.289800
484.000000	22.328300
483.000000	22.367700
482.000000	22.418100
481.000000	22.460600
480.000000	22.498400
479.000000	22.523200
478.000000	22.541700
477.000000	22.550600
476.000000	22.575300
475.000000	22.586300
474.000000	22.593900
473.000000	22.600600
472.000000	22.612100
471.000000	22.610900
470.000000	22.607600
469.000000	22.593500
468.000000	22.563600
467.000000	22.521600
466.000000	22.488500
465.000000	22.449200
464.000000	22.395800
463.000000	22.334000
462.000000	22.265600
461.000000	22.185100
460.000000	22.091600
459.000000	21.986300
458.000000	21.891200
457.000000	21.780800
456.000000	21.634500
455.000000	21.497800
454.000000	21.362300
453.000000	21.188500
452.000000	20.991600
451.000000	20.808200
450.000000	20.618300
449.000000	20.409100
448.000000	20.193700
447.000000	19.968200
446.000000	19.725100
445.000000	19.471500
444.000000	19.208200
443.000000	18.917600
442.000000	18.595900
441.000000	18.283500
440.000000	17.960200
439.000000	17.591400
438.000000	17.253200
437.000000	16.911600
436.000000	16.536700
435.000000	16.150200
434.000000	15.756000
433.000000	15.358700
432.000000	14.952400
431.000000	14.545800
430.000000	14.153700
429.000000	13.753700
428.000000	13.339200
427.000000	12.945800
426.000000	12.561200
425.000000	12.171500
424.000000	11.783900
423.000000	11.408100
422.000000	11.053100
421.000000	10.723100
420.000000	10.395600
419.000000	10.074900
418.000000	9.780900
417.000000	9.502700
416.000000	9.238700
415.000000	8.993200
414.000000	8.757900
413.000000	8.524700
412.000000	8.330200
411.000000	8.159500
410.000000	7.979000
409.000000	7.798900
408.000000	7.642600
407.000000	7.513100
406.000000	7.389200
405.000000	7.280900
404.000000	7.168900
403.000000	7.068400
402.000000	6.989800
401.000000	6.911500
400.000000	6.828500
399.000000	6.756400
398.000000	6.692400
397.000000	6.621200
396.000000	6.553300
395.000000	6.502100
394.000000	6.454900
393.000000	6.410600
392.000000	6.367600
391.000000	6.331100
390.000000	6.291400
389.000000	6.257300
388.000000	6.221700
387.000000	6.165600
386.000000	6.158700
385.000000	6.116400
384.000000	6.068400
383.000000	6.034000
382.000000	5.998800
381.000000	5.981000
380.000000	5.970000
379.000000	5.931100
378.000000	5.907100
377.000000	5.885900
376.000000	5.920300
375.000000	5.927700
374.000000	5.829500
373.000000	5.758900
372.000000	5.789800
371.000000	5.721200
370.000000	5.786600
369.000000	5.808300
368.000000	5.773700
367.000000	5.780500
366.000000	5.726600
365.000000	5.688700
364.000000	5.651200
363.000000	5.685000
362.000000	5.689800
361.000000	5.714400
360.000000	5.685100
359.000000	5.645100
358.000000	5.628600
357.000000	5.620500
356.000000	5.550000
355.000000	5.491500
354.000000	5.516800
353.000000	5.463900
352.000000	5.423400
351.000000	5.482800
350.000000	5.550100
349.000000	5.421900
348.000000	5.423100
347.000000	5.431800
346.000000	5.388600
345.000000	5.472900
344.000000	5.395400
343.000000	5.291200
342.000000	5.402400
341.000000	5.341200
340.000000	5.390600
339.000000	5.399100
338.000000	5.395000
337.000000	5.350900
336.000000	5.449800
335.000000	5.381700
334.000000	5.336200
333.000000	5.388200
332.000000	5.245800
331.000000	5.272800
330.000000	5.386900
329.000000	5.570400
328.000000	5.434500
327.000000	5.400300
326.000000	5.444600
325.000000	5.403300
324.000000	5.400900
323.000000	5.484100
322.000000	5.449000
321.000000	5.695900
320.000000	5.453200
319.000000	5.502400
318.000000	5.784100
317.000000	5.570100
316.000000	5.403700
315.000000	5.380800
314.000000	5.408900
313.000000	5.393100
312.000000	5.405200
311.000000	5.436100
310.000000	5.413500
309.000000	5.406300
308.000000	5.430100
307.000000	5.447600
306.000000	5.465800
305.000000	5.460700
304.000000	5.528000
303.000000	5.492600
302.000000	5.457000
301.000000	5.506000
300.000000	5.525600
299.000000	5.478700
298.000000	5.501600
297.000000	5.506400
296.000000	5.513400
295.000000	5.542100
294.000000	5.536200
293.000000	5.533400
292.000000	5.573000
291.000000	5.556300
290.000000	5.584400
289.000000	5.587000
288.000000	5.611600
287.000000	5.655500
286.000000	5.604000
285.000000	5.598200
284.000000	5.609100
283.000000	5.615100
282.000000	5.648500
281.000000	5.659400
280.000000	5.597700
279.000000	5.697400
278.000000	5.732400
277.000000	5.735100
276.000000	5.736200
275.000000	5.733600
274.000000	5.744900
273.000000	5.727700
272.000000	5.763300
271.000000	5.798900
270.000000	5.782800
269.000000	5.813500
268.000000	5.846900
267.000000	5.873600
266.000000	5.932200
265.000000	5.910200
264.000000	5.948200
263.000000	5.943500
262.000000	5.959600
261.000000	5.983300
260.000000	6.036600
259.000000	6.061200
258.000000	6.099000
257.000000	6.101900
256.000000	6.106900
255.000000	6.203300
254.000000	6.151700
253.000000	6.138900
252.000000	6.173900
251.000000	6.141400
250.000000	6.178500
