PE UV       SUBTECH     SPECTRUM    ASCII       PEDS        4.00        
   -1
CICIMAUCR0141-3.Sample.ASC
24/04/04
11:43:11.00
24/04/04
11:43:11.00
Vinicio Soto Monge
C. kalinini
250,000000
1
Lambda 1050
1050L1511233
PerkinElmer UV WinLab 6.3.2.0749 / 2.02.05 Lambda 900 UV/VIS/NIR, Aug  7 2015 09:38:08

0
0
3350/servo 860,8/2
0
0
UV/VIS
1
1
1
DoubleDePol,CommonBeamDepol,RBeamAtt,SBeamAtt,60mm sphere, WB InGaAs Detector
0
0
0
0
Program
Program
3350/servo 860,8/2
3350/0,2 860,8/0,2
3350/0,2 860,8/0,2
0
15.00
 
 
 
0
 
860,8
319,2
860,8
Front
100
on
S:100 R:100
0
0
0
0
 
0
 
 
 
0
 
 
0
0
0
0
0
 
 
 
 
0
0


0
0
#HDR
-1
-1
#GR
nm
%R
1.0
0.0
2500,000000
-1,000000
2251
8
77,545500
5,529700
#DATA
2500.000000	6.755171
2499.000000	6.606725
2498.000000	6.661149
2497.000000	6.574787
2496.000000	6.618565
2495.000000	6.541954
2494.000000	6.551804
2493.000000	6.585035
2492.000000	6.625530
2491.000000	6.535189
2490.000000	6.587324
2489.000000	6.612595
2488.000000	6.597771
2487.000000	6.569813
2486.000000	6.586528
2485.000000	6.663039
2484.000000	6.569415
2483.000000	6.606327
2482.000000	6.605233
2481.000000	6.695872
2480.000000	6.667118
2479.000000	6.646423
2478.000000	6.696469
2477.000000	6.696768
2476.000000	6.726118
2475.000000	6.718756
2474.000000	6.714876
2473.000000	6.737361
2472.000000	6.792083
2471.000000	6.798849
2470.000000	6.863918
2469.000000	6.912969
2468.000000	6.849690
2467.000000	6.890185
2466.000000	6.957045
2465.000000	6.953563
2464.000000	6.981719
2463.000000	7.049475
2462.000000	7.070667
2461.000000	7.085194
2460.000000	7.143298
2459.000000	7.202000
2458.000000	7.229361
2457.000000	7.272940
2456.000000	7.320199
2455.000000	7.362584
2454.000000	7.417007
2453.000000	7.479589
2452.000000	7.520780
2451.000000	7.564558
2450.000000	7.612414
2449.000000	7.685145
2448.000000	7.757179
2447.000000	7.791405
2446.000000	7.878562
2445.000000	7.943233
2444.000000	8.009894
2443.000000	8.077252
2442.000000	8.143117
2441.000000	8.208386
2440.000000	8.285892
2439.000000	8.340713
2438.000000	8.422299
2437.000000	8.473041
2436.000000	8.536717
2435.000000	8.620292
2434.000000	8.672029
2433.000000	8.736104
2432.000000	8.813411
2431.000000	8.878779
2430.000000	8.944545
2429.000000	8.991207
2428.000000	9.068614
2427.000000	9.127913
2426.000000	9.193082
2425.000000	9.259345
2424.000000	9.306107
2423.000000	9.352869
2422.000000	9.400030
2421.000000	9.452065
2420.000000	9.509175
2419.000000	9.559619
2418.000000	9.581408
2417.000000	9.624688
2416.000000	9.671550
2415.000000	9.730451
2414.000000	9.773731
2413.000000	9.816911
2412.000000	9.842780
2411.000000	9.861982
2410.000000	9.903571
2409.000000	9.944165
2408.000000	9.963168
2407.000000	9.991325
2406.000000	10.012318
2405.000000	10.035301
2404.000000	10.051320
2403.000000	10.081865
2402.000000	10.101963
2401.000000	10.135990
2400.000000	10.156784
2399.000000	10.170017
2398.000000	10.202850
2397.000000	10.226629
2396.000000	10.238767
2395.000000	10.246627
2394.000000	10.252896
2393.000000	10.264138
2392.000000	10.277172
2391.000000	10.290007
2390.000000	10.295977
2389.000000	10.304533
2388.000000	10.314284
2387.000000	10.326024
2386.000000	10.330402
2385.000000	10.341943
2384.000000	10.341844
2383.000000	10.331496
2382.000000	10.328710
2381.000000	10.326720
2380.000000	10.312692
2379.000000	10.312294
2378.000000	10.313886
2377.000000	10.301150
2376.000000	10.294882
2375.000000	10.295678
2374.000000	10.280157
2373.000000	10.275381
2372.000000	10.257174
2371.000000	10.241852
2370.000000	10.249115
2369.000000	10.242747
2368.000000	10.234688
2367.000000	10.234390
2366.000000	10.228420
2365.000000	10.228917
2364.000000	10.221057
2363.000000	10.218471
2362.000000	10.217376
2361.000000	10.213595
2360.000000	10.220659
2359.000000	10.204641
2358.000000	10.175489
2357.000000	10.173300
2356.000000	10.181558
2355.000000	10.163152
2354.000000	10.132905
2353.000000	10.122956
2352.000000	10.118280
2351.000000	10.111216
2350.000000	10.096490
2349.000000	10.072413
2348.000000	10.050723
2347.000000	10.038087
2346.000000	10.031720
2345.000000	10.002866
2344.000000	9.999384
2343.000000	9.988937
2342.000000	9.959288
2341.000000	9.950333
2340.000000	9.959785
2339.000000	9.957298
2338.000000	9.928643
2337.000000	9.916306
2336.000000	9.924664
2335.000000	9.909640
2334.000000	9.901879
2333.000000	9.906655
2332.000000	9.906257
2331.000000	9.892925
2330.000000	9.903471
2329.000000	9.914117
2328.000000	9.918097
2327.000000	9.926455
2326.000000	9.932922
2325.000000	9.944762
2324.000000	9.959487
2323.000000	9.936702
2322.000000	9.917799
2321.000000	9.919788
2320.000000	9.928146
2319.000000	9.910336
2318.000000	9.888647
2317.000000	9.860589
2316.000000	9.850142
2315.000000	9.822184
2314.000000	9.769850
2313.000000	9.746370
2312.000000	9.712243
2311.000000	9.674833
2310.000000	9.641204
2309.000000	9.598422
2308.000000	9.544695
2307.000000	9.514448
2306.000000	9.475944
2305.000000	9.458234
2304.000000	9.432564
2303.000000	9.393264
2302.000000	9.368789
2301.000000	9.339836
2300.000000	9.317350
2299.000000	9.290686
2298.000000	9.270986
2297.000000	9.247704
2296.000000	9.244520
2295.000000	9.223925
2294.000000	9.197658
2293.000000	9.199648
2292.000000	9.170795
2291.000000	9.170198
2290.000000	9.174178
2289.000000	9.148906
2288.000000	9.141344
2287.000000	9.140548
2286.000000	9.114978
2285.000000	9.107019
2284.000000	9.101945
2283.000000	9.077668
2282.000000	9.061749
2281.000000	9.058167
2280.000000	9.045631
2279.000000	9.020956
2278.000000	9.016479
2277.000000	8.988820
2276.000000	8.973099
2275.000000	8.945838
2274.000000	8.926636
2273.000000	8.912408
2272.000000	8.881664
2271.000000	8.860969
2270.000000	8.835399
2269.000000	8.803064
2268.000000	8.782269
2267.000000	8.801372
2266.000000	8.787940
2265.000000	8.759684
2264.000000	8.763067
2263.000000	8.762470
2262.000000	8.771325
2261.000000	8.795601
2260.000000	8.825748
2259.000000	8.828335
2258.000000	8.893006
2257.000000	8.921462
2256.000000	8.971707
2255.000000	9.007823
2254.000000	9.036975
2253.000000	9.096771
2252.000000	9.146021
2251.000000	9.198852
2250.000000	9.268598
2249.000000	9.311281
2248.000000	9.345507
2247.000000	9.416844
2246.000000	9.463408
2245.000000	9.476442
2244.000000	9.502211
2243.000000	9.575339
2242.000000	9.601705
2241.000000	9.626678
2240.000000	9.624688
2239.000000	9.649562
2238.000000	9.663391
2237.000000	9.662496
2236.000000	9.670456
2235.000000	9.661402
2234.000000	9.638020
2233.000000	9.619017
2232.000000	9.598919
2231.000000	9.551659
2230.000000	9.513951
2229.000000	9.468183
2228.000000	9.396150
2227.000000	9.356252
2226.000000	9.275164
2225.000000	9.198454
2224.000000	9.122540
2223.000000	9.032398
2222.000000	8.962354
2221.000000	8.872411
2220.000000	8.782568
2219.000000	8.679392
2218.000000	8.619397
2217.000000	8.535324
2216.000000	8.460504
2215.000000	8.383396
2214.000000	8.322108
2213.000000	8.283802
2212.000000	8.260620
2211.000000	8.249178
2210.000000	8.207291
2209.000000	8.210475
2208.000000	8.241020
2207.000000	8.255049
2206.000000	8.281813
2205.000000	8.359816
2204.000000	8.448565
2203.000000	8.527066
2202.000000	8.628749
2201.000000	8.723866
2200.000000	8.846642
2199.000000	8.961160
2198.000000	9.050108
2197.000000	9.172685
2196.000000	9.297551
2195.000000	9.426794
2194.000000	9.527681
2193.000000	9.628071
2192.000000	9.713537
2191.000000	9.815220
2190.000000	9.897800
2189.000000	9.972719
2188.000000	10.037291
2187.000000	10.101465
2186.000000	10.148626
2185.000000	10.202153
2184.000000	10.255283
2183.000000	10.285530
2182.000000	10.323139
2181.000000	10.346420
2180.000000	10.374378
2179.000000	10.403829
2178.000000	10.419748
2177.000000	10.449795
2176.000000	10.461734
2175.000000	10.481434
2174.000000	10.527600
2173.000000	10.551080
2172.000000	10.586301
2171.000000	10.610777
2170.000000	10.646993
2169.000000	10.678234
2168.000000	10.715843
2167.000000	10.754049
2166.000000	10.785788
2165.000000	10.829267
2164.000000	10.882198
2163.000000	10.905877
2162.000000	10.954132
2161.000000	11.013829
2160.000000	11.074520
2159.000000	11.117004
2158.000000	11.194809
2157.000000	11.264853
2156.000000	11.322261
2155.000000	11.407130
2154.000000	11.479661
2153.000000	11.556371
2152.000000	11.639947
2151.000000	11.738944
2150.000000	11.820629
2149.000000	11.891767
2148.000000	11.974347
2147.000000	12.061504
2146.000000	12.153338
2145.000000	12.232834
2144.000000	12.320886
2143.000000	12.401079
2142.000000	12.470327
2141.000000	12.555196
2140.000000	12.643845
2139.000000	12.704835
2138.000000	12.783137
2137.000000	12.863628
2136.000000	12.932677
2135.000000	12.996553
2134.000000	13.068686
2133.000000	13.131566
2132.000000	13.182607
2131.000000	13.242901
2130.000000	13.304488
2129.000000	13.344285
2128.000000	13.392341
2127.000000	13.444775
2126.000000	13.480394
2125.000000	13.519794
2124.000000	13.564268
2123.000000	13.604563
2122.000000	13.635605
2121.000000	13.660081
2120.000000	13.699480
2119.000000	13.717190
2118.000000	13.727836
2117.000000	13.758182
2116.000000	13.774400
2115.000000	13.785543
2114.000000	13.797980
2113.000000	13.802159
2112.000000	13.825241
2111.000000	13.835987
2110.000000	13.827430
2109.000000	13.834693
2108.000000	13.849020
2107.000000	13.852503
2106.000000	13.850811
2105.000000	13.840066
2104.000000	13.833798
2103.000000	13.836882
2102.000000	13.840464
2101.000000	13.852304
2100.000000	13.853398
2099.000000	13.849916
2098.000000	13.848523
2097.000000	13.856781
2096.000000	13.872302
2095.000000	13.879466
2094.000000	13.883346
2093.000000	13.903245
2092.000000	13.918269
2091.000000	13.920358
2090.000000	13.929710
2089.000000	13.937371
2088.000000	13.946326
2087.000000	13.955181
2086.000000	13.953589
2085.000000	13.950306
2084.000000	13.942545
2083.000000	13.929810
2082.000000	13.900161
2081.000000	13.874690
2080.000000	13.852602
2079.000000	13.812705
2078.000000	13.784648
2077.000000	13.746541
2076.000000	13.691421
2075.000000	13.633317
2074.000000	13.572028
2073.000000	13.512630
2072.000000	13.437412
2071.000000	13.366970
2070.000000	13.313641
2069.000000	13.239020
2068.000000	13.131566
2067.000000	13.044409
2066.000000	12.961431
2065.000000	12.885019
2064.000000	12.802937
2063.000000	12.716874
2062.000000	12.643447
2061.000000	12.569025
2060.000000	12.497887
2059.000000	12.439683
2058.000000	12.391527
2057.000000	12.354416
2056.000000	12.291038
2055.000000	12.255518
2054.000000	12.248554
2053.000000	12.252036
2052.000000	12.272333
2051.000000	12.296311
2050.000000	12.325861
2049.000000	12.373817
2048.000000	12.455104
2047.000000	12.527039
2046.000000	12.603649
2045.000000	12.674290
2044.000000	12.770302
2043.000000	12.884522
2042.000000	12.981429
2041.000000	13.061522
2040.000000	13.155346
2039.000000	13.256432
2038.000000	13.358513
2037.000000	13.432139
2036.000000	13.535414
2035.000000	13.607249
2034.000000	13.694804
2033.000000	13.776091
2032.000000	13.848622
2031.000000	13.924636
2030.000000	13.984134
2029.000000	14.041244
2028.000000	14.103030
2027.000000	14.175063
2026.000000	14.236750
2025.000000	14.283711
2024.000000	14.336145
2023.000000	14.371266
2022.000000	14.433251
2021.000000	14.468373
2020.000000	14.515334
2019.000000	14.554436
2018.000000	14.576125
2017.000000	14.621594
2016.000000	14.659004
2015.000000	14.695618
2014.000000	14.703080
2013.000000	14.726362
2012.000000	14.738500
2011.000000	14.785760
2010.000000	14.764170
2009.000000	14.762478
2008.000000	14.768846
2007.000000	14.767553
2006.000000	14.766259
2005.000000	14.746659
2004.000000	14.720193
2003.000000	14.725566
2002.000000	14.699299
2001.000000	14.682485
2000.000000	14.625574
1999.000000	14.599407
1998.000000	14.565479
1997.000000	14.525881
1996.000000	14.503992
1995.000000	14.446982
1994.000000	14.394847
1993.000000	14.358432
1992.000000	14.317937
1991.000000	14.252470
1990.000000	14.203718
1989.000000	14.153772
1988.000000	14.096463
1987.000000	14.047611
1986.000000	13.982442
1985.000000	13.915383
1984.000000	13.856483
1983.000000	13.788130
1982.000000	13.732612
1981.000000	13.687442
1980.000000	13.627446
1979.000000	13.540190
1978.000000	13.514421
1977.000000	13.433432
1976.000000	13.379009
1975.000000	13.323591
1974.000000	13.244095
1973.000000	13.214545
1972.000000	13.137636
1971.000000	13.081023
1970.000000	13.026003
1969.000000	12.976654
1968.000000	12.916559
1967.000000	12.851888
1966.000000	12.806717
1965.000000	12.738663
1964.000000	12.701552
1963.000000	12.629020
1962.000000	12.558976
1961.000000	12.511219
1960.000000	12.438091
1959.000000	12.388940
1958.000000	12.312429
1957.000000	12.272731
1956.000000	12.193533
1955.000000	12.137220
1954.000000	12.078418
1953.000000	12.031855
1952.000000	11.951663
1951.000000	11.874554
1950.000000	11.832170
1949.000000	11.788293
1948.000000	11.738944
1947.000000	11.683028
1946.000000	11.637857
1945.000000	11.578957
1944.000000	11.551894
1943.000000	11.524732
1942.000000	11.494784
1941.000000	11.454688
1940.000000	11.428720
1939.000000	11.419467
1938.000000	11.409020
1937.000000	11.392106
1936.000000	11.379769
1935.000000	11.372904
1934.000000	11.371013
1933.000000	11.388325
1932.000000	11.406632
1931.000000	11.437774
1930.000000	11.462946
1929.000000	11.511798
1928.000000	11.561346
1927.000000	11.602437
1926.000000	11.673874
1925.000000	11.732377
1924.000000	11.794661
1923.000000	11.866097
1922.000000	11.968378
1921.000000	12.107172
1920.000000	12.219402
1919.000000	12.326856
1918.000000	12.453910
1917.000000	12.572209
1916.000000	12.688518
1915.000000	12.828706
1914.000000	13.039335
1913.000000	13.260511
1912.000000	13.481289
1911.000000	13.690924
1910.000000	13.891306
1909.000000	14.060744
1908.000000	14.298735
1907.000000	14.594830
1906.000000	14.917192
1905.000000	15.299350
1904.000000	15.654047
1903.000000	15.972330
1902.000000	16.327525
1901.000000	16.699733
1900.000000	17.132235
1899.000000	17.594785
1898.000000	18.053653
1897.000000	18.520281
1896.000000	18.893684
1895.000000	19.285095
1894.000000	19.730830
1893.000000	20.195568
1892.000000	20.733633
1891.000000	21.262347
1890.000000	21.749769
1889.000000	22.192121
1888.000000	22.636762
1887.000000	23.069463
1886.000000	23.479081
1885.000000	23.916757
1884.000000	24.365178
1883.000000	24.739775
1882.000000	25.095367
1881.000000	25.440911
1880.000000	25.727455
1879.000000	26.024346
1878.000000	26.322730
1877.000000	26.622308
1876.000000	26.885868
1875.000000	27.144454
1874.000000	27.401349
1873.000000	27.636354
1872.000000	27.866883
1871.000000	28.066767
1870.000000	28.251031
1869.000000	28.433006
1868.000000	28.574288
1867.000000	28.667315
1866.000000	28.744125
1865.000000	28.825611
1864.000000	28.911574
1863.000000	29.003208
1862.000000	29.097827
1861.000000	29.210355
1860.000000	29.318406
1859.000000	29.402977
1858.000000	29.477000
1857.000000	29.536199
1856.000000	29.585648
1855.000000	29.640072
1854.000000	29.682257
1853.000000	29.691013
1852.000000	29.724443
1851.000000	29.757077
1850.000000	29.783642
1849.000000	29.838264
1848.000000	29.882141
1847.000000	29.888111
1846.000000	29.871396
1845.000000	29.826325
1844.000000	29.789313
1843.000000	29.802247
1842.000000	29.827718
1841.000000	29.842344
1840.000000	29.831797
1839.000000	29.794885
1838.000000	29.775284
1837.000000	29.757773
1836.000000	29.737875
1835.000000	29.701659
1834.000000	29.640967
1833.000000	29.597389
1832.000000	29.579878
1831.000000	29.579281
1830.000000	29.568734
1829.000000	29.550626
1828.000000	29.514211
1827.000000	29.491725
1826.000000	29.494113
1825.000000	29.472324
1824.000000	29.455112
1823.000000	29.459489
1822.000000	29.508242
1821.000000	29.558685
1820.000000	29.565849
1819.000000	29.538587
1818.000000	29.520380
1817.000000	29.511923
1816.000000	29.518788
1815.000000	29.524758
1814.000000	29.505456
1813.000000	29.482373
1812.000000	29.479289
1811.000000	29.465857
1810.000000	29.421482
1809.000000	29.393724
1808.000000	29.374322
1807.000000	29.359895
1806.000000	29.342086
1805.000000	29.308059
1804.000000	29.286469
1803.000000	29.264182
1802.000000	29.246870
1801.000000	29.238512
1800.000000	29.207072
1799.000000	29.183591
1798.000000	29.154141
1797.000000	29.124193
1796.000000	29.106981
1795.000000	29.077829
1794.000000	29.060716
1793.000000	29.027684
1792.000000	28.996044
1791.000000	28.977141
1790.000000	28.957043
1789.000000	28.943810
1788.000000	28.947591
1787.000000	28.946496
1786.000000	28.941323
1785.000000	28.927194
1784.000000	28.925702
1783.000000	28.909086
1782.000000	28.875457
1781.000000	28.852773
1780.000000	28.826506
1779.000000	28.782828
1778.000000	28.735071
1777.000000	28.702337
1776.000000	28.649008
1775.000000	28.587819
1774.000000	28.547225
1773.000000	28.493598
1772.000000	28.436488
1771.000000	28.367837
1770.000000	28.321075
1769.000000	28.272521
1768.000000	28.208845
1767.000000	28.169445
1766.000000	28.132533
1765.000000	28.077015
1764.000000	28.046172
1763.000000	28.031049
1762.000000	27.993838
1761.000000	27.979709
1760.000000	27.961999
1759.000000	27.948468
1758.000000	27.952249
1757.000000	27.925883
1756.000000	27.901805
1755.000000	27.918620
1754.000000	27.914342
1753.000000	27.890562
1752.000000	27.872554
1751.000000	27.862505
1750.000000	27.812559
1749.000000	27.779825
1748.000000	27.758434
1747.000000	27.708786
1746.000000	27.646702
1745.000000	27.574270
1744.000000	27.501539
1743.000000	27.424929
1742.000000	27.350308
1741.000000	27.265340
1740.000000	27.200469
1739.000000	27.115700
1738.000000	27.035707
1737.000000	26.985462
1736.000000	26.933924
1735.000000	26.887460
1734.000000	26.824978
1733.000000	26.788961
1732.000000	26.727971
1731.000000	26.680810
1730.000000	26.640217
1729.000000	26.579525
1728.000000	26.540921
1727.000000	26.504307
1726.000000	26.465504
1725.000000	26.432472
1724.000000	26.460331
1723.000000	26.502914
1722.000000	26.581415
1721.000000	26.709763
1720.000000	26.868855
1719.000000	27.068440
1718.000000	27.268424
1717.000000	27.504922
1716.000000	27.727790
1715.000000	27.934042
1714.000000	28.136513
1713.000000	28.310926
1712.000000	28.484842
1711.000000	28.649804
1710.000000	28.764024
1709.000000	28.887198
1708.000000	28.989378
1707.000000	29.105986
1706.000000	29.177124
1705.000000	29.241298
1704.000000	29.287862
1703.000000	29.344673
1702.000000	29.366860
1701.000000	29.406459
1700.000000	29.423870
1699.000000	29.439391
1698.000000	29.440088
1697.000000	29.442376
1696.000000	29.421383
1695.000000	29.390042
1694.000000	29.343280
1693.000000	29.274927
1692.000000	29.197819
1691.000000	29.126581
1690.000000	29.050965
1689.000000	29.024898
1688.000000	29.040319
1687.000000	29.112751
1686.000000	29.202197
1685.000000	29.348056
1684.000000	29.541174
1683.000000	29.730810
1682.000000	29.951986
1681.000000	30.142021
1680.000000	30.361804
1679.000000	30.550445
1678.000000	30.719486
1677.000000	30.898775
1676.000000	31.039261
1675.000000	31.178255
1674.000000	31.331675
1673.000000	31.474051
1672.000000	31.639710
1671.000000	31.776116
1670.000000	31.939188
1669.000000	32.100070
1668.000000	32.240556
1667.000000	32.382933
1666.000000	32.527000
1665.000000	32.653955
1664.000000	32.789765
1663.000000	32.920700
1662.000000	33.029447
1661.000000	33.151427
1660.000000	33.227839
1659.000000	33.311812
1658.000000	33.394392
1657.000000	33.460855
1656.000000	33.492394
1655.000000	33.552191
1654.000000	33.581044
1653.000000	33.605420
1652.000000	33.629299
1651.000000	33.633875
1650.000000	33.639049
1649.000000	33.635169
1648.000000	33.624622
1647.000000	33.605918
1646.000000	33.597560
1645.000000	33.578059
1644.000000	33.566617
1643.000000	33.550798
1642.000000	33.528610
1641.000000	33.527317
1640.000000	33.529307
1639.000000	33.500354
1638.000000	33.475480
1637.000000	33.449114
1636.000000	33.411307
1635.000000	33.400760
1634.000000	33.364644
1633.000000	33.319573
1632.000000	33.292908
1631.000000	33.253409
1630.000000	33.209233
1629.000000	33.177097
1628.000000	33.141876
1627.000000	33.101978
1626.000000	33.067255
1625.000000	33.028054
1624.000000	32.990545
1623.000000	32.965771
1622.000000	32.932042
1621.000000	32.901895
1620.000000	32.868863
1619.000000	32.855929
1618.000000	32.825782
1617.000000	32.787377
1616.000000	32.768573
1615.000000	32.732357
1614.000000	32.698031
1613.000000	32.656940
1612.000000	32.627291
1611.000000	32.596050
1610.000000	32.548889
1609.000000	32.515260
1608.000000	32.461036
1607.000000	32.405916
1606.000000	32.345125
1605.000000	32.280951
1604.000000	32.214290
1603.000000	32.159170
1602.000000	32.111014
1601.000000	32.043756
1600.000000	31.979184
1599.000000	31.928940
1598.000000	31.877302
1597.000000	31.833624
1596.000000	31.790941
1595.000000	31.757909
1594.000000	31.706271
1593.000000	31.665280
1592.000000	31.614140
1591.000000	31.565686
1590.000000	31.540116
1589.000000	31.517730
1588.000000	31.484797
1587.000000	31.453954
1586.000000	31.406992
1585.000000	31.363513
1584.000000	31.341027
1583.000000	31.314065
1582.000000	31.273272
1581.000000	31.241732
1580.000000	31.222928
1579.000000	31.207407
1578.000000	31.194572
1577.000000	31.188204
1576.000000	31.172484
1575.000000	31.164126
1574.000000	31.171489
1573.000000	31.171887
1572.000000	31.161341
1571.000000	31.168106
1570.000000	31.181240
1569.000000	31.200044
1568.000000	31.213177
1567.000000	31.227305
1566.000000	31.247105
1565.000000	31.261332
1564.000000	31.272376
1563.000000	31.271481
1562.000000	31.265810
1561.000000	31.256358
1560.000000	31.240140
1559.000000	31.214073
1558.000000	31.181240
1557.000000	31.140646
1556.000000	31.097067
1555.000000	31.041251
1554.000000	30.984937
1553.000000	30.925738
1552.000000	30.856788
1551.000000	30.776994
1550.000000	30.692026
1549.000000	30.608052
1548.000000	30.519602
1547.000000	30.453040
1546.000000	30.370758
1545.000000	30.311062
1544.000000	30.251465
1543.000000	30.183012
1542.000000	30.139533
1541.000000	30.091378
1540.000000	30.032477
1539.000000	29.972582
1538.000000	29.920845
1537.000000	29.890001
1536.000000	29.844135
1535.000000	29.799959
1534.000000	29.744143
1533.000000	29.679272
1532.000000	29.628132
1531.000000	29.558884
1530.000000	29.503466
1529.000000	29.447948
1528.000000	29.385465
1527.000000	29.328057
1526.000000	29.270649
1525.000000	29.213937
1524.000000	29.150559
1523.000000	29.088077
1522.000000	29.033753
1521.000000	28.966097
1520.000000	28.908987
1519.000000	28.854563
1518.000000	28.799444
1517.000000	28.741040
1516.000000	28.676369
1515.000000	28.610404
1514.000000	28.557175
1513.000000	28.505836
1512.000000	28.449820
1511.000000	28.384055
1510.000000	28.321771
1509.000000	28.268840
1508.000000	28.216506
1507.000000	28.166062
1506.000000	28.110445
1505.000000	28.054032
1504.000000	28.026472
1503.000000	27.971849
1502.000000	27.935136
1501.000000	27.898423
1500.000000	27.860316
1499.000000	27.848277
1498.000000	27.839124
1497.000000	27.841711
1496.000000	27.846088
1495.000000	27.835443
1494.000000	27.835542
1493.000000	27.863599
1492.000000	27.891458
1491.000000	27.906183
1490.000000	27.919615
1489.000000	27.948170
1488.000000	27.975232
1487.000000	28.026273
1486.000000	28.064578
1485.000000	28.086069
1484.000000	28.112534
1483.000000	28.136513
1482.000000	28.162481
1481.000000	28.186459
1480.000000	28.221580
1479.000000	28.264761
1478.000000	28.311324
1477.000000	28.352714
1476.000000	28.379677
1475.000000	28.407635
1474.000000	28.500065
1473.000000	28.568020
1472.000000	28.637168
1471.000000	28.705123
1470.000000	28.750791
1469.000000	28.800737
1468.000000	28.850882
1467.000000	28.925801
1466.000000	29.007287
1465.000000	29.062009
1464.000000	29.138222
1463.000000	29.206575
1462.000000	29.260700
1461.000000	29.365169
1460.000000	29.445461
1459.000000	29.505157
1458.000000	29.589031
1457.000000	29.657682
1456.000000	29.749714
1455.000000	29.836871
1454.000000	29.888012
1453.000000	29.954573
1452.000000	30.070982
1451.000000	30.149682
1450.000000	30.212463
1449.000000	30.257136
1448.000000	30.322703
1447.000000	30.411054
1446.000000	30.504081
1445.000000	30.566563
1444.000000	30.638896
1443.000000	30.705258
1442.000000	30.785749
1441.000000	30.867633
1440.000000	30.971903
1439.000000	31.062543
1438.000000	31.172683
1437.000000	31.264417
1436.000000	31.335356
1435.000000	31.453357
1434.000000	31.570561
1433.000000	31.702789
1432.000000	31.822580
1431.000000	31.947545
1430.000000	32.076191
1429.000000	32.210807
1428.000000	32.391390
1427.000000	32.542124
1426.000000	32.711264
1425.000000	32.901497
1424.000000	33.113221
1423.000000	33.282859
1422.000000	33.510005
1421.000000	33.721032
1420.000000	33.965988
1419.000000	34.222882
1418.000000	34.451918
1417.000000	34.661453
1416.000000	34.939242
1415.000000	35.247774
1414.000000	35.538596
1413.000000	35.825140
1412.000000	36.049897
1411.000000	36.376239
1410.000000	36.738398
1409.000000	37.105931
1408.000000	37.446699
1407.000000	37.751749
1406.000000	38.033716
1405.000000	38.364435
1404.000000	38.656352
1403.000000	38.936727
1402.000000	39.225260
1401.000000	39.606224
1400.000000	39.853269
1399.000000	40.015644
1398.000000	40.138320
1397.000000	40.341488
1396.000000	40.628529
1395.000000	40.799858
1394.000000	40.864828
1393.000000	40.952682
1392.000000	41.105804
1391.000000	41.215844
1390.000000	41.308872
1389.000000	41.450353
1388.000000	41.628846
1387.000000	41.741075
1386.000000	41.888327
1385.000000	42.090102
1384.000000	42.314959
1383.000000	42.543696
1382.000000	42.830539
1381.000000	43.119172
1380.000000	43.384125
1379.000000	43.824289
1378.000000	44.242364
1377.000000	44.763913
1376.000000	45.260191
1375.000000	45.771792
1374.000000	46.265085
1373.000000	46.767233
1372.000000	47.225006
1371.000000	47.597911
1370.000000	47.883460
1369.000000	48.119759
1368.000000	48.361133
1367.000000	48.534352
1366.000000	48.686579
1365.000000	48.847262
1364.000000	48.974118
1363.000000	49.092516
1362.000000	49.211810
1361.000000	49.316080
1360.000000	49.343441
1359.000000	49.396272
1358.000000	49.479649
1357.000000	49.567403
1356.000000	49.673066
1355.000000	49.820317
1354.000000	49.963589
1353.000000	50.081689
1352.000000	50.244561
1351.000000	50.454295
1350.000000	50.660547
1349.000000	50.868590
1348.000000	51.098323
1347.000000	51.290347
1346.000000	51.466253
1345.000000	51.683051
1344.000000	51.900844
1343.000000	52.069089
1342.000000	52.231564
1341.000000	52.404186
1340.000000	52.559298
1339.000000	52.709733
1338.000000	52.853005
1337.000000	52.995083
1336.000000	53.142733
1335.000000	53.285010
1334.000000	53.410074
1333.000000	53.520414
1332.000000	53.634235
1331.000000	53.741192
1330.000000	53.838895
1329.000000	53.935206
1328.000000	54.024353
1327.000000	54.107828
1326.000000	54.179066
1325.000000	54.245927
1324.000000	54.324826
1323.000000	54.398551
1322.000000	54.456357
1321.000000	54.504115
1320.000000	54.554658
1319.000000	54.608882
1318.000000	54.666788
1317.000000	54.714844
1316.000000	54.763695
1315.000000	54.804886
1314.000000	54.846773
1313.000000	54.891347
1312.000000	54.924180
1311.000000	54.950546
1310.000000	54.983180
1309.000000	55.008850
1308.000000	55.034519
1307.000000	55.057900
1306.000000	55.072426
1305.000000	55.086953
1304.000000	55.108543
1303.000000	55.122472
1302.000000	55.125656
1301.000000	55.116602
1300.000000	55.110334
1299.000000	55.107647
1298.000000	55.098892
1297.000000	55.094216
1296.000000	55.086555
1295.000000	55.066855
1294.000000	55.042976
1293.000000	55.009845
1292.000000	54.985468
1291.000000	54.965470
1290.000000	54.938905
1289.000000	54.901794
1288.000000	54.856723
1287.000000	54.820407
1286.000000	54.777625
1285.000000	54.739120
1284.000000	54.713650
1283.000000	54.676041
1282.000000	54.627090
1281.000000	54.595152
1280.000000	54.562617
1279.000000	54.527396
1278.000000	54.506502
1277.000000	54.484415
1276.000000	54.460835
1275.000000	54.443622
1274.000000	54.429394
1273.000000	54.433573
1272.000000	54.439941
1271.000000	54.429792
1270.000000	54.431782
1269.000000	54.430887
1268.000000	54.428200
1267.000000	54.425216
1266.000000	54.417554
1265.000000	54.403625
1264.000000	54.395964
1263.000000	54.390094
1262.000000	54.389099
1261.000000	54.379747
1260.000000	54.366514
1259.000000	54.354276
1258.000000	54.341740
1257.000000	54.331591
1256.000000	54.316767
1255.000000	54.288112
1254.000000	54.269208
1253.000000	54.259458
1252.000000	54.211601
1251.000000	54.167227
1250.000000	54.133299
1249.000000	54.100466
1248.000000	54.034402
1247.000000	53.985649
1246.000000	53.934907
1245.000000	53.889040
1244.000000	53.854118
1243.000000	53.802082
1242.000000	53.751738
1241.000000	53.701493
1240.000000	53.656621
1239.000000	53.629062
1238.000000	53.590458
1237.000000	53.562599
1236.000000	53.545586
1235.000000	53.506285
1234.000000	53.465592
1233.000000	53.433257
1232.000000	53.400324
1231.000000	53.358437
1230.000000	53.316450
1229.000000	53.272374
1228.000000	53.225711
1227.000000	53.164522
1226.000000	53.112288
1225.000000	53.056173
1224.000000	53.031697
1223.000000	52.987422
1222.000000	52.923049
1221.000000	52.859473
1220.000000	52.806641
1219.000000	52.771420
1218.000000	52.704261
1217.000000	52.651032
1216.000000	52.637899
1215.000000	52.574919
1214.000000	52.518704
1213.000000	52.462390
1212.000000	52.396724
1211.000000	52.348469
1210.000000	52.289370
1209.000000	52.231862
1208.000000	52.169678
1207.000000	52.099435
1206.000000	52.060234
1205.000000	51.997254
1204.000000	51.921937
1203.000000	51.870797
1202.000000	51.803240
1201.000000	51.742250
1200.000000	51.684941
1199.000000	51.620469
1198.000000	51.527840
1197.000000	51.461676
1196.000000	51.390438
1195.000000	51.315021
1194.000000	51.226471
1193.000000	51.137623
1192.000000	51.067579
1191.000000	50.991565
1190.000000	50.933759
1189.000000	50.870480
1188.000000	50.816654
1187.000000	50.796556
1186.000000	50.790188
1185.000000	50.786109
1184.000000	50.816753
1183.000000	50.845010
1182.000000	50.867794
1181.000000	50.931271
1180.000000	50.959926
1179.000000	51.004997
1178.000000	51.077727
1177.000000	51.118520
1176.000000	51.156228
1175.000000	51.197916
1174.000000	51.232341
1173.000000	51.299102
1172.000000	51.340193
1171.000000	51.412327
1170.000000	51.491823
1169.000000	51.561071
1168.000000	51.645243
1167.000000	51.757174
1166.000000	51.868011
1165.000000	51.978251
1164.000000	52.086700
1163.000000	52.187189
1162.000000	52.305488
1161.000000	52.431945
1160.000000	52.544672
1159.000000	52.657001
1158.000000	52.726150
1157.000000	52.824948
1156.000000	52.927228
1155.000000	52.997272
1154.000000	53.062242
1153.000000	53.095274
1152.000000	53.176163
1151.000000	53.207504
1150.000000	53.234964
1149.000000	53.266106
1148.000000	53.303416
1147.000000	53.364506
1146.000000	53.380525
1145.000000	53.438331
1144.000000	53.466189
1143.000000	53.502405
1142.000000	53.558122
1141.000000	53.617222
1140.000000	53.673038
1139.000000	53.731541
1138.000000	53.825762
1137.000000	53.902771
1136.000000	53.975899
1135.000000	54.086139
1134.000000	54.143547
1133.000000	54.158471
1132.000000	54.206825
1131.000000	54.246723
1130.000000	54.300748
1129.000000	54.338556
1128.000000	54.345023
1127.000000	54.376165
1126.000000	54.375667
1125.000000	54.385418
1124.000000	54.397059
1123.000000	54.389099
1122.000000	54.354376
1121.000000	54.320050
1120.000000	54.283038
1119.000000	54.243439
1118.000000	54.205333
1117.000000	54.154491
1116.000000	54.116783
1115.000000	54.075393
1114.000000	54.024353
1113.000000	53.971820
1112.000000	53.916998
1111.000000	53.878593
1110.000000	53.816111
1109.000000	53.769846
1108.000000	53.729451
1107.000000	53.675724
1106.000000	53.629261
1105.000000	53.589761
1104.000000	53.538323
1103.000000	53.474845
1102.000000	53.453653
1101.000000	53.397339
1100.000000	53.334558
1099.000000	53.294163
1098.000000	53.254764
1097.000000	53.193077
1096.000000	53.140246
1095.000000	53.093881
1094.000000	53.037169
1093.000000	52.986129
1092.000000	52.941854
1091.000000	52.901957
1090.000000	52.849125
1089.000000	52.800174
1088.000000	52.754804
1087.000000	52.699187
1086.000000	52.640585
1085.000000	52.584868
1084.000000	52.543677
1083.000000	52.468758
1082.000000	52.410753
1081.000000	52.363891
1080.000000	52.295041
1079.000000	52.233653
1078.000000	52.191567
1077.000000	52.112767
1076.000000	52.036953
1075.000000	51.982728
1074.000000	51.920246
1073.000000	51.854380
1072.000000	51.790007
1071.000000	51.719167
1070.000000	51.646636
1069.000000	51.587735
1068.000000	51.519184
1067.000000	51.449737
1066.000000	51.381285
1065.000000	51.326463
1064.000000	51.261394
1063.000000	51.177918
1062.000000	51.120709
1061.000000	51.062604
1060.000000	51.013951
1059.000000	50.970970
1058.000000	50.915253
1057.000000	50.856551
1056.000000	50.799143
1055.000000	50.736660
1054.000000	50.677561
1053.000000	50.618461
1052.000000	50.575778
1051.000000	50.540458
1050.000000	50.475687
1049.000000	50.415891
1048.000000	50.378182
1047.000000	50.345847
1046.000000	50.300975
1045.000000	50.239288
1044.000000	50.191133
1043.000000	50.166956
1042.000000	50.126461
1041.000000	50.083977
1040.000000	50.053831
1039.000000	50.016620
1038.000000	49.982294
1037.000000	49.943392
1036.000000	49.905683
1035.000000	49.859419
1034.000000	49.815940
1033.000000	49.793255
1032.000000	49.766690
1031.000000	49.732165
1030.000000	49.696148
1029.000000	49.658141
1028.000000	49.620831
1027.000000	49.588595
1026.000000	49.559741
1025.000000	49.535067
1024.000000	49.499945
1023.000000	49.464923
1022.000000	49.446616
1021.000000	49.434876
1020.000000	49.427812
1019.000000	49.421345
1018.000000	49.412788
1017.000000	49.404033
1016.000000	49.407615
1015.000000	49.420748
1014.000000	49.425822
1013.000000	49.426220
1012.000000	49.418360
1011.000000	49.405625
1010.000000	49.411296
1009.000000	49.419255
1008.000000	49.418559
1007.000000	49.426021
1006.000000	49.432090
1005.000000	49.433483
1004.000000	49.448308
1003.000000	49.472883
1002.000000	49.496662
1001.000000	49.533276
1000.000000	49.567900
999.000000	49.591082
998.000000	49.622224
997.000000	49.657644
996.000000	49.700228
995.000000	49.741120
994.000000	49.772958
993.000000	49.804995
992.000000	49.831859
991.000000	49.884193
990.000000	49.936626
989.000000	49.987269
988.000000	50.039304
987.000000	50.093927
986.000000	50.151932
985.000000	50.211927
984.000000	50.287344
983.000000	50.359875
982.000000	50.440864
981.000000	50.509614
980.000000	50.593687
979.000000	50.672785
978.000000	50.758350
977.000000	50.839438
976.000000	50.931968
975.000000	51.023602
974.000000	51.122500
973.000000	51.191748
972.000000	51.273731
971.000000	51.367057
970.000000	51.467447
969.000000	51.564653
968.000000	51.646636
967.000000	51.738370
966.000000	51.847018
965.000000	51.945915
964.000000	52.060035
963.000000	52.159430
962.000000	52.258626
961.000000	52.360210
960.000000	52.451645
959.000000	52.550642
958.000000	52.647649
957.000000	52.723464
956.000000	52.796990
955.000000	52.879272
954.000000	52.978468
953.000000	53.049009
952.000000	53.134972
951.000000	53.227303
950.000000	53.326698
949.000000	53.402811
948.000000	53.494446
947.000000	53.591552
946.000000	53.702488
945.000000	53.826558
944.000000	53.924858
943.000000	54.046938
942.000000	54.170112
941.000000	54.290102
940.000000	54.410789
939.000000	54.535455
938.000000	54.657236
937.000000	54.792350
936.000000	54.912241
935.000000	55.053921
934.000000	55.189929
933.000000	55.307532
932.000000	55.432397
931.000000	55.562934
930.000000	55.695858
929.000000	55.816943
928.000000	55.943699
927.000000	56.074036
926.000000	56.201588
925.000000	56.351825
924.000000	56.446344
923.000000	56.575588
922.000000	56.714183
921.000000	56.815866
920.000000	56.929987
919.000000	57.029680
918.000000	57.155938
917.000000	57.232250
916.000000	57.320999
915.000000	57.427259
914.000000	57.546951
913.000000	57.625452
912.000000	57.705943
911.000000	57.803647
910.000000	57.864836
909.000000	58.010197
908.000000	58.073575
907.000000	58.188789
906.000000	58.269877
905.000000	58.354547
904.000000	58.443097
903.000000	58.526971
902.000000	58.620296
901.000000	58.706558
900.000000	58.782671
899.000000	58.859779
898.000000	58.959970
897.000000	59.054490
896.000000	59.159954
895.000000	59.261239
894.000000	59.381528
893.000000	59.499230
892.000000	59.627677
891.000000	59.755925
890.000000	59.893128
889.000000	60.010432
888.000000	60.169125
887.000000	60.316875
886.000000	60.475867
885.000000	60.613368
884.000000	60.762012
883.000000	60.901802
882.000000	61.088752
881.000000	61.248639
880.000000	61.421561
879.000000	61.577468
878.000000	61.749892
877.000000	61.930673
876.000000	62.113246
875.000000	62.325169
874.000000	62.493613
873.000000	62.694193
872.000000	62.888406
871.000000	63.091773
870.000000	63.316133
869.000000	63.541089
868.000000	63.772115
867.000000	63.996873
866.000000	64.230585
865.000000	64.458826
864.000000	64.690249
863.000000	64.918490
862.000000	65.155684
861.000000	65.386412
860.000000	65.614154
859.000000	65.871546
858.000000	66.097100
857.000000	66.064600
856.000000	65.845600
855.000000	66.381100
854.000000	66.995200
853.000000	67.281800
852.000000	67.459000
851.000000	67.867200
850.000000	68.220800
849.000000	68.708100
848.000000	69.247100
847.000000	69.442200
846.000000	69.928800
845.000000	70.346100
844.000000	71.013400
843.000000	71.263900
842.000000	71.396600
841.000000	71.668400
840.000000	71.879700
839.000000	72.338800
838.000000	72.360100
837.000000	72.680800
836.000000	72.863400
835.000000	73.278400
834.000000	73.585000
833.000000	73.804600
832.000000	74.071200
831.000000	74.406700
830.000000	74.504600
829.000000	74.782100
828.000000	75.081000
827.000000	75.122800
826.000000	75.301300
825.000000	75.312400
824.000000	75.400300
823.000000	75.485500
822.000000	75.542600
821.000000	75.517900
820.000000	75.514400
819.000000	75.622700
818.000000	75.501000
817.000000	75.505300
816.000000	75.570700
815.000000	75.579200
814.000000	75.604900
813.000000	75.580900
812.000000	75.638100
811.000000	75.697700
810.000000	75.635800
809.000000	75.642000
808.000000	75.751700
807.000000	75.968700
806.000000	75.969600
805.000000	75.925000
804.000000	75.929200
803.000000	75.974000
802.000000	76.137200
801.000000	76.113800
800.000000	76.146300
799.000000	76.155700
798.000000	76.268900
797.000000	76.322500
796.000000	76.408500
795.000000	76.579700
794.000000	76.627100
793.000000	76.711100
792.000000	76.783400
791.000000	76.777500
790.000000	76.991100
789.000000	77.130100
788.000000	77.116300
787.000000	77.211800
786.000000	77.246400
785.000000	77.427100
784.000000	77.448700
783.000000	77.404000
782.000000	77.545500
781.000000	77.533300
780.000000	77.523700
779.000000	77.436600
778.000000	77.379700
777.000000	77.344400
776.000000	77.349000
775.000000	77.272000
774.000000	77.133500
773.000000	77.157800
772.000000	77.139700
771.000000	77.067000
770.000000	76.969600
769.000000	76.838000
768.000000	76.728000
767.000000	76.654000
766.000000	76.471900
765.000000	76.262400
764.000000	76.076900
763.000000	75.886700
762.000000	75.604400
761.000000	75.296200
760.000000	75.092500
759.000000	74.895100
758.000000	74.576000
757.000000	74.316400
756.000000	74.024600
755.000000	73.786800
754.000000	73.622300
753.000000	73.354400
752.000000	73.076900
751.000000	72.840000
750.000000	72.578400
749.000000	72.295600
748.000000	71.979600
747.000000	71.622000
746.000000	71.333800
745.000000	71.027600
744.000000	70.648900
743.000000	70.209200
742.000000	69.760700
741.000000	69.378500
740.000000	68.999800
739.000000	68.562200
738.000000	68.115900
737.000000	67.744700
736.000000	67.332700
735.000000	66.893800
734.000000	66.572200
733.000000	66.219200
732.000000	65.784600
731.000000	65.415300
730.000000	65.086900
729.000000	64.797900
728.000000	64.527500
727.000000	64.263500
726.000000	63.982100
725.000000	63.713800
724.000000	63.445400
723.000000	63.223800
722.000000	63.042600
721.000000	62.812700
720.000000	62.573100
719.000000	62.409400
718.000000	62.232700
717.000000	62.096600
716.000000	61.886500
715.000000	61.726200
714.000000	61.648500
713.000000	61.499400
712.000000	61.289600
711.000000	61.140000
710.000000	61.008700
709.000000	60.851200
708.000000	60.688500
707.000000	60.527700
706.000000	60.322900
705.000000	60.071800
704.000000	59.848600
703.000000	59.566500
702.000000	59.209300
701.000000	58.875200
700.000000	58.434800
699.000000	57.922400
698.000000	57.411500
697.000000	56.914000
696.000000	56.370500
695.000000	55.840200
694.000000	55.294500
693.000000	54.789300
692.000000	54.273700
691.000000	53.782800
690.000000	53.313800
689.000000	52.895200
688.000000	52.528400
687.000000	52.123700
686.000000	51.796900
685.000000	51.507800
684.000000	51.206100
683.000000	50.944000
682.000000	50.716400
681.000000	50.441900
680.000000	50.163000
679.000000	49.881500
678.000000	49.611800
677.000000	49.416700
676.000000	49.180900
675.000000	48.962800
674.000000	48.804600
673.000000	48.647300
672.000000	48.551800
671.000000	48.512900
670.000000	48.519100
669.000000	48.592500
668.000000	48.659500
667.000000	48.807800
666.000000	48.972400
665.000000	49.136700
664.000000	49.310900
663.000000	49.471700
662.000000	49.596500
661.000000	49.652300
660.000000	49.701400
659.000000	49.614300
658.000000	49.503200
657.000000	49.284800
656.000000	49.009200
655.000000	48.667700
654.000000	48.322400
653.000000	47.960600
652.000000	47.615000
651.000000	47.291500
650.000000	47.023400
649.000000	46.790600
648.000000	46.633900
647.000000	46.548200
646.000000	46.449800
645.000000	46.403200
644.000000	46.450600
643.000000	46.504000
642.000000	46.559400
641.000000	46.643800
640.000000	46.731900
639.000000	46.797200
638.000000	46.895900
637.000000	47.014800
636.000000	47.203000
635.000000	47.369800
634.000000	47.544000
633.000000	47.802600
632.000000	48.094200
631.000000	48.415700
630.000000	48.843100
629.000000	49.282600
628.000000	49.727700
627.000000	50.255700
626.000000	50.847300
625.000000	51.384100
624.000000	51.992700
623.000000	52.609900
622.000000	53.224300
621.000000	53.847600
620.000000	54.468300
619.000000	55.059600
618.000000	55.667700
617.000000	56.229700
616.000000	56.777100
615.000000	57.200200
614.000000	57.693500
613.000000	58.111800
612.000000	58.574200
611.000000	58.911000
610.000000	59.313300
609.000000	59.692000
608.000000	60.057300
607.000000	60.463500
606.000000	60.863300
605.000000	61.309900
604.000000	61.657500
603.000000	62.055900
602.000000	62.418300
601.000000	62.653000
600.000000	62.843100
599.000000	63.029700
598.000000	63.244500
597.000000	63.410000
596.000000	63.527200
595.000000	63.762700
594.000000	63.903500
593.000000	64.067700
592.000000	64.206300
591.000000	64.350800
590.000000	64.375800
589.000000	64.333600
588.000000	64.262900
587.000000	64.161200
586.000000	63.987200
585.000000	63.850800
584.000000	63.723900
583.000000	63.649300
582.000000	63.562000
581.000000	63.440200
580.000000	63.360800
579.000000	63.232700
578.000000	63.104300
577.000000	62.834300
576.000000	62.593800
575.000000	62.376800
574.000000	62.174900
573.000000	61.945000
572.000000	61.794200
571.000000	61.614300
570.000000	61.425800
569.000000	61.194400
568.000000	60.937800
567.000000	60.605600
566.000000	60.231900
565.000000	59.798300
564.000000	59.379700
563.000000	58.975400
562.000000	58.576200
561.000000	58.120900
560.000000	57.649600
559.000000	57.140100
558.000000	56.593700
557.000000	56.007000
556.000000	55.331100
555.000000	54.647700
554.000000	53.986200
553.000000	53.269600
552.000000	52.561400
551.000000	51.790700
550.000000	51.025700
549.000000	50.218500
548.000000	49.422400
547.000000	48.605100
546.000000	47.758500
545.000000	46.965600
544.000000	46.101600
543.000000	45.269500
542.000000	44.391700
541.000000	43.543600
540.000000	42.657600
539.000000	41.798300
538.000000	40.957400
537.000000	40.155300
536.000000	39.346000
535.000000	38.559700
534.000000	37.774600
533.000000	37.028200
532.000000	36.293100
531.000000	35.592100
530.000000	34.948300
529.000000	34.345500
528.000000	33.752200
527.000000	33.195100
526.000000	32.655100
525.000000	32.125200
524.000000	31.606100
523.000000	31.107300
522.000000	30.624800
521.000000	30.135000
520.000000	29.656100
519.000000	29.190700
518.000000	28.753500
517.000000	28.300100
516.000000	27.822000
515.000000	27.355400
514.000000	26.870800
513.000000	26.390300
512.000000	25.929500
511.000000	25.451300
510.000000	24.965800
509.000000	24.462900
508.000000	24.003400
507.000000	23.566800
506.000000	23.147300
505.000000	22.747500
504.000000	22.407700
503.000000	22.101100
502.000000	21.879100
501.000000	21.682600
500.000000	21.549200
499.000000	21.463800
498.000000	21.422600
497.000000	21.421100
496.000000	21.447100
495.000000	21.529800
494.000000	21.641800
493.000000	21.781300
492.000000	21.947500
491.000000	22.151700
490.000000	22.344800
489.000000	22.549700
488.000000	22.788700
487.000000	23.012400
486.000000	23.242500
485.000000	23.451200
484.000000	23.644300
483.000000	23.833800
482.000000	23.972500
481.000000	24.098300
480.000000	24.203900
479.000000	24.298100
478.000000	24.389000
477.000000	24.481000
476.000000	24.548700
475.000000	24.599800
474.000000	24.623900
473.000000	24.633500
472.000000	24.635500
471.000000	24.618400
470.000000	24.589200
469.000000	24.560800
468.000000	24.504300
467.000000	24.413500
466.000000	24.311500
465.000000	24.209900
464.000000	24.097300
463.000000	23.973600
462.000000	23.839600
461.000000	23.686100
460.000000	23.528600
459.000000	23.376400
458.000000	23.198600
457.000000	22.998200
456.000000	22.811400
455.000000	22.600900
454.000000	22.362100
453.000000	22.114800
452.000000	21.849800
451.000000	21.589200
450.000000	21.329400
449.000000	21.039500
448.000000	20.747800
447.000000	20.448200
446.000000	20.116000
445.000000	19.785200
444.000000	19.428300
443.000000	19.060000
442.000000	18.670700
441.000000	18.268100
440.000000	17.892800
439.000000	17.496000
438.000000	17.073800
437.000000	16.660400
436.000000	16.223900
435.000000	15.762900
434.000000	15.309000
433.000000	14.851400
432.000000	14.393600
431.000000	13.952400
430.000000	13.520900
429.000000	13.081600
428.000000	12.647400
427.000000	12.244200
426.000000	11.834500
425.000000	11.422500
424.000000	11.044000
423.000000	10.680900
422.000000	10.324900
421.000000	9.984300
420.000000	9.666600
419.000000	9.368700
418.000000	9.100400
417.000000	8.844200
416.000000	8.597000
415.000000	8.382400
414.000000	8.173100
413.000000	7.973400
412.000000	7.796900
411.000000	7.632300
410.000000	7.479000
409.000000	7.345100
408.000000	7.213100
407.000000	7.091900
406.000000	6.984800
405.000000	6.886800
404.000000	6.796500
403.000000	6.713400
402.000000	6.634200
401.000000	6.571600
400.000000	6.493000
399.000000	6.441800
398.000000	6.397300
397.000000	6.342700
396.000000	6.307100
395.000000	6.267300
394.000000	6.216400
393.000000	6.175400
392.000000	6.141000
391.000000	6.110400
390.000000	6.075200
389.000000	6.051300
388.000000	6.017600
387.000000	5.994900
386.000000	5.979200
385.000000	5.950400
384.000000	5.926600
383.000000	5.920400
382.000000	5.890300
381.000000	5.859700
380.000000	5.830300
379.000000	5.824100
378.000000	5.801200
377.000000	5.789700
376.000000	5.952300
375.000000	5.754000
374.000000	5.674300
373.000000	5.751400
372.000000	5.774700
371.000000	5.803100
370.000000	5.690400
369.000000	5.670900
368.000000	5.742800
367.000000	5.661100
366.000000	5.775800
365.000000	5.758700
364.000000	5.802800
363.000000	5.779800
362.000000	5.688400
361.000000	5.632700
360.000000	5.670300
359.000000	5.721300
358.000000	5.722800
357.000000	5.697000
356.000000	5.755600
355.000000	5.638900
354.000000	5.681400
353.000000	5.728300
352.000000	5.647200
351.000000	5.659000
350.000000	5.627400
349.000000	5.629500
348.000000	5.691100
347.000000	5.603000
346.000000	5.587100
345.000000	5.713100
344.000000	5.637100
343.000000	5.720400
342.000000	5.655600
341.000000	5.580800
340.000000	5.658100
339.000000	5.657500
338.000000	5.670400
337.000000	5.710100
336.000000	5.635300
335.000000	5.617300
334.000000	5.622900
333.000000	5.601900
332.000000	5.647000
331.000000	5.702700
330.000000	5.626800
329.000000	5.769800
328.000000	5.636300
327.000000	5.693300
326.000000	5.608000
325.000000	5.849800
324.000000	5.928700
323.000000	5.784300
322.000000	6.057900
321.000000	5.867200
320.000000	5.853900
319.000000	5.919500
318.000000	5.990600
317.000000	5.723700
316.000000	5.585100
315.000000	5.628600
314.000000	5.586400
313.000000	5.580800
312.000000	5.529700
311.000000	5.637800
310.000000	5.603000
309.000000	5.597900
308.000000	5.613600
307.000000	5.557000
306.000000	5.647500
305.000000	5.638200
304.000000	5.663700
303.000000	5.629200
302.000000	5.660900
301.000000	5.582400
300.000000	5.704400
299.000000	5.653200
298.000000	5.687700
297.000000	5.692400
296.000000	5.691400
295.000000	5.691000
294.000000	5.756500
293.000000	5.707600
292.000000	5.698700
291.000000	5.742100
290.000000	5.704400
289.000000	5.649700
288.000000	5.733600
287.000000	5.701900
286.000000	5.757700
285.000000	5.713900
284.000000	5.723500
283.000000	5.760300
282.000000	5.751400
281.000000	5.785500
280.000000	5.771400
279.000000	5.796500
278.000000	5.777200
277.000000	5.853500
276.000000	5.792900
275.000000	5.784800
274.000000	5.807300
273.000000	5.811700
272.000000	5.839500
271.000000	5.836400
270.000000	5.797800
269.000000	5.836300
268.000000	5.873700
267.000000	5.889500
266.000000	5.939400
265.000000	5.916900
264.000000	5.927400
263.000000	5.973600
262.000000	5.952600
261.000000	6.011400
260.000000	6.045400
259.000000	6.075500
258.000000	6.068700
257.000000	6.043200
256.000000	6.118500
255.000000	6.123100
254.000000	6.099200
253.000000	6.115400
252.000000	6.147200
251.000000	6.144100
250.000000	6.147100
