PE UV       SUBTECH     SPECTRUM    ASCII       PEDS        4.00        
   -1
CICIMAUCR0014-1.Sample.ASC
24/04/04
10:38:24.00
24/04/04
10:38:24.00
Vinicio Soto Monge
C. cupreomarginata
250,000000
1
Lambda 1050
1050L1511233
PerkinElmer UV WinLab 6.3.2.0749 / 2.02.05 Lambda 900 UV/VIS/NIR, Aug  7 2015 09:38:08

0
0
3350/servo 860,8/2
0
0
UV/VIS
1
1
1
DoubleDePol,CommonBeamDepol,RBeamAtt,SBeamAtt,60mm sphere, WB InGaAs Detector
0
0
0
0
Program
Program
3350/servo 860,8/2
3350/0,2 860,8/0,2
3350/0,2 860,8/0,2
0
15.00
 
 
 
0
 
860,8
319,2
860,8
Front
100
on
S:100 R:100
0
0
0
0
 
0
 
 
 
0
 
 
0
0
0
0
0
 
 
 
 
0
0


0
0
#HDR
-1
-1
#GR
nm
%R
1.0
0.0
2500,000000
-1,000000
2251
8
68,620100
4,694900
#DATA
2500.000000	12.454641
2499.000000	12.339023
2498.000000	12.487896
2497.000000	12.452307
2496.000000	12.448709
2495.000000	12.541281
2494.000000	12.537100
2493.000000	12.512498
2492.000000	12.477395
2491.000000	12.511817
2490.000000	12.594763
2489.000000	12.513276
2488.000000	12.509970
2487.000000	12.581538
2486.000000	12.574537
2485.000000	12.575996
2484.000000	12.536322
2483.000000	12.611391
2482.000000	12.602056
2481.000000	12.633172
2480.000000	12.675763
2479.000000	12.687238
2478.000000	12.734399
2477.000000	12.768238
2476.000000	12.844863
2475.000000	12.841460
2474.000000	12.877438
2473.000000	12.915556
2472.000000	12.946478
2471.000000	12.982749
2470.000000	13.028646
2469.000000	13.098950
2468.000000	13.121510
2467.000000	13.172463
2466.000000	13.246851
2465.000000	13.259201
2464.000000	13.358288
2463.000000	13.452027
2462.000000	13.506481
2461.000000	13.577466
2460.000000	13.661481
2459.000000	13.749483
2458.000000	13.833692
2457.000000	13.938711
2456.000000	14.042563
2455.000000	14.164307
2454.000000	14.240057
2453.000000	14.330781
2452.000000	14.470223
2451.000000	14.577186
2450.000000	14.704959
2449.000000	14.807061
2448.000000	14.926179
2447.000000	15.062995
2446.000000	15.175696
2445.000000	15.304441
2444.000000	15.421323
2443.000000	15.545595
2442.000000	15.657712
2441.000000	15.793070
2440.000000	15.916370
2439.000000	16.044045
2438.000000	16.163456
2437.000000	16.285200
2436.000000	16.390802
2435.000000	16.501071
2434.000000	16.610660
2433.000000	16.743101
2432.000000	16.837131
2431.000000	16.940011
2430.000000	17.046974
2429.000000	17.148395
2428.000000	17.249330
2427.000000	17.332275
2426.000000	17.416485
2425.000000	17.527144
2424.000000	17.646262
2423.000000	17.739418
2422.000000	17.830337
2421.000000	17.913768
2420.000000	17.972695
2419.000000	18.028997
2418.000000	18.122153
2417.000000	18.193624
2416.000000	18.269568
2415.000000	18.334524
2414.000000	18.389464
2413.000000	18.457532
2412.000000	18.521613
2411.000000	18.580345
2410.000000	18.627312
2409.000000	18.684684
2408.000000	18.733692
2407.000000	18.784840
2406.000000	18.838225
2405.000000	18.869730
2404.000000	18.910668
2403.000000	18.953065
2402.000000	18.994781
2401.000000	19.017632
2400.000000	19.060320
2399.000000	19.114774
2398.000000	19.135292
2397.000000	19.173410
2396.000000	19.211625
2395.000000	19.248187
2394.000000	19.275706
2393.000000	19.284457
2392.000000	19.303127
2391.000000	19.325298
2390.000000	19.328701
2389.000000	19.342509
2388.000000	19.350288
2387.000000	19.359235
2386.000000	19.362638
2385.000000	19.342996
2384.000000	19.336286
2383.000000	19.331716
2382.000000	19.320922
2381.000000	19.312948
2380.000000	19.290972
2379.000000	19.268899
2378.000000	19.248868
2377.000000	19.220863
2376.000000	19.179341
2375.000000	19.143265
2374.000000	19.112343
2373.000000	19.089297
2372.000000	19.053513
2371.000000	19.020452
2370.000000	18.984181
2369.000000	18.922921
2368.000000	18.875273
2367.000000	18.827140
2366.000000	18.789897
2365.000000	18.746917
2364.000000	18.695672
2363.000000	18.654053
2362.000000	18.595612
2361.000000	18.531239
2360.000000	18.479605
2359.000000	18.434292
2358.000000	18.390534
2357.000000	18.347165
2356.000000	18.310797
2355.000000	18.266067
2354.000000	18.236117
2353.000000	18.214627
2352.000000	18.180691
2351.000000	18.171550
2350.000000	18.165813
2349.000000	18.157353
2348.000000	18.151033
2347.000000	18.159006
2346.000000	18.174273
2345.000000	18.181955
2344.000000	18.181955
2343.000000	18.187109
2342.000000	18.193235
2341.000000	18.178454
2340.000000	18.175245
2339.000000	18.167077
2338.000000	18.155700
2337.000000	18.144615
2336.000000	18.121277
2335.000000	18.080826
2334.000000	18.050681
2333.000000	18.014314
2332.000000	17.974932
2331.000000	17.927868
2330.000000	17.898599
2329.000000	17.861453
2328.000000	17.798831
2327.000000	17.737473
2326.000000	17.681949
2325.000000	17.612714
2324.000000	17.543480
2323.000000	17.477162
2322.000000	17.390425
2321.000000	17.309327
2320.000000	17.195945
2319.000000	17.091607
2318.000000	16.996215
2317.000000	16.897420
2316.000000	16.776162
2315.000000	16.658016
2314.000000	16.541426
2313.000000	16.439519
2312.000000	16.333041
2311.000000	16.236288
2310.000000	16.128547
2309.000000	16.031793
2308.000000	15.962753
2307.000000	15.923079
2306.000000	15.874751
2305.000000	15.845677
2304.000000	15.826715
2303.000000	15.809406
2302.000000	15.813490
2301.000000	15.819714
2300.000000	15.846552
2299.000000	15.877474
2298.000000	15.890504
2297.000000	15.905771
2296.000000	15.940874
2295.000000	15.944569
2294.000000	15.955557
2293.000000	15.939416
2292.000000	15.942041
2291.000000	15.938638
2290.000000	15.919579
2289.000000	15.879808
2288.000000	15.844412
2287.000000	15.805808
2286.000000	15.763023
2285.000000	15.701957
2284.000000	15.661310
2283.000000	15.593048
2282.000000	15.539372
2281.000000	15.466248
2280.000000	15.386122
2279.000000	15.312901
2278.000000	15.246195
2277.000000	15.181239
2276.000000	15.111907
2275.000000	15.045006
2274.000000	14.991038
2273.000000	14.927249
2272.000000	14.884561
2271.000000	14.869002
2270.000000	14.846054
2269.000000	14.831468
2268.000000	14.838080
2267.000000	14.854416
2266.000000	14.864140
2265.000000	14.926179
2264.000000	15.006693
2263.000000	15.085749
2262.000000	15.156734
2261.000000	15.283437
2260.000000	15.405667
2259.000000	15.535191
2258.000000	15.666075
2257.000000	15.799488
2256.000000	15.932317
2255.000000	16.093540
2254.000000	16.232787
2253.000000	16.359782
2252.000000	16.532091
2251.000000	16.661614
2250.000000	16.771592
2249.000000	16.896156
2248.000000	17.008662
2247.000000	17.099095
2246.000000	17.186124
2245.000000	17.298728
2244.000000	17.385854
2243.000000	17.469091
2242.000000	17.507890
2241.000000	17.582570
2240.000000	17.619813
2239.000000	17.667557
2238.000000	17.688756
2237.000000	17.711413
2236.000000	17.729402
2235.000000	17.740682
2234.000000	17.715010
2233.000000	17.679907
2232.000000	17.661237
2231.000000	17.605908
2230.000000	17.533561
2229.000000	17.454311
2228.000000	17.386049
2227.000000	17.293185
2226.000000	17.179220
2225.000000	17.090441
2224.000000	16.958195
2223.000000	16.821573
2222.000000	16.693022
2221.000000	16.557859
2220.000000	16.409472
2219.000000	16.279268
2218.000000	16.155093
2217.000000	16.022653
2216.000000	15.920746
2215.000000	15.802113
2214.000000	15.710416
2213.000000	15.646044
2212.000000	15.604717
2211.000000	15.575448
2210.000000	15.572336
2209.000000	15.598007
2208.000000	15.656351
2207.000000	15.738713
2206.000000	15.861040
2205.000000	16.010109
2204.000000	16.162191
2203.000000	16.351128
2202.000000	16.562041
2201.000000	16.787636
2200.000000	17.025193
2199.000000	17.281808
2198.000000	17.513141
2197.000000	17.753712
2196.000000	18.023357
2195.000000	18.255079
2194.000000	18.477077
2193.000000	18.709577
2192.000000	18.880427
2191.000000	19.063821
2190.000000	19.236907
2189.000000	19.392879
2188.000000	19.528431
2187.000000	19.661650
2186.000000	19.765210
2185.000000	19.876549
2184.000000	19.960370
2183.000000	20.029896
2182.000000	20.119162
2181.000000	20.180520
2180.000000	20.256075
2179.000000	20.298666
2178.000000	20.342910
2177.000000	20.386668
2176.000000	20.435677
2175.000000	20.480407
2174.000000	20.550906
2173.000000	20.602929
2172.000000	20.649604
2171.000000	20.711837
2170.000000	20.754234
2169.000000	20.837276
2168.000000	20.899412
2167.000000	20.955714
2166.000000	21.016100
2165.000000	21.083584
2164.000000	21.146498
2163.000000	21.232069
2162.000000	21.312681
2161.000000	21.381623
2160.000000	21.472153
2159.000000	21.562295
2158.000000	21.649810
2157.000000	21.758135
2156.000000	21.872683
2155.000000	21.982759
2154.000000	22.089333
2153.000000	22.208549
2152.000000	22.337489
2151.000000	22.450870
2150.000000	22.552874
2149.000000	22.671604
2148.000000	22.783138
2147.000000	22.906340
2146.000000	23.033724
2145.000000	23.171707
2144.000000	23.284602
2143.000000	23.392344
2142.000000	23.498043
2141.000000	23.618620
2140.000000	23.724417
2139.000000	23.834103
2138.000000	23.935232
2137.000000	24.011954
2136.000000	24.105207
2135.000000	24.202641
2134.000000	24.280433
2133.000000	24.351320
2132.000000	24.422208
2131.000000	24.497083
2130.000000	24.568067
2129.000000	24.630884
2128.000000	24.677851
2127.000000	24.730846
2126.000000	24.789871
2125.000000	24.819432
2124.000000	24.843450
2123.000000	24.887597
2122.000000	24.922895
2121.000000	24.936508
2120.000000	24.947788
2119.000000	24.965777
2118.000000	24.994949
2117.000000	25.003117
2116.000000	25.014397
2115.000000	25.008368
2114.000000	25.019356
2113.000000	25.025871
2112.000000	25.002923
2111.000000	24.998353
2110.000000	25.011674
2109.000000	25.010896
2108.000000	24.995241
2107.000000	24.972487
2106.000000	24.958873
2105.000000	24.953039
2104.000000	24.946135
2103.000000	24.931452
2102.000000	24.915991
2101.000000	24.901210
2100.000000	24.887597
2099.000000	24.879137
2098.000000	24.883610
2097.000000	24.882832
2096.000000	24.864356
2095.000000	24.857647
2094.000000	24.861050
2093.000000	24.865426
2092.000000	24.870677
2091.000000	24.865621
2090.000000	24.852104
2089.000000	24.858911
2088.000000	24.856869
2087.000000	24.838199
2086.000000	24.826822
2085.000000	24.813986
2084.000000	24.780730
2083.000000	24.751558
2082.000000	24.723748
2081.000000	24.691367
2080.000000	24.649651
2079.000000	24.601518
2078.000000	24.548036
2077.000000	24.486678
2076.000000	24.424153
2075.000000	24.345583
2074.000000	24.273918
2073.000000	24.205558
2072.000000	24.118529
2071.000000	24.035972
2070.000000	23.961390
2069.000000	23.874652
2068.000000	23.777607
2067.000000	23.687368
2066.000000	23.593338
2065.000000	23.513893
2064.000000	23.442325
2063.000000	23.359768
2062.000000	23.279157
2061.000000	23.215659
2060.000000	23.172096
2059.000000	23.125226
2058.000000	23.102472
2057.000000	23.088470
2056.000000	23.075731
2055.000000	23.097999
2054.000000	23.131547
2053.000000	23.185418
2052.000000	23.272739
2051.000000	23.369687
2050.000000	23.475872
2049.000000	23.606854
2048.000000	23.740170
2047.000000	23.900712
2046.000000	24.066992
2045.000000	24.249997
2044.000000	24.433682
2043.000000	24.604629
2042.000000	24.786176
2041.000000	24.975307
2040.000000	25.163076
2039.000000	25.345790
2038.000000	25.512750
2037.000000	25.672028
2036.000000	25.837530
2035.000000	25.994378
2034.000000	26.139945
2033.000000	26.276956
2032.000000	26.413383
2031.000000	26.539892
2030.000000	26.643063
2029.000000	26.750026
2028.000000	26.874396
2027.000000	26.990597
2026.000000	27.087448
2025.000000	27.171074
2024.000000	27.253144
2023.000000	27.335798
2022.000000	27.426619
2021.000000	27.513260
2020.000000	27.571409
2019.000000	27.630434
2018.000000	27.689555
2017.000000	27.746829
2016.000000	27.798755
2015.000000	27.842513
2014.000000	27.880437
2013.000000	27.908733
2012.000000	27.936447
2011.000000	27.947824
2010.000000	27.971453
2009.000000	27.991095
2008.000000	27.993137
2007.000000	27.998583
2006.000000	27.980302
2005.000000	27.976996
2004.000000	27.957742
2003.000000	27.941114
2002.000000	27.911942
2001.000000	27.865656
2000.000000	27.818884
1999.000000	27.804687
1998.000000	27.740898
1997.000000	27.699085
1996.000000	27.652021
1995.000000	27.576077
1994.000000	27.512579
1993.000000	27.435468
1992.000000	27.366720
1991.000000	27.300403
1990.000000	27.225723
1989.000000	27.138401
1988.000000	27.063819
1987.000000	26.965412
1986.000000	26.871868
1985.000000	26.800688
1984.000000	26.732426
1983.000000	26.627991
1982.000000	26.537655
1981.000000	26.448292
1980.000000	26.352608
1979.000000	26.270635
1978.000000	26.180008
1977.000000	26.099688
1976.000000	26.019757
1975.000000	25.926115
1974.000000	25.839669
1973.000000	25.772477
1972.000000	25.708979
1971.000000	25.599779
1970.000000	25.542797
1969.000000	25.446433
1968.000000	25.383130
1967.000000	25.289585
1966.000000	25.217433
1965.000000	25.164632
1964.000000	25.079548
1963.000000	25.012355
1962.000000	24.932327
1961.000000	24.838491
1960.000000	24.784134
1959.000000	24.664821
1958.000000	24.621841
1957.000000	24.519934
1956.000000	24.438836
1955.000000	24.347820
1954.000000	24.265555
1953.000000	24.201571
1952.000000	24.118723
1951.000000	24.054351
1950.000000	23.987255
1949.000000	23.917146
1948.000000	23.873485
1947.000000	23.822337
1946.000000	23.749505
1945.000000	23.708956
1944.000000	23.671227
1943.000000	23.621635
1942.000000	23.621148
1941.000000	23.597811
1940.000000	23.599269
1939.000000	23.606076
1938.000000	23.591004
1937.000000	23.607049
1936.000000	23.619301
1935.000000	23.627858
1934.000000	23.680367
1933.000000	23.741142
1932.000000	23.828560
1931.000000	23.909755
1930.000000	23.984144
1929.000000	24.101706
1928.000000	24.204197
1927.000000	24.319815
1926.000000	24.445934
1925.000000	24.594711
1924.000000	24.753601
1923.000000	24.895765
1922.000000	25.081590
1921.000000	25.287057
1920.000000	25.484064
1919.000000	25.668722
1918.000000	25.887803
1917.000000	26.098424
1916.000000	26.326645
1915.000000	26.592498
1914.000000	26.890051
1913.000000	27.161933
1912.000000	27.438969
1911.000000	27.709100
1910.000000	27.994790
1909.000000	28.275327
1908.000000	28.606719
1907.000000	28.966797
1906.000000	29.356145
1905.000000	29.750743
1904.000000	30.135714
1903.000000	30.489666
1902.000000	30.834089
1901.000000	31.236564
1900.000000	31.653916
1899.000000	32.034414
1898.000000	32.437959
1897.000000	32.849088
1896.000000	33.202456
1895.000000	33.587233
1894.000000	33.999043
1893.000000	34.432829
1892.000000	34.893842
1891.000000	35.318390
1890.000000	35.733311
1889.000000	36.126256
1888.000000	36.508505
1887.000000	36.889490
1886.000000	37.290895
1885.000000	37.728959
1884.000000	38.145728
1883.000000	38.521656
1882.000000	38.865106
1881.000000	39.235881
1880.000000	39.564551
1879.000000	39.890303
1878.000000	40.204679
1877.000000	40.506802
1876.000000	40.794145
1875.000000	41.057567
1874.000000	41.304653
1873.000000	41.534916
1872.000000	41.733869
1871.000000	41.877103
1870.000000	41.976968
1869.000000	42.087432
1868.000000	42.142567
1867.000000	42.174558
1866.000000	42.222400
1865.000000	42.272381
1864.000000	42.339282
1863.000000	42.434383
1862.000000	42.527635
1861.000000	42.603482
1860.000000	42.662701
1859.000000	42.676509
1858.000000	42.694985
1857.000000	42.708598
1856.000000	42.720559
1855.000000	42.726879
1854.000000	42.692845
1853.000000	42.642475
1852.000000	42.649768
1851.000000	42.706264
1850.000000	42.789502
1849.000000	42.803699
1848.000000	42.718808
1847.000000	42.601635
1846.000000	42.511299
1845.000000	42.486697
1844.000000	42.508090
1843.000000	42.542707
1842.000000	42.529775
1841.000000	42.490295
1840.000000	42.448093
1839.000000	42.395390
1838.000000	42.353479
1837.000000	42.289593
1836.000000	42.195659
1835.000000	42.095405
1834.000000	42.022281
1833.000000	41.983774
1832.000000	41.947893
1831.000000	41.907441
1830.000000	41.858141
1829.000000	41.786961
1828.000000	41.707614
1827.000000	41.650632
1826.000000	41.599872
1825.000000	41.557865
1824.000000	41.559518
1823.000000	41.617084
1822.000000	41.645770
1821.000000	41.618445
1820.000000	41.569048
1819.000000	41.517705
1818.000000	41.488630
1817.000000	41.491937
1816.000000	41.496118
1815.000000	41.471516
1814.000000	41.460917
1813.000000	41.455180
1812.000000	41.442442
1811.000000	41.387890
1810.000000	41.329935
1809.000000	41.308154
1808.000000	41.285400
1807.000000	41.257686
1806.000000	41.214220
1805.000000	41.164920
1804.000000	41.136331
1803.000000	41.122426
1802.000000	41.110466
1801.000000	41.071667
1800.000000	41.000390
1799.000000	40.955368
1798.000000	40.928530
1797.000000	40.903151
1796.000000	40.891871
1795.000000	40.853753
1794.000000	40.808342
1793.000000	40.770613
1792.000000	40.741928
1791.000000	40.713825
1790.000000	40.677361
1789.000000	40.648091
1788.000000	40.642743
1787.000000	40.610168
1786.000000	40.574578
1785.000000	40.547740
1784.000000	40.489494
1783.000000	40.446514
1782.000000	40.412480
1781.000000	40.362790
1780.000000	40.308336
1779.000000	40.237838
1778.000000	40.163838
1777.000000	40.096451
1776.000000	39.992891
1775.000000	39.909265
1774.000000	39.835752
1773.000000	39.764573
1772.000000	39.663249
1771.000000	39.550743
1770.000000	39.467214
1769.000000	39.362584
1768.000000	39.293350
1767.000000	39.223434
1766.000000	39.155464
1765.000000	39.083993
1764.000000	39.051515
1763.000000	39.037707
1762.000000	39.026913
1761.000000	39.022246
1760.000000	39.031289
1759.000000	39.022440
1758.000000	39.029052
1757.000000	39.024093
1756.000000	39.013883
1755.000000	38.991518
1754.000000	38.969444
1753.000000	38.931715
1752.000000	38.895348
1751.000000	38.848089
1750.000000	38.800053
1749.000000	38.729165
1748.000000	38.633482
1747.000000	38.542174
1746.000000	38.426361
1745.000000	38.311619
1744.000000	38.168288
1743.000000	38.025540
1742.000000	37.875791
1741.000000	37.725167
1740.000000	37.558790
1739.000000	37.416431
1738.000000	37.293326
1737.000000	37.189377
1736.000000	37.111390
1735.000000	37.045462
1734.000000	37.034085
1733.000000	37.026695
1732.000000	37.025139
1731.000000	37.020180
1730.000000	37.050713
1729.000000	37.078718
1728.000000	37.109154
1727.000000	37.124810
1726.000000	37.130449
1725.000000	37.166525
1724.000000	37.179361
1723.000000	37.215729
1722.000000	37.272127
1721.000000	37.355851
1720.000000	37.461939
1719.000000	37.572890
1718.000000	37.696384
1717.000000	37.842827
1716.000000	37.971377
1715.000000	38.107318
1714.000000	38.228479
1713.000000	38.337582
1712.000000	38.420235
1711.000000	38.488011
1710.000000	38.536048
1709.000000	38.571443
1708.000000	38.587682
1707.000000	38.608199
1706.000000	38.588363
1705.000000	38.567456
1704.000000	38.535172
1703.000000	38.455144
1702.000000	38.387660
1701.000000	38.299561
1700.000000	38.184915
1699.000000	38.110624
1698.000000	38.016010
1697.000000	37.957861
1696.000000	37.946970
1695.000000	37.946290
1694.000000	37.941914
1693.000000	37.962042
1692.000000	37.993062
1691.000000	38.031958
1690.000000	38.071631
1689.000000	38.104596
1688.000000	38.161675
1687.000000	38.230910
1686.000000	38.334470
1685.000000	38.496568
1684.000000	38.689200
1683.000000	38.958845
1682.000000	39.283042
1681.000000	39.622019
1680.000000	39.966247
1679.000000	40.334105
1678.000000	40.664428
1677.000000	40.992903
1676.000000	41.292012
1675.000000	41.563019
1674.000000	41.802131
1673.000000	42.036284
1672.000000	42.257504
1671.000000	42.474543
1670.000000	42.650838
1669.000000	42.849985
1668.000000	43.007999
1667.000000	43.162804
1666.000000	43.289994
1665.000000	43.415238
1664.000000	43.530953
1663.000000	43.646571
1662.000000	43.753340
1661.000000	43.854858
1660.000000	43.914758
1659.000000	43.995078
1658.000000	44.050991
1657.000000	44.099319
1656.000000	44.149300
1655.000000	44.147841
1654.000000	44.183042
1653.000000	44.190238
1652.000000	44.206574
1651.000000	44.204046
1650.000000	44.185668
1649.000000	44.172346
1648.000000	44.156204
1647.000000	44.131019
1646.000000	44.104278
1645.000000	44.069563
1644.000000	44.034265
1643.000000	44.006844
1642.000000	43.972227
1641.000000	43.956766
1640.000000	43.938096
1639.000000	43.899880
1638.000000	43.874501
1637.000000	43.833952
1636.000000	43.793792
1635.000000	43.762773
1634.000000	43.716973
1633.000000	43.659699
1632.000000	43.606703
1631.000000	43.563529
1630.000000	43.501004
1629.000000	43.438576
1628.000000	43.400069
1627.000000	43.339489
1626.000000	43.277839
1625.000000	43.206270
1624.000000	43.161540
1623.000000	43.111851
1622.000000	43.067218
1621.000000	43.012375
1620.000000	42.958115
1619.000000	42.922234
1618.000000	42.864084
1617.000000	42.822660
1616.000000	42.780944
1615.000000	42.732033
1614.000000	42.682830
1613.000000	42.634988
1612.000000	42.567893
1611.000000	42.508576
1610.000000	42.459957
1609.000000	42.401710
1608.000000	42.340741
1607.000000	42.271312
1606.000000	42.206842
1605.000000	42.144706
1604.000000	42.070318
1603.000000	41.996513
1602.000000	41.930779
1601.000000	41.856293
1600.000000	41.776557
1599.000000	41.701488
1598.000000	41.638866
1597.000000	41.588982
1596.000000	41.532096
1595.000000	41.472002
1594.000000	41.398878
1593.000000	41.353370
1592.000000	41.310974
1591.000000	41.257881
1590.000000	41.216651
1589.000000	41.187382
1588.000000	41.146055
1587.000000	41.100936
1586.000000	41.054553
1585.000000	41.011281
1584.000000	40.979289
1583.000000	40.938254
1582.000000	40.907429
1581.000000	40.881758
1580.000000	40.848697
1579.000000	40.829346
1578.000000	40.827790
1577.000000	40.830221
1576.000000	40.825554
1575.000000	40.824387
1574.000000	40.822734
1573.000000	40.827207
1572.000000	40.845779
1571.000000	40.867172
1570.000000	40.895274
1569.000000	40.928725
1568.000000	40.955174
1567.000000	40.976469
1566.000000	41.002627
1565.000000	41.021880
1564.000000	41.056011
1563.000000	41.074973
1562.000000	41.074876
1561.000000	41.091407
1560.000000	41.096074
1559.000000	41.088198
1558.000000	41.080710
1557.000000	41.056498
1556.000000	41.015074
1555.000000	40.978414
1554.000000	40.945742
1553.000000	40.904804
1552.000000	40.857934
1551.000000	40.804258
1550.000000	40.741052
1549.000000	40.677652
1548.000000	40.621934
1547.000000	40.575940
1546.000000	40.536558
1545.000000	40.487452
1544.000000	40.442527
1543.000000	40.419287
1542.000000	40.392157
1541.000000	40.368333
1540.000000	40.359582
1539.000000	40.319130
1538.000000	40.291708
1537.000000	40.277900
1536.000000	40.255827
1535.000000	40.235796
1534.000000	40.196608
1533.000000	40.163060
1532.000000	40.136611
1531.000000	40.106272
1530.000000	40.078073
1529.000000	40.041025
1528.000000	39.993961
1527.000000	39.960996
1526.000000	39.923851
1525.000000	39.881357
1524.000000	39.839253
1523.000000	39.799871
1522.000000	39.758349
1521.000000	39.705256
1520.000000	39.661888
1519.000000	39.624159
1518.000000	39.563384
1517.000000	39.514959
1516.000000	39.474701
1515.000000	39.427443
1514.000000	39.377559
1513.000000	39.336621
1512.000000	39.285473
1511.000000	39.238798
1510.000000	39.198249
1509.000000	39.152060
1508.000000	39.099551
1507.000000	39.054432
1506.000000	39.013397
1505.000000	38.983058
1504.000000	38.929479
1503.000000	38.882415
1502.000000	38.845269
1501.000000	38.826308
1500.000000	38.797525
1499.000000	38.778077
1498.000000	38.760282
1497.000000	38.772340
1496.000000	38.767672
1495.000000	38.769131
1494.000000	38.766019
1493.000000	38.786051
1492.000000	38.799761
1491.000000	38.818820
1490.000000	38.835059
1489.000000	38.870552
1488.000000	38.898460
1487.000000	38.923839
1486.000000	38.942801
1485.000000	38.951455
1484.000000	39.004645
1483.000000	39.043638
1482.000000	39.087980
1481.000000	39.135821
1480.000000	39.176856
1479.000000	39.203014
1478.000000	39.252120
1477.000000	39.288779
1476.000000	39.354416
1475.000000	39.402452
1474.000000	39.474021
1473.000000	39.548312
1472.000000	39.627854
1471.000000	39.694949
1470.000000	39.742305
1469.000000	39.787327
1468.000000	39.871050
1467.000000	39.955357
1466.000000	40.002518
1465.000000	40.087116
1464.000000	40.161991
1463.000000	40.226850
1462.000000	40.314657
1461.000000	40.388851
1460.000000	40.470726
1459.000000	40.564076
1458.000000	40.689613
1457.000000	40.767210
1456.000000	40.876799
1455.000000	40.957897
1454.000000	41.050372
1453.000000	41.178242
1452.000000	41.311460
1451.000000	41.420757
1450.000000	41.495923
1449.000000	41.564866
1448.000000	41.677372
1447.000000	41.801450
1446.000000	41.943225
1445.000000	42.019947
1444.000000	42.110283
1443.000000	42.225415
1442.000000	42.349103
1441.000000	42.461415
1440.000000	42.603288
1439.000000	42.696152
1438.000000	42.837343
1437.000000	42.912801
1436.000000	43.047673
1435.000000	43.182836
1434.000000	43.327334
1433.000000	43.486612
1432.000000	43.608064
1431.000000	43.711916
1430.000000	43.885003
1429.000000	44.062854
1428.000000	44.212408
1427.000000	44.389384
1426.000000	44.576182
1425.000000	44.783788
1424.000000	44.993826
1423.000000	45.130156
1422.000000	45.326774
1421.000000	45.597781
1420.000000	45.826586
1419.000000	46.041193
1418.000000	46.178107
1417.000000	46.333593
1416.000000	46.619477
1415.000000	46.861604
1414.000000	47.034593
1413.000000	47.200386
1412.000000	47.374251
1411.000000	47.667331
1410.000000	47.913833
1409.000000	48.141277
1408.000000	48.355690
1407.000000	48.561449
1406.000000	48.774404
1405.000000	48.931057
1404.000000	49.039381
1403.000000	49.221608
1402.000000	49.453233
1401.000000	49.610372
1400.000000	49.600357
1399.000000	49.565350
1398.000000	49.627486
1397.000000	49.733867
1396.000000	49.794350
1395.000000	49.640614
1394.000000	49.582562
1393.000000	49.560975
1392.000000	49.490962
1391.000000	49.418130
1390.000000	49.442926
1389.000000	49.514494
1388.000000	49.536470
1387.000000	49.578186
1386.000000	49.711015
1385.000000	49.929513
1384.000000	50.098515
1383.000000	50.355616
1382.000000	50.617872
1381.000000	50.884503
1380.000000	51.196933
1379.000000	51.600283
1378.000000	52.055267
1377.000000	52.609533
1376.000000	53.175370
1375.000000	53.754723
1374.000000	54.337091
1373.000000	54.926655
1372.000000	55.475670
1371.000000	55.893703
1370.000000	56.221400
1369.000000	56.556488
1368.000000	56.808144
1367.000000	56.996399
1366.000000	57.188739
1365.000000	57.367952
1364.000000	57.525869
1363.000000	57.710041
1362.000000	57.811170
1361.000000	57.858137
1360.000000	57.882349
1359.000000	57.940693
1358.000000	58.035599
1357.000000	58.180875
1356.000000	58.373604
1355.000000	58.568666
1354.000000	58.745253
1353.000000	58.935454
1352.000000	59.229020
1351.000000	59.479023
1350.000000	59.733305
1349.000000	59.990115
1348.000000	60.224462
1347.000000	60.421178
1346.000000	60.580067
1345.000000	60.807122
1344.000000	61.003934
1343.000000	61.175562
1342.000000	61.341939
1341.000000	61.512497
1340.000000	61.667303
1339.000000	61.831930
1338.000000	61.981873
1337.000000	62.124621
1336.000000	62.254241
1335.000000	62.376957
1334.000000	62.484991
1333.000000	62.604887
1332.000000	62.712628
1331.000000	62.799561
1330.000000	62.896703
1329.000000	62.987719
1328.000000	63.064830
1327.000000	63.135426
1326.000000	63.215357
1325.000000	63.284786
1324.000000	63.349353
1323.000000	63.413142
1322.000000	63.472556
1321.000000	63.525649
1320.000000	63.573296
1319.000000	63.623861
1318.000000	63.669952
1317.000000	63.722948
1316.000000	63.775457
1315.000000	63.816784
1314.000000	63.855971
1313.000000	63.896229
1312.000000	63.933958
1311.000000	63.971492
1310.000000	64.012624
1309.000000	64.042283
1308.000000	64.071357
1307.000000	64.083026
1306.000000	64.098098
1305.000000	64.118032
1304.000000	64.130673
1303.000000	64.154691
1302.000000	64.167527
1301.000000	64.170250
1300.000000	64.172000
1299.000000	64.174528
1298.000000	64.180654
1297.000000	64.177932
1296.000000	64.161790
1295.000000	64.154400
1294.000000	64.136605
1293.000000	64.123867
1292.000000	64.107141
1291.000000	64.086721
1290.000000	64.072621
1289.000000	64.037323
1288.000000	64.005137
1287.000000	63.972562
1286.000000	63.940959
1285.000000	63.914510
1284.000000	63.878142
1283.000000	63.840316
1282.000000	63.804921
1281.000000	63.771568
1280.000000	63.743757
1279.000000	63.722753
1278.000000	63.690859
1277.000000	63.668299
1276.000000	63.656144
1275.000000	63.650018
1274.000000	63.642628
1273.000000	63.643503
1272.000000	63.631348
1271.000000	63.630181
1270.000000	63.631640
1269.000000	63.610344
1268.000000	63.614720
1267.000000	63.621624
1266.000000	63.620749
1265.000000	63.605580
1264.000000	63.583020
1263.000000	63.571837
1262.000000	63.559877
1261.000000	63.544027
1260.000000	63.514369
1259.000000	63.469930
1258.000000	63.445815
1257.000000	63.422477
1256.000000	63.401182
1255.000000	63.360341
1254.000000	63.320765
1253.000000	63.272534
1252.000000	63.229651
1251.000000	63.183365
1250.000000	63.119673
1249.000000	63.064830
1248.000000	62.998027
1247.000000	62.935113
1246.000000	62.875796
1245.000000	62.792268
1244.000000	62.744037
1243.000000	62.687541
1242.000000	62.625210
1241.000000	62.574937
1240.000000	62.535458
1239.000000	62.488588
1238.000000	62.457472
1237.000000	62.411283
1236.000000	62.361205
1235.000000	62.330671
1234.000000	62.287011
1233.000000	62.242670
1232.000000	62.190841
1231.000000	62.126274
1230.000000	62.079890
1229.000000	62.014545
1228.000000	61.938310
1227.000000	61.867130
1226.000000	61.809467
1225.000000	61.756472
1224.000000	61.700073
1223.000000	61.615571
1222.000000	61.548476
1221.000000	61.474088
1220.000000	61.417300
1219.000000	61.364888
1218.000000	61.304016
1217.000000	61.231378
1216.000000	61.162143
1215.000000	61.100493
1214.000000	61.037482
1213.000000	60.989057
1212.000000	60.921475
1211.000000	60.833960
1210.000000	60.765600
1209.000000	60.688295
1208.000000	60.637147
1207.000000	60.577344
1206.000000	60.503637
1205.000000	60.463574
1204.000000	60.403091
1203.000000	60.359139
1202.000000	60.314117
1201.000000	60.260927
1200.000000	60.172050
1199.000000	60.097370
1198.000000	60.036303
1197.000000	59.946454
1196.000000	59.823057
1195.000000	59.696159
1194.000000	59.523559
1193.000000	59.353390
1192.000000	59.200043
1191.000000	59.022192
1190.000000	58.890140
1189.000000	58.752060
1188.000000	58.675435
1187.000000	58.662600
1186.000000	58.683895
1185.000000	58.741558
1184.000000	58.848716
1183.000000	59.018399
1182.000000	59.205877
1181.000000	59.388299
1180.000000	59.601934
1179.000000	59.781730
1178.000000	59.952191
1177.000000	60.115359
1176.000000	60.251786
1175.000000	60.423220
1174.000000	60.552840
1173.000000	60.705798
1172.000000	60.848448
1171.000000	61.042636
1170.000000	61.222043
1169.000000	61.389198
1168.000000	61.570355
1167.000000	61.763667
1166.000000	61.935879
1165.000000	62.147569
1164.000000	62.341757
1163.000000	62.540612
1162.000000	62.714476
1161.000000	62.937057
1160.000000	63.092252
1159.000000	63.246474
1158.000000	63.406141
1157.000000	63.534206
1156.000000	63.665285
1155.000000	63.759121
1154.000000	63.815617
1153.000000	63.901480
1152.000000	63.918691
1151.000000	63.986661
1150.000000	63.995413
1149.000000	64.036740
1148.000000	64.073302
1147.000000	64.131257
1146.000000	64.197477
1145.000000	64.248430
1144.000000	64.348490
1143.000000	64.436881
1142.000000	64.571947
1141.000000	64.710513
1140.000000	64.841884
1139.000000	64.969754
1138.000000	65.138853
1137.000000	65.318649
1136.000000	65.486971
1135.000000	65.659280
1134.000000	65.768091
1133.000000	65.860954
1132.000000	66.001077
1131.000000	66.117861
1130.000000	66.236299
1129.000000	66.309618
1128.000000	66.375838
1127.000000	66.426597
1126.000000	66.492039
1125.000000	66.519266
1124.000000	66.594627
1123.000000	66.594433
1122.000000	66.609894
1121.000000	66.605810
1120.000000	66.602795
1119.000000	66.610672
1118.000000	66.624285
1117.000000	66.606977
1116.000000	66.590251
1115.000000	66.579458
1114.000000	66.572748
1113.000000	66.552036
1112.000000	66.538812
1111.000000	66.535019
1110.000000	66.534241
1109.000000	66.514793
1108.000000	66.507306
1107.000000	66.481051
1106.000000	66.465882
1105.000000	66.464812
1104.000000	66.455964
1103.000000	66.440211
1102.000000	66.443420
1101.000000	66.411136
1100.000000	66.405010
1099.000000	66.399759
1098.000000	66.361641
1097.000000	66.364072
1096.000000	66.334997
1095.000000	66.325857
1094.000000	66.301936
1093.000000	66.268388
1092.000000	66.256817
1091.000000	66.220546
1090.000000	66.207030
1089.000000	66.194972
1088.000000	66.191375
1087.000000	66.147131
1086.000000	66.122043
1085.000000	66.097247
1084.000000	66.082272
1083.000000	66.053294
1082.000000	66.032777
1081.000000	66.013718
1080.000000	65.988436
1079.000000	65.973461
1078.000000	65.940983
1077.000000	65.923771
1076.000000	65.901503
1075.000000	65.864844
1074.000000	65.856870
1073.000000	65.842284
1072.000000	65.808348
1071.000000	65.787539
1070.000000	65.768480
1069.000000	65.738530
1068.000000	65.703329
1067.000000	65.665406
1066.000000	65.641971
1065.000000	65.622426
1064.000000	65.595199
1063.000000	65.580710
1062.000000	65.557664
1061.000000	65.519935
1060.000000	65.484443
1059.000000	65.461105
1058.000000	65.430767
1057.000000	65.403151
1056.000000	65.378549
1055.000000	65.366977
1054.000000	65.337806
1053.000000	65.318941
1052.000000	65.292978
1051.000000	65.269446
1050.000000	65.249609
1049.000000	65.221993
1048.000000	65.196419
1047.000000	65.173665
1046.000000	65.162774
1045.000000	65.143910
1044.000000	65.116488
1043.000000	65.097818
1042.000000	65.074189
1041.000000	65.040544
1040.000000	65.027806
1039.000000	65.019054
1038.000000	64.987549
1037.000000	64.966350
1036.000000	64.945347
1035.000000	64.933581
1034.000000	64.931150
1033.000000	64.907618
1032.000000	64.880488
1031.000000	64.857636
1030.000000	64.836341
1029.000000	64.830798
1028.000000	64.818935
1027.000000	64.792486
1026.000000	64.765356
1025.000000	64.749506
1024.000000	64.736184
1023.000000	64.718098
1022.000000	64.707499
1021.000000	64.696316
1020.000000	64.682313
1019.000000	64.667825
1018.000000	64.658879
1017.000000	64.650224
1016.000000	64.654600
1015.000000	64.676771
1014.000000	64.686203
1013.000000	64.691260
1012.000000	64.704387
1011.000000	64.726266
1010.000000	64.734045
1009.000000	64.757771
1008.000000	64.801821
1007.000000	64.827881
1006.000000	64.850927
1005.000000	64.878835
1004.000000	64.901200
1003.000000	64.931636
1002.000000	64.968976
1001.000000	64.987257
1000.000000	65.001162
999.000000	65.029167
998.000000	65.049685
997.000000	65.070105
996.000000	65.104917
995.000000	65.128254
994.000000	65.147605
993.000000	65.176582
992.000000	65.197683
991.000000	65.224230
990.000000	65.257388
989.000000	65.277225
988.000000	65.293659
987.000000	65.315732
986.000000	65.352003
985.000000	65.384481
984.000000	65.403734
983.000000	65.420556
982.000000	65.462564
981.000000	65.503307
980.000000	65.522075
979.000000	65.552705
978.000000	65.610174
977.000000	65.646347
976.000000	65.658404
975.000000	65.697398
974.000000	65.738530
973.000000	65.752435
972.000000	65.770327
971.000000	65.797554
970.000000	65.824101
969.000000	65.835575
968.000000	65.866983
967.000000	65.887306
966.000000	65.897030
965.000000	65.929995
964.000000	65.935732
963.000000	65.930286
962.000000	65.948762
961.000000	65.966751
960.000000	66.001466
959.000000	66.013815
958.000000	66.041528
957.000000	66.066325
956.000000	66.083147
955.000000	66.108624
954.000000	66.153743
953.000000	66.176691
952.000000	66.178733
951.000000	66.210239
950.000000	66.227062
949.000000	66.245148
948.000000	66.263624
947.000000	66.279474
946.000000	66.312730
945.000000	66.317494
944.000000	66.329941
943.000000	66.355223
942.000000	66.366114
941.000000	66.392174
940.000000	66.421346
939.000000	66.433696
938.000000	66.457228
937.000000	66.500985
936.000000	66.504000
935.000000	66.531519
934.000000	66.560399
933.000000	66.564969
932.000000	66.569053
931.000000	66.578194
930.000000	66.573332
929.000000	66.585778
928.000000	66.595502
927.000000	66.620882
926.000000	66.626425
925.000000	66.628564
924.000000	66.644997
923.000000	66.683310
922.000000	66.644706
921.000000	66.644025
920.000000	66.645678
919.000000	66.649179
918.000000	66.666098
917.000000	66.667946
916.000000	66.677670
915.000000	66.655402
914.000000	66.661042
913.000000	66.625938
912.000000	66.633620
911.000000	66.639357
910.000000	66.644511
909.000000	66.637121
908.000000	66.599975
907.000000	66.630217
906.000000	66.595891
905.000000	66.622146
904.000000	66.624771
903.000000	66.641010
902.000000	66.659972
901.000000	66.663765
900.000000	66.666098
899.000000	66.687880
898.000000	66.681462
897.000000	66.700327
896.000000	66.712093
895.000000	66.721817
894.000000	66.720455
893.000000	66.725901
892.000000	66.716079
891.000000	66.707133
890.000000	66.686130
889.000000	66.713551
888.000000	66.666973
887.000000	66.668432
886.000000	66.645775
885.000000	66.616409
884.000000	66.612519
883.000000	66.559524
882.000000	66.554078
881.000000	66.522962
880.000000	66.513043
879.000000	66.473953
878.000000	66.456450
877.000000	66.421152
876.000000	66.374866
875.000000	66.365531
874.000000	66.365045
873.000000	66.322065
872.000000	66.282002
871.000000	66.263624
870.000000	66.257206
869.000000	66.207419
868.000000	66.183109
867.000000	66.138282
866.000000	66.102303
865.000000	66.033749
864.000000	65.942927
863.000000	65.826143
862.000000	65.689132
861.000000	65.512642
860.000000	65.389440
859.000000	65.292978
858.000000	64.902367
857.000000	64.821300
856.000000	64.908400
855.000000	64.977400
854.000000	64.854500
853.000000	64.480400
852.000000	64.369700
851.000000	64.657200
850.000000	64.382600
849.000000	64.134200
848.000000	64.250700
847.000000	64.096100
846.000000	64.013400
845.000000	63.790900
844.000000	63.599600
843.000000	63.638600
842.000000	63.562600
841.000000	63.258000
840.000000	63.275900
839.000000	63.059400
838.000000	62.973800
837.000000	62.959900
836.000000	62.819300
835.000000	62.743700
834.000000	62.468500
833.000000	62.377800
832.000000	62.237800
831.000000	61.937300
830.000000	61.854600
829.000000	61.713900
828.000000	61.576900
827.000000	61.422200
826.000000	61.301300
825.000000	61.257700
824.000000	60.987000
823.000000	60.923600
822.000000	60.735200
821.000000	60.654400
820.000000	60.433800
819.000000	60.361300
818.000000	60.140700
817.000000	60.074700
816.000000	59.955200
815.000000	59.849700
814.000000	59.846500
813.000000	59.778400
812.000000	59.647400
811.000000	59.490200
810.000000	59.339500
809.000000	59.337300
808.000000	59.274600
807.000000	59.163100
806.000000	59.041700
805.000000	58.827000
804.000000	58.721700
803.000000	58.671200
802.000000	58.504500
801.000000	58.328900
800.000000	58.239800
799.000000	58.126700
798.000000	58.013600
797.000000	57.902200
796.000000	57.874200
795.000000	57.738200
794.000000	57.652000
793.000000	57.582800
792.000000	57.402900
791.000000	57.212600
790.000000	57.076100
789.000000	57.014200
788.000000	56.894200
787.000000	56.848100
786.000000	56.734000
785.000000	56.603600
784.000000	56.427100
783.000000	56.235100
782.000000	56.145900
781.000000	56.026100
780.000000	55.954800
779.000000	55.702600
778.000000	55.522900
777.000000	55.432400
776.000000	55.279100
775.000000	55.142000
774.000000	54.997700
773.000000	54.859200
772.000000	54.627100
771.000000	54.392100
770.000000	54.282800
769.000000	54.188000
768.000000	54.002700
767.000000	53.782600
766.000000	53.632300
765.000000	53.503200
764.000000	53.351700
763.000000	53.223000
762.000000	53.072900
761.000000	52.876000
760.000000	52.705000
759.000000	52.551200
758.000000	52.407300
757.000000	52.270300
756.000000	52.133800
755.000000	52.020000
754.000000	51.873500
753.000000	51.726200
752.000000	51.544100
751.000000	51.346300
750.000000	51.196900
749.000000	51.032600
748.000000	50.819600
747.000000	50.603500
746.000000	50.425700
745.000000	50.241800
744.000000	50.055900
743.000000	49.884200
742.000000	49.645400
741.000000	49.359300
740.000000	49.137100
739.000000	48.896500
738.000000	48.633500
737.000000	48.396000
736.000000	48.125200
735.000000	47.894000
734.000000	47.684400
733.000000	47.469200
732.000000	47.296300
731.000000	47.073800
730.000000	46.819500
729.000000	46.618800
728.000000	46.442500
727.000000	46.264100
726.000000	46.092200
725.000000	45.915500
724.000000	45.742100
723.000000	45.517700
722.000000	45.317900
721.000000	45.157700
720.000000	45.005200
719.000000	44.851700
718.000000	44.703400
717.000000	44.517000
716.000000	44.322100
715.000000	44.148900
714.000000	43.928500
713.000000	43.782800
712.000000	43.632800
711.000000	43.453200
710.000000	43.295200
709.000000	43.155800
708.000000	42.998700
707.000000	42.844300
706.000000	42.737500
705.000000	42.635200
704.000000	42.595700
703.000000	42.525600
702.000000	42.427800
701.000000	42.396800
700.000000	42.379400
699.000000	42.323900
698.000000	42.300500
697.000000	42.278500
696.000000	42.185900
695.000000	42.124000
694.000000	42.060600
693.000000	41.976100
692.000000	41.898200
691.000000	41.834900
690.000000	41.695400
689.000000	41.615200
688.000000	41.527200
687.000000	41.378100
686.000000	41.266300
685.000000	41.143500
684.000000	41.024300
683.000000	40.896200
682.000000	40.800800
681.000000	40.680600
680.000000	40.522000
679.000000	40.383700
678.000000	40.263300
677.000000	40.175200
676.000000	40.023100
675.000000	39.861500
674.000000	39.733600
673.000000	39.547400
672.000000	39.385500
671.000000	39.176000
670.000000	38.936500
669.000000	38.671500
668.000000	38.417700
667.000000	38.132800
666.000000	37.843100
665.000000	37.553000
664.000000	37.256700
663.000000	36.904300
662.000000	36.597900
661.000000	36.306300
660.000000	36.044700
659.000000	35.793800
658.000000	35.574300
657.000000	35.386500
656.000000	35.276000
655.000000	35.201700
654.000000	35.197700
653.000000	35.284800
652.000000	35.368800
651.000000	35.556900
650.000000	35.831500
649.000000	36.147600
648.000000	36.495800
647.000000	36.919000
646.000000	37.338300
645.000000	37.807200
644.000000	38.277100
643.000000	38.793000
642.000000	39.293000
641.000000	39.779200
640.000000	40.249700
639.000000	40.679700
638.000000	41.146200
637.000000	41.581600
636.000000	42.009400
635.000000	42.409000
634.000000	42.868300
633.000000	43.292200
632.000000	43.764600
631.000000	44.191800
630.000000	44.638200
629.000000	45.123500
628.000000	45.617600
627.000000	46.101000
626.000000	46.604700
625.000000	47.079400
624.000000	47.591200
623.000000	48.081300
622.000000	48.592200
621.000000	49.058200
620.000000	49.480200
619.000000	49.862000
618.000000	50.242100
617.000000	50.488900
616.000000	50.755200
615.000000	50.919300
614.000000	51.146200
613.000000	51.258800
612.000000	51.373400
611.000000	51.465900
610.000000	51.542600
609.000000	51.608200
608.000000	51.695200
607.000000	51.780500
606.000000	51.947500
605.000000	52.056200
604.000000	52.214900
603.000000	52.370100
602.000000	52.621000
601.000000	52.833300
600.000000	53.095000
599.000000	53.359300
598.000000	53.623100
597.000000	53.846800
596.000000	54.079200
595.000000	54.303700
594.000000	54.511500
593.000000	54.672900
592.000000	54.785900
591.000000	54.875100
590.000000	54.926600
589.000000	54.962300
588.000000	54.924300
587.000000	54.821500
586.000000	54.783200
585.000000	54.701000
584.000000	54.616900
583.000000	54.400700
582.000000	54.278600
581.000000	54.183600
580.000000	54.087000
579.000000	54.044200
578.000000	54.018300
577.000000	53.986700
576.000000	53.968100
575.000000	53.949100
574.000000	53.919400
573.000000	53.873700
572.000000	53.847400
571.000000	53.775200
570.000000	53.706100
569.000000	53.595200
568.000000	53.467800
567.000000	53.301000
566.000000	53.128000
565.000000	52.877600
564.000000	52.630900
563.000000	52.342000
562.000000	52.069300
561.000000	51.731900
560.000000	51.384500
559.000000	50.926600
558.000000	50.580500
557.000000	50.181800
556.000000	49.765400
555.000000	49.343600
554.000000	48.857400
553.000000	48.350200
552.000000	47.793800
551.000000	47.181000
550.000000	46.525300
549.000000	45.800400
548.000000	45.071000
547.000000	44.307200
546.000000	43.514700
545.000000	42.657200
544.000000	41.774000
543.000000	40.904000
542.000000	40.007800
541.000000	39.134800
540.000000	38.237900
539.000000	37.377600
538.000000	36.573800
537.000000	35.771400
536.000000	34.997500
535.000000	34.272700
534.000000	33.553000
533.000000	32.899500
532.000000	32.270800
531.000000	31.688600
530.000000	31.107900
529.000000	30.594800
528.000000	30.098200
527.000000	29.653200
526.000000	29.215200
525.000000	28.788500
524.000000	28.379400
523.000000	27.980900
522.000000	27.579600
521.000000	27.200100
520.000000	26.802300
519.000000	26.397500
518.000000	26.017900
517.000000	25.648900
516.000000	25.282100
515.000000	24.916500
514.000000	24.520600
513.000000	24.113200
512.000000	23.721800
511.000000	23.325800
510.000000	22.930400
509.000000	22.540600
508.000000	22.158000
507.000000	21.775700
506.000000	21.365700
505.000000	20.957200
504.000000	20.552800
503.000000	20.135500
502.000000	19.728700
501.000000	19.311000
500.000000	18.907200
499.000000	18.504700
498.000000	18.114600
497.000000	17.747700
496.000000	17.393600
495.000000	17.079300
494.000000	16.783900
493.000000	16.510200
492.000000	16.270100
491.000000	16.075300
490.000000	15.901500
489.000000	15.778600
488.000000	15.673600
487.000000	15.603600
486.000000	15.551700
485.000000	15.518100
484.000000	15.516800
483.000000	15.536200
482.000000	15.557900
481.000000	15.583300
480.000000	15.616500
479.000000	15.643500
478.000000	15.674500
477.000000	15.684400
476.000000	15.686600
475.000000	15.689800
474.000000	15.690500
473.000000	15.686500
472.000000	15.658100
471.000000	15.611300
470.000000	15.575100
469.000000	15.529500
468.000000	15.472900
467.000000	15.417100
466.000000	15.346500
465.000000	15.265700
464.000000	15.178100
463.000000	15.081400
462.000000	14.992600
461.000000	14.884900
460.000000	14.779200
459.000000	14.681000
458.000000	14.564000
457.000000	14.440100
456.000000	14.312300
455.000000	14.175400
454.000000	14.031500
453.000000	13.889100
452.000000	13.740500
451.000000	13.576600
450.000000	13.408900
449.000000	13.261600
448.000000	13.093700
447.000000	12.907500
446.000000	12.727000
445.000000	12.537700
444.000000	12.356200
443.000000	12.156700
442.000000	11.944500
441.000000	11.741500
440.000000	11.548800
439.000000	11.339100
438.000000	11.124700
437.000000	10.921600
436.000000	10.722100
435.000000	10.525100
434.000000	10.314100
433.000000	10.099700
432.000000	9.903700
431.000000	9.709700
430.000000	9.503000
429.000000	9.306900
428.000000	9.113400
427.000000	8.922600
426.000000	8.737100
425.000000	8.559500
424.000000	8.377900
423.000000	8.201800
422.000000	8.028300
421.000000	7.845600
420.000000	7.673900
419.000000	7.511800
418.000000	7.366300
417.000000	7.213000
416.000000	7.067400
415.000000	6.933100
414.000000	6.782000
413.000000	6.649300
412.000000	6.533600
411.000000	6.408800
410.000000	6.284300
409.000000	6.184400
408.000000	6.095300
407.000000	5.997200
406.000000	5.899900
405.000000	5.809900
404.000000	5.729600
403.000000	5.654800
402.000000	5.588800
401.000000	5.517300
400.000000	5.443500
399.000000	5.405300
398.000000	5.354500
397.000000	5.312500
396.000000	5.279000
395.000000	5.235700
394.000000	5.182200
393.000000	5.156600
392.000000	5.136400
391.000000	5.100800
390.000000	5.066000
389.000000	5.042600
388.000000	5.018200
387.000000	4.995900
386.000000	4.959700
385.000000	4.945400
384.000000	4.943100
383.000000	4.927000
382.000000	4.905800
381.000000	4.902500
380.000000	4.878900
379.000000	4.864800
378.000000	4.848600
377.000000	4.840600
376.000000	4.960900
375.000000	4.789900
374.000000	4.702600
373.000000	4.694900
372.000000	4.854100
371.000000	4.886100
370.000000	4.849400
369.000000	4.803400
368.000000	4.804400
367.000000	4.895000
366.000000	4.907000
365.000000	4.781400
364.000000	4.880800
363.000000	4.874300
362.000000	4.919200
361.000000	4.868300
360.000000	4.814400
359.000000	4.844300
358.000000	4.921100
357.000000	4.865300
356.000000	4.882500
355.000000	4.810000
354.000000	4.859400
353.000000	4.854100
352.000000	5.000100
351.000000	4.905500
350.000000	4.851400
349.000000	4.870700
348.000000	4.960300
347.000000	4.923500
346.000000	4.887500
345.000000	4.935300
344.000000	4.887200
343.000000	4.762100
342.000000	4.774900
341.000000	4.811900
340.000000	4.967300
339.000000	4.799200
338.000000	4.810100
337.000000	4.978300
336.000000	4.910000
335.000000	4.938200
334.000000	4.986800
333.000000	4.869800
332.000000	5.033600
331.000000	4.804200
330.000000	4.833400
329.000000	4.854700
328.000000	4.868800
327.000000	5.060400
326.000000	4.936500
325.000000	5.183800
324.000000	4.931900
323.000000	4.927000
322.000000	4.807600
321.000000	4.795000
320.000000	5.272900
319.000000	5.305700
318.000000	5.048700
317.000000	4.834300
316.000000	4.793100
315.000000	4.819100
314.000000	4.886300
313.000000	4.878500
312.000000	4.884900
311.000000	4.774300
310.000000	4.813500
309.000000	4.803100
308.000000	4.870800
307.000000	4.871400
306.000000	4.847700
305.000000	4.906400
304.000000	4.871300
303.000000	4.856800
302.000000	4.896600
301.000000	4.943500
300.000000	4.909300
299.000000	4.906500
298.000000	4.944100
297.000000	4.936500
296.000000	4.910400
295.000000	4.916300
294.000000	4.936300
293.000000	4.948400
292.000000	4.940900
291.000000	4.887300
290.000000	4.966300
289.000000	5.018800
288.000000	5.015100
287.000000	5.038400
286.000000	5.088400
285.000000	5.067300
284.000000	5.023000
283.000000	5.039300
282.000000	5.061000
281.000000	5.071000
280.000000	5.139200
279.000000	5.151400
278.000000	5.181200
277.000000	5.075100
276.000000	5.149700
275.000000	5.174400
274.000000	5.189400
273.000000	5.205500
272.000000	5.229300
271.000000	5.229600
270.000000	5.216000
269.000000	5.225300
268.000000	5.293000
267.000000	5.257200
266.000000	5.291700
265.000000	5.263200
264.000000	5.287900
263.000000	5.313000
262.000000	5.386800
261.000000	5.413300
260.000000	5.414900
259.000000	5.445900
258.000000	5.452800
257.000000	5.480500
256.000000	5.478700
255.000000	5.473600
254.000000	5.509100
253.000000	5.508400
252.000000	5.507300
251.000000	5.509500
250.000000	5.484100
