PE UV       SUBTECH     SPECTRUM    ASCII       PEDS        4.00        
   -1
CICIMAUCR0008-1.Sample.ASC
24/03/08
13:07:07.00
24/03/08
13:07:07.00
Vinicio Soto Monge
C. kalinini
250,000000
1
Lambda 1050
1050L1511233
PerkinElmer UV WinLab 6.3.2.0749 / 2.02.05 Lambda 900 UV/VIS/NIR, Aug  7 2015 09:38:08

0
0
3350/servo 860,8/2
0
0
UV/VIS
1
1
1
DoubleDePol,CommonBeamDepol,RBeamAtt,SBeamAtt,60mm sphere, WB InGaAs Detector
0
0
0
0
Program
Program
3350/servo 860,8/2
3350/0,2 860,8/0,2
3350/0,2 860,8/0,2
0
15.00
 
 
 
0
 
860,8
319,2
860,8
Front
100
on
S:100 R:100
0
0
0
0
 
0
 
 
 
0
 
 
0
0
0
0
0
 
 
 
 
0
0


0
0
#HDR
-1
-1
#GR
nm
%R
1.0
0.0
2500,000000
-1,000000
2251
8
36,165400
2,347300
#DATA
2500.000000	2.471364
2499.000000	2.438869
2498.000000	2.576742
2497.000000	2.519132
2496.000000	2.473721
2495.000000	2.514930
2494.000000	2.559111
2493.000000	2.524565
2492.000000	2.540249
2491.000000	2.429438
2490.000000	2.495351
2489.000000	2.455270
2488.000000	2.448197
2487.000000	2.445634
2486.000000	2.464291
2485.000000	2.504166
2484.000000	2.487047
2483.000000	2.406169
2482.000000	2.451067
2481.000000	2.489610
2480.000000	2.491558
2479.000000	2.468596
2478.000000	2.473721
2477.000000	2.486637
2476.000000	2.455680
2475.000000	2.473106
2474.000000	2.515135
2473.000000	2.497196
2472.000000	2.466546
2471.000000	2.494633
2470.000000	2.496478
2469.000000	2.474952
2468.000000	2.520670
2467.000000	2.518312
2466.000000	2.508779
2465.000000	2.501501
2464.000000	2.524975
2463.000000	2.577767
2462.000000	2.566491
2461.000000	2.590068
2460.000000	2.611185
2459.000000	2.617233
2458.000000	2.645320
2457.000000	2.630456
2456.000000	2.666231
2455.000000	2.678430
2454.000000	2.734092
2453.000000	2.737577
2452.000000	2.726198
2451.000000	2.752748
2450.000000	2.806565
2449.000000	2.831269
2448.000000	2.832602
2447.000000	2.873400
2446.000000	2.911840
2445.000000	2.913788
2444.000000	2.940235
2443.000000	2.986056
2442.000000	2.997947
2441.000000	3.018039
2440.000000	3.044178
2439.000000	3.062527
2438.000000	3.082106
2437.000000	3.109681
2436.000000	3.145148
2435.000000	3.182256
2434.000000	3.195787
2433.000000	3.199785
2432.000000	3.220287
2431.000000	3.232793
2430.000000	3.263340
2429.000000	3.282509
2428.000000	3.305881
2427.000000	3.339708
2426.000000	3.354880
2425.000000	3.369641
2424.000000	3.401111
2423.000000	3.440679
2422.000000	3.481067
2421.000000	3.518482
2420.000000	3.535909
2419.000000	3.541444
2418.000000	3.558665
2417.000000	3.591775
2416.000000	3.611764
2415.000000	3.618428
2414.000000	3.643952
2413.000000	3.679727
2412.000000	3.696641
2411.000000	3.708840
2410.000000	3.731186
2409.000000	3.751278
2408.000000	3.749228
2407.000000	3.767884
2406.000000	3.793921
2405.000000	3.805915
2404.000000	3.823443
2403.000000	3.833489
2402.000000	3.862499
2401.000000	3.861884
2400.000000	3.883616
2399.000000	3.925336
2398.000000	3.927079
2397.000000	3.928309
2396.000000	3.943685
2395.000000	3.981408
2394.000000	4.007445
2393.000000	4.007240
2392.000000	3.991454
2391.000000	4.017286
2390.000000	4.035942
2389.000000	4.042400
2388.000000	4.056341
2387.000000	4.086581
2386.000000	4.096935
2385.000000	4.088529
2384.000000	4.094679
2383.000000	4.112208
2382.000000	4.116001
2381.000000	4.119076
2380.000000	4.108005
2379.000000	4.094064
2378.000000	4.105545
2377.000000	4.119179
2376.000000	4.107595
2375.000000	4.124612
2374.000000	4.129942
2373.000000	4.116411
2372.000000	4.110056
2371.000000	4.102367
2370.000000	4.087709
2369.000000	4.097550
2368.000000	4.102060
2367.000000	4.075715
2366.000000	4.061979
2365.000000	4.050601
2364.000000	4.034610
2363.000000	4.015133
2362.000000	4.005907
2361.000000	3.995144
2360.000000	3.983253
2359.000000	3.963572
2358.000000	3.954244
2357.000000	3.928617
2356.000000	3.902067
2355.000000	3.893456
2354.000000	3.882283
2353.000000	3.877465
2352.000000	3.859629
2351.000000	3.861884
2350.000000	3.879515
2349.000000	3.886383
2348.000000	3.887408
2347.000000	3.889151
2346.000000	3.922056
2345.000000	3.946145
2344.000000	3.952398
2343.000000	3.967672
2342.000000	3.984483
2341.000000	3.984073
2340.000000	3.996784
2339.000000	4.018823
2338.000000	4.044655
2337.000000	4.050703
2336.000000	4.027024
2335.000000	4.021694
2334.000000	4.043323
2333.000000	4.042605
2332.000000	4.028664
2331.000000	4.021386
2330.000000	4.014826
2329.000000	3.991556
2328.000000	3.981818
2327.000000	3.958446
2326.000000	3.932512
2325.000000	3.928924
2324.000000	3.899914
2323.000000	3.862704
2322.000000	3.843022
2321.000000	3.810425
2320.000000	3.761221
2319.000000	3.731186
2318.000000	3.680957
2317.000000	3.635136
2316.000000	3.606229
2315.000000	3.569839
2314.000000	3.532936
2313.000000	3.482605
2312.000000	3.441909
2311.000000	3.420895
2310.000000	3.413617
2309.000000	3.390450
2308.000000	3.367386
2307.000000	3.332123
2306.000000	3.328638
2305.000000	3.330585
2304.000000	3.321975
2303.000000	3.332840
2302.000000	3.346884
2301.000000	3.366668
2300.000000	3.387990
2299.000000	3.405929
2298.000000	3.419255
2297.000000	3.461180
2296.000000	3.481169
2295.000000	3.504439
2294.000000	3.524325
2293.000000	3.534371
2292.000000	3.556410
2291.000000	3.574657
2290.000000	3.578654
2289.000000	3.579372
2288.000000	3.579064
2287.000000	3.579680
2286.000000	3.550772
2285.000000	3.543597
2284.000000	3.520020
2283.000000	3.513767
2282.000000	3.478504
2281.000000	3.460463
2280.000000	3.432786
2279.000000	3.419050
2278.000000	3.379174
2277.000000	3.367181
2276.000000	3.336018
2275.000000	3.296143
2274.000000	3.289275
2273.000000	3.285174
2272.000000	3.267645
2271.000000	3.261392
2270.000000	3.239558
2269.000000	3.255037
2268.000000	3.261495
2267.000000	3.271131
2266.000000	3.283944
2265.000000	3.308751
2264.000000	3.343706
2263.000000	3.371896
2262.000000	3.426225
2261.000000	3.456055
2260.000000	3.493675
2259.000000	3.551285
2258.000000	3.602949
2257.000000	3.696744
2256.000000	3.736517
2255.000000	3.782645
2254.000000	3.865062
2253.000000	3.909243
2252.000000	3.961317
2251.000000	4.022001
2250.000000	4.056854
2249.000000	4.111286
2248.000000	4.179761
2247.000000	4.209488
2246.000000	4.258795
2245.000000	4.282269
2244.000000	4.328295
2243.000000	4.361200
2242.000000	4.397180
2241.000000	4.434493
2240.000000	4.449049
2239.000000	4.477341
2238.000000	4.481749
2237.000000	4.514142
2236.000000	4.529005
2235.000000	4.533106
2234.000000	4.558220
2233.000000	4.562321
2232.000000	4.558425
2231.000000	4.577082
2230.000000	4.549097
2229.000000	4.572469
2228.000000	4.541614
2227.000000	4.533003
2226.000000	4.512707
2225.000000	4.465041
2224.000000	4.479699
2223.000000	4.462785
2222.000000	4.433673
2221.000000	4.404151
2220.000000	4.383547
2219.000000	4.355562
2218.000000	4.330038
2217.000000	4.279399
2216.000000	4.250901
2215.000000	4.241676
2214.000000	4.232450
2213.000000	4.211231
2212.000000	4.197802
2211.000000	4.179863
2210.000000	4.196162
2209.000000	4.205388
2208.000000	4.211538
2207.000000	4.250901
2206.000000	4.297030
2205.000000	4.298568
2204.000000	4.330755
2203.000000	4.400256
2202.000000	4.457250
2201.000000	4.528185
2200.000000	4.567138
2199.000000	4.652425
2198.000000	4.714647
2197.000000	4.799216
2196.000000	4.857851
2195.000000	4.918228
2194.000000	4.977683
2193.000000	5.048618
2192.000000	5.108585
2191.000000	5.159942
2190.000000	5.228212
2189.000000	5.256197
2188.000000	5.311038
2187.000000	5.336973
2186.000000	5.364650
2185.000000	5.405551
2184.000000	5.425745
2183.000000	5.429948
2182.000000	5.464698
2181.000000	5.471976
2180.000000	5.498423
2179.000000	5.516567
2178.000000	5.519130
2177.000000	5.538504
2176.000000	5.541169
2175.000000	5.548242
2174.000000	5.561773
2173.000000	5.581249
2172.000000	5.586887
2171.000000	5.586272
2170.000000	5.586580
2169.000000	5.604314
2168.000000	5.614154
2167.000000	5.627993
2166.000000	5.661206
2165.000000	5.660386
2164.000000	5.677299
2163.000000	5.693393
2162.000000	5.707949
2161.000000	5.696981
2160.000000	5.723428
2159.000000	5.743007
2158.000000	5.759716
2157.000000	5.745057
2156.000000	5.760843
2155.000000	5.794876
2154.000000	5.808509
2153.000000	5.818453
2152.000000	5.835879
2151.000000	5.854536
2150.000000	5.875755
2149.000000	5.900049
2148.000000	5.917783
2147.000000	5.922396
2146.000000	5.939310
2145.000000	5.988821
2144.000000	6.006452
2143.000000	6.000507
2142.000000	6.018138
2141.000000	6.038640
2140.000000	6.058116
2139.000000	6.083026
2138.000000	6.110190
2137.000000	6.106295
2136.000000	6.114188
2135.000000	6.124131
2134.000000	6.138278
2133.000000	6.141558
2132.000000	6.155294
2131.000000	6.171900
2130.000000	6.159189
2129.000000	6.190762
2128.000000	6.193837
2127.000000	6.187686
2126.000000	6.193222
2125.000000	6.190352
2124.000000	6.183996
2123.000000	6.181023
2122.000000	6.198860
2121.000000	6.209726
2120.000000	6.196194
2119.000000	6.199167
2118.000000	6.195272
2117.000000	6.176923
2116.000000	6.171490
2115.000000	6.167082
2114.000000	6.170670
2113.000000	6.171183
2112.000000	6.160727
2111.000000	6.153346
2110.000000	6.133152
2109.000000	6.124029
2108.000000	6.126489
2107.000000	6.133152
2106.000000	6.107525
2105.000000	6.089586
2104.000000	6.105475
2103.000000	6.096454
2102.000000	6.083436
2101.000000	6.095019
2100.000000	6.096659
2099.000000	6.081488
2098.000000	6.076670
2097.000000	6.066624
2096.000000	6.049711
2095.000000	6.047763
2094.000000	6.066522
2093.000000	6.072672
2092.000000	6.066009
2091.000000	6.057604
2090.000000	6.044995
2089.000000	6.046020
2088.000000	6.042740
2087.000000	6.039152
2086.000000	6.051556
2085.000000	6.057911
2084.000000	6.040177
2083.000000	6.028902
2082.000000	6.027364
2081.000000	6.022239
2080.000000	6.014345
2079.000000	6.001122
2078.000000	6.004812
2077.000000	5.995894
2076.000000	5.975905
2075.000000	5.972317
2074.000000	5.968012
2073.000000	5.952123
2072.000000	5.947613
2071.000000	5.928649
2070.000000	5.929366
2069.000000	5.929879
2068.000000	5.909890
2067.000000	5.886108
2066.000000	5.871654
2065.000000	5.855663
2064.000000	5.853818
2063.000000	5.853921
2062.000000	5.840184
2061.000000	5.839877
2060.000000	5.836904
2059.000000	5.829011
2058.000000	5.815788
2057.000000	5.817633
2056.000000	5.826243
2055.000000	5.838237
2054.000000	5.871039
2053.000000	5.879342
2052.000000	5.880368
2051.000000	5.906302
2050.000000	5.948843
2049.000000	5.975802
2048.000000	6.012603
2047.000000	6.039665
2046.000000	6.072467
2045.000000	6.104757
2044.000000	6.160624
2043.000000	6.206240
2042.000000	6.269385
2041.000000	6.286709
2040.000000	6.320434
2039.000000	6.377224
2038.000000	6.403876
2037.000000	6.435243
2036.000000	6.465688
2035.000000	6.509664
2034.000000	6.543389
2033.000000	6.584597
2032.000000	6.610839
2031.000000	6.636569
2030.000000	6.643539
2029.000000	6.678289
2028.000000	6.710169
2027.000000	6.724520
2026.000000	6.738256
2025.000000	6.770444
2024.000000	6.785000
2023.000000	6.802119
2022.000000	6.828361
2021.000000	6.841072
2020.000000	6.843532
2019.000000	6.860446
2018.000000	6.864444
2017.000000	6.885355
2016.000000	6.882280
2015.000000	6.901757
2014.000000	6.890276
2013.000000	6.902167
2012.000000	6.887610
2011.000000	6.895914
2010.000000	6.898476
2009.000000	6.898169
2008.000000	6.884125
2007.000000	6.903192
2006.000000	6.886073
2005.000000	6.863316
2004.000000	6.858806
2003.000000	6.859216
2002.000000	6.845172
2001.000000	6.832666
2000.000000	6.814727
1999.000000	6.775877
1998.000000	6.779567
1997.000000	6.763166
1996.000000	6.717960
1995.000000	6.711194
1994.000000	6.694793
1993.000000	6.673369
1992.000000	6.641079
1991.000000	6.612479
1990.000000	6.591260
1989.000000	6.553947
1988.000000	6.528730
1987.000000	6.516122
1986.000000	6.478809
1985.000000	6.465380
1984.000000	6.421302
1983.000000	6.386654
1982.000000	6.347086
1981.000000	6.337963
1980.000000	6.314591
1979.000000	6.272665
1978.000000	6.246628
1977.000000	6.210443
1976.000000	6.177743
1975.000000	6.145863
1974.000000	6.108140
1973.000000	6.050428
1972.000000	6.067650
1971.000000	6.040997
1970.000000	6.006760
1969.000000	5.981850
1968.000000	5.936132
1967.000000	5.919218
1966.000000	5.896256
1965.000000	5.884980
1964.000000	5.822041
1963.000000	5.802359
1962.000000	5.781960
1961.000000	5.744955
1960.000000	5.718097
1959.000000	5.700774
1958.000000	5.652390
1957.000000	5.632606
1956.000000	5.626865
1955.000000	5.579199
1954.000000	5.571101
1953.000000	5.539119
1952.000000	5.503138
1951.000000	5.491247
1950.000000	5.463160
1949.000000	5.438661
1948.000000	5.416007
1947.000000	5.396018
1946.000000	5.370698
1945.000000	5.368340
1944.000000	5.335025
1943.000000	5.329695
1942.000000	5.322007
1941.000000	5.295560
1940.000000	5.312884
1939.000000	5.288794
1938.000000	5.296892
1937.000000	5.285719
1936.000000	5.284181
1935.000000	5.286949
1934.000000	5.297610
1933.000000	5.313396
1932.000000	5.336768
1931.000000	5.364343
1930.000000	5.382589
1929.000000	5.405038
1928.000000	5.412521
1927.000000	5.449219
1926.000000	5.463775
1925.000000	5.503446
1924.000000	5.544654
1923.000000	5.588015
1922.000000	5.636399
1921.000000	5.702824
1920.000000	5.752950
1919.000000	5.793646
1918.000000	5.842952
1917.000000	5.900459
1916.000000	5.978160
1915.000000	6.054221
1914.000000	6.104552
1913.000000	6.162264
1912.000000	6.254932
1911.000000	6.309671
1910.000000	6.386962
1909.000000	6.457385
1908.000000	6.535803
1907.000000	6.615247
1906.000000	6.742869
1905.000000	6.821595
1904.000000	6.897964
1903.000000	6.989401
1902.000000	7.076943
1901.000000	7.189291
1900.000000	7.281036
1899.000000	7.375958
1898.000000	7.465755
1897.000000	7.567853
1896.000000	7.673129
1895.000000	7.780762
1894.000000	7.895879
1893.000000	8.014480
1892.000000	8.119448
1891.000000	8.215498
1890.000000	8.321081
1889.000000	8.420514
1888.000000	8.562693
1887.000000	8.676989
1886.000000	8.815375
1885.000000	8.973442
1884.000000	9.131304
1883.000000	9.275635
1882.000000	9.439648
1881.000000	9.632465
1880.000000	9.808472
1879.000000	9.993601
1878.000000	10.157921
1877.000000	10.328802
1876.000000	10.486767
1875.000000	10.624742
1874.000000	10.753902
1873.000000	10.877527
1872.000000	11.000844
1871.000000	11.081313
1870.000000	11.138512
1869.000000	11.210883
1868.000000	11.274745
1867.000000	11.322514
1866.000000	11.400830
1865.000000	11.439168
1864.000000	11.489089
1863.000000	11.561870
1862.000000	11.605743
1861.000000	11.636906
1860.000000	11.672066
1859.000000	11.697180
1858.000000	11.689390
1857.000000	11.689082
1856.000000	11.698615
1855.000000	11.714914
1854.000000	11.711326
1853.000000	11.690415
1852.000000	11.677089
1851.000000	11.693182
1850.000000	11.720347
1849.000000	11.740644
1848.000000	11.697795
1847.000000	11.618762
1846.000000	11.564022
1845.000000	11.556744
1844.000000	11.579809
1843.000000	11.605333
1842.000000	11.611176
1841.000000	11.591084
1840.000000	11.551004
1839.000000	11.523839
1838.000000	11.524249
1837.000000	11.508156
1836.000000	11.464180
1835.000000	11.414361
1834.000000	11.391297
1833.000000	11.372230
1832.000000	11.357469
1831.000000	11.348038
1830.000000	11.314518
1829.000000	11.286431
1828.000000	11.242147
1827.000000	11.207910
1826.000000	11.181053
1825.000000	11.152146
1824.000000	11.135949
1823.000000	11.153991
1822.000000	11.163011
1821.000000	11.136359
1820.000000	11.097714
1819.000000	11.053328
1818.000000	11.058351
1817.000000	11.078750
1816.000000	11.080287
1815.000000	11.070344
1814.000000	11.060503
1813.000000	11.048715
1812.000000	11.057223
1811.000000	11.048100
1810.000000	11.022165
1809.000000	11.008737
1808.000000	10.999614
1807.000000	10.987415
1806.000000	10.966401
1805.000000	10.939442
1804.000000	10.924988
1803.000000	10.907152
1802.000000	10.891160
1801.000000	10.874657
1800.000000	10.844929
1799.000000	10.829553
1798.000000	10.806489
1797.000000	10.786705
1796.000000	10.765486
1795.000000	10.755952
1794.000000	10.756362
1793.000000	10.729300
1792.000000	10.720997
1791.000000	10.700188
1790.000000	10.677124
1789.000000	10.640836
1788.000000	10.640631
1787.000000	10.609674
1786.000000	10.595527
1785.000000	10.565595
1784.000000	10.558112
1783.000000	10.533100
1782.000000	10.499067
1781.000000	10.457859
1780.000000	10.447916
1779.000000	10.424134
1778.000000	10.399840
1777.000000	10.355044
1776.000000	10.305430
1775.000000	10.272320
1774.000000	10.229472
1773.000000	10.199949
1772.000000	10.155871
1771.000000	10.116918
1770.000000	10.062589
1769.000000	10.032144
1768.000000	10.012770
1767.000000	9.977302
1766.000000	9.939067
1765.000000	9.912415
1764.000000	9.898166
1763.000000	9.902676
1762.000000	9.904316
1761.000000	9.917130
1760.000000	9.941322
1759.000000	9.977917
1758.000000	10.003032
1757.000000	10.017485
1756.000000	10.050083
1755.000000	10.061359
1754.000000	10.079913
1753.000000	10.072019
1752.000000	10.077350
1751.000000	10.076017
1750.000000	10.076427
1749.000000	10.067304
1748.000000	10.043317
1747.000000	10.004877
1746.000000	9.987450
1745.000000	9.941527
1744.000000	9.919078
1743.000000	9.864236
1742.000000	9.785510
1741.000000	9.704221
1740.000000	9.639743
1739.000000	9.565630
1738.000000	9.491825
1737.000000	9.434010
1736.000000	9.385011
1735.000000	9.340625
1734.000000	9.338883
1733.000000	9.336320
1732.000000	9.360204
1731.000000	9.362255
1730.000000	9.387061
1729.000000	9.425297
1728.000000	9.466198
1727.000000	9.495925
1726.000000	9.540823
1725.000000	9.555584
1724.000000	9.559787
1723.000000	9.603558
1722.000000	9.610221
1721.000000	9.631338
1720.000000	9.606941
1719.000000	9.642101
1718.000000	9.640461
1717.000000	9.661373
1716.000000	9.678799
1715.000000	9.737126
1714.000000	9.737639
1713.000000	9.770031
1712.000000	9.807959
1711.000000	9.808984
1710.000000	9.817390
1709.000000	9.818517
1708.000000	9.828973
1707.000000	9.810829
1706.000000	9.812674
1705.000000	9.801091
1704.000000	9.789098
1703.000000	9.743482
1702.000000	9.708014
1701.000000	9.649994
1700.000000	9.602738
1699.000000	9.584697
1698.000000	9.510788
1697.000000	9.469068
1696.000000	9.432267
1695.000000	9.450001
1694.000000	9.461892
1693.000000	9.484546
1692.000000	9.503510
1691.000000	9.573728
1690.000000	9.602841
1689.000000	9.667933
1688.000000	9.703196
1687.000000	9.713242
1686.000000	9.706681
1685.000000	9.725030
1684.000000	9.763471
1683.000000	9.815340
1682.000000	9.912927
1681.000000	10.052645
1680.000000	10.233469
1679.000000	10.414703
1678.000000	10.609058
1677.000000	10.787422
1676.000000	10.942414
1675.000000	11.075982
1674.000000	11.199812
1673.000000	11.309495
1672.000000	11.415693
1671.000000	11.478326
1670.000000	11.554797
1669.000000	11.599900
1668.000000	11.703741
1667.000000	11.760428
1666.000000	11.813937
1665.000000	11.851045
1664.000000	11.875441
1663.000000	11.913574
1662.000000	11.927105
1661.000000	11.942277
1660.000000	11.959395
1659.000000	11.971081
1658.000000	11.980615
1657.000000	11.994453
1656.000000	11.987893
1655.000000	11.994146
1654.000000	12.009009
1653.000000	11.994351
1652.000000	12.005012
1651.000000	11.975079
1650.000000	11.985535
1649.000000	11.987175
1648.000000	11.954988
1647.000000	11.953758
1646.000000	11.944019
1645.000000	11.920955
1644.000000	11.907424
1643.000000	11.899223
1642.000000	11.871239
1641.000000	11.858528
1640.000000	11.831158
1639.000000	11.808401
1638.000000	11.797023
1637.000000	11.782467
1636.000000	11.760735
1635.000000	11.735518
1634.000000	11.736543
1633.000000	11.700563
1632.000000	11.675551
1631.000000	11.654332
1630.000000	11.624297
1629.000000	11.594672
1628.000000	11.590674
1627.000000	11.542496
1626.000000	11.524967
1625.000000	11.503850
1624.000000	11.482324
1623.000000	11.448598
1622.000000	11.416821
1621.000000	11.398575
1620.000000	11.360852
1619.000000	11.351421
1618.000000	11.340453
1617.000000	11.323641
1616.000000	11.285508
1615.000000	11.260394
1614.000000	11.253936
1613.000000	11.230872
1612.000000	11.215085
1611.000000	11.186281
1610.000000	11.165164
1609.000000	11.130516
1608.000000	11.103557
1607.000000	11.070857
1606.000000	11.055481
1605.000000	11.050868
1604.000000	11.021140
1603.000000	10.972552
1602.000000	10.961993
1601.000000	10.952255
1600.000000	10.932471
1599.000000	10.908484
1598.000000	10.875067
1597.000000	10.858460
1596.000000	10.837651
1595.000000	10.816022
1594.000000	10.791318
1593.000000	10.765486
1592.000000	10.747444
1591.000000	10.740166
1590.000000	10.715564
1589.000000	10.694653
1588.000000	10.676099
1587.000000	10.673638
1586.000000	10.668718
1585.000000	10.645449
1584.000000	10.638273
1583.000000	10.617259
1582.000000	10.597270
1581.000000	10.582304
1580.000000	10.567440
1579.000000	10.583021
1578.000000	10.578716
1577.000000	10.557189
1576.000000	10.563647
1575.000000	10.563442
1574.000000	10.557394
1573.000000	10.555139
1572.000000	10.540173
1571.000000	10.540993
1570.000000	10.549501
1569.000000	10.547554
1568.000000	10.548681
1567.000000	10.574718
1566.000000	10.589274
1565.000000	10.584764
1564.000000	10.589787
1563.000000	10.597475
1562.000000	10.605778
1561.000000	10.607008
1560.000000	10.611519
1559.000000	10.617669
1558.000000	10.633455
1557.000000	10.637863
1556.000000	10.626792
1555.000000	10.637556
1554.000000	10.639401
1553.000000	10.610904
1552.000000	10.607931
1551.000000	10.618182
1550.000000	10.609776
1549.000000	10.615927
1548.000000	10.608956
1547.000000	10.601575
1546.000000	10.610494
1545.000000	10.607931
1544.000000	10.592247
1543.000000	10.591735
1542.000000	10.590402
1541.000000	10.590915
1540.000000	10.584149
1539.000000	10.572258
1538.000000	10.579024
1537.000000	10.595937
1536.000000	10.593785
1535.000000	10.582919
1534.000000	10.588454
1533.000000	10.587942
1532.000000	10.577589
1531.000000	10.581074
1530.000000	10.575026
1529.000000	10.570926
1528.000000	10.549296
1527.000000	10.533920
1526.000000	10.541608
1525.000000	10.537303
1524.000000	10.517519
1523.000000	10.512701
1522.000000	10.497837
1521.000000	10.491687
1520.000000	10.471288
1519.000000	10.449966
1518.000000	10.434898
1517.000000	10.429157
1516.000000	10.414088
1515.000000	10.394509
1514.000000	10.386821
1513.000000	10.371650
1512.000000	10.355659
1511.000000	10.343870
1510.000000	10.331775
1509.000000	10.303687
1508.000000	10.298869
1507.000000	10.280111
1506.000000	10.260942
1505.000000	10.256739
1504.000000	10.221681
1503.000000	10.203435
1502.000000	10.198924
1501.000000	10.179140
1500.000000	10.169504
1499.000000	10.156486
1498.000000	10.149515
1497.000000	10.121941
1496.000000	10.109537
1495.000000	10.115175
1494.000000	10.114970
1493.000000	10.090573
1492.000000	10.091086
1491.000000	10.074377
1490.000000	10.071302
1489.000000	10.065151
1488.000000	10.067817
1487.000000	10.069354
1486.000000	10.050185
1485.000000	10.033169
1484.000000	10.052133
1483.000000	10.054081
1482.000000	10.061666
1481.000000	10.037782
1480.000000	10.041677
1479.000000	10.042395
1478.000000	10.056233
1477.000000	10.050493
1476.000000	10.064536
1475.000000	10.048955
1474.000000	10.084525
1473.000000	10.061974
1472.000000	10.074582
1471.000000	10.093854
1470.000000	10.111485
1469.000000	10.094264
1468.000000	10.099799
1467.000000	10.121223
1466.000000	10.118045
1465.000000	10.102259
1464.000000	10.129219
1463.000000	10.134754
1462.000000	10.140495
1461.000000	10.190314
1460.000000	10.194926
1459.000000	10.192774
1458.000000	10.227319
1457.000000	10.257251
1456.000000	10.271500
1455.000000	10.300100
1454.000000	10.331570
1453.000000	10.340590
1452.000000	10.380773
1451.000000	10.400045
1450.000000	10.441868
1449.000000	10.463395
1448.000000	10.508293
1447.000000	10.539148
1446.000000	10.593580
1445.000000	10.609469
1444.000000	10.646166
1443.000000	10.658775
1442.000000	10.726533
1441.000000	10.767433
1440.000000	10.785372
1439.000000	10.865328
1438.000000	10.896901
1437.000000	10.897618
1436.000000	10.960866
1435.000000	11.004534
1434.000000	11.024626
1433.000000	11.074239
1432.000000	11.136462
1431.000000	11.150608
1430.000000	11.205347
1429.000000	11.266032
1428.000000	11.310520
1427.000000	11.380738
1426.000000	11.428199
1425.000000	11.492164
1424.000000	11.566175
1423.000000	11.629012
1422.000000	11.692465
1421.000000	11.751407
1420.000000	11.840896
1419.000000	11.926798
1418.000000	11.993838
1417.000000	12.024283
1416.000000	12.124126
1415.000000	12.214640
1414.000000	12.286088
1413.000000	12.339085
1412.000000	12.393927
1411.000000	12.492437
1410.000000	12.596277
1409.000000	12.691405
1408.000000	12.779151
1407.000000	12.889347
1406.000000	12.997391
1405.000000	13.104409
1404.000000	13.213478
1403.000000	13.308297
1402.000000	13.447401
1401.000000	13.559032
1400.000000	13.598292
1399.000000	13.638475
1398.000000	13.699673
1397.000000	13.763843
1396.000000	13.830473
1395.000000	13.821350
1394.000000	13.833753
1393.000000	13.850974
1392.000000	13.879882
1391.000000	13.882137
1390.000000	13.906841
1389.000000	13.977059
1388.000000	14.021548
1387.000000	14.083360
1386.000000	14.177975
1385.000000	14.327739
1384.000000	14.502207
1383.000000	14.678726
1382.000000	14.830130
1381.000000	14.979689
1380.000000	15.098803
1379.000000	15.303717
1378.000000	15.487924
1377.000000	15.641788
1376.000000	15.861667
1375.000000	16.088415
1374.000000	16.339559
1373.000000	16.584758
1372.000000	16.844001
1371.000000	17.073004
1370.000000	17.281710
1369.000000	17.454026
1368.000000	17.624291
1367.000000	17.766265
1366.000000	17.887429
1365.000000	17.990347
1364.000000	18.063230
1363.000000	18.156718
1362.000000	18.258303
1361.000000	18.294693
1360.000000	18.323293
1359.000000	18.362348
1358.000000	18.407144
1357.000000	18.481770
1356.000000	18.595041
1355.000000	18.738348
1354.000000	18.934958
1353.000000	19.152070
1352.000000	19.371949
1351.000000	19.590086
1350.000000	19.819294
1349.000000	20.016929
1348.000000	20.191603
1347.000000	20.361048
1346.000000	20.521883
1345.000000	20.690611
1344.000000	20.819054
1343.000000	20.974353
1342.000000	21.123092
1341.000000	21.260863
1340.000000	21.393303
1339.000000	21.528716
1338.000000	21.691601
1337.000000	21.808563
1336.000000	21.945616
1335.000000	22.059707
1334.000000	22.181692
1333.000000	22.290965
1332.000000	22.409772
1331.000000	22.519660
1330.000000	22.617863
1329.000000	22.731237
1328.000000	22.836102
1327.000000	22.930820
1326.000000	23.022359
1325.000000	23.109593
1324.000000	23.179094
1323.000000	23.256385
1322.000000	23.325680
1321.000000	23.400203
1320.000000	23.472984
1319.000000	23.534079
1318.000000	23.600914
1317.000000	23.672567
1316.000000	23.737762
1315.000000	23.795269
1314.000000	23.849291
1313.000000	23.888039
1312.000000	23.925864
1311.000000	23.962152
1310.000000	24.003155
1309.000000	24.038418
1308.000000	24.080856
1307.000000	24.110173
1306.000000	24.131187
1305.000000	24.136518
1304.000000	24.142566
1303.000000	24.168398
1302.000000	24.179674
1301.000000	24.191975
1300.000000	24.198023
1299.000000	24.201200
1298.000000	24.202635
1297.000000	24.201200
1296.000000	24.204481
1295.000000	24.207351
1294.000000	24.205813
1293.000000	24.208888
1292.000000	24.206121
1291.000000	24.196280
1290.000000	24.169115
1289.000000	24.147384
1288.000000	24.132212
1287.000000	24.121039
1286.000000	24.107098
1285.000000	24.076961
1284.000000	24.039135
1283.000000	24.014533
1282.000000	24.007973
1281.000000	23.986139
1280.000000	23.965330
1279.000000	23.943905
1278.000000	23.922071
1277.000000	23.896137
1276.000000	23.881068
1275.000000	23.857286
1274.000000	23.844575
1273.000000	23.823151
1272.000000	23.788811
1271.000000	23.779073
1270.000000	23.758264
1269.000000	23.743605
1268.000000	23.722283
1267.000000	23.684458
1266.000000	23.665186
1265.000000	23.638944
1264.000000	23.606039
1263.000000	23.580412
1262.000000	23.538897
1261.000000	23.510809
1260.000000	23.482620
1259.000000	23.440591
1258.000000	23.401331
1257.000000	23.376934
1256.000000	23.337981
1255.000000	23.301591
1254.000000	23.264585
1253.000000	23.212306
1252.000000	23.167715
1251.000000	23.127225
1250.000000	23.084889
1249.000000	23.032302
1248.000000	22.999807
1247.000000	22.935637
1246.000000	22.889201
1245.000000	22.832207
1244.000000	22.775212
1243.000000	22.719141
1242.000000	22.674037
1241.000000	22.620118
1240.000000	22.557691
1239.000000	22.498236
1238.000000	22.430991
1237.000000	22.359748
1236.000000	22.309006
1235.000000	22.240326
1234.000000	22.174003
1233.000000	22.124185
1232.000000	22.051814
1231.000000	21.976881
1230.000000	21.905638
1229.000000	21.817378
1228.000000	21.749928
1227.000000	21.679710
1226.000000	21.600574
1225.000000	21.511085
1224.000000	21.428463
1223.000000	21.346047
1222.000000	21.256762
1221.000000	21.191157
1220.000000	21.112021
1219.000000	21.037806
1218.000000	20.971380
1217.000000	20.912643
1216.000000	20.854931
1215.000000	20.795579
1214.000000	20.710805
1213.000000	20.675440
1212.000000	20.623161
1211.000000	20.562476
1210.000000	20.508352
1209.000000	20.466221
1208.000000	20.449205
1207.000000	20.407689
1206.000000	20.383395
1205.000000	20.346082
1204.000000	20.352848
1203.000000	20.343724
1202.000000	20.346800
1201.000000	20.330091
1200.000000	20.322813
1199.000000	20.286115
1198.000000	20.266638
1197.000000	20.205134
1196.000000	20.131020
1195.000000	20.020927
1194.000000	19.911448
1193.000000	19.753586
1192.000000	19.599619
1191.000000	19.377997
1190.000000	19.186820
1189.000000	19.029163
1188.000000	18.900720
1187.000000	18.851619
1186.000000	18.822609
1185.000000	18.854489
1184.000000	18.928500
1183.000000	19.049562
1182.000000	19.261651
1181.000000	19.466256
1180.000000	19.668197
1179.000000	19.874545
1178.000000	20.104368
1177.000000	20.243574
1176.000000	20.412815
1175.000000	20.532236
1174.000000	20.671852
1173.000000	20.806445
1172.000000	20.952006
1171.000000	21.110894
1170.000000	21.268756
1169.000000	21.419340
1168.000000	21.578022
1167.000000	21.753003
1166.000000	21.925012
1165.000000	22.085642
1164.000000	22.269541
1163.000000	22.467586
1162.000000	22.640517
1161.000000	22.818061
1160.000000	22.995297
1159.000000	23.165665
1158.000000	23.349564
1157.000000	23.478109
1156.000000	23.626746
1155.000000	23.728024
1154.000000	23.804905
1153.000000	23.867434
1152.000000	23.893164
1151.000000	23.914896
1150.000000	23.914896
1149.000000	23.928017
1148.000000	23.955489
1147.000000	23.966765
1146.000000	24.038418
1145.000000	24.132930
1144.000000	24.260142
1143.000000	24.422207
1142.000000	24.599956
1141.000000	24.778115
1140.000000	24.947663
1139.000000	25.147144
1138.000000	25.371841
1137.000000	25.557790
1136.000000	25.792226
1135.000000	26.014258
1134.000000	26.185036
1133.000000	26.358992
1132.000000	26.527720
1131.000000	26.712645
1130.000000	26.873070
1129.000000	26.988801
1128.000000	27.101867
1127.000000	27.161424
1126.000000	27.250606
1125.000000	27.276438
1124.000000	27.332510
1123.000000	27.387762
1122.000000	27.409289
1121.000000	27.435428
1120.000000	27.443219
1119.000000	27.482787
1118.000000	27.485759
1117.000000	27.460030
1116.000000	27.483914
1115.000000	27.470486
1114.000000	27.498470
1113.000000	27.488732
1112.000000	27.477661
1111.000000	27.481762
1110.000000	27.492730
1109.000000	27.478686
1108.000000	27.449472
1107.000000	27.435633
1106.000000	27.447422
1105.000000	27.442911
1104.000000	27.443629
1103.000000	27.416259
1102.000000	27.419642
1101.000000	27.408366
1100.000000	27.401908
1099.000000	27.382637
1098.000000	27.368080
1097.000000	27.354139
1096.000000	27.326155
1095.000000	27.325232
1094.000000	27.304423
1093.000000	27.299503
1092.000000	27.283511
1091.000000	27.253374
1090.000000	27.224159
1089.000000	27.199762
1088.000000	27.173725
1087.000000	27.138258
1086.000000	27.111606
1085.000000	27.072755
1084.000000	27.048256
1083.000000	27.019963
1082.000000	26.987571
1081.000000	26.954461
1080.000000	26.934267
1079.000000	26.901874
1078.000000	26.862921
1077.000000	26.835244
1076.000000	26.801929
1075.000000	26.779275
1074.000000	26.748317
1073.000000	26.718488
1072.000000	26.689273
1071.000000	26.664158
1070.000000	26.631766
1069.000000	26.579282
1068.000000	26.546069
1067.000000	26.523620
1066.000000	26.487435
1065.000000	26.453095
1064.000000	26.439564
1063.000000	26.408401
1062.000000	26.362888
1061.000000	26.337363
1060.000000	26.303536
1059.000000	26.267453
1058.000000	26.246644
1057.000000	26.207588
1056.000000	26.167815
1055.000000	26.148338
1054.000000	26.112871
1053.000000	26.084784
1052.000000	26.061924
1051.000000	26.040603
1050.000000	26.002675
1049.000000	25.976843
1048.000000	25.966899
1047.000000	25.949371
1046.000000	25.919336
1045.000000	25.886943
1044.000000	25.871055
1043.000000	25.853833
1042.000000	25.814470
1041.000000	25.787716
1040.000000	25.781975
1039.000000	25.764959
1038.000000	25.733899
1037.000000	25.684593
1036.000000	25.656403
1035.000000	25.636311
1034.000000	25.601664
1033.000000	25.568759
1032.000000	25.534624
1031.000000	25.492595
1030.000000	25.451490
1029.000000	25.431193
1028.000000	25.409051
1027.000000	25.352979
1026.000000	25.305416
1025.000000	25.276919
1024.000000	25.246576
1023.000000	25.207418
1022.000000	25.157087
1021.000000	25.133100
1020.000000	25.112188
1019.000000	25.072620
1018.000000	25.033155
1017.000000	25.006605
1016.000000	24.977800
1015.000000	24.958939
1014.000000	24.954224
1013.000000	24.930749
1012.000000	24.912503
1011.000000	24.909633
1010.000000	24.914451
1009.000000	24.931364
1008.000000	24.917731
1007.000000	24.917116
1006.000000	24.926546
1005.000000	24.932389
1004.000000	24.935977
1003.000000	24.935977
1002.000000	24.937617
1001.000000	24.937822
1000.000000	24.951968
999.000000	24.958734
998.000000	24.959451
997.000000	24.970010
996.000000	24.996047
995.000000	25.000455
994.000000	24.999532
993.000000	25.004145
992.000000	25.020956
991.000000	25.024442
990.000000	25.038690
989.000000	25.041355
988.000000	25.047711
987.000000	25.060832
986.000000	25.081846
985.000000	25.097632
984.000000	25.129205
983.000000	25.147349
982.000000	25.158829
981.000000	25.173796
980.000000	25.196347
979.000000	25.208546
978.000000	25.220539
977.000000	25.247499
976.000000	25.274151
975.000000	25.283684
974.000000	25.322535
973.000000	25.348059
972.000000	25.391112
971.000000	25.413357
970.000000	25.433141
969.000000	25.456820
968.000000	25.500591
967.000000	25.527550
966.000000	25.559738
965.000000	25.596538
964.000000	25.636926
963.000000	25.672292
962.000000	25.725596
961.000000	25.772339
960.000000	25.812010
959.000000	25.870542
958.000000	25.942503
957.000000	25.979303
956.000000	26.015898
955.000000	26.065615
954.000000	26.099135
953.000000	26.148031
952.000000	26.185959
951.000000	26.242338
950.000000	26.264993
949.000000	26.299538
948.000000	26.363093
947.000000	26.381647
946.000000	26.409939
945.000000	26.451147
944.000000	26.500863
943.000000	26.541251
942.000000	26.583382
941.000000	26.618440
940.000000	26.654215
939.000000	26.705572
938.000000	26.749035
937.000000	26.793626
936.000000	26.829504
935.000000	26.860564
934.000000	26.926374
933.000000	26.966557
932.000000	26.994644
931.000000	27.031854
930.000000	27.096639
929.000000	27.143691
928.000000	27.181413
927.000000	27.216369
926.000000	27.236358
925.000000	27.293147
924.000000	27.326052
923.000000	27.405906
922.000000	27.462080
921.000000	27.467308
920.000000	27.525738
919.000000	27.576479
918.000000	27.575864
917.000000	27.630603
916.000000	27.658690
915.000000	27.699899
914.000000	27.750332
913.000000	27.764581
912.000000	27.825266
911.000000	27.854378
910.000000	27.894766
909.000000	27.918958
908.000000	27.948480
907.000000	28.017878
906.000000	28.077845
905.000000	28.106548
904.000000	28.139658
903.000000	28.208235
902.000000	28.221766
901.000000	28.275378
900.000000	28.307258
899.000000	28.351747
898.000000	28.386907
897.000000	28.449437
896.000000	28.488697
895.000000	28.521500
894.000000	28.537388
893.000000	28.572139
892.000000	28.590180
891.000000	28.558402
890.000000	28.584029
889.000000	28.614679
888.000000	28.600943
887.000000	28.620215
886.000000	28.605454
885.000000	28.553072
884.000000	28.535851
883.000000	28.550099
882.000000	28.485519
881.000000	28.410074
880.000000	28.385984
879.000000	28.308181
878.000000	28.209978
877.000000	28.172050
876.000000	28.133097
875.000000	28.067492
874.000000	27.951863
873.000000	27.882465
872.000000	27.779752
871.000000	27.725833
870.000000	27.607334
869.000000	27.550852
868.000000	27.461568
867.000000	27.392375
866.000000	27.282896
865.000000	27.228362
864.000000	27.099920
863.000000	26.968812
862.000000	26.866407
861.000000	26.751393
860.000000	26.618337
859.000000	26.549555
858.000000	26.663133
857.000000	26.720500
856.000000	26.629800
855.000000	26.639100
854.000000	26.576100
853.000000	26.536300
852.000000	26.726200
851.000000	26.673400
850.000000	26.721600
849.000000	26.670200
848.000000	26.667400
847.000000	26.750700
846.000000	26.658200
845.000000	26.777400
844.000000	26.653500
843.000000	26.644400
842.000000	26.756700
841.000000	26.807300
840.000000	26.784100
839.000000	26.649400
838.000000	26.724000
837.000000	26.905200
836.000000	26.876900
835.000000	27.036400
834.000000	26.976300
833.000000	27.034800
832.000000	27.047200
831.000000	27.101100
830.000000	27.160600
829.000000	27.326100
828.000000	27.473100
827.000000	27.549400
826.000000	27.732900
825.000000	27.763500
824.000000	27.910200
823.000000	28.060400
822.000000	28.214300
821.000000	28.404700
820.000000	28.637200
819.000000	28.913000
818.000000	29.021400
817.000000	29.161500
816.000000	29.353700
815.000000	29.641300
814.000000	29.921000
813.000000	30.093000
812.000000	30.340900
811.000000	30.500900
810.000000	30.733400
809.000000	30.961100
808.000000	31.106800
807.000000	31.233700
806.000000	31.494000
805.000000	31.707100
804.000000	31.932600
803.000000	32.183600
802.000000	32.315600
801.000000	32.459900
800.000000	32.740300
799.000000	32.903500
798.000000	33.064900
797.000000	33.295000
796.000000	33.411500
795.000000	33.534600
794.000000	33.749600
793.000000	33.884600
792.000000	34.108500
791.000000	34.288800
790.000000	34.385500
789.000000	34.523100
788.000000	34.661600
787.000000	34.758600
786.000000	34.895300
785.000000	35.046400
784.000000	35.145600
783.000000	35.272400
782.000000	35.382900
781.000000	35.420700
780.000000	35.489200
779.000000	35.584500
778.000000	35.660300
777.000000	35.720600
776.000000	35.785700
775.000000	35.854700
774.000000	35.884500
773.000000	35.959200
772.000000	35.983800
771.000000	36.003800
770.000000	36.028900
769.000000	36.048300
768.000000	36.096900
767.000000	36.099400
766.000000	36.124200
765.000000	36.163900
764.000000	36.158200
763.000000	36.165400
762.000000	36.143000
761.000000	36.135800
760.000000	36.146900
759.000000	36.134900
758.000000	36.059700
757.000000	36.043500
756.000000	36.077600
755.000000	36.043800
754.000000	36.024900
753.000000	35.985800
752.000000	35.970000
751.000000	35.879000
750.000000	35.781100
749.000000	35.718300
748.000000	35.702200
747.000000	35.672500
746.000000	35.567500
745.000000	35.519400
744.000000	35.506700
743.000000	35.457900
742.000000	35.363400
741.000000	35.342400
740.000000	35.321700
739.000000	35.265600
738.000000	35.247500
737.000000	35.183600
736.000000	35.109400
735.000000	35.028600
734.000000	34.978000
733.000000	34.948300
732.000000	34.896300
731.000000	34.837200
730.000000	34.788500
729.000000	34.759900
728.000000	34.746300
727.000000	34.684800
726.000000	34.661900
725.000000	34.635800
724.000000	34.601400
723.000000	34.609300
722.000000	34.580300
721.000000	34.560600
720.000000	34.555500
719.000000	34.505500
718.000000	34.472800
717.000000	34.474000
716.000000	34.485800
715.000000	34.480500
714.000000	34.471100
713.000000	34.430200
712.000000	34.413100
711.000000	34.396600
710.000000	34.360600
709.000000	34.353100
708.000000	34.315200
707.000000	34.260700
706.000000	34.227400
705.000000	34.187700
704.000000	34.121300
703.000000	34.067200
702.000000	33.994800
701.000000	33.905200
700.000000	33.796200
699.000000	33.634500
698.000000	33.506600
697.000000	33.377300
696.000000	33.204100
695.000000	33.033600
694.000000	32.796600
693.000000	32.532300
692.000000	32.287900
691.000000	32.009500
690.000000	31.721700
689.000000	31.428000
688.000000	31.088800
687.000000	30.737800
686.000000	30.416000
685.000000	30.085700
684.000000	29.710900
683.000000	29.378900
682.000000	29.092300
681.000000	28.779100
680.000000	28.494400
679.000000	28.209000
678.000000	27.947700
677.000000	27.732800
676.000000	27.527800
675.000000	27.375300
674.000000	27.230000
673.000000	27.094300
672.000000	26.990800
671.000000	26.897400
670.000000	26.841200
669.000000	26.768000
668.000000	26.712700
667.000000	26.674200
666.000000	26.637200
665.000000	26.631200
664.000000	26.567800
663.000000	26.532300
662.000000	26.472500
661.000000	26.453000
660.000000	26.373800
659.000000	26.262700
658.000000	26.187000
657.000000	26.060200
656.000000	25.927300
655.000000	25.799800
654.000000	25.670900
653.000000	25.510400
652.000000	25.295600
651.000000	25.102400
650.000000	24.904700
649.000000	24.710200
648.000000	24.513300
647.000000	24.274800
646.000000	24.058000
645.000000	23.857200
644.000000	23.644500
643.000000	23.434000
642.000000	23.210400
641.000000	23.036900
640.000000	22.858500
639.000000	22.702400
638.000000	22.567100
637.000000	22.470100
636.000000	22.365600
635.000000	22.258500
634.000000	22.209900
633.000000	22.165100
632.000000	22.132800
631.000000	22.131800
630.000000	22.174800
629.000000	22.216400
628.000000	22.298600
627.000000	22.389200
626.000000	22.499100
625.000000	22.636600
624.000000	22.793300
623.000000	22.977300
622.000000	23.211700
621.000000	23.400700
620.000000	23.646900
619.000000	23.883300
618.000000	24.102400
617.000000	24.368600
616.000000	24.584900
615.000000	24.839400
614.000000	25.080100
613.000000	25.344700
612.000000	25.577800
611.000000	25.813600
610.000000	26.062400
609.000000	26.280300
608.000000	26.526800
607.000000	26.766800
606.000000	27.005100
605.000000	27.228300
604.000000	27.493800
603.000000	27.740300
602.000000	27.983400
601.000000	28.229400
600.000000	28.497700
599.000000	28.692000
598.000000	28.879100
597.000000	29.043600
596.000000	29.204500
595.000000	29.357300
594.000000	29.485300
593.000000	29.624400
592.000000	29.736600
591.000000	29.830000
590.000000	29.974900
589.000000	30.080600
588.000000	30.160900
587.000000	30.232800
586.000000	30.280400
585.000000	30.286200
584.000000	30.264700
583.000000	30.225300
582.000000	30.187200
581.000000	30.121700
580.000000	30.072600
579.000000	30.073600
578.000000	30.045100
577.000000	29.994800
576.000000	29.948900
575.000000	29.894000
574.000000	29.836600
573.000000	29.757000
572.000000	29.628900
571.000000	29.522700
570.000000	29.424000
569.000000	29.358000
568.000000	29.257000
567.000000	29.179800
566.000000	29.122200
565.000000	29.051200
564.000000	28.937200
563.000000	28.797900
562.000000	28.649800
561.000000	28.508600
560.000000	28.443700
559.000000	29.004900
558.000000	28.840900
557.000000	28.649400
556.000000	28.484300
555.000000	28.300400
554.000000	28.133400
553.000000	27.914100
552.000000	27.714200
551.000000	27.476900
550.000000	27.249600
549.000000	27.008900
548.000000	26.792000
547.000000	26.565900
546.000000	26.328700
545.000000	26.120500
544.000000	25.861900
543.000000	25.598100
542.000000	25.343500
541.000000	25.054100
540.000000	24.763900
539.000000	24.454900
538.000000	24.139600
537.000000	23.803700
536.000000	23.476500
535.000000	23.127400
534.000000	22.752700
533.000000	22.359100
532.000000	21.953400
531.000000	21.530100
530.000000	21.123700
529.000000	20.682000
528.000000	20.244900
527.000000	19.810700
526.000000	19.401900
525.000000	18.989700
524.000000	18.583800
523.000000	18.189000
522.000000	17.801600
521.000000	17.420000
520.000000	17.051900
519.000000	16.717000
518.000000	16.398300
517.000000	16.122200
516.000000	15.851200
515.000000	15.618500
514.000000	15.400400
513.000000	15.199500
512.000000	15.045000
511.000000	14.924100
510.000000	14.820400
509.000000	14.728300
508.000000	14.651200
507.000000	14.586100
506.000000	14.532700
505.000000	14.479800
504.000000	14.419700
503.000000	14.346400
502.000000	14.255400
501.000000	14.166400
500.000000	14.073500
499.000000	13.959100
498.000000	13.823600
497.000000	13.672300
496.000000	13.495800
495.000000	13.299100
494.000000	13.085500
493.000000	12.850000
492.000000	12.596200
491.000000	12.335200
490.000000	12.060100
489.000000	11.788500
488.000000	11.521000
487.000000	11.262600
486.000000	11.035700
485.000000	10.815600
484.000000	10.615500
483.000000	10.454600
482.000000	10.340200
481.000000	10.273300
480.000000	10.242700
479.000000	10.230800
478.000000	10.240500
477.000000	10.281900
476.000000	10.339300
475.000000	10.423400
474.000000	10.525700
473.000000	10.618900
472.000000	10.727000
471.000000	10.841000
470.000000	10.955100
469.000000	11.064900
468.000000	11.165000
467.000000	11.252800
466.000000	11.337200
465.000000	11.410300
464.000000	11.464000
463.000000	11.512500
462.000000	11.542000
461.000000	11.557300
460.000000	11.580900
459.000000	11.578200
458.000000	11.579600
457.000000	11.574200
456.000000	11.549300
455.000000	11.528200
454.000000	11.481800
453.000000	11.432900
452.000000	11.388500
451.000000	11.343300
450.000000	11.285400
449.000000	11.211500
448.000000	11.145000
447.000000	11.079000
446.000000	11.022700
445.000000	10.947500
444.000000	10.850500
443.000000	10.757500
442.000000	10.665400
441.000000	10.579000
440.000000	10.478800
439.000000	10.370600
438.000000	10.255000
437.000000	10.120900
436.000000	9.982500
435.000000	9.862500
434.000000	9.735200
433.000000	9.578500
432.000000	9.426600
431.000000	9.275600
430.000000	9.109800
429.000000	8.946300
428.000000	8.772700
427.000000	8.591200
426.000000	8.402300
425.000000	8.207900
424.000000	8.008600
423.000000	7.791800
422.000000	7.564400
421.000000	7.339900
420.000000	7.107100
419.000000	6.881500
418.000000	6.661900
417.000000	6.434900
416.000000	6.209300
415.000000	5.990600
414.000000	5.765100
413.000000	5.542100
412.000000	5.336200
411.000000	5.138800
410.000000	4.956600
409.000000	4.767000
408.000000	4.587700
407.000000	4.428700
406.000000	4.282600
405.000000	4.147400
404.000000	4.006300
403.000000	3.873400
402.000000	3.764100
401.000000	3.664400
400.000000	3.565400
399.000000	3.481800
398.000000	3.407000
397.000000	3.341300
396.000000	3.280700
395.000000	3.211300
394.000000	3.158000
393.000000	3.119300
392.000000	3.076300
391.000000	3.031700
390.000000	3.003900
389.000000	2.969400
388.000000	2.933600
387.000000	2.915100
386.000000	2.880600
385.000000	2.851000
384.000000	2.841300
383.000000	2.811800
382.000000	2.799200
381.000000	2.777800
380.000000	2.761000
379.000000	2.753500
378.000000	2.726100
377.000000	2.696000
376.000000	3.034100
375.000000	2.988600
374.000000	2.865300
373.000000	2.917200
372.000000	2.897600
371.000000	2.914700
370.000000	2.866300
369.000000	2.915200
368.000000	2.912400
367.000000	2.894200
366.000000	3.014000
365.000000	3.047900
364.000000	2.979000
363.000000	2.937000
362.000000	2.878300
361.000000	2.849300
360.000000	2.959700
359.000000	2.882300
358.000000	2.934300
357.000000	2.909700
356.000000	2.936600
355.000000	2.859900
354.000000	2.851500
353.000000	2.827300
352.000000	2.854800
351.000000	2.817400
350.000000	2.777700
349.000000	2.774000
348.000000	2.767700
347.000000	2.774000
346.000000	2.739000
345.000000	2.777000
344.000000	2.839400
343.000000	2.744300
342.000000	2.716200
341.000000	2.821100
340.000000	2.715600
339.000000	2.745000
338.000000	2.804800
337.000000	2.716500
336.000000	2.864900
335.000000	2.685600
334.000000	2.862400
333.000000	2.705900
332.000000	2.774400
331.000000	2.702300
330.000000	2.706100
329.000000	2.729500
328.000000	2.933000
327.000000	2.878700
326.000000	2.809600
325.000000	2.782600
324.000000	2.907000
323.000000	2.759500
322.000000	3.134700
321.000000	3.174300
320.000000	2.985300
319.000000	3.328500
318.000000	2.953100
317.000000	2.976500
316.000000	2.563700
315.000000	2.558600
314.000000	2.549400
313.000000	2.522300
312.000000	2.535000
311.000000	2.571900
310.000000	2.562700
309.000000	2.613700
308.000000	2.547700
307.000000	2.554400
306.000000	2.549600
305.000000	2.610300
304.000000	2.576400
303.000000	2.504800
302.000000	2.537900
301.000000	2.545900
300.000000	2.598100
299.000000	2.568200
298.000000	2.588500
297.000000	2.595500
296.000000	2.552600
295.000000	2.595600
294.000000	2.606700
293.000000	2.613900
292.000000	2.579000
291.000000	2.616900
290.000000	2.640800
289.000000	2.601900
288.000000	2.637800
287.000000	2.599200
286.000000	2.617800
285.000000	2.589400
284.000000	2.642800
283.000000	2.622800
282.000000	2.624400
281.000000	2.656900
280.000000	2.671900
279.000000	2.658800
278.000000	2.646000
277.000000	2.670800
276.000000	2.666200
275.000000	2.672600
274.000000	2.693300
273.000000	2.636400
272.000000	2.668900
271.000000	2.674500
270.000000	2.676300
269.000000	2.698500
268.000000	2.661000
267.000000	2.698000
266.000000	2.741800
265.000000	2.758400
264.000000	2.725000
263.000000	2.735100
262.000000	2.745400
261.000000	2.792300
260.000000	2.826600
259.000000	2.805600
258.000000	2.808100
257.000000	2.847900
256.000000	2.794700
255.000000	2.807400
254.000000	2.810500
253.000000	2.797000
252.000000	2.832000
251.000000	2.824300
250.000000	2.824100
