PE UV       SUBTECH     SPECTRUM    ASCII       PEDS        4.00        
   -1
CICIMAUCR0018-1.Sample.ASC
24/03/08
12:50:34.00
24/03/08
12:50:34.00
Vinicio Soto Monge
c. cupreomarginata
250,000000
1
Lambda 1050
1050L1511233
PerkinElmer UV WinLab 6.3.2.0749 / 2.02.05 Lambda 900 UV/VIS/NIR, Aug  7 2015 09:38:08

0
0
3350/servo 860,8/2
0
0
UV/VIS
1
1
1
DoubleDePol,CommonBeamDepol,RBeamAtt,SBeamAtt,60mm sphere, WB InGaAs Detector
0
0
0
0
Program
Program
3350/servo 860,8/2
3350/0,2 860,8/0,2
3350/0,2 860,8/0,2
0
15.00
 
 
 
0
 
860,8
319,2
860,8
Front
100
on
S:100 R:100
0
0
0
0
 
0
 
 
 
0
 
 
0
0
0
0
0
 
 
 
 
0
0


0
0
#HDR
-1
-1
#GR
nm
%R
1.0
0.0
2500,000000
-1,000000
2251
8
27,295000
2,488900
#DATA
2500.000000	3.032349
2499.000000	2.955232
2498.000000	2.964217
2497.000000	3.061774
2496.000000	3.110355
2495.000000	3.002035
2494.000000	2.995716
2493.000000	3.031756
2492.000000	2.990976
2491.000000	2.966785
2490.000000	2.867648
2489.000000	2.874363
2488.000000	2.913464
2487.000000	2.862514
2486.000000	2.900035
2485.000000	2.892136
2484.000000	2.899640
2483.000000	2.980905
2482.000000	2.905466
2481.000000	2.895098
2480.000000	2.906947
2479.000000	2.911292
2478.000000	2.934101
2477.000000	2.920080
2476.000000	2.947629
2475.000000	2.917315
2474.000000	2.899048
2473.000000	2.951875
2472.000000	2.908132
2471.000000	2.937063
2470.000000	2.927880
2469.000000	2.941112
2468.000000	2.968364
2467.000000	2.946049
2466.000000	2.950097
2465.000000	2.953356
2464.000000	2.972018
2463.000000	3.015464
2462.000000	3.018426
2461.000000	2.979621
2460.000000	2.986533
2459.000000	3.019019
2458.000000	3.080337
2457.000000	3.094062
2456.000000	3.113119
2455.000000	3.128424
2454.000000	3.170587
2453.000000	3.179375
2452.000000	3.212354
2451.000000	3.227462
2450.000000	3.262416
2449.000000	3.291446
2448.000000	3.308232
2447.000000	3.334399
2446.000000	3.379227
2445.000000	3.414972
2444.000000	3.461479
2443.000000	3.487152
2442.000000	3.513812
2441.000000	3.549556
2440.000000	3.595866
2439.000000	3.612060
2438.000000	3.634672
2437.000000	3.663405
2436.000000	3.670218
2435.000000	3.716034
2434.000000	3.734104
2433.000000	3.759382
2432.000000	3.784857
2431.000000	3.813887
2430.000000	3.848052
2429.000000	3.880143
2428.000000	3.916183
2427.000000	3.910654
2426.000000	3.936425
2425.000000	3.973453
2424.000000	4.001792
2423.000000	4.044448
2422.000000	4.085821
2421.000000	4.126404
2420.000000	4.161654
2419.000000	4.188710
2418.000000	4.214975
2417.000000	4.218233
2416.000000	4.235513
2415.000000	4.266617
2414.000000	4.267703
2413.000000	4.295252
2412.000000	4.317765
2411.000000	4.340771
2410.000000	4.349164
2409.000000	4.380070
2408.000000	4.412359
2407.000000	4.425492
2406.000000	4.452152
2405.000000	4.478911
2404.000000	4.471011
2403.000000	4.481379
2402.000000	4.504880
2401.000000	4.531145
2400.000000	4.549708
2399.000000	4.571234
2398.000000	4.589698
2397.000000	4.594339
2396.000000	4.617840
2395.000000	4.652597
2394.000000	4.672345
2393.000000	4.680837
2392.000000	4.685478
2391.000000	4.692192
2390.000000	4.708089
2389.000000	4.730306
2388.000000	4.754399
2387.000000	4.766347
2386.000000	4.775530
2385.000000	4.772666
2384.000000	4.769803
2383.000000	4.777900
2382.000000	4.796266
2381.000000	4.805448
2380.000000	4.813940
2379.000000	4.810781
2378.000000	4.798043
2377.000000	4.810583
2376.000000	4.811175
2375.000000	4.806436
2374.000000	4.809991
2373.000000	4.811274
2372.000000	4.804362
2371.000000	4.790539
2370.000000	4.769902
2369.000000	4.762397
2368.000000	4.764471
2367.000000	4.755880
2366.000000	4.741168
2365.000000	4.733960
2364.000000	4.722506
2363.000000	4.705917
2362.000000	4.680639
2361.000000	4.669284
2360.000000	4.653782
2359.000000	4.623271
2358.000000	4.606781
2357.000000	4.601350
2356.000000	4.593253
2355.000000	4.588514
2354.000000	4.571728
2353.000000	4.564618
2352.000000	4.560866
2351.000000	4.528183
2350.000000	4.534502
2349.000000	4.559681
2348.000000	4.572912
2347.000000	4.578738
2346.000000	4.597400
2345.000000	4.613100
2344.000000	4.648252
2343.000000	4.675209
2342.000000	4.683602
2341.000000	4.693081
2340.000000	4.717075
2339.000000	4.740773
2338.000000	4.750153
2337.000000	4.747882
2336.000000	4.750153
2335.000000	4.755387
2334.000000	4.751338
2333.000000	4.743636
2332.000000	4.739292
2331.000000	4.723592
2330.000000	4.709176
2329.000000	4.691205
2328.000000	4.695747
2327.000000	4.673431
2326.000000	4.643118
2325.000000	4.621789
2324.000000	4.602930
2323.000000	4.579232
2322.000000	4.550597
2321.000000	4.499251
2320.000000	4.476640
2319.000000	4.433391
2318.000000	4.377701
2317.000000	4.346992
2316.000000	4.311840
2315.000000	4.266024
2314.000000	4.221097
2313.000000	4.183378
2312.000000	4.148917
2311.000000	4.104384
2310.000000	4.073873
2309.000000	4.045831
2308.000000	4.040499
2307.000000	4.002681
2306.000000	4.002878
2305.000000	3.994288
2304.000000	3.996756
2303.000000	4.017196
2302.000000	4.024799
2301.000000	4.035957
2300.000000	4.049287
2299.000000	4.091943
2298.000000	4.118504
2297.000000	4.149608
2296.000000	4.175380
2295.000000	4.212803
2294.000000	4.252793
2293.000000	4.260791
2292.000000	4.291894
2291.000000	4.294659
2290.000000	4.278663
2289.000000	4.282711
2288.000000	4.280144
2287.000000	4.260396
2286.000000	4.253780
2285.000000	4.258520
2284.000000	4.220208
2283.000000	4.200559
2282.000000	4.164024
2281.000000	4.153163
2280.000000	4.127984
2279.000000	4.117320
2278.000000	4.089277
2277.000000	4.067751
2276.000000	4.025688
2275.000000	4.006927
2274.000000	3.989351
2273.000000	3.976416
2272.000000	3.960024
2271.000000	3.934352
2270.000000	3.951730
2269.000000	3.945115
2268.000000	3.965060
2267.000000	3.983229
2266.000000	3.990141
2265.000000	4.001891
2264.000000	4.026872
2263.000000	4.067159
2262.000000	4.126404
2261.000000	4.175774
2260.000000	4.232452
2259.000000	4.274911
2258.000000	4.335834
2257.000000	4.403176
2256.000000	4.470518
2255.000000	4.537464
2254.000000	4.600758
2253.000000	4.663853
2252.000000	4.692883
2251.000000	4.761410
2250.000000	4.838626
2249.000000	4.889181
2248.000000	4.940922
2247.000000	4.976370
2246.000000	5.019224
2245.000000	5.051216
2244.000000	5.105030
2243.000000	5.132579
2242.000000	5.154104
2241.000000	5.158449
2240.000000	5.218385
2239.000000	5.219965
2238.000000	5.243169
2237.000000	5.259363
2236.000000	5.279210
2235.000000	5.296193
2234.000000	5.279802
2233.000000	5.308042
2232.000000	5.311498
2231.000000	5.306660
2230.000000	5.317916
2229.000000	5.301130
2228.000000	5.303006
2227.000000	5.274569
2226.000000	5.256499
2225.000000	5.241984
2224.000000	5.202290
2223.000000	5.168126
2222.000000	5.150451
2221.000000	5.109078
2220.000000	5.084196
2219.000000	5.073828
2218.000000	5.029197
2217.000000	5.001944
2216.000000	4.967088
2215.000000	4.938651
2214.000000	4.898068
2213.000000	4.904782
2212.000000	4.899055
2211.000000	4.866569
2210.000000	4.869433
2209.000000	4.898858
2208.000000	4.902610
2207.000000	4.947340
2206.000000	4.949611
2205.000000	5.014583
2204.000000	5.044501
2203.000000	5.091601
2202.000000	5.169409
2201.000000	5.242281
2200.000000	5.318706
2199.000000	5.388615
2198.000000	5.486073
2197.000000	5.563783
2196.000000	5.647713
2195.000000	5.708439
2194.000000	5.782692
2193.000000	5.862673
2192.000000	5.936531
2191.000000	5.995283
2190.000000	6.049985
2189.000000	6.111600
2188.000000	6.136088
2187.000000	6.172820
2186.000000	6.227917
2185.000000	6.258231
2184.000000	6.292988
2183.000000	6.304047
2182.000000	6.348086
2181.000000	6.359145
2180.000000	6.371487
2179.000000	6.395482
2178.000000	6.414440
2177.000000	6.425894
2176.000000	6.439816
2175.000000	6.442384
2174.000000	6.455121
2173.000000	6.456800
2172.000000	6.500740
2171.000000	6.502813
2170.000000	6.501431
2169.000000	6.513280
2168.000000	6.538558
2167.000000	6.554554
2166.000000	6.569069
2165.000000	6.563046
2164.000000	6.573512
2163.000000	6.600172
2162.000000	6.626536
2161.000000	6.640064
2160.000000	6.645297
2159.000000	6.678277
2158.000000	6.704443
2157.000000	6.701975
2156.000000	6.730610
2155.000000	6.746803
2154.000000	6.776327
2153.000000	6.791928
2152.000000	6.806937
2151.000000	6.806641
2150.000000	6.837744
2149.000000	6.870428
2148.000000	6.890867
2147.000000	6.905382
2146.000000	6.923551
2145.000000	6.964430
2144.000000	6.975489
2143.000000	6.985758
2142.000000	7.005407
2141.000000	7.020218
2140.000000	7.037597
2139.000000	7.050038
2138.000000	7.055173
2137.000000	7.078575
2136.000000	7.099804
2135.000000	7.108395
2134.000000	7.114023
2133.000000	7.124983
2132.000000	7.131204
2131.000000	7.133771
2130.000000	7.141868
2129.000000	7.148879
2128.000000	7.141473
2127.000000	7.142065
2126.000000	7.155593
2125.000000	7.153322
2124.000000	7.147299
2123.000000	7.156087
2122.000000	7.156778
2121.000000	7.143250
2120.000000	7.136240
2119.000000	7.129723
2118.000000	7.129624
2117.000000	7.129229
2116.000000	7.107901
2115.000000	7.113035
2114.000000	7.123107
2113.000000	7.112245
2112.000000	7.103359
2111.000000	7.075909
2110.000000	7.068108
2109.000000	7.078871
2108.000000	7.070478
2107.000000	7.047965
2106.000000	7.026439
2105.000000	7.015084
2104.000000	7.016368
2103.000000	6.996521
2102.000000	6.980821
2101.000000	6.988325
2100.000000	6.985560
2099.000000	6.964923
2098.000000	6.961369
2097.000000	6.957518
2096.000000	6.937671
2095.000000	6.921576
2094.000000	6.923847
2093.000000	6.926710
2092.000000	6.920588
2091.000000	6.921378
2090.000000	6.923057
2089.000000	6.913973
2088.000000	6.901729
2087.000000	6.894619
2086.000000	6.890373
2085.000000	6.889287
2084.000000	6.880203
2083.000000	6.871613
2082.000000	6.863318
2081.000000	6.844360
2080.000000	6.846137
2079.000000	6.835177
2078.000000	6.813355
2077.000000	6.808517
2076.000000	6.797853
2075.000000	6.775241
2074.000000	6.759640
2073.000000	6.762701
2072.000000	6.747100
2071.000000	6.718860
2070.000000	6.710170
2069.000000	6.706517
2068.000000	6.691113
2067.000000	6.688744
2066.000000	6.666823
2065.000000	6.630289
2064.000000	6.612219
2063.000000	6.608467
2062.000000	6.608269
2061.000000	6.597704
2060.000000	6.600074
2059.000000	6.594643
2058.000000	6.579338
2057.000000	6.592372
2056.000000	6.600469
2055.000000	6.599975
2054.000000	6.619625
2053.000000	6.638978
2052.000000	6.667317
2051.000000	6.697433
2050.000000	6.717971
2049.000000	6.770995
2048.000000	6.808418
2047.000000	6.863318
2046.000000	6.885338
2045.000000	6.934610
2044.000000	6.998495
2043.000000	7.044904
2042.000000	7.089634
2041.000000	7.133080
2040.000000	7.193312
2039.000000	7.269639
2038.000000	7.306174
2037.000000	7.345571
2036.000000	7.406001
2035.000000	7.455174
2034.000000	7.494375
2033.000000	7.544832
2032.000000	7.572183
2031.000000	7.601410
2030.000000	7.660063
2029.000000	7.694721
2028.000000	7.732835
2027.000000	7.738069
2026.000000	7.773912
2025.000000	7.801263
2024.000000	7.839673
2023.000000	7.884206
2022.000000	7.908200
2021.000000	7.934169
2020.000000	7.967346
2019.000000	7.978010
2018.000000	8.007830
2017.000000	8.026887
2016.000000	8.043180
2015.000000	8.069741
2014.000000	8.089785
2013.000000	8.100548
2012.000000	8.124937
2011.000000	8.140341
2010.000000	8.175394
2009.000000	8.185565
2008.000000	8.180529
2007.000000	8.185367
2006.000000	8.191390
2005.000000	8.205905
2004.000000	8.201067
2003.000000	8.201067
2002.000000	8.175296
2001.000000	8.186453
2000.000000	8.187934
1999.000000	8.189416
1998.000000	8.173321
1997.000000	8.176184
1996.000000	8.175987
1995.000000	8.151795
1994.000000	8.126320
1993.000000	8.119112
1992.000000	8.111607
1991.000000	8.084453
1990.000000	8.084552
1989.000000	8.051967
1988.000000	8.036663
1987.000000	8.010002
1986.000000	8.010694
1985.000000	7.978208
1984.000000	7.943056
1983.000000	7.904349
1982.000000	7.885983
1981.000000	7.852016
1980.000000	7.825356
1979.000000	7.822295
1978.000000	7.795734
1977.000000	7.779046
1976.000000	7.739747
1975.000000	7.722566
1974.000000	7.708545
1973.000000	7.672998
1972.000000	7.648806
1971.000000	7.613358
1970.000000	7.585809
1969.000000	7.562408
1968.000000	7.554015
1967.000000	7.514222
1966.000000	7.500299
1965.000000	7.487167
1964.000000	7.442634
1963.000000	7.429897
1962.000000	7.401657
1961.000000	7.388326
1960.000000	7.362259
1959.000000	7.349027
1958.000000	7.333327
1957.000000	7.290671
1956.000000	7.287610
1955.000000	7.244855
1954.000000	7.245941
1953.000000	7.218491
1952.000000	7.188276
1951.000000	7.144435
1950.000000	7.134067
1949.000000	7.118269
1948.000000	7.095163
1947.000000	7.098520
1946.000000	7.095064
1945.000000	7.052211
1944.000000	7.044706
1943.000000	7.026834
1942.000000	7.036313
1941.000000	7.033055
1940.000000	7.020811
1939.000000	7.012813
1938.000000	7.019626
1937.000000	7.015578
1936.000000	7.032166
1935.000000	7.027920
1934.000000	7.060505
1933.000000	7.064060
1932.000000	7.103655
1931.000000	7.116491
1930.000000	7.147496
1929.000000	7.184425
1928.000000	7.227575
1927.000000	7.241399
1926.000000	7.278822
1925.000000	7.321182
1924.000000	7.396522
1923.000000	7.452212
1922.000000	7.492499
1921.000000	7.550954
1920.000000	7.594597
1919.000000	7.653842
1918.000000	7.737575
1917.000000	7.845598
1916.000000	7.909582
1915.000000	7.989958
1914.000000	8.059669
1913.000000	8.130368
1912.000000	8.210151
1911.000000	8.279270
1910.000000	8.381961
1909.000000	8.480900
1908.000000	8.578457
1907.000000	8.668410
1906.000000	8.776038
1905.000000	8.859080
1904.000000	8.956735
1903.000000	9.046985
1902.000000	9.145924
1901.000000	9.257699
1900.000000	9.359403
1899.000000	9.453404
1898.000000	9.580880
1897.000000	9.683274
1896.000000	9.781818
1895.000000	9.893989
1894.000000	10.012182
1893.000000	10.124846
1892.000000	10.208875
1891.000000	10.294286
1890.000000	10.390362
1889.000000	10.484561
1888.000000	10.609173
1887.000000	10.753039
1886.000000	10.863333
1885.000000	10.981329
1884.000000	11.139612
1883.000000	11.270444
1882.000000	11.428726
1881.000000	11.588984
1880.000000	11.749932
1879.000000	11.906931
1878.000000	12.061264
1877.000000	12.177581
1876.000000	12.302489
1875.000000	12.414956
1874.000000	12.491579
1873.000000	12.576003
1872.000000	12.656971
1871.000000	12.711871
1870.000000	12.730237
1869.000000	12.755515
1868.000000	12.806564
1867.000000	12.846258
1866.000000	12.876967
1865.000000	12.913797
1864.000000	12.954676
1863.000000	12.977683
1862.000000	13.011058
1861.000000	13.003948
1860.000000	12.975214
1859.000000	12.947863
1858.000000	12.940754
1857.000000	12.932459
1856.000000	12.915476
1855.000000	12.903726
1854.000000	12.867191
1853.000000	12.835693
1852.000000	12.811008
1851.000000	12.808638
1850.000000	12.823153
1849.000000	12.792938
1848.000000	12.715228
1847.000000	12.620733
1846.000000	12.563759
1845.000000	12.566228
1844.000000	12.583211
1843.000000	12.606712
1842.000000	12.598812
1841.000000	12.546479
1840.000000	12.500959
1839.000000	12.475484
1838.000000	12.461759
1837.000000	12.426508
1836.000000	12.380791
1835.000000	12.345442
1834.000000	12.329446
1833.000000	12.322435
1832.000000	12.309697
1831.000000	12.276619
1830.000000	12.226557
1829.000000	12.175409
1828.000000	12.142627
1827.000000	12.110338
1826.000000	12.072718
1825.000000	12.054846
1824.000000	12.053068
1823.000000	12.060869
1822.000000	12.047835
1821.000000	12.015349
1820.000000	11.978716
1819.000000	11.964300
1818.000000	11.975359
1817.000000	11.980296
1816.000000	11.985233
1815.000000	11.985233
1814.000000	11.979309
1813.000000	11.984048
1812.000000	11.965880
1811.000000	11.942379
1810.000000	11.940503
1809.000000	11.933591
1808.000000	11.929938
1807.000000	11.918879
1806.000000	11.887183
1805.000000	11.859042
1804.000000	11.849562
1803.000000	11.832283
1802.000000	11.802068
1801.000000	11.781332
1800.000000	11.763954
1799.000000	11.751611
1798.000000	11.731270
1797.000000	11.714188
1796.000000	11.691774
1795.000000	11.682097
1794.000000	11.665607
1793.000000	11.648722
1792.000000	11.638354
1791.000000	11.605770
1790.000000	11.573975
1789.000000	11.554326
1788.000000	11.544451
1787.000000	11.516211
1786.000000	11.484318
1785.000000	11.455880
1784.000000	11.440477
1783.000000	11.397722
1782.000000	11.381133
1781.000000	11.338576
1780.000000	11.305003
1779.000000	11.266099
1778.000000	11.246252
1777.000000	11.197079
1776.000000	11.166864
1775.000000	11.096857
1774.000000	11.031983
1773.000000	10.998411
1772.000000	10.960198
1771.000000	10.915469
1770.000000	10.872121
1769.000000	10.824133
1768.000000	10.766468
1767.000000	10.729736
1766.000000	10.699916
1765.000000	10.679872
1764.000000	10.675132
1763.000000	10.669405
1762.000000	10.665357
1761.000000	10.695868
1760.000000	10.725194
1759.000000	10.742770
1758.000000	10.773873
1757.000000	10.786611
1756.000000	10.804384
1755.000000	10.814357
1754.000000	10.812185
1753.000000	10.834994
1752.000000	10.824231
1751.000000	10.797769
1750.000000	10.793325
1749.000000	10.770319
1748.000000	10.732303
1747.000000	10.691128
1746.000000	10.662197
1745.000000	10.629020
1744.000000	10.564542
1743.000000	10.490880
1742.000000	10.418602
1741.000000	10.346323
1740.000000	10.261405
1739.000000	10.193669
1738.000000	10.117638
1737.000000	10.057801
1736.000000	10.008529
1735.000000	9.990360
1734.000000	9.986608
1733.000000	9.987398
1732.000000	10.008825
1731.000000	10.013367
1730.000000	10.078141
1729.000000	10.119020
1728.000000	10.154863
1727.000000	10.206999
1726.000000	10.226352
1725.000000	10.252519
1724.000000	10.274736
1723.000000	10.292706
1722.000000	10.310085
1721.000000	10.308505
1720.000000	10.293990
1719.000000	10.336350
1718.000000	10.350470
1717.000000	10.369034
1716.000000	10.402606
1715.000000	10.399150
1714.000000	10.462838
1713.000000	10.467281
1712.000000	10.475872
1711.000000	10.497200
1710.000000	10.527415
1709.000000	10.534722
1708.000000	10.497694
1707.000000	10.537289
1706.000000	10.514776
1705.000000	10.497792
1704.000000	10.494336
1703.000000	10.472613
1702.000000	10.425612
1701.000000	10.374267
1700.000000	10.330524
1699.000000	10.275130
1698.000000	10.224081
1697.000000	10.186263
1696.000000	10.183597
1695.000000	10.162763
1694.000000	10.195545
1693.000000	10.241361
1692.000000	10.291620
1691.000000	10.342176
1690.000000	10.395891
1689.000000	10.426304
1688.000000	10.450002
1687.000000	10.452964
1686.000000	10.475378
1685.000000	10.468367
1684.000000	10.520305
1683.000000	10.596238
1682.000000	10.706532
1681.000000	10.863432
1680.000000	11.044721
1679.000000	11.237859
1678.000000	11.417174
1677.000000	11.604091
1676.000000	11.764151
1675.000000	11.924310
1674.000000	12.052180
1673.000000	12.178964
1672.000000	12.222311
1671.000000	12.308117
1670.000000	12.379508
1669.000000	12.443591
1668.000000	12.511624
1667.000000	12.594073
1666.000000	12.627447
1665.000000	12.667141
1664.000000	12.678200
1663.000000	12.698936
1662.000000	12.732113
1661.000000	12.759070
1660.000000	12.765192
1659.000000	12.765389
1658.000000	12.778127
1657.000000	12.772498
1656.000000	12.773486
1655.000000	12.792938
1654.000000	12.760057
1653.000000	12.749985
1652.000000	12.748702
1651.000000	12.717499
1650.000000	12.715623
1649.000000	12.697554
1648.000000	12.677410
1647.000000	12.664278
1646.000000	12.651935
1645.000000	12.608983
1644.000000	12.585482
1643.000000	12.563759
1642.000000	12.536309
1641.000000	12.535618
1640.000000	12.506884
1639.000000	12.475583
1638.000000	12.450009
1637.000000	12.422954
1636.000000	12.389875
1635.000000	12.367659
1634.000000	12.335963
1633.000000	12.300514
1632.000000	12.247984
1631.000000	12.234358
1630.000000	12.214511
1629.000000	12.177088
1628.000000	12.130185
1627.000000	12.103920
1626.000000	12.079630
1625.000000	12.040726
1624.000000	12.001822
1623.000000	11.969039
1622.000000	11.935072
1621.000000	11.907129
1620.000000	11.895477
1619.000000	11.843737
1618.000000	11.813917
1617.000000	11.791009
1616.000000	11.763954
1615.000000	11.721692
1614.000000	11.699278
1613.000000	11.678641
1612.000000	11.659386
1611.000000	11.638848
1610.000000	11.599352
1609.000000	11.578221
1608.000000	11.561237
1607.000000	11.529146
1606.000000	11.512459
1605.000000	11.484120
1604.000000	11.445315
1603.000000	11.422407
1602.000000	11.393476
1601.000000	11.368988
1600.000000	11.345389
1599.000000	11.314878
1598.000000	11.285255
1597.000000	11.277553
1596.000000	11.263433
1595.000000	11.235193
1594.000000	11.217321
1593.000000	11.194216
1592.000000	11.176442
1591.000000	11.155213
1590.000000	11.142376
1589.000000	11.127368
1588.000000	11.124307
1587.000000	11.118382
1586.000000	11.110285
1585.000000	11.103966
1584.000000	11.082045
1583.000000	11.079182
1582.000000	11.080959
1581.000000	11.078589
1580.000000	11.070888
1579.000000	11.070196
1578.000000	11.066444
1577.000000	11.050942
1576.000000	11.057064
1575.000000	11.067432
1574.000000	11.081947
1573.000000	11.079281
1572.000000	11.074047
1571.000000	11.088167
1570.000000	11.108311
1569.000000	11.127368
1568.000000	11.137637
1567.000000	11.148795
1566.000000	11.163606
1565.000000	11.167950
1564.000000	11.185526
1563.000000	11.209323
1562.000000	11.222159
1561.000000	11.237464
1560.000000	11.253164
1559.000000	11.254942
1558.000000	11.255040
1557.000000	11.269457
1556.000000	11.277455
1555.000000	11.281108
1554.000000	11.288119
1553.000000	11.297302
1552.000000	11.294932
1551.000000	11.289896
1550.000000	11.286934
1549.000000	11.305892
1548.000000	11.318926
1547.000000	11.308361
1546.000000	11.334132
1545.000000	11.345586
1544.000000	11.334330
1543.000000	11.335317
1542.000000	11.347956
1541.000000	11.347561
1540.000000	11.350819
1539.000000	11.363458
1538.000000	11.370272
1537.000000	11.374320
1536.000000	11.368198
1535.000000	11.376097
1534.000000	11.396043
1533.000000	11.399993
1532.000000	11.381331
1531.000000	11.382614
1530.000000	11.391205
1529.000000	11.383207
1528.000000	11.388144
1527.000000	11.384885
1526.000000	11.357435
1525.000000	11.361879
1524.000000	11.364643
1523.000000	11.364742
1522.000000	11.360694
1521.000000	11.348153
1520.000000	11.340649
1519.000000	11.328800
1518.000000	11.318827
1517.000000	11.313791
1516.000000	11.307669
1515.000000	11.303127
1514.000000	11.290587
1513.000000	11.278047
1512.000000	11.272518
1511.000000	11.255139
1510.000000	11.239044
1509.000000	11.242105
1508.000000	11.234008
1507.000000	11.223641
1506.000000	11.202115
1505.000000	11.194314
1504.000000	11.202115
1503.000000	11.183354
1502.000000	11.184736
1501.000000	11.175850
1500.000000	11.174369
1499.000000	11.162618
1498.000000	11.150868
1497.000000	11.158965
1496.000000	11.161828
1495.000000	11.155213
1494.000000	11.154522
1493.000000	11.166074
1492.000000	11.157977
1491.000000	11.171999
1490.000000	11.159557
1489.000000	11.182070
1488.000000	11.203102
1487.000000	11.194907
1486.000000	11.210705
1485.000000	11.194314
1484.000000	11.184539
1483.000000	11.216136
1482.000000	11.231540
1481.000000	11.253559
1480.000000	11.244475
1479.000000	11.247832
1478.000000	11.257805
1477.000000	11.253065
1476.000000	11.266692
1475.000000	11.292760
1474.000000	11.294241
1473.000000	11.318531
1472.000000	11.329689
1471.000000	11.354769
1470.000000	11.363162
1469.000000	11.352202
1468.000000	11.374912
1467.000000	11.383898
1466.000000	11.393673
1465.000000	11.413816
1464.000000	11.420926
1463.000000	11.451634
1462.000000	11.455782
1461.000000	11.495673
1460.000000	11.532207
1459.000000	11.529344
1458.000000	11.555609
1457.000000	11.594612
1456.000000	11.627592
1455.000000	11.674000
1454.000000	11.692465
1453.000000	11.727715
1452.000000	11.766817
1451.000000	11.802660
1450.000000	11.821322
1449.000000	11.859634
1448.000000	11.899032
1447.000000	11.943564
1446.000000	12.007746
1445.000000	12.034999
1444.000000	12.067287
1443.000000	12.098786
1442.000000	12.143022
1441.000000	12.211943
1440.000000	12.250551
1439.000000	12.287283
1438.000000	12.308117
1437.000000	12.371213
1436.000000	12.385827
1435.000000	12.437765
1434.000000	12.504020
1433.000000	12.539271
1432.000000	12.577978
1431.000000	12.619647
1430.000000	12.671486
1429.000000	12.719474
1428.000000	12.804194
1427.000000	12.871635
1426.000000	12.925251
1425.000000	13.010959
1424.000000	13.091532
1423.000000	13.144359
1422.000000	13.189582
1421.000000	13.286546
1420.000000	13.353394
1419.000000	13.439398
1418.000000	13.502395
1417.000000	13.542484
1416.000000	13.642213
1415.000000	13.684079
1414.000000	13.740066
1413.000000	13.782228
1412.000000	13.822317
1411.000000	13.935771
1410.000000	13.993831
1409.000000	14.081316
1408.000000	14.170578
1407.000000	14.244437
1406.000000	14.357693
1405.000000	14.470554
1404.000000	14.554978
1403.000000	14.638316
1402.000000	14.753844
1401.000000	14.872136
1400.000000	14.914792
1399.000000	14.932664
1398.000000	14.968902
1397.000000	15.008991
1396.000000	15.051746
1395.000000	15.008103
1394.000000	14.986775
1393.000000	14.946291
1392.000000	14.928616
1391.000000	14.899191
1390.000000	14.912916
1389.000000	14.904128
1388.000000	14.947377
1387.000000	14.974234
1386.000000	15.038811
1385.000000	15.147131
1384.000000	15.255253
1383.000000	15.347181
1382.000000	15.473767
1381.000000	15.560067
1380.000000	15.660586
1379.000000	15.813536
1378.000000	15.944073
1377.000000	16.098899
1376.000000	16.291840
1375.000000	16.498111
1374.000000	16.747729
1373.000000	17.005444
1372.000000	17.232747
1371.000000	17.456001
1370.000000	17.650028
1369.000000	17.842870
1368.000000	17.989205
1367.000000	18.090514
1366.000000	18.212064
1365.000000	18.326407
1364.000000	18.383973
1363.000000	18.470372
1362.000000	18.537022
1361.000000	18.556672
1360.000000	18.579185
1359.000000	18.610190
1358.000000	18.637738
1357.000000	18.708931
1356.000000	18.832259
1355.000000	19.001699
1354.000000	19.205699
1353.000000	19.401602
1352.000000	19.654973
1351.000000	19.871019
1350.000000	20.093582
1349.000000	20.288399
1348.000000	20.451026
1347.000000	20.586005
1346.000000	20.710913
1345.000000	20.860803
1344.000000	21.008125
1343.000000	21.117333
1342.000000	21.225948
1341.000000	21.329726
1340.000000	21.433503
1339.000000	21.525332
1338.000000	21.629011
1337.000000	21.729332
1336.000000	21.801018
1335.000000	21.882776
1334.000000	21.956931
1333.000000	22.039874
1332.000000	22.112350
1331.000000	22.176236
1330.000000	22.243380
1329.000000	22.294627
1328.000000	22.348441
1327.000000	22.414598
1326.000000	22.449947
1325.000000	22.489641
1324.000000	22.541579
1323.000000	22.578508
1322.000000	22.619684
1321.000000	22.661550
1320.000000	22.711513
1319.000000	22.746764
1318.000000	22.764537
1317.000000	22.790309
1316.000000	22.834644
1315.000000	22.865253
1314.000000	22.875819
1313.000000	22.902874
1312.000000	22.925387
1311.000000	22.926572
1310.000000	22.936643
1309.000000	22.951455
1308.000000	22.970808
1307.000000	22.986903
1306.000000	22.991741
1305.000000	22.989964
1304.000000	22.996481
1303.000000	22.989569
1302.000000	22.977522
1301.000000	22.979991
1300.000000	22.974758
1299.000000	22.959552
1298.000000	22.952343
1297.000000	22.952936
1296.000000	22.946024
1295.000000	22.929534
1294.000000	22.910477
1293.000000	22.892111
1292.000000	22.880953
1291.000000	22.882731
1290.000000	22.879077
1289.000000	22.851232
1288.000000	22.831583
1287.000000	22.808378
1286.000000	22.779348
1285.000000	22.752886
1284.000000	22.729287
1283.000000	22.715364
1282.000000	22.693443
1281.000000	22.675275
1280.000000	22.654144
1279.000000	22.639629
1278.000000	22.622350
1277.000000	22.597862
1276.000000	22.594504
1275.000000	22.579200
1274.000000	22.557871
1273.000000	22.542172
1272.000000	22.527262
1271.000000	22.514721
1270.000000	22.491320
1269.000000	22.479569
1268.000000	22.466832
1267.000000	22.447577
1266.000000	22.426249
1265.000000	22.414499
1264.000000	22.386358
1263.000000	22.348046
1262.000000	22.326323
1261.000000	22.317436
1260.000000	22.288505
1259.000000	22.251674
1258.000000	22.219386
1257.000000	22.205463
1256.000000	22.171891
1255.000000	22.136344
1254.000000	22.110474
1253.000000	22.082925
1252.000000	22.041158
1251.000000	22.004722
1250.000000	21.961473
1249.000000	21.929382
1248.000000	21.890873
1247.000000	21.846933
1246.000000	21.807239
1245.000000	21.762411
1244.000000	21.709979
1243.000000	21.652413
1242.000000	21.599586
1241.000000	21.548438
1240.000000	21.483762
1239.000000	21.435971
1238.000000	21.380775
1237.000000	21.311261
1236.000000	21.256756
1235.000000	21.200671
1234.000000	21.131453
1233.000000	21.074479
1232.000000	21.006644
1231.000000	20.934168
1230.000000	20.843918
1229.000000	20.785068
1228.000000	20.712394
1227.000000	20.646040
1226.000000	20.574551
1225.000000	20.479365
1224.000000	20.419824
1223.000000	20.364035
1222.000000	20.279216
1221.000000	20.200124
1220.000000	20.132387
1219.000000	20.066428
1218.000000	19.992372
1217.000000	19.942508
1216.000000	19.881683
1215.000000	19.816415
1214.000000	19.749863
1213.000000	19.721031
1212.000000	19.667019
1211.000000	19.623968
1210.000000	19.580028
1209.000000	19.533619
1208.000000	19.505577
1207.000000	19.484446
1206.000000	19.469832
1205.000000	19.445739
1204.000000	19.430336
1203.000000	19.435075
1202.000000	19.421350
1201.000000	19.421054
1200.000000	19.419376
1199.000000	19.391925
1198.000000	19.350849
1197.000000	19.297529
1196.000000	19.212611
1195.000000	19.120979
1194.000000	19.002292
1193.000000	18.834036
1192.000000	18.651069
1191.000000	18.467903
1190.000000	18.283849
1189.000000	18.148376
1188.000000	18.037391
1187.000000	18.004905
1186.000000	18.010533
1185.000000	18.048746
1184.000000	18.157658
1183.000000	18.313768
1182.000000	18.516780
1181.000000	18.725717
1180.000000	18.926162
1179.000000	19.141616
1178.000000	19.313920
1177.000000	19.480299
1176.000000	19.605306
1175.000000	19.738113
1174.000000	19.873685
1173.000000	19.997507
1172.000000	20.149371
1171.000000	20.310221
1170.000000	20.483413
1169.000000	20.652063
1168.000000	20.790795
1167.000000	20.959248
1166.000000	21.118715
1165.000000	21.296154
1164.000000	21.455325
1163.000000	21.634244
1162.000000	21.789762
1161.000000	21.970557
1160.000000	22.129827
1159.000000	22.252069
1158.000000	22.386753
1157.000000	22.537037
1156.000000	22.640222
1155.000000	22.702429
1154.000000	22.766611
1153.000000	22.797813
1152.000000	22.758711
1151.000000	22.773424
1150.000000	22.787840
1149.000000	22.753281
1148.000000	22.764537
1147.000000	22.782014
1146.000000	22.837902
1145.000000	22.903763
1144.000000	22.998357
1143.000000	23.114773
1142.000000	23.272364
1141.000000	23.408331
1140.000000	23.547754
1139.000000	23.702976
1138.000000	23.857901
1137.000000	24.017961
1136.000000	24.175947
1135.000000	24.325836
1134.000000	24.480860
1133.000000	24.552744
1132.000000	24.664914
1131.000000	24.796043
1130.000000	24.884318
1129.000000	24.975752
1128.000000	25.038651
1127.000000	25.094736
1126.000000	25.131665
1125.000000	25.148056
1124.000000	25.182122
1123.000000	25.209078
1122.000000	25.227642
1121.000000	25.250451
1120.000000	25.256968
1119.000000	25.277013
1118.000000	25.274544
1117.000000	25.289553
1116.000000	25.272372
1115.000000	25.283924
1114.000000	25.278296
1113.000000	25.282246
1112.000000	25.271878
1111.000000	25.270002
1110.000000	25.266645
1109.000000	25.244922
1108.000000	25.253216
1107.000000	25.265657
1106.000000	25.260819
1105.000000	25.250254
1104.000000	25.247686
1103.000000	25.257758
1102.000000	25.250254
1101.000000	25.244329
1100.000000	25.235640
1099.000000	25.219446
1098.000000	25.212337
1097.000000	25.207795
1096.000000	25.200587
1095.000000	25.201772
1094.000000	25.183011
1093.000000	25.159313
1092.000000	25.145193
1091.000000	25.130283
1090.000000	25.119619
1089.000000	25.120014
1088.000000	25.112312
1087.000000	25.103524
1086.000000	25.083973
1085.000000	25.065410
1084.000000	25.063830
1083.000000	25.056128
1082.000000	25.036577
1081.000000	25.026111
1080.000000	24.999253
1079.000000	24.980196
1078.000000	24.992736
1077.000000	24.972395
1076.000000	24.952943
1075.000000	24.962620
1074.000000	24.944451
1073.000000	24.945735
1072.000000	24.933590
1071.000000	24.916211
1070.000000	24.886095
1069.000000	24.874839
1068.000000	24.867137
1067.000000	24.852918
1066.000000	24.839094
1065.000000	24.837120
1064.000000	24.839884
1063.000000	24.847882
1062.000000	24.834750
1061.000000	24.814113
1060.000000	24.797722
1059.000000	24.797623
1058.000000	24.780541
1057.000000	24.768297
1056.000000	24.758028
1055.000000	24.740452
1054.000000	24.736206
1053.000000	24.720506
1052.000000	24.709447
1051.000000	24.699573
1050.000000	24.692858
1049.000000	24.688217
1048.000000	24.686736
1047.000000	24.685946
1046.000000	24.678343
1045.000000	24.661557
1044.000000	24.656324
1043.000000	24.650202
1042.000000	24.655139
1041.000000	24.655139
1040.000000	24.646845
1039.000000	24.645857
1038.000000	24.625319
1037.000000	24.615248
1036.000000	24.604189
1035.000000	24.606558
1034.000000	24.587501
1033.000000	24.552251
1032.000000	24.544154
1031.000000	24.536254
1030.000000	24.515420
1029.000000	24.488365
1028.000000	24.473652
1027.000000	24.467432
1026.000000	24.461803
1025.000000	24.441364
1024.000000	24.412038
1023.000000	24.390907
1022.000000	24.394758
1021.000000	24.390315
1020.000000	24.386859
1019.000000	24.370468
1018.000000	24.347362
1017.000000	24.354274
1016.000000	24.357829
1015.000000	24.341240
1014.000000	24.333143
1013.000000	24.355656
1012.000000	24.374615
1011.000000	24.387945
1010.000000	24.399794
1009.000000	24.419246
1008.000000	24.464173
1007.000000	24.466247
1006.000000	24.492907
1005.000000	24.533095
1004.000000	24.541389
1003.000000	24.575850
1002.000000	24.613075
1001.000000	24.630849
1000.000000	24.655337
999.000000	24.679035
998.000000	24.724554
997.000000	24.765927
996.000000	24.785675
995.000000	24.809768
994.000000	24.840181
993.000000	24.867137
992.000000	24.904461
991.000000	24.929541
990.000000	24.939613
989.000000	24.975061
988.000000	25.000635
987.000000	25.004782
986.000000	25.028678
985.000000	25.049809
984.000000	25.094143
983.000000	25.114484
982.000000	25.119816
981.000000	25.127617
980.000000	25.148352
979.000000	25.158227
978.000000	25.165139
977.000000	25.187355
976.000000	25.218360
975.000000	25.218953
974.000000	25.252031
973.000000	25.251142
972.000000	25.253611
971.000000	25.268422
970.000000	25.288269
969.000000	25.309696
968.000000	25.311770
967.000000	25.347711
966.000000	25.364695
965.000000	25.362029
964.000000	25.384542
963.000000	25.427889
962.000000	25.438356
961.000000	25.467583
960.000000	25.484863
959.000000	25.497897
958.000000	25.533148
957.000000	25.580149
956.000000	25.592491
955.000000	25.613326
954.000000	25.656476
953.000000	25.696565
952.000000	25.719177
951.000000	25.753736
950.000000	25.762425
949.000000	25.788987
948.000000	25.821176
947.000000	25.847244
946.000000	25.878249
945.000000	25.909254
944.000000	25.935124
943.000000	25.957637
942.000000	26.004737
941.000000	26.029225
940.000000	26.057366
939.000000	26.082249
938.000000	26.155317
937.000000	26.173091
936.000000	26.184446
935.000000	26.216438
934.000000	26.235989
933.000000	26.286446
932.000000	26.286249
931.000000	26.306096
930.000000	26.352800
929.000000	26.347567
928.000000	26.358429
927.000000	26.364945
926.000000	26.390026
925.000000	26.402763
924.000000	26.417673
923.000000	26.424487
922.000000	26.463489
921.000000	26.464773
920.000000	26.462897
919.000000	26.477412
918.000000	26.471784
917.000000	26.486792
916.000000	26.502788
915.000000	26.495580
914.000000	26.507429
913.000000	26.531621
912.000000	26.515822
911.000000	26.524215
910.000000	26.513650
909.000000	26.576845
908.000000	26.565588
907.000000	26.570723
906.000000	26.580597
905.000000	26.602814
904.000000	26.661367
903.000000	26.669069
902.000000	26.709454
901.000000	26.710738
900.000000	26.741940
899.000000	26.774821
898.000000	26.801383
897.000000	26.854900
896.000000	26.859739
895.000000	26.863096
894.000000	26.902099
893.000000	26.940312
892.000000	26.950383
891.000000	26.951469
890.000000	26.901210
889.000000	26.900716
888.000000	26.901803
887.000000	26.890842
886.000000	26.899137
885.000000	26.872674
884.000000	26.839694
883.000000	26.817971
882.000000	26.740163
881.000000	26.659689
880.000000	26.611207
879.000000	26.589483
878.000000	26.518291
877.000000	26.421327
876.000000	26.378276
875.000000	26.278152
874.000000	26.220289
873.000000	26.136359
872.000000	26.027349
871.000000	25.951515
870.000000	25.853860
869.000000	25.781186
868.000000	25.705945
867.000000	25.656081
866.000000	25.587061
865.000000	25.519324
864.000000	25.412190
863.000000	25.306832
862.000000	25.194366
861.000000	25.124556
860.000000	25.033812
859.000000	24.963212
858.000000	24.841267
857.000000	24.693000
856.000000	24.771500
855.000000	25.059300
854.000000	24.785400
853.000000	24.989200
852.000000	24.943700
851.000000	24.830600
850.000000	24.898100
849.000000	25.063900
848.000000	25.207200
847.000000	25.028900
846.000000	25.105300
845.000000	25.018400
844.000000	25.064500
843.000000	25.139600
842.000000	25.179600
841.000000	25.171600
840.000000	25.153900
839.000000	25.084000
838.000000	25.158900
837.000000	24.995400
836.000000	24.989200
835.000000	24.909500
834.000000	24.850000
833.000000	24.989100
832.000000	24.863600
831.000000	24.798100
830.000000	24.858200
829.000000	24.813100
828.000000	24.875400
827.000000	24.769800
826.000000	24.702800
825.000000	24.614500
824.000000	24.661400
823.000000	24.613900
822.000000	24.479700
821.000000	24.468800
820.000000	24.402700
819.000000	24.394300
818.000000	24.380100
817.000000	24.361100
816.000000	24.314600
815.000000	24.244100
814.000000	24.298500
813.000000	24.232500
812.000000	24.157800
811.000000	24.107800
810.000000	24.138500
809.000000	24.145400
808.000000	24.075000
807.000000	23.976100
806.000000	23.936100
805.000000	23.927500
804.000000	23.884100
803.000000	23.831900
802.000000	23.869600
801.000000	23.880500
800.000000	23.808500
799.000000	23.728200
798.000000	23.706100
797.000000	23.696000
796.000000	23.602900
795.000000	23.570400
794.000000	23.511800
793.000000	23.470600
792.000000	23.443200
791.000000	23.410600
790.000000	23.361800
789.000000	23.287600
788.000000	23.228200
787.000000	23.194000
786.000000	23.166000
785.000000	23.127900
784.000000	23.034200
783.000000	22.978100
782.000000	22.916900
781.000000	22.876400
780.000000	22.819100
779.000000	22.777400
778.000000	22.698500
777.000000	22.658800
776.000000	22.656500
775.000000	22.603400
774.000000	22.501500
773.000000	22.482300
772.000000	22.442200
771.000000	22.381900
770.000000	22.355900
769.000000	22.322300
768.000000	22.305300
767.000000	22.261300
766.000000	22.234100
765.000000	22.219900
764.000000	22.188300
763.000000	22.141300
762.000000	22.139100
761.000000	22.106900
760.000000	22.100500
759.000000	22.080300
758.000000	22.083800
757.000000	22.107200
756.000000	22.075600
755.000000	22.078900
754.000000	22.046100
753.000000	22.019800
752.000000	22.031900
751.000000	22.041700
750.000000	22.045200
749.000000	22.036100
748.000000	21.999800
747.000000	22.006000
746.000000	22.035200
745.000000	22.026100
744.000000	22.038800
743.000000	22.048200
742.000000	22.046900
741.000000	22.060900
740.000000	22.032600
739.000000	21.991700
738.000000	21.974900
737.000000	21.961200
736.000000	21.946100
735.000000	21.907700
734.000000	21.863100
733.000000	21.838200
732.000000	21.825500
731.000000	21.776500
730.000000	21.699300
729.000000	21.642900
728.000000	21.591000
727.000000	21.531100
726.000000	21.457600
725.000000	21.383900
724.000000	21.317800
723.000000	21.280100
722.000000	21.226500
721.000000	21.155300
720.000000	21.067000
719.000000	20.984900
718.000000	20.938400
717.000000	20.884200
716.000000	20.810300
715.000000	20.727700
714.000000	20.659100
713.000000	20.600100
712.000000	20.566300
711.000000	20.475000
710.000000	20.389400
709.000000	20.349000
708.000000	20.295600
707.000000	20.249300
706.000000	20.193800
705.000000	20.159400
704.000000	20.124900
703.000000	20.120800
702.000000	20.094500
701.000000	20.076400
700.000000	20.070100
699.000000	20.061600
698.000000	20.053300
697.000000	20.052600
696.000000	20.063900
695.000000	20.079100
694.000000	20.078400
693.000000	20.055900
692.000000	20.050200
691.000000	20.043800
690.000000	20.030100
689.000000	20.009300
688.000000	20.013400
687.000000	20.007500
686.000000	19.973700
685.000000	19.983800
684.000000	19.968700
683.000000	19.976200
682.000000	19.978200
681.000000	19.984000
680.000000	19.969200
679.000000	19.983000
678.000000	19.993900
677.000000	19.984700
676.000000	19.971100
675.000000	19.984200
674.000000	19.997000
673.000000	19.975600
672.000000	19.957500
671.000000	19.951700
670.000000	19.947300
669.000000	19.924900
668.000000	19.885700
667.000000	19.841100
666.000000	19.768900
665.000000	19.718000
664.000000	19.669800
663.000000	19.588900
662.000000	19.508500
661.000000	19.422000
660.000000	19.337900
659.000000	19.222200
658.000000	19.134400
657.000000	19.031200
656.000000	18.911400
655.000000	18.793300
654.000000	18.680700
653.000000	18.545700
652.000000	18.425200
651.000000	18.280600
650.000000	18.141200
649.000000	18.014300
648.000000	17.897200
647.000000	17.766800
646.000000	17.641300
645.000000	17.547200
644.000000	17.450500
643.000000	17.395800
642.000000	17.324200
641.000000	17.316800
640.000000	17.281900
639.000000	17.331100
638.000000	17.412100
637.000000	17.529800
636.000000	17.702100
635.000000	17.912800
634.000000	18.160100
633.000000	18.438600
632.000000	18.722000
631.000000	19.051100
630.000000	19.404800
629.000000	19.736700
628.000000	20.088700
627.000000	20.395900
626.000000	20.707200
625.000000	21.018900
624.000000	21.343900
623.000000	21.641000
622.000000	21.913300
621.000000	22.201100
620.000000	22.509700
619.000000	22.749600
618.000000	23.034300
617.000000	23.272400
616.000000	23.527300
615.000000	23.768400
614.000000	24.009600
613.000000	24.250500
612.000000	24.491500
611.000000	24.709000
610.000000	24.894200
609.000000	25.072100
608.000000	25.229500
607.000000	25.362800
606.000000	25.454500
605.000000	25.574200
604.000000	25.635800
603.000000	25.649700
602.000000	25.692900
601.000000	25.710700
600.000000	25.675700
599.000000	25.685300
598.000000	25.682100
597.000000	25.655200
596.000000	25.679300
595.000000	25.668800
594.000000	25.669900
593.000000	25.713300
592.000000	25.730600
591.000000	25.783600
590.000000	25.832100
589.000000	25.888300
588.000000	25.944800
587.000000	25.981300
586.000000	26.050200
585.000000	26.115700
584.000000	26.159400
583.000000	26.194600
582.000000	26.255100
581.000000	26.260300
580.000000	26.267200
579.000000	26.263400
578.000000	26.270300
577.000000	26.265400
576.000000	26.210400
575.000000	26.180200
574.000000	26.154600
573.000000	26.104900
572.000000	26.089400
571.000000	26.038100
570.000000	26.016700
569.000000	26.024800
568.000000	25.990600
567.000000	25.979100
566.000000	25.968600
565.000000	25.944700
564.000000	25.926200
563.000000	25.901100
562.000000	25.847400
561.000000	25.789300
560.000000	25.798200
559.000000	26.369600
558.000000	26.252200
557.000000	26.089100
556.000000	25.893800
555.000000	25.685500
554.000000	25.483900
553.000000	25.227900
552.000000	24.949500
551.000000	24.676600
550.000000	24.369100
549.000000	24.067300
548.000000	23.741200
547.000000	23.416700
546.000000	23.087200
545.000000	22.729900
544.000000	22.341000
543.000000	21.948600
542.000000	21.543700
541.000000	21.129900
540.000000	20.693000
539.000000	20.266800
538.000000	19.848000
537.000000	19.427100
536.000000	19.007200
535.000000	18.580900
534.000000	18.160800
533.000000	17.755400
532.000000	17.347400
531.000000	16.947500
530.000000	16.569900
529.000000	16.201900
528.000000	15.867600
527.000000	15.545200
526.000000	15.243900
525.000000	14.953200
524.000000	14.692200
523.000000	14.430600
522.000000	14.186300
521.000000	13.956300
520.000000	13.747300
519.000000	13.541400
518.000000	13.365200
517.000000	13.199200
516.000000	13.023500
515.000000	12.863900
514.000000	12.716400
513.000000	12.546800
512.000000	12.387300
511.000000	12.225200
510.000000	12.054400
509.000000	11.899100
508.000000	11.757700
507.000000	11.619100
506.000000	11.473400
505.000000	11.332700
504.000000	11.182900
503.000000	11.036100
502.000000	10.898700
501.000000	10.761200
500.000000	10.616600
499.000000	10.477100
498.000000	10.352100
497.000000	10.214000
496.000000	10.069200
495.000000	9.935500
494.000000	9.799200
493.000000	9.664300
492.000000	9.537900
491.000000	9.411700
490.000000	9.277900
489.000000	9.153700
488.000000	9.018700
487.000000	8.884300
486.000000	8.743800
485.000000	8.625800
484.000000	8.507200
483.000000	8.382000
482.000000	8.258400
481.000000	8.138800
480.000000	8.020100
479.000000	7.904600
478.000000	7.789200
477.000000	7.674100
476.000000	7.557000
475.000000	7.440700
474.000000	7.316400
473.000000	7.203300
472.000000	7.095300
471.000000	6.988900
470.000000	6.888800
469.000000	6.798700
468.000000	6.723700
467.000000	6.650800
466.000000	6.579000
465.000000	6.520100
464.000000	6.462500
463.000000	6.419000
462.000000	6.397100
461.000000	6.372100
460.000000	6.353500
459.000000	6.338000
458.000000	6.328200
457.000000	6.339400
456.000000	6.357700
455.000000	6.370300
454.000000	6.392000
453.000000	6.418500
452.000000	6.441600
451.000000	6.476000
450.000000	6.514000
449.000000	6.542800
448.000000	6.569200
447.000000	6.595500
446.000000	6.608300
445.000000	6.626600
444.000000	6.636200
443.000000	6.638400
442.000000	6.636600
441.000000	6.621100
440.000000	6.606600
439.000000	6.586100
438.000000	6.558200
437.000000	6.524700
436.000000	6.484900
435.000000	6.442100
434.000000	6.399800
433.000000	6.352000
432.000000	6.307000
431.000000	6.263600
430.000000	6.214000
429.000000	6.158300
428.000000	6.097200
427.000000	6.044200
426.000000	5.992700
425.000000	5.928900
424.000000	5.851600
423.000000	5.779800
422.000000	5.711200
421.000000	5.637600
420.000000	5.561300
419.000000	5.483400
418.000000	5.400800
417.000000	5.328900
416.000000	5.260100
415.000000	5.177200
414.000000	5.092000
413.000000	4.992900
412.000000	4.898700
411.000000	4.803700
410.000000	4.713600
409.000000	4.610600
408.000000	4.519900
407.000000	4.429700
406.000000	4.324700
405.000000	4.221500
404.000000	4.121200
403.000000	4.028700
402.000000	3.936000
401.000000	3.839000
400.000000	3.748100
399.000000	3.655600
398.000000	3.560400
397.000000	3.472700
396.000000	3.394100
395.000000	3.313500
394.000000	3.232700
393.000000	3.160000
392.000000	3.089500
391.000000	3.037700
390.000000	2.967100
389.000000	2.909300
388.000000	2.861700
387.000000	2.819500
386.000000	2.782500
385.000000	2.739700
384.000000	2.700000
383.000000	2.661200
382.000000	2.638700
381.000000	2.609200
380.000000	2.573000
379.000000	2.552400
378.000000	2.540500
377.000000	2.509900
376.000000	2.818900
375.000000	2.699800
374.000000	2.647800
373.000000	2.786600
372.000000	2.800100
371.000000	2.748600
370.000000	2.761600
369.000000	2.785900
368.000000	2.784200
367.000000	2.735600
366.000000	2.692200
365.000000	2.753300
364.000000	2.742800
363.000000	2.759700
362.000000	2.840500
361.000000	2.765000
360.000000	2.777100
359.000000	2.714200
358.000000	2.756500
357.000000	2.810900
356.000000	2.703100
355.000000	2.709200
354.000000	2.691700
353.000000	2.689200
352.000000	2.733700
351.000000	2.676600
350.000000	2.685600
349.000000	2.595100
348.000000	2.624400
347.000000	2.614600
346.000000	2.557400
345.000000	2.664200
344.000000	2.729500
343.000000	2.643400
342.000000	2.742900
341.000000	2.724800
340.000000	2.691700
339.000000	2.711900
338.000000	2.711200
337.000000	2.780500
336.000000	2.888500
335.000000	2.850400
334.000000	2.904300
333.000000	2.854100
332.000000	2.774800
331.000000	2.862100
330.000000	2.853700
329.000000	2.934100
328.000000	3.034300
327.000000	3.094200
326.000000	3.018300
325.000000	2.866400
324.000000	2.807700
323.000000	2.954400
322.000000	2.858400
321.000000	3.068400
320.000000	3.116000
319.000000	3.333500
318.000000	2.958700
317.000000	3.021200
316.000000	2.558400
315.000000	2.580600
314.000000	2.570700
313.000000	2.543200
312.000000	2.571300
311.000000	2.589100
310.000000	2.579200
309.000000	2.589900
308.000000	2.543300
307.000000	2.600200
306.000000	2.565100
305.000000	2.548500
304.000000	2.542300
303.000000	2.526300
302.000000	2.569100
301.000000	2.563000
300.000000	2.488900
299.000000	2.538700
298.000000	2.536700
297.000000	2.606200
296.000000	2.556600
295.000000	2.565000
294.000000	2.557400
293.000000	2.607100
292.000000	2.592800
291.000000	2.578400
290.000000	2.572700
289.000000	2.610000
288.000000	2.579700
287.000000	2.577700
286.000000	2.622200
285.000000	2.544700
284.000000	2.632300
283.000000	2.627400
282.000000	2.605900
281.000000	2.578600
280.000000	2.584100
279.000000	2.621800
278.000000	2.595400
277.000000	2.634700
276.000000	2.644200
275.000000	2.627900
274.000000	2.637600
273.000000	2.617500
272.000000	2.653100
271.000000	2.647700
270.000000	2.632900
269.000000	2.674500
268.000000	2.656400
267.000000	2.675100
266.000000	2.679200
265.000000	2.708500
264.000000	2.709500
263.000000	2.746100
262.000000	2.770200
261.000000	2.775600
260.000000	2.785600
259.000000	2.712300
258.000000	2.781500
257.000000	2.765200
256.000000	2.769700
255.000000	2.762000
254.000000	2.758600
253.000000	2.755200
252.000000	2.826700
251.000000	2.818900
250.000000	2.830100
