PE UV       SUBTECH     SPECTRUM    ASCII       PEDS        4.00        
   -1
CICIMAUCR0141-2.Sample.ASC
24/04/04
11:05:18.00
24/04/04
11:05:18.00
Vinicio Soto Monge
C. kalinini
250,000000
1
Lambda 1050
1050L1511233
PerkinElmer UV WinLab 6.3.2.0749 / 2.02.05 Lambda 900 UV/VIS/NIR, Aug  7 2015 09:38:08

0
0
3350/servo 860,8/2
0
0
UV/VIS
1
1
1
DoubleDePol,CommonBeamDepol,RBeamAtt,SBeamAtt,60mm sphere, WB InGaAs Detector
0
0
0
0
Program
Program
3350/servo 860,8/2
3350/0,2 860,8/0,2
3350/0,2 860,8/0,2
0
15.00
 
 
 
0
 
860,8
319,2
860,8
Front
100
on
S:100 R:100
0
0
0
0
 
0
 
 
 
0
 
 
0
0
0
0
0
 
 
 
 
0
0


0
0
#HDR
-1
-1
#GR
nm
%R
1.0
0.0
2500,000000
-1,000000
2251
8
74,769100
5,495500
#DATA
2500.000000	6.855891
2499.000000	6.988428
2498.000000	6.883841
2497.000000	6.865508
2496.000000	6.931727
2495.000000	6.834953
2494.000000	6.881737
2493.000000	6.898767
2492.000000	6.917501
2491.000000	6.917501
2490.000000	6.887848
2489.000000	6.933530
2488.000000	6.857193
2487.000000	6.837458
2486.000000	6.945251
2485.000000	6.966890
2484.000000	6.926818
2483.000000	6.887748
2482.000000	6.885844
2481.000000	6.919104
2480.000000	6.977909
2479.000000	6.933029
2478.000000	7.007362
2477.000000	7.059756
2476.000000	7.033409
2475.000000	6.994339
2474.000000	6.990933
2473.000000	7.065366
2472.000000	7.109946
2471.000000	7.111849
2470.000000	7.129281
2469.000000	7.137796
2468.000000	7.189589
2467.000000	7.174161
2466.000000	7.221246
2465.000000	7.220544
2464.000000	7.285060
2463.000000	7.333647
2462.000000	7.376724
2461.000000	7.398764
2460.000000	7.416395
2459.000000	7.443043
2458.000000	7.513570
2457.000000	7.582994
2456.000000	7.597119
2455.000000	7.646608
2454.000000	7.732162
2453.000000	7.765922
2452.000000	7.820921
2451.000000	7.857987
2450.000000	7.935827
2449.000000	8.006253
2448.000000	8.062754
2447.000000	8.130275
2446.000000	8.178361
2445.000000	8.250691
2444.000000	8.333439
2443.000000	8.406170
2442.000000	8.462671
2441.000000	8.530994
2440.000000	8.599416
2439.000000	8.647202
2438.000000	8.718430
2437.000000	8.811096
2436.000000	8.872806
2435.000000	8.932113
2434.000000	9.010153
2433.000000	9.065452
2432.000000	9.127263
2431.000000	9.194583
2430.000000	9.276430
2429.000000	9.332030
2428.000000	9.381619
2427.000000	9.452746
2426.000000	9.514356
2425.000000	9.557334
2424.000000	9.623452
2423.000000	9.678350
2422.000000	9.727939
2421.000000	9.778129
2420.000000	9.819804
2419.000000	9.861779
2418.000000	9.914273
2417.000000	9.949637
2416.000000	9.999626
2415.000000	10.035791
2414.000000	10.076063
2413.000000	10.119842
2412.000000	10.149996
2411.000000	10.180751
2410.000000	10.216115
2409.000000	10.240458
2408.000000	10.271414
2407.000000	10.300466
2406.000000	10.319400
2405.000000	10.341640
2404.000000	10.363479
2403.000000	10.394835
2402.000000	10.419179
2401.000000	10.444424
2400.000000	10.441418
2399.000000	10.450936
2398.000000	10.474979
2397.000000	10.502127
2396.000000	10.531981
2395.000000	10.537390
2394.000000	10.540196
2393.000000	10.569248
2392.000000	10.569248
2391.000000	10.581369
2390.000000	10.607516
2389.000000	10.596296
2388.000000	10.586178
2387.000000	10.602407
2386.000000	10.613126
2385.000000	10.608518
2384.000000	10.608618
2383.000000	10.611022
2382.000000	10.602507
2381.000000	10.602908
2380.000000	10.594493
2379.000000	10.578464
2378.000000	10.571251
2377.000000	10.558328
2376.000000	10.553820
2375.000000	10.550614
2374.000000	10.531480
2373.000000	10.515050
2372.000000	10.509641
2371.000000	10.507036
2370.000000	10.495816
2369.000000	10.478785
2368.000000	10.469769
2367.000000	10.477082
2366.000000	10.473877
2365.000000	10.462556
2364.000000	10.454642
2363.000000	10.448932
2362.000000	10.430098
2361.000000	10.411465
2360.000000	10.410363
2359.000000	10.415672
2358.000000	10.417576
2357.000000	10.402849
2356.000000	10.376302
2355.000000	10.353260
2354.000000	10.339436
2353.000000	10.327414
2352.000000	10.302770
2351.000000	10.286140
2350.000000	10.282433
2349.000000	10.261095
2348.000000	10.221624
2347.000000	10.206998
2346.000000	10.187463
2345.000000	10.166826
2344.000000	10.159313
2343.000000	10.133166
2342.000000	10.118840
2341.000000	10.111828
2340.000000	10.097402
2339.000000	10.076865
2338.000000	10.051820
2337.000000	10.036092
2336.000000	10.029580
2335.000000	10.014453
2334.000000	10.002932
2333.000000	10.005838
2332.000000	9.994918
2331.000000	9.986603
2330.000000	9.962560
2329.000000	9.966768
2328.000000	9.980091
2327.000000	9.982095
2326.000000	9.973780
2325.000000	9.970274
2324.000000	9.970274
2323.000000	9.957351
2322.000000	9.943225
2321.000000	9.948936
2320.000000	9.930002
2319.000000	9.900649
2318.000000	9.882016
2317.000000	9.860176
2316.000000	9.819203
2315.000000	9.792555
2314.000000	9.764405
2313.000000	9.725635
2312.000000	9.684261
2311.000000	9.631867
2310.000000	9.599509
2309.000000	9.572360
2308.000000	9.528482
2307.000000	9.459759
2306.000000	9.441626
2305.000000	9.400653
2304.000000	9.358176
2303.000000	9.333933
2302.000000	9.292859
2301.000000	9.272823
2300.000000	9.249381
2299.000000	9.221932
2298.000000	9.186669
2297.000000	9.158118
2296.000000	9.156014
2295.000000	9.134676
2294.000000	9.113037
2293.000000	9.095606
2292.000000	9.085087
2291.000000	9.068357
2290.000000	9.057938
2289.000000	9.031791
2288.000000	9.020671
2287.000000	9.016965
2286.000000	9.002539
2285.000000	9.002940
2284.000000	8.982002
2283.000000	8.962367
2282.000000	8.954453
2281.000000	8.951748
2280.000000	8.930810
2279.000000	8.915683
2278.000000	8.904563
2277.000000	8.885830
2276.000000	8.868699
2275.000000	8.841550
2274.000000	8.789056
2273.000000	8.777235
2272.000000	8.757700
2271.000000	8.741671
2270.000000	8.712519
2269.000000	8.678458
2268.000000	8.671245
2267.000000	8.662730
2266.000000	8.636683
2265.000000	8.637485
2264.000000	8.652612
2263.000000	8.662730
2262.000000	8.658723
2261.000000	8.666737
2260.000000	8.693385
2259.000000	8.728648
2258.000000	8.751289
2257.000000	8.772527
2256.000000	8.824119
2255.000000	8.878216
2254.000000	8.913880
2253.000000	8.945637
2252.000000	9.000135
2251.000000	9.044214
2250.000000	9.092400
2249.000000	9.149703
2248.000000	9.204501
2247.000000	9.250684
2246.000000	9.284144
2245.000000	9.321911
2244.000000	9.355973
2243.000000	9.386628
2242.000000	9.432810
2241.000000	9.424195
2240.000000	9.460660
2239.000000	9.474585
2238.000000	9.503737
2237.000000	9.477190
2236.000000	9.496925
2235.000000	9.484102
2234.000000	9.463866
2233.000000	9.433311
2232.000000	9.418184
2231.000000	9.382721
2230.000000	9.336538
2229.000000	9.301074
2228.000000	9.242669
2227.000000	9.192780
2226.000000	9.101617
2225.000000	9.075570
2224.000000	8.967977
2223.000000	8.918088
2222.000000	8.851969
2221.000000	8.739768
2220.000000	8.663231
2219.000000	8.591702
2218.000000	8.496231
2217.000000	8.438127
2216.000000	8.363393
2215.000000	8.315207
2214.000000	8.233761
2213.000000	8.195292
2212.000000	8.169646
2211.000000	8.127871
2210.000000	8.134583
2209.000000	8.133180
2208.000000	8.151113
2207.000000	8.202605
2206.000000	8.242176
2205.000000	8.299879
2204.000000	8.378821
2203.000000	8.466278
2202.000000	8.566658
2201.000000	8.670544
2200.000000	8.762008
2199.000000	8.899454
2198.000000	9.005645
2197.000000	9.129066
2196.000000	9.256194
2195.000000	9.355872
2194.000000	9.455952
2193.000000	9.576869
2192.000000	9.686465
2191.000000	9.779332
2190.000000	9.883017
2189.000000	9.943025
2188.000000	9.997422
2187.000000	10.066947
2186.000000	10.130561
2185.000000	10.154204
2184.000000	10.219020
2183.000000	10.269110
2182.000000	10.295958
2181.000000	10.317596
2180.000000	10.354663
2179.000000	10.386219
2178.000000	10.403951
2177.000000	10.433304
2176.000000	10.457948
2175.000000	10.474277
2174.000000	10.494013
2173.000000	10.547308
2172.000000	10.572353
2171.000000	10.607516
2170.000000	10.628354
2169.000000	10.651896
2168.000000	10.693370
2167.000000	10.718515
2166.000000	10.764898
2165.000000	10.804870
2164.000000	10.856062
2163.000000	10.903547
2162.000000	10.930495
2161.000000	10.975676
2160.000000	11.039691
2159.000000	11.083770
2158.000000	11.160708
2157.000000	11.236143
2156.000000	11.272007
2155.000000	11.347342
2154.000000	11.405647
2153.000000	11.486292
2152.000000	11.577756
2151.000000	11.657198
2150.000000	11.717606
2149.000000	11.790437
2148.000000	11.882802
2147.000000	11.964048
2146.000000	12.034775
2145.000000	12.103298
2144.000000	12.184143
2143.000000	12.250962
2142.000000	12.324895
2141.000000	12.395722
2140.000000	12.463143
2139.000000	12.531365
2138.000000	12.607802
2137.000000	12.667008
2136.000000	12.726916
2135.000000	12.778508
2134.000000	12.839518
2133.000000	12.889006
2132.000000	12.939196
2131.000000	12.990588
2130.000000	13.042982
2129.000000	13.083054
2128.000000	13.114711
2127.000000	13.154182
2126.000000	13.199563
2125.000000	13.224408
2124.000000	13.240536
2123.000000	13.278204
2122.000000	13.309460
2121.000000	13.333503
2120.000000	13.355442
2119.000000	13.365961
2118.000000	13.373274
2117.000000	13.388402
2116.000000	13.411142
2115.000000	13.414448
2114.000000	13.416151
2113.000000	13.420158
2112.000000	13.435786
2111.000000	13.454520
2110.000000	13.450313
2109.000000	13.444202
2108.000000	13.437690
2107.000000	13.445504
2106.000000	13.455622
2105.000000	13.441597
2104.000000	13.427271
2103.000000	13.440595
2102.000000	13.442098
2101.000000	13.424166
2100.000000	13.432380
2099.000000	13.440395
2098.000000	13.425568
2097.000000	13.429475
2096.000000	13.441497
2095.000000	13.448409
2094.000000	13.463236
2093.000000	13.463837
2092.000000	13.466441
2091.000000	13.478263
2090.000000	13.484474
2089.000000	13.482470
2088.000000	13.487680
2087.000000	13.502306
2086.000000	13.496295
2085.000000	13.473955
2084.000000	13.461933
2083.000000	13.463636
2082.000000	13.436688
2081.000000	13.411042
2080.000000	13.384895
2079.000000	13.342419
2078.000000	13.299843
2077.000000	13.262075
2076.000000	13.223306
2075.000000	13.162997
2074.000000	13.112507
2073.000000	13.050696
2072.000000	12.984277
2071.000000	12.922466
2070.000000	12.845027
2069.000000	12.773199
2068.000000	12.699466
2067.000000	12.622428
2066.000000	12.548496
2065.000000	12.464746
2064.000000	12.401132
2063.000000	12.330806
2062.000000	12.254970
2061.000000	12.190554
2060.000000	12.123033
2059.000000	12.061823
2058.000000	12.023254
2057.000000	11.979776
2056.000000	11.960041
2055.000000	11.937300
2054.000000	11.916363
2053.000000	11.931390
2052.000000	11.951626
2051.000000	11.984785
2050.000000	12.042689
2049.000000	12.088972
2048.000000	12.139663
2047.000000	12.221610
2046.000000	12.301954
2045.000000	12.389411
2044.000000	12.466749
2043.000000	12.547995
2042.000000	12.666708
2041.000000	12.757571
2040.000000	12.837714
2039.000000	12.938595
2038.000000	13.031662
2037.000000	13.118918
2036.000000	13.195856
2035.000000	13.274197
2034.000000	13.342419
2033.000000	13.438992
2032.000000	13.505712
2031.000000	13.561412
2030.000000	13.624324
2029.000000	13.692547
2028.000000	13.758265
2027.000000	13.814365
2026.000000	13.863954
2025.000000	13.920656
2024.000000	13.963833
2023.000000	13.999898
2022.000000	14.051991
2021.000000	14.105788
2020.000000	14.154275
2019.000000	14.176013
2018.000000	14.223098
2017.000000	14.242933
2016.000000	14.277195
2015.000000	14.308251
2014.000000	14.306948
2013.000000	14.344115
2012.000000	14.342412
2011.000000	14.353532
2010.000000	14.357038
2009.000000	14.354433
2008.000000	14.351328
2007.000000	14.334397
2006.000000	14.324780
2005.000000	14.310354
2004.000000	14.304945
2003.000000	14.266075
2002.000000	14.239227
2001.000000	14.218189
2000.000000	14.180321
1999.000000	14.162389
1998.000000	14.104385
1997.000000	14.056399
1996.000000	14.037766
1995.000000	13.974452
1994.000000	13.952813
1993.000000	13.903124
1992.000000	13.837807
1991.000000	13.798437
1990.000000	13.760469
1989.000000	13.681427
1988.000000	13.634242
1987.000000	13.579143
1986.000000	13.520138
1985.000000	13.463737
1984.000000	13.405632
1983.000000	13.353539
1982.000000	13.282211
1981.000000	13.217996
1980.000000	13.146368
1979.000000	13.093072
1978.000000	13.017336
1977.000000	12.968348
1976.000000	12.925071
1975.000000	12.857249
1974.000000	12.802952
1973.000000	12.746250
1972.000000	12.684540
1971.000000	12.634851
1970.000000	12.574543
1969.000000	12.495200
1968.000000	12.459136
1967.000000	12.403536
1966.000000	12.343328
1965.000000	12.305761
1964.000000	12.250662
1963.000000	12.193960
1962.000000	12.136056
1961.000000	12.062525
1960.000000	12.006825
1959.000000	11.960041
1958.000000	11.888212
1957.000000	11.834917
1956.000000	11.781521
1955.000000	11.735939
1954.000000	11.651788
1953.000000	11.603001
1952.000000	11.552110
1951.000000	11.483587
1950.000000	11.432094
1949.000000	11.390921
1948.000000	11.343936
1947.000000	11.294748
1946.000000	11.237746
1945.000000	11.212601
1944.000000	11.163413
1943.000000	11.141774
1942.000000	11.125545
1941.000000	11.084872
1940.000000	11.077859
1939.000000	11.064135
1938.000000	11.064135
1937.000000	11.046002
1936.000000	11.022160
1935.000000	11.044900
1934.000000	11.020156
1933.000000	11.050611
1932.000000	11.075455
1931.000000	11.103105
1930.000000	11.149688
1929.000000	11.174833
1928.000000	11.221116
1927.000000	11.272308
1926.000000	11.339128
1925.000000	11.400638
1924.000000	11.476474
1923.000000	11.567237
1922.000000	11.656797
1921.000000	11.769700
1920.000000	11.878094
1919.000000	11.987891
1918.000000	12.098589
1917.000000	12.218104
1916.000000	12.342026
1915.000000	12.513733
1914.000000	12.677126
1913.000000	12.897021
1912.000000	13.090067
1911.000000	13.267084
1910.000000	13.470950
1909.000000	13.655380
1908.000000	13.900119
1907.000000	14.180021
1906.000000	14.489976
1905.000000	14.848319
1904.000000	15.180314
1903.000000	15.480252
1902.000000	15.828476
1901.000000	16.205051
1900.000000	16.610277
1899.000000	17.041350
1898.000000	17.466011
1897.000000	17.891074
1896.000000	18.251920
1895.000000	18.633504
1894.000000	19.065880
1893.000000	19.531615
1892.000000	20.047640
1891.000000	20.550241
1890.000000	21.022487
1889.000000	21.458669
1888.000000	21.905671
1887.000000	22.304586
1886.000000	22.714320
1885.000000	23.134073
1884.000000	23.559936
1883.000000	23.946429
1882.000000	24.290846
1881.000000	24.636266
1880.000000	24.917069
1879.000000	25.209994
1878.000000	25.516043
1877.000000	25.794041
1876.000000	26.070537
1875.000000	26.357752
1874.000000	26.607800
1873.000000	26.854643
1872.000000	27.090265
1871.000000	27.287719
1870.000000	27.453416
1869.000000	27.621016
1868.000000	27.732617
1867.000000	27.821776
1866.000000	27.893004
1865.000000	27.957219
1864.000000	28.033756
1863.000000	28.113800
1862.000000	28.208570
1861.000000	28.321472
1860.000000	28.432371
1859.000000	28.520629
1858.000000	28.596766
1857.000000	28.639142
1856.000000	28.685825
1855.000000	28.729804
1854.000000	28.773883
1853.000000	28.788610
1852.000000	28.786306
1851.000000	28.813855
1850.000000	28.866850
1849.000000	28.931366
1848.000000	28.956110
1847.000000	28.956811
1846.000000	28.921247
1845.000000	28.882879
1844.000000	28.853326
1843.000000	28.854929
1842.000000	28.877769
1841.000000	28.890893
1840.000000	28.865948
1839.000000	28.828181
1838.000000	28.821368
1837.000000	28.799028
1836.000000	28.734613
1835.000000	28.681417
1834.000000	28.632329
1833.000000	28.590655
1832.000000	28.567413
1831.000000	28.542268
1830.000000	28.523234
1829.000000	28.503398
1828.000000	28.466532
1827.000000	28.443992
1826.000000	28.427162
1825.000000	28.402618
1824.000000	28.383483
1823.000000	28.403920
1822.000000	28.450904
1821.000000	28.478554
1820.000000	28.474446
1819.000000	28.447999
1818.000000	28.416643
1817.000000	28.391197
1816.000000	28.392099
1815.000000	28.375870
1814.000000	28.353730
1813.000000	28.355734
1812.000000	28.344814
1811.000000	28.307547
1810.000000	28.261164
1809.000000	28.226201
1808.000000	28.202158
1807.000000	28.189035
1806.000000	28.161385
1805.000000	28.129829
1804.000000	28.108791
1803.000000	28.090057
1802.000000	28.084547
1801.000000	28.057800
1800.000000	28.017627
1799.000000	27.989176
1798.000000	27.957119
1797.000000	27.937885
1796.000000	27.902321
1795.000000	27.866857
1794.000000	27.842814
1793.000000	27.827887
1792.000000	27.806850
1791.000000	27.786714
1790.000000	27.762871
1789.000000	27.758062
1788.000000	27.753554
1787.000000	27.751751
1786.000000	27.748445
1785.000000	27.747844
1784.000000	27.724803
1783.000000	27.691142
1782.000000	27.674112
1781.000000	27.656781
1780.000000	27.629932
1779.000000	27.595571
1778.000000	27.553295
1777.000000	27.519935
1776.000000	27.475355
1775.000000	27.414246
1774.000000	27.359047
1773.000000	27.321880
1772.000000	27.254860
1771.000000	27.208176
1770.000000	27.160992
1769.000000	27.105492
1768.000000	27.045885
1767.000000	27.002608
1766.000000	26.961835
1765.000000	26.904933
1764.000000	26.880890
1763.000000	26.850736
1762.000000	26.833405
1761.000000	26.829998
1760.000000	26.835608
1759.000000	26.809962
1758.000000	26.795937
1757.000000	26.776803
1756.000000	26.774900
1755.000000	26.765583
1754.000000	26.762578
1753.000000	26.744345
1752.000000	26.712788
1751.000000	26.700867
1750.000000	26.685940
1749.000000	26.632945
1748.000000	26.601489
1747.000000	26.544386
1746.000000	26.480372
1745.000000	26.401430
1744.000000	26.339319
1743.000000	26.280513
1742.000000	26.206280
1741.000000	26.137257
1740.000000	26.047696
1739.000000	25.977971
1738.000000	25.901834
1737.000000	25.840124
1736.000000	25.799952
1735.000000	25.760982
1734.000000	25.705683
1733.000000	25.648080
1732.000000	25.621833
1731.000000	25.580458
1730.000000	25.542190
1729.000000	25.484987
1728.000000	25.457237
1727.000000	25.424178
1726.000000	25.417867
1725.000000	25.401237
1724.000000	25.403341
1723.000000	25.473467
1722.000000	25.554011
1721.000000	25.663708
1720.000000	25.824396
1719.000000	26.012132
1718.000000	26.207583
1717.000000	26.439198
1716.000000	26.640859
1715.000000	26.835108
1714.000000	27.029857
1713.000000	27.206173
1712.000000	27.357544
1711.000000	27.514425
1710.000000	27.626025
1709.000000	27.767880
1708.000000	27.838707
1707.000000	27.933076
1706.000000	27.984869
1705.000000	28.058100
1704.000000	28.094265
1703.000000	28.139145
1702.000000	28.139746
1701.000000	28.171403
1700.000000	28.209572
1699.000000	28.199554
1698.000000	28.200555
1697.000000	28.200555
1696.000000	28.168899
1695.000000	28.116505
1694.000000	28.086451
1693.000000	27.982565
1692.000000	27.927566
1691.000000	27.838807
1690.000000	27.822177
1689.000000	27.784510
1688.000000	27.816467
1687.000000	27.881383
1686.000000	27.978057
1685.000000	28.135739
1684.000000	28.311554
1683.000000	28.500994
1682.000000	28.715479
1681.000000	28.911931
1680.000000	29.116698
1679.000000	29.309143
1678.000000	29.489967
1677.000000	29.642540
1676.000000	29.813747
1675.000000	29.946686
1674.000000	30.088139
1673.000000	30.243518
1672.000000	30.411419
1671.000000	30.552171
1670.000000	30.703943
1669.000000	30.865633
1668.000000	31.034836
1667.000000	31.163066
1666.000000	31.295904
1665.000000	31.449380
1664.000000	31.571999
1663.000000	31.700129
1662.000000	31.820946
1661.000000	31.929540
1660.000000	32.034428
1659.000000	32.101348
1658.000000	32.179789
1657.000000	32.246709
1656.000000	32.314430
1655.000000	32.353300
1654.000000	32.386660
1653.000000	32.419519
1652.000000	32.432642
1651.000000	32.433043
1650.000000	32.428435
1649.000000	32.430238
1648.000000	32.438653
1647.000000	32.439855
1646.000000	32.407998
1645.000000	32.398481
1644.000000	32.386860
1643.000000	32.375640
1642.000000	32.365622
1641.000000	32.357007
1640.000000	32.353300
1639.000000	32.324749
1638.000000	32.302209
1637.000000	32.279768
1636.000000	32.264040
1635.000000	32.248913
1634.000000	32.208841
1633.000000	32.171073
1632.000000	32.142222
1631.000000	32.120383
1630.000000	32.077305
1629.000000	32.042543
1628.000000	32.014994
1627.000000	31.971616
1626.000000	31.933648
1625.000000	31.884960
1624.000000	31.857111
1623.000000	31.830363
1622.000000	31.803414
1621.000000	31.775865
1620.000000	31.753825
1619.000000	31.730784
1618.000000	31.686104
1617.000000	31.659156
1616.000000	31.637817
1615.000000	31.618282
1614.000000	31.579413
1613.000000	31.539641
1612.000000	31.508486
1611.000000	31.458095
1610.000000	31.411912
1609.000000	31.372642
1608.000000	31.316742
1607.000000	31.262545
1606.000000	31.199331
1605.000000	31.140326
1604.000000	31.078415
1603.000000	31.010994
1602.000000	30.952589
1601.000000	30.903401
1600.000000	30.844295
1599.000000	30.774870
1598.000000	30.711457
1597.000000	30.670984
1596.000000	30.611478
1595.000000	30.567799
1594.000000	30.518912
1593.000000	30.467620
1592.000000	30.431755
1591.000000	30.387676
1590.000000	30.349608
1589.000000	30.315948
1588.000000	30.273772
1587.000000	30.222881
1586.000000	30.191024
1585.000000	30.162873
1584.000000	30.118293
1583.000000	30.084132
1582.000000	30.057685
1581.000000	30.024425
1580.000000	29.983051
1579.000000	29.970729
1578.000000	29.957405
1577.000000	29.944682
1576.000000	29.934263
1575.000000	29.919237
1574.000000	29.915029
1573.000000	29.923144
1572.000000	29.927752
1571.000000	29.919838
1570.000000	29.930857
1569.000000	29.955101
1568.000000	29.965019
1567.000000	29.974836
1566.000000	29.989362
1565.000000	29.993770
1564.000000	30.000382
1563.000000	30.013606
1562.000000	30.021320
1561.000000	30.014607
1560.000000	29.989462
1559.000000	29.953097
1558.000000	29.921440
1557.000000	29.891988
1556.000000	29.853519
1555.000000	29.795615
1554.000000	29.729496
1553.000000	29.672895
1552.000000	29.614490
1551.000000	29.533144
1550.000000	29.441580
1549.000000	29.368149
1548.000000	29.289407
1547.000000	29.207360
1546.000000	29.126415
1545.000000	29.058493
1544.000000	29.010407
1543.000000	28.955208
1542.000000	28.893297
1541.000000	28.843107
1540.000000	28.805740
1539.000000	28.772481
1538.000000	28.731307
1537.000000	28.687929
1536.000000	28.654068
1535.000000	28.597768
1534.000000	28.542569
1533.000000	28.485967
1532.000000	28.427162
1531.000000	28.382281
1530.000000	28.318166
1529.000000	28.239024
1528.000000	28.189536
1527.000000	28.131732
1526.000000	28.061606
1525.000000	28.015924
1524.000000	27.976053
1523.000000	27.913641
1522.000000	27.853133
1521.000000	27.792524
1520.000000	27.730913
1519.000000	27.677217
1518.000000	27.618211
1517.000000	27.559105
1516.000000	27.507313
1515.000000	27.446303
1514.000000	27.391505
1513.000000	27.334002
1512.000000	27.265479
1511.000000	27.210781
1510.000000	27.161393
1509.000000	27.109399
1508.000000	27.056905
1507.000000	27.007416
1506.000000	26.966443
1505.000000	26.903029
1504.000000	26.858850
1503.000000	26.821884
1502.000000	26.784517
1501.000000	26.750656
1500.000000	26.733025
1499.000000	26.721504
1498.000000	26.710284
1497.000000	26.691751
1496.000000	26.700967
1495.000000	26.702770
1494.000000	26.716395
1493.000000	26.729819
1492.000000	26.753762
1491.000000	26.777104
1490.000000	26.795837
1489.000000	26.831000
1488.000000	26.867065
1487.000000	26.893512
1486.000000	26.921663
1485.000000	26.962235
1484.000000	27.003710
1483.000000	27.034164
1482.000000	27.046487
1481.000000	27.106093
1480.000000	27.141857
1479.000000	27.163296
1478.000000	27.212584
1477.000000	27.250252
1476.000000	27.288721
1475.000000	27.336506
1474.000000	27.412543
1473.000000	27.467241
1472.000000	27.541474
1471.000000	27.599979
1470.000000	27.660387
1469.000000	27.693747
1468.000000	27.779200
1467.000000	27.846521
1466.000000	27.906027
1465.000000	27.994185
1464.000000	28.070422
1463.000000	28.128626
1462.000000	28.212276
1461.000000	28.272384
1460.000000	28.342510
1459.000000	28.449001
1458.000000	28.516923
1457.000000	28.584043
1456.000000	28.675707
1455.000000	28.752745
1454.000000	28.815758
1453.000000	28.917841
1452.000000	29.006500
1451.000000	29.066007
1450.000000	29.155567
1449.000000	29.189228
1448.000000	29.271175
1447.000000	29.361336
1446.000000	29.471734
1445.000000	29.545466
1444.000000	29.576422
1443.000000	29.669890
1442.000000	29.735106
1441.000000	29.850413
1440.000000	29.916632
1439.000000	30.016411
1438.000000	30.115188
1437.000000	30.185113
1436.000000	30.301622
1435.000000	30.398195
1434.000000	30.521616
1433.000000	30.657760
1432.000000	30.765454
1431.000000	30.903601
1430.000000	31.032332
1429.000000	31.170079
1428.000000	31.309028
1427.000000	31.487548
1426.000000	31.655349
1425.000000	31.836173
1424.000000	32.052962
1423.000000	32.242301
1422.000000	32.419018
1421.000000	32.635306
1420.000000	32.912603
1419.000000	33.142014
1418.000000	33.378538
1417.000000	33.553652
1416.000000	33.840466
1415.000000	34.151624
1414.000000	34.468191
1413.000000	34.723349
1412.000000	34.970993
1411.000000	35.327031
1410.000000	35.669846
1409.000000	36.021676
1408.000000	36.343954
1407.000000	36.645294
1406.000000	36.978091
1405.000000	37.298766
1404.000000	37.560936
1403.000000	37.845847
1402.000000	38.143781
1401.000000	38.544699
1400.000000	38.763392
1399.000000	38.924981
1398.000000	39.058621
1397.000000	39.281921
1396.000000	39.556614
1395.000000	39.726318
1394.000000	39.801853
1393.000000	39.928881
1392.000000	40.079250
1391.000000	40.172618
1390.000000	40.272196
1389.000000	40.443804
1388.000000	40.629737
1387.000000	40.739133
1386.000000	40.925167
1385.000000	41.128331
1384.000000	41.328490
1383.000000	41.613601
1382.000000	41.915242
1381.000000	42.235115
1380.000000	42.546373
1379.000000	42.924651
1378.000000	43.324568
1377.000000	43.825867
1376.000000	44.327066
1375.000000	44.818647
1374.000000	45.328160
1373.000000	45.800106
1372.000000	46.226771
1371.000000	46.613464
1370.000000	46.907291
1369.000000	47.172266
1368.000000	47.372826
1367.000000	47.534916
1366.000000	47.677672
1365.000000	47.845173
1364.000000	47.968093
1363.000000	48.108044
1362.000000	48.247694
1361.000000	48.327938
1360.000000	48.355487
1359.000000	48.392754
1358.000000	48.470494
1357.000000	48.557149
1356.000000	48.681672
1355.000000	48.813308
1354.000000	48.943742
1353.000000	49.052036
1352.000000	49.256202
1351.000000	49.448948
1350.000000	49.660527
1349.000000	49.879319
1348.000000	50.099013
1347.000000	50.312696
1346.000000	50.502136
1345.000000	50.707905
1344.000000	50.897745
1343.000000	51.068952
1342.000000	51.250878
1341.000000	51.431702
1340.000000	51.592490
1339.000000	51.741758
1338.000000	51.887319
1337.000000	52.032279
1336.000000	52.171729
1335.000000	52.301962
1334.000000	52.433899
1333.000000	52.545098
1332.000000	52.669822
1331.000000	52.781121
1330.000000	52.881401
1329.000000	52.975670
1328.000000	53.064229
1327.000000	53.140265
1326.000000	53.224015
1325.000000	53.304860
1324.000000	53.369777
1323.000000	53.436596
1322.000000	53.497005
1321.000000	53.560418
1320.000000	53.617821
1319.000000	53.661500
1318.000000	53.712190
1317.000000	53.775804
1316.000000	53.830002
1315.000000	53.874481
1314.000000	53.914854
1313.000000	53.955426
1312.000000	53.990389
1311.000000	54.029259
1310.000000	54.072236
1309.000000	54.109102
1308.000000	54.118819
1307.000000	54.140959
1306.000000	54.167507
1305.000000	54.175220
1304.000000	54.179228
1303.000000	54.182033
1302.000000	54.197060
1301.000000	54.195357
1300.000000	54.185038
1299.000000	54.182534
1298.000000	54.173618
1297.000000	54.161095
1296.000000	54.146669
1295.000000	54.123127
1294.000000	54.100086
1293.000000	54.077646
1292.000000	54.053502
1291.000000	54.023649
1290.000000	53.985981
1289.000000	53.941301
1288.000000	53.910346
1287.000000	53.877887
1286.000000	53.827798
1285.000000	53.782116
1284.000000	53.737937
1283.000000	53.699468
1282.000000	53.671417
1281.000000	53.633249
1280.000000	53.594079
1279.000000	53.575245
1278.000000	53.554007
1277.000000	53.514135
1276.000000	53.488790
1275.000000	53.480074
1274.000000	53.471559
1273.000000	53.468053
1272.000000	53.454829
1271.000000	53.455330
1270.000000	53.447917
1269.000000	53.438099
1268.000000	53.436095
1267.000000	53.447716
1266.000000	53.447015
1265.000000	53.444611
1264.000000	53.438199
1263.000000	53.426278
1262.000000	53.429684
1261.000000	53.425176
1260.000000	53.403938
1259.000000	53.394821
1258.000000	53.398728
1257.000000	53.382399
1256.000000	53.362063
1255.000000	53.350542
1254.000000	53.344832
1253.000000	53.323594
1252.000000	53.284924
1251.000000	53.255171
1250.000000	53.218004
1249.000000	53.167915
1248.000000	53.134254
1247.000000	53.073345
1246.000000	53.031971
1245.000000	52.986089
1244.000000	52.935999
1243.000000	52.883004
1242.000000	52.840327
1241.000000	52.806667
1240.000000	52.771504
1239.000000	52.732434
1238.000000	52.698774
1237.000000	52.675632
1236.000000	52.642072
1235.000000	52.619732
1234.000000	52.583367
1233.000000	52.547002
1232.000000	52.499717
1231.000000	52.455738
1230.000000	52.420475
1229.000000	52.369684
1228.000000	52.321597
1227.000000	52.270205
1226.000000	52.221718
1225.000000	52.160308
1224.000000	52.122240
1223.000000	52.061131
1222.000000	52.008636
1221.000000	51.950031
1220.000000	51.893630
1219.000000	51.836728
1218.000000	51.776420
1217.000000	51.729336
1216.000000	51.661614
1215.000000	51.606315
1214.000000	51.553621
1213.000000	51.504032
1212.000000	51.428897
1211.000000	51.362278
1210.000000	51.289748
1209.000000	51.233146
1208.000000	51.161618
1207.000000	51.111127
1206.000000	51.055327
1205.000000	50.975184
1204.000000	50.919083
1203.000000	50.863984
1202.000000	50.778832
1201.000000	50.712312
1200.000000	50.653908
1199.000000	50.575367
1198.000000	50.516061
1197.000000	50.431910
1196.000000	50.344052
1195.000000	50.281039
1194.000000	50.194584
1193.000000	50.107428
1192.000000	50.032995
1191.000000	49.963871
1190.000000	49.911076
1189.000000	49.853874
1188.000000	49.814303
1187.000000	49.809795
1186.000000	49.819612
1185.000000	49.814904
1184.000000	49.828628
1183.000000	49.871605
1182.000000	49.919191
1181.000000	49.978297
1180.000000	50.029689
1179.000000	50.084687
1178.000000	50.141489
1177.000000	50.200495
1176.000000	50.253790
1175.000000	50.290957
1174.000000	50.353970
1173.000000	50.400954
1172.000000	50.478193
1171.000000	50.532490
1170.000000	50.635174
1169.000000	50.707604
1168.000000	50.808886
1167.000000	50.903856
1166.000000	51.026676
1165.000000	51.129060
1164.000000	51.259493
1163.000000	51.364582
1162.000000	51.471874
1161.000000	51.576862
1160.000000	51.676140
1159.000000	51.797959
1158.000000	51.899942
1157.000000	51.982089
1156.000000	52.066741
1155.000000	52.138369
1154.000000	52.184051
1153.000000	52.250169
1152.000000	52.296653
1151.000000	52.325204
1150.000000	52.355158
1149.000000	52.384510
1148.000000	52.432897
1147.000000	52.470264
1146.000000	52.512039
1145.000000	52.537785
1144.000000	52.574451
1143.000000	52.622236
1142.000000	52.666917
1141.000000	52.719511
1140.000000	52.767196
1139.000000	52.853251
1138.000000	52.927383
1137.000000	53.021552
1136.000000	53.130848
1135.000000	53.231028
1134.000000	53.301454
1133.000000	53.326299
1132.000000	53.379795
1131.000000	53.435094
1130.000000	53.494099
1129.000000	53.562422
1128.000000	53.577749
1127.000000	53.601792
1126.000000	53.635152
1125.000000	53.628140
1124.000000	53.657893
1123.000000	53.633049
1122.000000	53.616018
1121.000000	53.598887
1120.000000	53.557112
1119.000000	53.525957
1118.000000	53.494400
1117.000000	53.460940
1116.000000	53.424174
1115.000000	53.360460
1114.000000	53.303959
1113.000000	53.261983
1112.000000	53.204280
1111.000000	53.156995
1110.000000	53.107807
1109.000000	53.058719
1108.000000	53.008629
1107.000000	52.953230
1106.000000	52.906947
1105.000000	52.840528
1104.000000	52.786331
1103.000000	52.754874
1102.000000	52.699074
1101.000000	52.636262
1100.000000	52.584369
1099.000000	52.533978
1098.000000	52.468260
1097.000000	52.409756
1096.000000	52.358964
1095.000000	52.314885
1094.000000	52.247364
1093.000000	52.189060
1092.000000	52.136065
1091.000000	52.083070
1090.000000	52.034883
1089.000000	51.985094
1088.000000	51.936407
1087.000000	51.870589
1086.000000	51.840235
1085.000000	51.778123
1084.000000	51.710302
1083.000000	51.670530
1082.000000	51.616834
1081.000000	51.587782
1080.000000	51.527975
1079.000000	51.459151
1078.000000	51.399845
1077.000000	51.346449
1076.000000	51.296560
1075.000000	51.236652
1074.000000	51.173539
1073.000000	51.095399
1072.000000	51.038397
1071.000000	50.992916
1070.000000	50.931005
1069.000000	50.868192
1068.000000	50.798767
1067.000000	50.742867
1066.000000	50.689171
1065.000000	50.618645
1064.000000	50.548519
1063.000000	50.477492
1062.000000	50.402758
1061.000000	50.333734
1060.000000	50.279737
1059.000000	50.211014
1058.000000	50.134677
1057.000000	50.073567
1056.000000	50.010554
1055.000000	49.934819
1054.000000	49.874911
1053.000000	49.825723
1052.000000	49.758302
1051.000000	49.690180
1050.000000	49.635582
1049.000000	49.583689
1048.000000	49.520676
1047.000000	49.469284
1046.000000	49.419896
1045.000000	49.368003
1044.000000	49.308796
1043.000000	49.262413
1042.000000	49.207314
1041.000000	49.154420
1040.000000	49.106333
1039.000000	49.062355
1038.000000	49.019077
1037.000000	48.978304
1036.000000	48.943441
1035.000000	48.904672
1034.000000	48.869309
1033.000000	48.827333
1032.000000	48.778846
1031.000000	48.732563
1030.000000	48.691991
1029.000000	48.651117
1028.000000	48.620062
1027.000000	48.583797
1026.000000	48.541220
1025.000000	48.508862
1024.000000	48.480411
1023.000000	48.454264
1022.000000	48.414293
1021.000000	48.380933
1020.000000	48.374221
1019.000000	48.358793
1018.000000	48.329040
1017.000000	48.311509
1016.000000	48.307902
1015.000000	48.290070
1014.000000	48.279050
1013.000000	48.267229
1012.000000	48.246292
1011.000000	48.241082
1010.000000	48.235472
1009.000000	48.233569
1008.000000	48.237576
1007.000000	48.254607
1006.000000	48.266127
1005.000000	48.268732
1004.000000	48.281755
1003.000000	48.293977
1002.000000	48.311709
1001.000000	48.326535
1000.000000	48.350478
999.000000	48.359394
998.000000	48.373620
997.000000	48.390250
996.000000	48.409484
995.000000	48.438236
994.000000	48.463982
993.000000	48.493034
992.000000	48.524390
991.000000	48.567568
990.000000	48.595718
989.000000	48.618359
988.000000	48.658531
987.000000	48.707919
986.000000	48.742080
985.000000	48.807097
984.000000	48.856886
983.000000	48.912386
982.000000	48.979105
981.000000	49.044923
980.000000	49.085696
979.000000	49.164137
978.000000	49.230857
977.000000	49.301383
976.000000	49.354578
975.000000	49.436425
974.000000	49.512562
973.000000	49.584290
972.000000	49.670946
971.000000	49.746681
970.000000	49.828328
969.000000	49.915183
968.000000	50.020172
967.000000	50.123757
966.000000	50.215822
965.000000	50.307988
964.000000	50.393641
963.000000	50.496526
962.000000	50.606022
961.000000	50.696384
960.000000	50.803576
959.000000	50.900149
958.000000	51.001130
957.000000	51.092494
956.000000	51.195980
955.000000	51.321004
954.000000	51.427695
953.000000	51.524168
952.000000	51.633163
951.000000	51.748270
950.000000	51.864879
949.000000	51.980185
948.000000	52.083671
947.000000	52.188559
946.000000	52.298857
945.000000	52.415866
944.000000	52.534780
943.000000	52.660004
942.000000	52.749765
941.000000	52.843633
940.000000	52.940106
939.000000	53.046998
938.000000	53.168716
937.000000	53.268495
936.000000	53.395322
935.000000	53.487988
934.000000	53.600891
933.000000	53.721207
932.000000	53.826395
931.000000	53.912950
930.000000	54.007319
929.000000	54.109603
928.000000	54.248251
927.000000	54.335307
926.000000	54.445004
925.000000	54.577141
924.000000	54.662193
923.000000	54.766781
922.000000	54.880986
921.000000	55.012221
920.000000	55.140250
919.000000	55.253654
918.000000	55.373068
917.000000	55.471244
916.000000	55.621714
915.000000	55.727804
914.000000	55.860842
913.000000	55.992378
912.000000	56.107284
911.000000	56.269575
910.000000	56.405118
909.000000	56.531144
908.000000	56.685020
907.000000	56.820563
906.000000	56.936671
905.000000	57.068808
904.000000	57.196136
903.000000	57.329375
902.000000	57.456403
901.000000	57.555380
900.000000	57.696834
899.000000	57.806530
898.000000	57.943877
897.000000	58.043155
896.000000	58.159663
895.000000	58.267657
894.000000	58.380159
893.000000	58.498571
892.000000	58.620289
891.000000	58.739603
890.000000	58.868134
889.000000	58.984743
888.000000	59.114074
887.000000	59.236294
886.000000	59.343987
885.000000	59.466707
884.000000	59.598242
883.000000	59.747109
882.000000	59.867525
881.000000	59.998460
880.000000	60.129395
879.000000	60.274054
878.000000	60.433039
877.000000	60.597434
876.000000	60.758923
875.000000	60.941150
874.000000	61.117566
873.000000	61.338662
872.000000	61.542728
871.000000	61.777249
870.000000	62.004055
869.000000	62.237574
868.000000	62.489225
867.000000	62.754400
866.000000	63.006352
865.000000	63.277037
864.000000	63.516467
863.000000	63.788354
862.000000	64.038302
861.000000	64.296866
860.000000	64.558735
859.000000	64.838937
858.000000	64.985400
857.000000	64.426400
856.000000	64.977300
855.000000	65.552500
854.000000	65.530600
853.000000	65.992200
852.000000	65.688400
851.000000	66.484300
850.000000	66.673400
849.000000	66.986600
848.000000	67.470200
847.000000	67.658200
846.000000	67.824400
845.000000	68.212300
844.000000	68.645000
843.000000	68.730200
842.000000	68.859600
841.000000	69.557600
840.000000	69.635500
839.000000	69.978600
838.000000	70.067800
837.000000	70.482000
836.000000	70.693000
835.000000	70.826100
834.000000	71.211300
833.000000	71.391400
832.000000	71.467700
831.000000	71.678300
830.000000	71.695100
829.000000	71.974900
828.000000	72.126900
827.000000	72.146800
826.000000	72.207400
825.000000	72.359600
824.000000	72.567300
823.000000	72.409500
822.000000	72.509800
821.000000	72.647700
820.000000	72.727600
819.000000	72.829600
818.000000	72.834400
817.000000	72.797600
816.000000	72.917400
815.000000	72.924000
814.000000	73.056400
813.000000	73.158400
812.000000	73.221300
811.000000	73.210400
810.000000	73.175300
809.000000	73.192900
808.000000	73.333200
807.000000	73.475700
806.000000	73.445100
805.000000	73.427400
804.000000	73.555600
803.000000	73.558000
802.000000	73.545700
801.000000	73.690400
800.000000	73.815100
799.000000	73.816500
798.000000	73.808700
797.000000	73.904600
796.000000	73.998400
795.000000	74.015500
794.000000	74.064900
793.000000	74.161600
792.000000	74.252900
791.000000	74.306000
790.000000	74.428100
789.000000	74.548500
788.000000	74.600400
787.000000	74.646800
786.000000	74.680600
785.000000	74.752700
784.000000	74.690300
783.000000	74.628400
782.000000	74.724700
781.000000	74.769100
780.000000	74.713100
779.000000	74.600700
778.000000	74.567000
777.000000	74.517300
776.000000	74.389000
775.000000	74.312000
774.000000	74.230000
773.000000	74.152300
772.000000	74.106700
771.000000	73.992700
770.000000	73.828500
769.000000	73.683100
768.000000	73.473400
767.000000	73.315300
766.000000	73.172500
765.000000	73.032500
764.000000	72.855700
763.000000	72.616500
762.000000	72.400200
761.000000	72.181500
760.000000	71.953800
759.000000	71.696600
758.000000	71.399600
757.000000	71.104500
756.000000	70.882400
755.000000	70.685400
754.000000	70.399400
753.000000	70.039800
752.000000	69.690300
751.000000	69.339900
750.000000	69.020500
749.000000	68.664700
748.000000	68.319200
747.000000	68.034100
746.000000	67.633400
745.000000	67.209700
744.000000	66.819000
743.000000	66.446000
742.000000	66.099700
741.000000	65.627300
740.000000	65.241000
739.000000	64.869300
738.000000	64.431500
737.000000	64.045500
736.000000	63.691300
735.000000	63.326000
734.000000	62.971500
733.000000	62.643800
732.000000	62.253700
731.000000	61.841200
730.000000	61.467400
729.000000	61.184800
728.000000	60.922600
727.000000	60.658400
726.000000	60.368200
725.000000	60.012100
724.000000	59.826300
723.000000	59.652500
722.000000	59.468300
721.000000	59.277600
720.000000	59.123200
719.000000	58.985600
718.000000	58.841300
717.000000	58.700200
716.000000	58.543200
715.000000	58.374100
714.000000	58.201200
713.000000	58.040200
712.000000	57.872800
711.000000	57.731700
710.000000	57.447100
709.000000	57.201800
708.000000	56.876600
707.000000	56.544700
706.000000	56.273900
705.000000	55.908500
704.000000	55.494300
703.000000	55.120700
702.000000	54.687700
701.000000	54.209700
700.000000	53.783100
699.000000	53.376700
698.000000	52.964700
697.000000	52.500500
696.000000	52.083900
695.000000	51.702100
694.000000	51.290500
693.000000	50.890700
692.000000	50.520700
691.000000	50.121300
690.000000	49.746300
689.000000	49.404100
688.000000	49.063900
687.000000	48.719600
686.000000	48.413200
685.000000	48.070900
684.000000	47.792700
683.000000	47.501400
682.000000	47.235600
681.000000	47.011700
680.000000	46.761500
679.000000	46.566400
678.000000	46.398800
677.000000	46.257700
676.000000	46.119100
675.000000	46.075000
674.000000	46.091700
673.000000	46.050500
672.000000	46.100600
671.000000	46.148900
670.000000	46.216900
669.000000	46.298900
668.000000	46.403500
667.000000	46.478200
666.000000	46.569200
665.000000	46.674800
664.000000	46.710500
663.000000	46.706500
662.000000	46.695000
661.000000	46.659700
660.000000	46.541800
659.000000	46.389800
658.000000	46.227500
657.000000	46.048500
656.000000	45.825700
655.000000	45.597600
654.000000	45.371500
653.000000	45.152000
652.000000	44.951400
651.000000	44.713900
650.000000	44.533500
649.000000	44.429400
648.000000	44.366600
647.000000	44.320500
646.000000	44.309900
645.000000	44.315200
644.000000	44.331400
643.000000	44.423500
642.000000	44.534200
641.000000	44.635300
640.000000	44.729600
639.000000	44.916100
638.000000	45.053300
637.000000	45.215400
636.000000	45.463500
635.000000	45.740100
634.000000	45.976800
633.000000	46.266500
632.000000	46.614400
631.000000	46.934200
630.000000	47.356500
629.000000	47.793400
628.000000	48.267900
627.000000	48.738500
626.000000	49.267300
625.000000	49.777100
624.000000	50.310900
623.000000	50.817800
622.000000	51.385900
621.000000	51.945500
620.000000	52.470100
619.000000	53.012700
618.000000	53.487400
617.000000	54.005400
616.000000	54.433000
615.000000	54.891500
614.000000	55.354400
613.000000	55.770400
612.000000	56.153200
611.000000	56.510800
610.000000	56.882300
609.000000	57.280500
608.000000	57.623600
607.000000	57.965900
606.000000	58.273500
605.000000	58.587900
604.000000	58.860300
603.000000	59.134100
602.000000	59.362000
601.000000	59.613300
600.000000	59.806900
599.000000	60.012500
598.000000	60.206400
597.000000	60.330500
596.000000	60.464200
595.000000	60.571300
594.000000	60.747400
593.000000	60.848300
592.000000	60.904600
591.000000	60.940500
590.000000	60.942500
589.000000	60.941900
588.000000	60.942900
587.000000	60.930800
586.000000	60.882800
585.000000	60.845400
584.000000	60.712000
583.000000	60.633900
582.000000	60.539900
581.000000	60.394500
580.000000	60.223700
579.000000	60.056600
578.000000	59.883700
577.000000	59.683500
576.000000	59.496700
575.000000	59.298600
574.000000	59.053100
573.000000	58.800800
572.000000	58.528600
571.000000	58.264900
570.000000	57.929800
569.000000	57.615900
568.000000	57.261600
567.000000	56.892700
566.000000	56.502100
565.000000	56.065600
564.000000	55.617000
563.000000	55.181800
562.000000	54.656400
561.000000	54.142900
560.000000	53.604100
559.000000	53.001400
558.000000	52.376700
557.000000	51.768600
556.000000	51.105700
555.000000	50.472800
554.000000	49.796100
553.000000	49.108600
552.000000	48.441200
551.000000	47.717800
550.000000	46.993500
549.000000	46.293000
548.000000	45.593200
547.000000	44.910900
546.000000	44.242900
545.000000	43.578200
544.000000	42.861100
543.000000	42.164900
542.000000	41.430400
541.000000	40.727200
540.000000	40.007600
539.000000	39.283000
538.000000	38.555000
537.000000	37.869600
536.000000	37.194100
535.000000	36.472700
534.000000	35.749400
533.000000	35.035700
532.000000	34.316200
531.000000	33.643400
530.000000	32.995500
529.000000	32.342900
528.000000	31.710400
527.000000	31.112900
526.000000	30.522200
525.000000	29.966800
524.000000	29.425700
523.000000	28.905000
522.000000	28.402100
521.000000	27.934100
520.000000	27.491700
519.000000	27.058100
518.000000	26.647700
517.000000	26.241800
516.000000	25.842600
515.000000	25.456200
514.000000	25.058000
513.000000	24.686100
512.000000	24.328600
511.000000	23.981600
510.000000	23.660600
509.000000	23.314500
508.000000	22.991500
507.000000	22.704400
506.000000	22.433800
505.000000	22.184700
504.000000	21.949500
503.000000	21.763500
502.000000	21.578500
501.000000	21.400200
500.000000	21.271600
499.000000	21.173700
498.000000	21.086000
497.000000	21.044100
496.000000	21.012400
495.000000	21.003600
494.000000	21.034400
493.000000	21.067900
492.000000	21.140300
491.000000	21.239500
490.000000	21.354400
489.000000	21.481400
488.000000	21.619900
487.000000	21.760400
486.000000	21.909500
485.000000	22.050600
484.000000	22.198400
483.000000	22.327400
482.000000	22.438200
481.000000	22.543800
480.000000	22.651300
479.000000	22.742600
478.000000	22.821400
477.000000	22.894200
476.000000	22.928600
475.000000	22.965800
474.000000	22.991200
473.000000	22.991900
472.000000	22.983800
471.000000	22.937200
470.000000	22.893300
469.000000	22.845300
468.000000	22.766600
467.000000	22.684300
466.000000	22.589100
465.000000	22.466200
464.000000	22.330400
463.000000	22.189000
462.000000	22.017500
461.000000	21.848800
460.000000	21.690000
459.000000	21.510500
458.000000	21.326400
457.000000	21.130000
456.000000	20.892900
455.000000	20.665500
454.000000	20.435400
453.000000	20.163900
452.000000	19.905900
451.000000	19.645900
450.000000	19.357000
449.000000	19.073200
448.000000	18.773300
447.000000	18.473000
446.000000	18.188700
445.000000	17.886900
444.000000	17.530400
443.000000	17.179300
442.000000	16.845500
441.000000	16.487000
440.000000	16.115600
439.000000	15.760700
438.000000	15.395400
437.000000	15.019500
436.000000	14.641300
435.000000	14.262900
434.000000	13.885700
433.000000	13.508800
432.000000	13.129500
431.000000	12.737100
430.000000	12.358900
429.000000	11.999500
428.000000	11.637200
427.000000	11.291200
426.000000	10.954000
425.000000	10.626300
424.000000	10.313800
423.000000	9.994800
422.000000	9.687800
421.000000	9.405300
420.000000	9.152000
419.000000	8.906800
418.000000	8.650900
417.000000	8.408700
416.000000	8.208000
415.000000	8.016900
414.000000	7.834400
413.000000	7.648600
412.000000	7.473500
411.000000	7.324800
410.000000	7.198900
409.000000	7.081100
408.000000	6.959400
407.000000	6.856100
406.000000	6.756100
405.000000	6.659000
404.000000	6.577900
403.000000	6.497100
402.000000	6.426300
401.000000	6.366100
400.000000	6.303500
399.000000	6.247800
398.000000	6.202100
397.000000	6.160000
396.000000	6.113400
395.000000	6.078400
394.000000	6.045700
393.000000	6.006500
392.000000	5.982600
391.000000	5.967000
390.000000	5.929000
389.000000	5.895900
388.000000	5.874300
387.000000	5.867200
386.000000	5.841800
385.000000	5.816100
384.000000	5.807300
383.000000	5.776100
382.000000	5.762400
381.000000	5.759000
380.000000	5.734800
379.000000	5.714700
378.000000	5.708900
377.000000	5.690200
376.000000	5.836900
375.000000	5.613600
374.000000	5.495500
373.000000	5.503300
372.000000	5.565600
371.000000	5.579500
370.000000	5.622100
369.000000	5.651800
368.000000	5.689500
367.000000	5.694500
366.000000	5.634500
365.000000	5.685400
364.000000	5.660700
363.000000	5.664600
362.000000	5.632800
361.000000	5.667600
360.000000	5.649700
359.000000	5.598800
358.000000	5.626700
357.000000	5.635800
356.000000	5.650700
355.000000	5.641500
354.000000	5.650700
353.000000	5.675700
352.000000	5.702000
351.000000	5.588700
350.000000	5.565700
349.000000	5.578800
348.000000	5.655200
347.000000	5.746600
346.000000	5.701300
345.000000	5.658900
344.000000	5.665600
343.000000	5.600800
342.000000	5.701700
341.000000	5.655800
340.000000	5.776700
339.000000	5.616700
338.000000	5.550000
337.000000	5.590800
336.000000	5.721700
335.000000	5.810300
334.000000	5.696200
333.000000	5.676700
332.000000	5.540200
331.000000	5.602200
330.000000	5.647100
329.000000	5.826600
328.000000	5.510600
327.000000	5.879600
326.000000	5.999200
325.000000	6.020100
324.000000	5.829000
323.000000	5.695000
322.000000	5.823600
321.000000	6.010400
320.000000	5.867200
319.000000	5.883700
318.000000	5.957600
317.000000	6.064900
316.000000	5.717500
315.000000	5.591000
314.000000	5.716700
313.000000	5.636400
312.000000	5.637700
311.000000	5.668800
310.000000	5.656300
309.000000	5.673100
308.000000	5.637100
307.000000	5.656800
306.000000	5.720700
305.000000	5.646000
304.000000	5.718800
303.000000	5.705200
302.000000	5.682200
301.000000	5.678300
300.000000	5.668100
299.000000	5.682800
298.000000	5.672600
297.000000	5.694000
296.000000	5.730800
295.000000	5.772500
294.000000	5.730200
293.000000	5.744000
292.000000	5.737000
291.000000	5.788400
290.000000	5.713400
289.000000	5.714500
288.000000	5.794200
287.000000	5.802300
286.000000	5.746600
285.000000	5.753900
284.000000	5.842300
283.000000	5.810700
282.000000	5.765700
281.000000	5.770200
280.000000	5.822200
279.000000	5.828200
278.000000	5.834500
277.000000	5.817800
276.000000	5.841000
275.000000	5.844000
274.000000	5.882100
273.000000	5.882400
272.000000	5.861100
271.000000	5.853700
270.000000	5.900500
269.000000	5.896700
268.000000	5.955700
267.000000	5.972200
266.000000	5.970000
265.000000	5.994100
264.000000	6.024600
263.000000	5.971900
262.000000	6.023300
261.000000	6.089600
260.000000	6.053700
259.000000	6.084700
258.000000	6.111900
257.000000	6.144600
256.000000	6.146900
255.000000	6.153800
254.000000	6.171800
253.000000	6.181400
252.000000	6.211300
251.000000	6.204400
250.000000	6.248100
