PE UV       SUBTECH     SPECTRUM    ASCII       PEDS        4.00        
   -1
CICIMAUCR0013-2.Sample.ASC
24/04/04
13:54:25.00
24/04/04
13:54:25.00
Vinicio Soto Monge
C. resplendens
250,000000
1
Lambda 1050
1050L1511233
PerkinElmer UV WinLab 6.3.2.0749 / 2.02.05 Lambda 900 UV/VIS/NIR, Aug  7 2015 09:38:08

0
0
3350/servo 860,8/2
0
0
UV/VIS
1
1
1
DoubleDePol,CommonBeamDepol,RBeamAtt,SBeamAtt,60mm sphere, WB InGaAs Detector
0
0
0
0
Program
Program
3350/servo 860,8/2
3350/0,2 860,8/0,2
3350/0,2 860,8/0,2
0
15.00
 
 
 
0
 
860,8
319,2
860,8
Front
100
on
S:100 R:100
0
0
0
0
 
0
 
 
 
0
 
 
0
0
0
0
0
 
 
 
 
0
0


0
0
#HDR
-1
-1
#GR
nm
%R
1.0
0.0
2500,000000
-1,000000
2251
8
70,639000
5,101100
#DATA
2500.000000	6.663371
2499.000000	6.551632
2498.000000	6.642451
2497.000000	6.592566
2496.000000	6.530109
2495.000000	6.438084
2494.000000	6.507882
2493.000000	6.483946
2492.000000	6.435268
2491.000000	6.468759
2490.000000	6.403888
2489.000000	6.470670
2488.000000	6.459506
2487.000000	6.455986
2486.000000	6.468055
2485.000000	6.406805
2484.000000	6.477911
2483.000000	6.471273
2482.000000	6.466546
2481.000000	6.513213
2480.000000	6.452667
2479.000000	6.457293
2478.000000	6.435569
2477.000000	6.464233
2476.000000	6.466144
2475.000000	6.485153
2474.000000	6.488572
2473.000000	6.486058
2472.000000	6.511101
2471.000000	6.505469
2470.000000	6.490181
2469.000000	6.504262
2468.000000	6.541575
2467.000000	6.527595
2466.000000	6.539463
2465.000000	6.566216
2464.000000	6.591862
2463.000000	6.633299
2462.000000	6.667092
2461.000000	6.694448
2460.000000	6.728242
2459.000000	6.760828
2458.000000	6.799649
2457.000000	6.849635
2456.000000	6.910382
2455.000000	6.964190
2454.000000	6.998988
2453.000000	7.044649
2452.000000	7.094333
2451.000000	7.149649
2450.000000	7.221359
2449.000000	7.290051
2448.000000	7.363773
2447.000000	7.407120
2446.000000	7.469577
2445.000000	7.516847
2444.000000	7.596402
2443.000000	7.664290
2442.000000	7.719002
2441.000000	7.776229
2440.000000	7.828528
2439.000000	7.896014
2438.000000	7.954950
2437.000000	8.000008
2436.000000	8.072824
2435.000000	8.137795
2434.000000	8.159418
2433.000000	8.208398
2432.000000	8.265122
2431.000000	8.314404
2430.000000	8.359864
2429.000000	8.384102
2428.000000	8.414275
2427.000000	8.465769
2426.000000	8.502076
2425.000000	8.528628
2424.000000	8.557795
2423.000000	8.597119
2422.000000	8.628901
2421.000000	8.658470
2420.000000	8.688340
2419.000000	8.762464
2418.000000	8.801789
2417.000000	8.819791
2416.000000	8.855697
2415.000000	8.875812
2414.000000	8.910208
2413.000000	8.926903
2412.000000	8.947722
2411.000000	8.991674
2410.000000	9.016113
2409.000000	9.029288
2408.000000	9.062679
2407.000000	9.092550
2406.000000	9.114877
2405.000000	9.144346
2404.000000	9.191113
2403.000000	9.207104
2402.000000	9.228124
2401.000000	9.247234
2400.000000	9.282435
2399.000000	9.322966
2398.000000	9.329504
2397.000000	9.349518
2396.000000	9.386932
2395.000000	9.428067
2394.000000	9.441443
2393.000000	9.453613
2392.000000	9.479259
2391.000000	9.492334
2390.000000	9.511845
2389.000000	9.543627
2388.000000	9.551673
2387.000000	9.559116
2386.000000	9.575208
2385.000000	9.576515
2384.000000	9.568167
2383.000000	9.586271
2382.000000	9.580236
2381.000000	9.567564
2380.000000	9.560624
2379.000000	9.564044
2378.000000	9.552478
2377.000000	9.524920
2376.000000	9.506716
2375.000000	9.487104
2374.000000	9.471817
2373.000000	9.453613
2372.000000	9.438828
2371.000000	9.411472
2370.000000	9.376371
2369.000000	9.331917
2368.000000	9.294805
2367.000000	9.263024
2366.000000	9.201271
2365.000000	9.139116
2364.000000	9.092952
2363.000000	9.042765
2362.000000	8.989964
2361.000000	8.928714
2360.000000	8.881243
2359.000000	8.831358
2358.000000	8.759547
2357.000000	8.723642
2356.000000	8.698700
2355.000000	8.669231
2354.000000	8.634634
2353.000000	8.607579
2352.000000	8.603355
2351.000000	8.606875
2350.000000	8.619547
2349.000000	8.641473
2348.000000	8.662694
2347.000000	8.696085
2346.000000	8.746473
2345.000000	8.776846
2344.000000	8.818786
2343.000000	8.853283
2342.000000	8.867967
2341.000000	8.906889
2340.000000	8.932133
2339.000000	8.919360
2338.000000	8.927909
2337.000000	8.936357
2336.000000	8.927004
2335.000000	8.913929
2334.000000	8.881041
2333.000000	8.857507
2332.000000	8.824518
2331.000000	8.793541
2330.000000	8.736214
2329.000000	8.665409
2328.000000	8.597119
2327.000000	8.549849
2326.000000	8.497852
2325.000000	8.424231
2324.000000	8.343671
2323.000000	8.255467
2322.000000	8.174002
2321.000000	8.078556
2320.000000	7.989246
2319.000000	7.882134
2318.000000	7.786387
2317.000000	7.694764
2316.000000	7.591876
2315.000000	7.478629
2314.000000	7.389922
2313.000000	7.301316
2312.000000	7.212810
2311.000000	7.135669
2310.000000	7.063557
2309.000000	7.014779
2308.000000	6.980684
2307.000000	6.952422
2306.000000	6.942566
2305.000000	6.941963
2304.000000	6.954233
2303.000000	6.985109
2302.000000	7.017796
2301.000000	7.062049
2300.000000	7.129836
2299.000000	7.174491
2298.000000	7.227796
2297.000000	7.279491
2296.000000	7.336014
2295.000000	7.374132
2294.000000	7.422005
2293.000000	7.447451
2292.000000	7.454591
2291.000000	7.454089
2290.000000	7.464448
2289.000000	7.445439
2288.000000	7.432063
2287.000000	7.406517
2286.000000	7.359850
2285.000000	7.320727
2284.000000	7.274261
2283.000000	7.208888
2282.000000	7.136072
2281.000000	7.098054
2280.000000	7.038213
2279.000000	6.964089
2278.000000	6.917121
2277.000000	6.871460
2276.000000	6.816546
2275.000000	6.784664
2274.000000	6.719894
2273.000000	6.683788
2272.000000	6.647078
2271.000000	6.643256
2270.000000	6.651905
2269.000000	6.660857
2268.000000	6.639535
2267.000000	6.668802
2266.000000	6.704506
2265.000000	6.778428
2264.000000	6.840684
2263.000000	6.901934
2262.000000	7.007336
2261.000000	7.107911
2260.000000	7.203557
2259.000000	7.315798
2258.000000	7.437796
2257.000000	7.589160
2256.000000	7.705626
2255.000000	7.846531
2254.000000	7.966315
2253.000000	8.111143
2252.000000	8.218757
2251.000000	8.320338
2250.000000	8.437809
2249.000000	8.566746
2248.000000	8.644691
2247.000000	8.737521
2246.000000	8.818786
2245.000000	8.885366
2244.000000	8.980007
2243.000000	9.021041
2242.000000	9.083498
2241.000000	9.128958
2240.000000	9.176530
2239.000000	9.244619
2238.000000	9.298326
2237.000000	9.329604
2236.000000	9.354949
2235.000000	9.381300
2234.000000	9.415193
2233.000000	9.428469
2232.000000	9.438024
2231.000000	9.442348
2230.000000	9.426961
2229.000000	9.424044
2228.000000	9.390452
2227.000000	9.375869
2226.000000	9.348009
2225.000000	9.332722
2224.000000	9.251055
2223.000000	9.213038
2222.000000	9.153800
2221.000000	9.090639
2220.000000	9.046990
2219.000000	8.959892
2218.000000	8.912924
2217.000000	8.868872
2216.000000	8.828843
2215.000000	8.777952
2214.000000	8.747679
2213.000000	8.711573
2212.000000	8.683513
2211.000000	8.676372
2210.000000	8.697996
2209.000000	8.704432
2208.000000	8.745970
2207.000000	8.793240
2206.000000	8.841616
2205.000000	8.923987
2204.000000	9.020740
2203.000000	9.132780
2202.000000	9.257995
2201.000000	9.384216
2200.000000	9.516170
2199.000000	9.643900
2198.000000	9.790437
2197.000000	9.933454
2196.000000	10.100308
2195.000000	10.232262
2194.000000	10.367836
2193.000000	10.476054
2192.000000	10.617563
2191.000000	10.713008
2190.000000	10.820120
2189.000000	10.917074
2188.000000	10.985264
2187.000000	11.065925
2186.000000	11.123152
2185.000000	11.200393
2184.000000	11.251284
2183.000000	11.293827
2182.000000	11.327720
2181.000000	11.384143
2180.000000	11.407476
2179.000000	11.442275
2178.000000	11.480896
2177.000000	11.510364
2176.000000	11.531485
2175.000000	11.575838
2174.000000	11.607720
2173.000000	11.643927
2172.000000	11.669372
2171.000000	11.672088
2170.000000	11.721370
2169.000000	11.764214
2168.000000	11.780206
2167.000000	11.814099
2166.000000	11.854229
2165.000000	11.883999
2164.000000	11.899688
2163.000000	11.944042
2162.000000	11.975220
2161.000000	12.026513
2160.000000	12.065536
2159.000000	12.108682
2158.000000	12.169228
2157.000000	12.196283
2156.000000	12.227662
2155.000000	12.286498
2154.000000	12.324113
2153.000000	12.376010
2152.000000	12.422274
2151.000000	12.472360
2150.000000	12.503538
2149.000000	12.563984
2148.000000	12.608840
2147.000000	12.650176
2146.000000	12.698854
2145.000000	12.746124
2144.000000	12.793998
2143.000000	12.834228
2142.000000	12.863294
2141.000000	12.903121
2140.000000	12.935708
2139.000000	12.963265
2138.000000	13.010233
2137.000000	13.041914
2136.000000	13.052475
2135.000000	13.073897
2134.000000	13.120564
2133.000000	13.133638
2132.000000	13.146009
2131.000000	13.174673
2130.000000	13.198811
2129.000000	13.200621
2128.000000	13.217317
2127.000000	13.227173
2126.000000	13.225564
2125.000000	13.241052
2124.000000	13.248495
2123.000000	13.245779
2122.000000	13.220736
2121.000000	13.201225
2120.000000	13.194687
2119.000000	13.192475
2118.000000	13.181613
2117.000000	13.163710
2116.000000	13.140276
2115.000000	13.122776
2114.000000	13.108294
2113.000000	13.092403
2112.000000	13.092503
2111.000000	13.071182
2110.000000	13.047949
2109.000000	13.031555
2108.000000	13.013753
2107.000000	12.997863
2106.000000	12.973624
2105.000000	12.956024
2104.000000	12.951598
2103.000000	12.933998
2102.000000	12.908251
2101.000000	12.884917
2100.000000	12.868825
2099.000000	12.847101
2098.000000	12.826484
2097.000000	12.818940
2096.000000	12.807777
2095.000000	12.790076
2094.000000	12.777202
2093.000000	12.767144
2092.000000	12.749242
2091.000000	12.741096
2090.000000	12.735262
2089.000000	12.716254
2088.000000	12.712935
2087.000000	12.708007
2086.000000	12.689400
2085.000000	12.685176
2084.000000	12.661943
2083.000000	12.649874
2082.000000	12.640622
2081.000000	12.616785
2080.000000	12.611857
2079.000000	12.595665
2078.000000	12.574041
2077.000000	12.557949
2076.000000	12.558854
2075.000000	12.532806
2074.000000	12.518323
2073.000000	12.512288
2072.000000	12.487648
2071.000000	12.464113
2070.000000	12.452547
2069.000000	12.430320
2068.000000	12.413424
2067.000000	12.394314
2066.000000	12.378625
2065.000000	12.365248
2064.000000	12.360018
2063.000000	12.350363
2062.000000	12.357906
2061.000000	12.343625
2060.000000	12.323812
2059.000000	12.320191
2058.000000	12.351268
2057.000000	12.373194
2056.000000	12.397231
2055.000000	12.418452
2054.000000	12.462504
2053.000000	12.514501
2052.000000	12.564487
2051.000000	12.632777
2050.000000	12.698854
2049.000000	12.763826
2048.000000	12.853639
2047.000000	12.946670
2046.000000	13.036685
2045.000000	13.124084
2044.000000	13.244874
2043.000000	13.364558
2042.000000	13.484443
2041.000000	13.601109
2040.000000	13.700879
2039.000000	13.813121
2038.000000	13.946885
2037.000000	14.036396
2036.000000	14.128824
2035.000000	14.230304
2034.000000	14.315994
2033.000000	14.422100
2032.000000	14.520663
2031.000000	14.587746
2030.000000	14.679672
2029.000000	14.758120
2028.000000	14.844011
2027.000000	14.913508
2026.000000	14.986324
2025.000000	15.059743
2024.000000	15.130950
2023.000000	15.179528
2022.000000	15.244499
2021.000000	15.328277
2020.000000	15.398981
2019.000000	15.443234
2018.000000	15.487085
2017.000000	15.542200
2016.000000	15.614613
2015.000000	15.659872
2014.000000	15.698593
2013.000000	15.750389
2012.000000	15.788205
2011.000000	15.809024
2010.000000	15.841007
2009.000000	15.878823
2008.000000	15.889283
2007.000000	15.900849
2006.000000	15.920360
2005.000000	15.948421
2004.000000	15.952846
2003.000000	15.955763
2002.000000	15.934038
2001.000000	15.956869
2000.000000	15.959283
1999.000000	15.936754
1998.000000	15.922171
1997.000000	15.891696
1996.000000	15.891898
1995.000000	15.871783
1994.000000	15.850662
1993.000000	15.821998
1992.000000	15.790016
1991.000000	15.761251
1990.000000	15.731984
1989.000000	15.696079
1988.000000	15.656352
1987.000000	15.592990
1986.000000	15.542904
1985.000000	15.507803
1984.000000	15.456711
1983.000000	15.434484
1982.000000	15.371826
1981.000000	15.324053
1980.000000	15.279096
1979.000000	15.242789
1978.000000	15.173191
1977.000000	15.104097
1976.000000	15.077143
1975.000000	15.017602
1974.000000	14.971740
1973.000000	14.926683
1972.000000	14.885548
1971.000000	14.832243
1970.000000	14.792114
1969.000000	14.761942
1968.000000	14.680275
1967.000000	14.653925
1966.000000	14.635017
1965.000000	14.581008
1964.000000	14.558278
1963.000000	14.503264
1962.000000	14.454183
1961.000000	14.415965
1960.000000	14.373824
1959.000000	14.330074
1958.000000	14.285721
1957.000000	14.264399
1956.000000	14.203551
1955.000000	14.163120
1954.000000	14.115247
1953.000000	14.060434
1952.000000	14.037201
1951.000000	14.008135
1950.000000	13.971928
1949.000000	13.936928
1948.000000	13.895190
1947.000000	13.883523
1946.000000	13.854256
1945.000000	13.832632
1944.000000	13.850333
1943.000000	13.823882
1942.000000	13.828207
1941.000000	13.815937
1940.000000	13.843394
1939.000000	13.854256
1938.000000	13.868135
1937.000000	13.886138
1936.000000	13.935419
1935.000000	13.937934
1934.000000	13.993149
1933.000000	14.052388
1932.000000	14.094227
1931.000000	14.165434
1930.000000	14.219140
1929.000000	14.303422
1928.000000	14.390520
1927.000000	14.494212
1926.000000	14.578494
1925.000000	14.683996
1924.000000	14.776626
1923.000000	14.879715
1922.000000	15.006640
1921.000000	15.167861
1920.000000	15.298910
1919.000000	15.417990
1918.000000	15.575993
1917.000000	15.710461
1916.000000	15.852875
1915.000000	16.021840
1914.000000	16.195231
1913.000000	16.367515
1912.000000	16.569972
1911.000000	16.731796
1910.000000	16.911724
1909.000000	17.058865
1908.000000	17.232055
1907.000000	17.444669
1906.000000	17.672773
1905.000000	17.882772
1904.000000	18.080904
1903.000000	18.274108
1902.000000	18.489439
1901.000000	18.678418
1900.000000	18.898978
1899.000000	19.109079
1898.000000	19.326521
1897.000000	19.545170
1896.000000	19.733949
1895.000000	19.897383
1894.000000	20.094308
1893.000000	20.290529
1892.000000	20.498718
1891.000000	20.711937
1890.000000	20.911577
1889.000000	21.087181
1888.000000	21.309953
1887.000000	21.540269
1886.000000	21.768574
1885.000000	22.053904
1884.000000	22.377453
1883.000000	22.709550
1882.000000	23.073932
1881.000000	23.428659
1880.000000	23.783084
1879.000000	24.112264
1878.000000	24.466086
1877.000000	24.782494
1876.000000	25.070137
1875.000000	25.347924
1874.000000	25.591214
1873.000000	25.815496
1872.000000	26.011817
1871.000000	26.188527
1870.000000	26.317866
1869.000000	26.424173
1868.000000	26.514892
1867.000000	26.563369
1866.000000	26.578757
1865.000000	26.606917
1864.000000	26.627535
1863.000000	26.639001
1862.000000	26.647851
1861.000000	26.668771
1860.000000	26.654389
1859.000000	26.622406
1858.000000	26.590423
1857.000000	26.547981
1856.000000	26.486127
1855.000000	26.430510
1854.000000	26.364633
1853.000000	26.276429
1852.000000	26.189130
1851.000000	26.123958
1850.000000	26.063010
1849.000000	26.011616
1848.000000	25.944131
1847.000000	25.846171
1846.000000	25.745093
1845.000000	25.647838
1844.000000	25.574418
1843.000000	25.539921
1842.000000	25.530970
1841.000000	25.514174
1840.000000	25.454533
1839.000000	25.394993
1838.000000	25.350539
1837.000000	25.288887
1836.000000	25.220898
1835.000000	25.136416
1834.000000	25.037350
1833.000000	24.944419
1832.000000	24.870798
1831.000000	24.795870
1830.000000	24.705956
1829.000000	24.628112
1828.000000	24.539706
1827.000000	24.449089
1826.000000	24.394778
1825.000000	24.326086
1824.000000	24.265138
1823.000000	24.244419
1822.000000	24.233155
1821.000000	24.230440
1820.000000	24.212236
1819.000000	24.163759
1818.000000	24.133888
1817.000000	24.144649
1816.000000	24.147968
1815.000000	24.135497
1814.000000	24.124635
1813.000000	24.127652
1812.000000	24.124736
1811.000000	24.104420
1810.000000	24.059764
1809.000000	24.019434
1808.000000	23.988155
1807.000000	23.961704
1806.000000	23.924894
1805.000000	23.879233
1804.000000	23.837997
1803.000000	23.805713
1802.000000	23.778960
1801.000000	23.731288
1800.000000	23.675670
1799.000000	23.621862
1798.000000	23.582135
1797.000000	23.548342
1796.000000	23.513745
1795.000000	23.480656
1794.000000	23.439822
1793.000000	23.393256
1792.000000	23.342667
1791.000000	23.298012
1790.000000	23.240785
1789.000000	23.179837
1788.000000	23.130656
1787.000000	23.077553
1786.000000	22.995886
1785.000000	22.919148
1784.000000	22.841001
1783.000000	22.765872
1782.000000	22.683199
1781.000000	22.618530
1780.000000	22.538271
1779.000000	22.459421
1778.000000	22.384795
1777.000000	22.301720
1776.000000	22.201346
1775.000000	22.075528
1774.000000	21.949709
1773.000000	21.805384
1772.000000	21.686505
1771.000000	21.549220
1770.000000	21.431146
1769.000000	21.304020
1768.000000	21.195701
1767.000000	21.084767
1766.000000	20.991132
1765.000000	20.925356
1764.000000	20.881003
1763.000000	20.861793
1762.000000	20.875370
1761.000000	20.907353
1760.000000	20.954020
1759.000000	21.015672
1758.000000	21.069882
1757.000000	21.126706
1756.000000	21.161807
1755.000000	21.165729
1754.000000	21.162209
1753.000000	21.155471
1752.000000	21.150643
1751.000000	21.102770
1750.000000	21.056807
1749.000000	20.997468
1748.000000	20.894781
1747.000000	20.787770
1746.000000	20.676836
1745.000000	20.534724
1744.000000	20.371994
1743.000000	20.181204
1742.000000	20.002584
1741.000000	19.792282
1740.000000	19.538935
1739.000000	19.336378
1738.000000	19.133418
1737.000000	18.969984
1736.000000	18.853318
1735.000000	18.740573
1734.000000	18.720056
1733.000000	18.710803
1732.000000	18.734438
1731.000000	18.806450
1730.000000	18.885300
1729.000000	19.003878
1728.000000	19.095904
1727.000000	19.194970
1726.000000	19.265472
1725.000000	19.316464
1724.000000	19.386564
1723.000000	19.410099
1722.000000	19.407484
1721.000000	19.408188
1720.000000	19.403159
1719.000000	19.400846
1718.000000	19.439265
1717.000000	19.428906
1716.000000	19.460185
1715.000000	19.515803
1714.000000	19.547785
1713.000000	19.601392
1712.000000	19.644035
1711.000000	19.638705
1710.000000	19.653288
1709.000000	19.650170
1708.000000	19.665055
1707.000000	19.602900
1706.000000	19.586808
1705.000000	19.537527
1704.000000	19.479193
1703.000000	19.420357
1702.000000	19.308820
1701.000000	19.199093
1700.000000	19.071263
1699.000000	18.927139
1698.000000	18.788548
1697.000000	18.683346
1696.000000	18.621694
1695.000000	18.616967
1694.000000	18.636579
1693.000000	18.750631
1692.000000	18.902297
1691.000000	19.066133
1690.000000	19.182197
1689.000000	19.295544
1688.000000	19.359912
1687.000000	19.377211
1686.000000	19.364337
1685.000000	19.389682
1684.000000	19.456966
1683.000000	19.640012
1682.000000	19.911765
1681.000000	20.307224
1680.000000	20.808891
1679.000000	21.333186
1678.000000	21.866533
1677.000000	22.331691
1676.000000	22.775326
1675.000000	23.150167
1674.000000	23.484679
1673.000000	23.802595
1672.000000	24.023960
1671.000000	24.279017
1670.000000	24.453011
1669.000000	24.622178
1668.000000	24.768514
1667.000000	24.864563
1666.000000	24.976804
1665.000000	25.082910
1664.000000	25.162666
1663.000000	25.244232
1662.000000	25.320367
1661.000000	25.367134
1660.000000	25.407967
1659.000000	25.435424
1658.000000	25.468010
1657.000000	25.506732
1656.000000	25.521415
1655.000000	25.523628
1654.000000	25.517594
1653.000000	25.504016
1652.000000	25.503413
1651.000000	25.480984
1650.000000	25.468211
1649.000000	25.448298
1648.000000	25.416214
1647.000000	25.371559
1646.000000	25.320970
1645.000000	25.289792
1644.000000	25.237896
1643.000000	25.184993
1642.000000	25.126459
1641.000000	25.086832
1640.000000	25.031014
1639.000000	24.975597
1638.000000	24.916962
1637.000000	24.850281
1636.000000	24.784103
1635.000000	24.714807
1634.000000	24.647321
1633.000000	24.576517
1632.000000	24.510741
1631.000000	24.419822
1630.000000	24.355756
1629.000000	24.282235
1628.000000	24.204089
1627.000000	24.125138
1626.000000	24.042968
1625.000000	23.964017
1624.000000	23.882049
1623.000000	23.804908
1622.000000	23.723644
1621.000000	23.650727
1620.000000	23.582035
1619.000000	23.504492
1618.000000	23.415483
1617.000000	23.331906
1616.000000	23.269650
1615.000000	23.195024
1614.000000	23.118989
1613.000000	23.054722
1612.000000	22.976676
1611.000000	22.902251
1610.000000	22.826015
1609.000000	22.763760
1608.000000	22.691547
1607.000000	22.631806
1606.000000	22.565728
1605.000000	22.492611
1604.000000	22.424622
1603.000000	22.363976
1602.000000	22.287639
1601.000000	22.225786
1600.000000	22.187769
1599.000000	22.133157
1598.000000	22.080858
1597.000000	22.027352
1596.000000	21.961576
1595.000000	21.910283
1594.000000	21.863617
1593.000000	21.816648
1592.000000	21.778028
1591.000000	21.744536
1590.000000	21.698272
1589.000000	21.646476
1588.000000	21.618215
1587.000000	21.597396
1586.000000	21.569235
1585.000000	21.551031
1584.000000	21.511304
1583.000000	21.472281
1582.000000	21.448847
1581.000000	21.443215
1580.000000	21.442913
1579.000000	21.435068
1578.000000	21.434063
1577.000000	21.434867
1576.000000	21.437784
1575.000000	21.448948
1574.000000	21.469163
1573.000000	21.484551
1572.000000	21.502554
1571.000000	21.526289
1570.000000	21.542180
1569.000000	21.561491
1568.000000	21.597195
1567.000000	21.636419
1566.000000	21.667195
1565.000000	21.697669
1564.000000	21.729551
1563.000000	21.769982
1562.000000	21.800858
1561.000000	21.813128
1560.000000	21.843401
1559.000000	21.878200
1558.000000	21.897510
1557.000000	21.921347
1556.000000	21.945585
1555.000000	21.951620
1554.000000	21.951620
1553.000000	21.967913
1552.000000	21.980786
1551.000000	21.991145
1550.000000	21.996576
1549.000000	21.996174
1548.000000	22.002913
1547.000000	21.996375
1546.000000	21.987424
1545.000000	22.003114
1544.000000	22.028157
1543.000000	22.040226
1542.000000	22.042438
1541.000000	22.059436
1540.000000	22.074119
1539.000000	22.074421
1538.000000	22.080355
1537.000000	22.099163
1536.000000	22.102683
1535.000000	22.099766
1534.000000	22.104694
1533.000000	22.108114
1532.000000	22.112137
1531.000000	22.110729
1530.000000	22.105197
1529.000000	22.098559
1528.000000	22.106907
1527.000000	22.098157
1526.000000	22.089910
1525.000000	22.086792
1524.000000	22.070801
1523.000000	22.053099
1522.000000	22.046260
1521.000000	22.038013
1520.000000	22.011763
1519.000000	22.006433
1518.000000	22.003516
1517.000000	21.968013
1516.000000	21.952324
1515.000000	21.942668
1514.000000	21.934120
1513.000000	21.906663
1512.000000	21.877898
1511.000000	21.872266
1510.000000	21.848832
1509.000000	21.837467
1508.000000	21.823588
1507.000000	21.812625
1506.000000	21.776117
1505.000000	21.760628
1504.000000	21.748861
1503.000000	21.740212
1502.000000	21.729450
1501.000000	21.710341
1500.000000	21.690830
1499.000000	21.697166
1498.000000	21.677956
1497.000000	21.672726
1496.000000	21.681275
1495.000000	21.678459
1494.000000	21.674939
1493.000000	21.686505
1492.000000	21.714766
1491.000000	21.734680
1490.000000	21.723516
1489.000000	21.742123
1488.000000	21.760025
1487.000000	21.788186
1486.000000	21.786375
1485.000000	21.789192
1484.000000	21.810815
1483.000000	21.843703
1482.000000	21.874680
1481.000000	21.905556
1480.000000	21.931203
1479.000000	21.954436
1478.000000	22.018703
1477.000000	22.039522
1476.000000	22.075326
1475.000000	22.094536
1474.000000	22.140499
1473.000000	22.215427
1472.000000	22.248214
1471.000000	22.290254
1470.000000	22.334809
1469.000000	22.353616
1468.000000	22.408631
1467.000000	22.452079
1466.000000	22.499852
1465.000000	22.550944
1464.000000	22.605355
1463.000000	22.657955
1462.000000	22.726547
1461.000000	22.795139
1460.000000	22.881734
1459.000000	22.962495
1458.000000	23.059047
1457.000000	23.150771
1456.000000	23.245311
1455.000000	23.333917
1454.000000	23.444248
1453.000000	23.538687
1452.000000	23.651532
1451.000000	23.791934
1450.000000	23.884664
1449.000000	23.980310
1448.000000	24.065397
1447.000000	24.215554
1446.000000	24.358270
1445.000000	24.461359
1444.000000	24.590094
1443.000000	24.696905
1442.000000	24.852896
1441.000000	24.946732
1440.000000	25.070640
1439.000000	25.193743
1438.000000	25.324993
1437.000000	25.400726
1436.000000	25.509548
1435.000000	25.627119
1434.000000	25.729001
1433.000000	25.842249
1432.000000	25.996530
1431.000000	26.080108
1430.000000	26.166401
1429.000000	26.335869
1428.000000	26.506544
1427.000000	26.622808
1426.000000	26.794187
1425.000000	26.992420
1424.000000	27.186227
1423.000000	27.344632
1422.000000	27.499517
1421.000000	27.702075
1420.000000	27.909459
1419.000000	28.095824
1418.000000	28.226974
1417.000000	28.329258
1416.000000	28.494100
1415.000000	28.661858
1414.000000	28.805479
1413.000000	28.897203
1412.000000	29.003410
1411.000000	29.172576
1410.000000	29.337317
1409.000000	29.563711
1408.000000	29.793323
1407.000000	30.009357
1406.000000	30.307259
1405.000000	30.577201
1404.000000	30.801181
1403.000000	31.052718
1402.000000	31.302948
1401.000000	31.584255
1400.000000	31.810950
1399.000000	31.893321
1398.000000	31.947832
1397.000000	32.063192
1396.000000	32.150893
1395.000000	32.129470
1394.000000	32.036740
1393.000000	31.982229
1392.000000	31.942200
1391.000000	31.911626
1390.000000	31.883766
1389.000000	31.903580
1388.000000	32.003149
1387.000000	32.057157
1386.000000	32.207214
1385.000000	32.423048
1384.000000	32.711496
1383.000000	32.967659
1382.000000	33.276926
1381.000000	33.540834
1380.000000	33.730015
1379.000000	34.021983
1378.000000	34.286092
1377.000000	34.619396
1376.000000	35.015560
1375.000000	35.493893
1374.000000	36.048461
1373.000000	36.648590
1372.000000	37.265615
1371.000000	37.853072
1370.000000	38.362382
1369.000000	38.786203
1368.000000	39.192223
1367.000000	39.508430
1366.000000	39.782898
1365.000000	40.053745
1364.000000	40.288688
1363.000000	40.475354
1362.000000	40.675296
1361.000000	40.786029
1360.000000	40.862265
1359.000000	40.908428
1358.000000	41.016747
1357.000000	41.208241
1356.000000	41.515296
1355.000000	41.973111
1354.000000	42.554433
1353.000000	43.141085
1352.000000	43.766759
1351.000000	44.380868
1350.000000	44.967721
1349.000000	45.487189
1348.000000	45.956470
1347.000000	46.406642
1346.000000	46.784803
1345.000000	47.145665
1344.000000	47.544644
1343.000000	47.880262
1342.000000	48.198379
1341.000000	48.508049
1340.000000	48.809270
1339.000000	49.087660
1338.000000	49.353077
1337.000000	49.612257
1336.000000	49.839254
1335.000000	50.065849
1334.000000	50.277156
1333.000000	50.492788
1332.000000	50.692932
1331.000000	50.874570
1330.000000	51.040518
1329.000000	51.202644
1328.000000	51.349785
1327.000000	51.485259
1326.000000	51.624555
1325.000000	51.737399
1324.000000	51.849439
1323.000000	51.953936
1322.000000	52.064971
1321.000000	52.168160
1320.000000	52.256364
1319.000000	52.349496
1318.000000	52.427341
1317.000000	52.488792
1316.000000	52.567442
1315.000000	52.645588
1314.000000	52.720013
1313.000000	52.785085
1312.000000	52.832959
1311.000000	52.882844
1310.000000	52.929611
1309.000000	52.967729
1308.000000	53.000214
1307.000000	53.031996
1306.000000	53.050502
1305.000000	53.060961
1304.000000	53.075243
1303.000000	53.077657
1302.000000	53.074036
1301.000000	53.068504
1300.000000	53.049596
1299.000000	53.040243
1298.000000	53.024755
1297.000000	53.002226
1296.000000	52.974568
1295.000000	52.946105
1294.000000	52.924482
1293.000000	52.905875
1292.000000	52.875401
1291.000000	52.823102
1290.000000	52.768390
1289.000000	52.729367
1288.000000	52.670531
1287.000000	52.596206
1286.000000	52.527916
1285.000000	52.458318
1284.000000	52.385904
1283.000000	52.299410
1282.000000	52.214525
1281.000000	52.138189
1280.000000	52.062557
1279.000000	51.995876
1278.000000	51.936839
1277.000000	51.869856
1276.000000	51.782960
1275.000000	51.723218
1274.000000	51.675848
1273.000000	51.620330
1272.000000	51.566020
1271.000000	51.520862
1270.000000	51.474899
1269.000000	51.420086
1268.000000	51.366983
1267.000000	51.321724
1266.000000	51.261178
1265.000000	51.192184
1264.000000	51.132342
1263.000000	51.081954
1262.000000	51.024225
1261.000000	50.956337
1260.000000	50.897199
1259.000000	50.831121
1258.000000	50.765949
1257.000000	50.714254
1256.000000	50.629469
1255.000000	50.551222
1254.000000	50.459699
1253.000000	50.361136
1252.000000	50.274441
1251.000000	50.187645
1250.000000	50.092300
1249.000000	49.991725
1248.000000	49.861682
1247.000000	49.738378
1246.000000	49.629254
1245.000000	49.490260
1244.000000	49.336683
1243.000000	49.194169
1242.000000	49.037976
1241.000000	48.875850
1240.000000	48.729313
1239.000000	48.567890
1238.000000	48.401942
1237.000000	48.231871
1236.000000	48.075578
1235.000000	47.886296
1234.000000	47.705664
1233.000000	47.524630
1232.000000	47.339975
1231.000000	47.141742
1230.000000	46.940895
1229.000000	46.734717
1228.000000	46.533869
1227.000000	46.331714
1226.000000	46.140522
1225.000000	45.943295
1224.000000	45.755321
1223.000000	45.563425
1222.000000	45.361571
1221.000000	45.180738
1220.000000	45.018209
1219.000000	44.849244
1218.000000	44.680681
1217.000000	44.560696
1216.000000	44.407319
1215.000000	44.274862
1214.000000	44.158296
1213.000000	44.043742
1212.000000	43.928584
1211.000000	43.810107
1210.000000	43.731759
1209.000000	43.635308
1208.000000	43.555553
1207.000000	43.497722
1206.000000	43.441903
1205.000000	43.436372
1204.000000	43.409217
1203.000000	43.402880
1202.000000	43.380955
1201.000000	43.360036
1200.000000	43.312766
1199.000000	43.224662
1198.000000	43.129720
1197.000000	42.982780
1196.000000	42.777407
1195.000000	42.510884
1194.000000	42.169433
1193.000000	41.749232
1192.000000	41.266172
1191.000000	40.748213
1190.000000	40.256906
1189.000000	39.824033
1188.000000	39.486907
1187.000000	39.319953
1186.000000	39.238688
1185.000000	39.328703
1184.000000	39.552079
1183.000000	39.924607
1182.000000	40.415210
1181.000000	40.932365
1180.000000	41.504434
1179.000000	42.033959
1178.000000	42.516516
1177.000000	42.907953
1176.000000	43.272335
1175.000000	43.589849
1174.000000	43.921041
1173.000000	44.265006
1172.000000	44.615408
1171.000000	44.972146
1170.000000	45.370422
1169.000000	45.756327
1168.000000	46.139415
1167.000000	46.546139
1166.000000	46.926915
1165.000000	47.351340
1164.000000	47.766914
1163.000000	48.161770
1162.000000	48.560448
1161.000000	48.962042
1160.000000	49.355893
1159.000000	49.717358
1158.000000	50.090892
1157.000000	50.378334
1156.000000	50.657630
1155.000000	50.860891
1154.000000	50.995561
1153.000000	51.073607
1152.000000	51.079541
1151.000000	51.084167
1150.000000	51.040819
1149.000000	51.012659
1148.000000	50.979167
1147.000000	51.003104
1146.000000	51.112127
1145.000000	51.300101
1144.000000	51.568132
1143.000000	51.890474
1142.000000	52.238563
1141.000000	52.626781
1140.000000	52.981910
1139.000000	53.349208
1138.000000	53.748490
1137.000000	54.156219
1136.000000	54.583762
1135.000000	54.985356
1134.000000	55.351951
1133.000000	55.645428
1132.000000	55.933574
1131.000000	56.226447
1130.000000	56.492769
1129.000000	56.690700
1128.000000	56.853429
1127.000000	56.998156
1126.000000	57.122366
1125.000000	57.196288
1124.000000	57.270412
1123.000000	57.343932
1122.000000	57.429320
1121.000000	57.466231
1120.000000	57.494995
1119.000000	57.534420
1118.000000	57.568917
1117.000000	57.570325
1116.000000	57.560972
1115.000000	57.542165
1114.000000	57.544981
1113.000000	57.538644
1112.000000	57.523055
1111.000000	57.523458
1110.000000	57.506762
1109.000000	57.491374
1108.000000	57.499823
1107.000000	57.479104
1106.000000	57.475685
1105.000000	57.462711
1104.000000	57.444104
1103.000000	57.415139
1102.000000	57.407998
1101.000000	57.373300
1100.000000	57.356202
1099.000000	57.333372
1098.000000	57.321202
1097.000000	57.292035
1096.000000	57.265785
1095.000000	57.218918
1094.000000	57.168228
1093.000000	57.125886
1092.000000	57.092797
1091.000000	57.047036
1090.000000	56.999967
1089.000000	56.944550
1088.000000	56.897582
1087.000000	56.834320
1086.000000	56.781016
1085.000000	56.737366
1084.000000	56.686576
1083.000000	56.620197
1082.000000	56.555930
1081.000000	56.497496
1080.000000	56.435341
1079.000000	56.390686
1078.000000	56.338990
1077.000000	56.295542
1076.000000	56.238617
1075.000000	56.189436
1074.000000	56.137036
1073.000000	56.083430
1072.000000	56.017654
1071.000000	55.976117
1070.000000	55.929551
1069.000000	55.881074
1068.000000	55.841548
1067.000000	55.789048
1066.000000	55.736146
1065.000000	55.690485
1064.000000	55.632655
1063.000000	55.585083
1062.000000	55.528258
1061.000000	55.472640
1060.000000	55.429393
1059.000000	55.388258
1058.000000	55.328316
1057.000000	55.266965
1056.000000	55.225629
1055.000000	55.178560
1054.000000	55.124954
1053.000000	55.071649
1052.000000	55.025687
1051.000000	54.979624
1050.000000	54.947842
1049.000000	54.912741
1048.000000	54.872512
1047.000000	54.839825
1046.000000	54.815888
1045.000000	54.780486
1044.000000	54.743776
1043.000000	54.725773
1042.000000	54.701334
1041.000000	54.668446
1040.000000	54.629222
1039.000000	54.603474
1038.000000	54.575414
1037.000000	54.538503
1036.000000	54.504408
1035.000000	54.476650
1034.000000	54.437828
1033.000000	54.392771
1032.000000	54.354753
1031.000000	54.309897
1030.000000	54.258101
1029.000000	54.230845
1028.000000	54.196047
1027.000000	54.140529
1026.000000	54.107239
1025.000000	54.072742
1024.000000	54.018331
1023.000000	53.977699
1022.000000	53.951851
1021.000000	53.903978
1020.000000	53.850573
1019.000000	53.823619
1018.000000	53.808030
1017.000000	53.793245
1016.000000	53.781176
1015.000000	53.761765
1014.000000	53.769208
1013.000000	53.783992
1012.000000	53.796363
1011.000000	53.816076
1010.000000	53.845142
1009.000000	53.889093
1008.000000	53.942096
1007.000000	53.982929
1006.000000	54.020544
1005.000000	54.063389
1004.000000	54.109050
1003.000000	54.146061
1002.000000	54.188705
1001.000000	54.217771
1000.000000	54.244825
999.000000	54.294207
998.000000	54.347814
997.000000	54.385831
996.000000	54.433704
995.000000	54.474940
994.000000	54.523920
993.000000	54.580342
992.000000	54.635658
991.000000	54.671664
990.000000	54.722454
989.000000	54.804322
988.000000	54.862152
987.000000	54.923101
986.000000	54.999135
985.000000	55.053948
984.000000	55.124552
983.000000	55.214968
982.000000	55.274710
981.000000	55.347827
980.000000	55.439753
979.000000	55.507339
978.000000	55.598258
977.000000	55.651060
976.000000	55.734235
975.000000	55.809666
974.000000	55.870111
973.000000	55.926936
972.000000	55.986275
971.000000	56.046419
970.000000	56.082424
969.000000	56.127180
968.000000	56.192956
967.000000	56.220916
966.000000	56.258229
965.000000	56.295944
964.000000	56.342209
963.000000	56.387668
962.000000	56.438257
961.000000	56.479292
960.000000	56.544364
959.000000	56.603703
958.000000	56.643430
957.000000	56.716045
956.000000	56.764723
955.000000	56.818631
954.000000	56.862783
953.000000	56.898487
952.000000	56.957927
951.000000	56.991820
950.000000	57.020383
949.000000	57.030039
948.000000	57.060311
947.000000	57.099837
946.000000	57.146605
945.000000	57.159176
944.000000	57.222740
943.000000	57.226964
942.000000	57.261058
941.000000	57.296159
940.000000	57.367064
939.000000	57.433846
938.000000	57.493185
937.000000	57.555139
936.000000	57.609147
935.000000	57.684176
934.000000	57.740095
933.000000	57.806475
932.000000	57.877883
931.000000	57.922538
930.000000	57.963170
929.000000	58.008429
928.000000	58.038701
927.000000	58.086173
926.000000	58.116647
925.000000	58.155469
924.000000	58.191675
923.000000	58.221446
922.000000	58.254836
921.000000	58.287724
920.000000	58.348773
919.000000	58.400670
918.000000	58.435167
917.000000	58.480224
916.000000	58.530009
915.000000	58.597796
914.000000	58.642250
913.000000	58.689118
912.000000	58.732164
911.000000	58.805885
910.000000	58.890770
909.000000	58.928284
908.000000	59.017091
907.000000	59.073212
906.000000	59.187364
905.000000	59.261287
904.000000	59.404304
903.000000	59.473197
902.000000	59.574778
901.000000	59.708542
900.000000	59.790712
899.000000	59.907278
898.000000	60.012378
897.000000	60.128441
896.000000	60.210912
895.000000	60.315309
894.000000	60.405625
893.000000	60.501372
892.000000	60.596013
891.000000	60.686630
890.000000	60.783484
889.000000	60.863843
888.000000	60.938469
887.000000	61.020639
886.000000	61.096774
885.000000	61.167880
884.000000	61.237276
883.000000	61.309891
882.000000	61.377176
881.000000	61.430681
880.000000	61.504000
879.000000	61.590193
878.000000	61.677793
877.000000	61.739647
876.000000	61.815782
875.000000	61.907506
874.000000	61.994000
873.000000	62.078281
872.000000	62.170810
871.000000	62.248755
870.000000	62.352951
869.000000	62.447089
868.000000	62.543439
867.000000	62.666241
866.000000	62.749215
865.000000	62.837620
864.000000	62.933568
863.000000	63.032634
862.000000	63.063108
861.000000	63.095292
860.000000	63.111283
859.000000	63.150005
858.000000	63.248367
857.000000	63.009400
856.000000	63.100900
855.000000	63.634800
854.000000	63.887400
853.000000	64.060100
852.000000	64.117700
851.000000	64.255800
850.000000	64.375400
849.000000	64.777800
848.000000	65.155800
847.000000	64.970000
846.000000	65.233000
845.000000	65.304800
844.000000	65.567000
843.000000	65.675900
842.000000	65.959700
841.000000	66.264300
840.000000	66.289100
839.000000	66.756900
838.000000	66.763700
837.000000	66.994900
836.000000	67.202900
835.000000	67.381300
834.000000	67.568700
833.000000	67.705400
832.000000	67.945600
831.000000	68.108800
830.000000	68.440300
829.000000	68.634400
828.000000	68.801400
827.000000	68.936300
826.000000	69.149600
825.000000	69.389300
824.000000	69.413700
823.000000	69.654600
822.000000	69.804400
821.000000	69.977100
820.000000	70.094400
819.000000	70.162600
818.000000	70.340200
817.000000	70.468100
816.000000	70.466500
815.000000	70.429200
814.000000	70.501200
813.000000	70.512200
812.000000	70.639000
811.000000	70.631600
810.000000	70.574500
809.000000	70.505800
808.000000	70.285500
807.000000	70.314600
806.000000	70.180300
805.000000	70.093000
804.000000	69.963200
803.000000	70.008600
802.000000	69.966500
801.000000	69.726900
800.000000	69.686900
799.000000	69.716400
798.000000	69.532600
797.000000	69.423400
796.000000	69.452000
795.000000	69.367200
794.000000	69.470400
793.000000	69.454900
792.000000	69.477500
791.000000	69.566300
790.000000	69.538000
789.000000	69.582600
788.000000	69.612300
787.000000	69.628400
786.000000	69.637300
785.000000	69.713000
784.000000	69.709800
783.000000	69.711100
782.000000	69.843100
781.000000	69.864400
780.000000	69.815300
779.000000	69.829300
778.000000	69.806900
777.000000	69.642800
776.000000	69.559300
775.000000	69.470100
774.000000	69.331500
773.000000	69.215600
772.000000	69.118900
771.000000	68.949600
770.000000	68.723300
769.000000	68.602100
768.000000	68.434200
767.000000	68.302700
766.000000	68.211600
765.000000	68.088000
764.000000	67.905500
763.000000	67.798800
762.000000	67.729600
761.000000	67.637800
760.000000	67.606600
759.000000	67.504500
758.000000	67.353700
757.000000	67.233900
756.000000	67.180500
755.000000	67.191500
754.000000	67.119400
753.000000	67.040300
752.000000	66.946400
751.000000	66.776800
750.000000	66.571800
749.000000	66.436700
748.000000	66.287100
747.000000	66.118400
746.000000	65.930900
745.000000	65.676700
744.000000	65.408300
743.000000	65.209500
742.000000	64.963000
741.000000	64.696000
740.000000	64.426700
739.000000	64.143600
738.000000	63.804100
737.000000	63.431600
736.000000	63.123300
735.000000	62.738700
734.000000	62.393200
733.000000	62.094900
732.000000	61.691400
731.000000	61.261200
730.000000	60.860600
729.000000	60.536100
728.000000	60.219300
727.000000	59.841600
726.000000	59.482200
725.000000	59.168100
724.000000	58.857300
723.000000	58.570500
722.000000	58.246800
721.000000	57.903700
720.000000	57.624200
719.000000	57.385500
718.000000	57.108900
717.000000	56.885700
716.000000	56.753300
715.000000	56.581900
714.000000	56.414100
713.000000	56.322300
712.000000	56.253700
711.000000	56.262300
710.000000	56.320700
709.000000	56.388800
708.000000	56.456200
707.000000	56.589000
706.000000	56.782800
705.000000	56.937200
704.000000	57.130300
703.000000	57.302200
702.000000	57.523600
701.000000	57.806000
700.000000	57.960300
699.000000	58.093800
698.000000	58.241400
697.000000	58.398300
696.000000	58.540600
695.000000	58.711000
694.000000	58.844900
693.000000	58.941000
692.000000	59.017100
691.000000	59.099200
690.000000	59.153700
689.000000	59.140300
688.000000	59.131700
687.000000	59.131700
686.000000	59.103300
685.000000	58.984200
684.000000	58.840400
683.000000	58.728500
682.000000	58.609400
681.000000	58.412200
680.000000	58.193700
679.000000	57.972400
678.000000	57.749200
677.000000	57.495000
676.000000	57.295700
675.000000	57.064400
674.000000	56.805200
673.000000	56.553400
672.000000	56.315700
671.000000	56.022500
670.000000	55.754600
669.000000	55.507800
668.000000	55.236100
667.000000	54.975400
666.000000	54.664500
665.000000	54.334200
664.000000	53.998800
663.000000	53.582000
662.000000	53.182300
661.000000	52.797300
660.000000	52.327300
659.000000	51.822200
658.000000	51.288900
657.000000	50.791200
656.000000	50.308000
655.000000	49.756200
654.000000	49.188700
653.000000	48.637600
652.000000	48.084300
651.000000	47.539200
650.000000	47.033500
649.000000	46.594200
648.000000	46.144900
647.000000	45.738800
646.000000	45.357900
645.000000	45.079700
644.000000	44.813100
643.000000	44.588200
642.000000	44.412300
641.000000	44.267500
640.000000	44.269300
639.000000	44.326600
638.000000	44.406100
637.000000	44.593100
636.000000	44.876500
635.000000	45.188100
634.000000	45.596800
633.000000	46.104800
632.000000	46.590500
631.000000	47.233300
630.000000	47.858900
629.000000	48.528200
628.000000	49.187000
627.000000	49.846400
626.000000	50.528500
625.000000	51.218900
624.000000	51.959400
623.000000	52.611700
622.000000	53.275300
621.000000	53.963100
620.000000	54.571600
619.000000	55.192700
618.000000	55.802600
617.000000	56.364500
616.000000	56.973500
615.000000	57.571700
614.000000	58.161900
613.000000	58.745500
612.000000	59.364000
611.000000	59.922000
610.000000	60.489300
609.000000	61.015600
608.000000	61.504400
607.000000	61.982400
606.000000	62.456000
605.000000	62.866800
604.000000	63.294100
603.000000	63.636100
602.000000	64.021900
601.000000	64.394500
600.000000	64.739300
599.000000	65.077300
598.000000	65.430400
597.000000	65.747900
596.000000	66.106100
595.000000	66.438400
594.000000	66.786000
593.000000	67.106400
592.000000	67.432100
591.000000	67.791400
590.000000	68.101000
589.000000	68.372800
588.000000	68.662400
587.000000	68.930900
586.000000	69.164100
585.000000	69.384400
584.000000	69.609800
583.000000	69.769300
582.000000	69.968200
581.000000	70.067000
580.000000	70.166900
579.000000	70.287800
578.000000	70.363100
577.000000	70.439500
576.000000	70.493200
575.000000	70.533800
574.000000	70.536800
573.000000	70.569400
572.000000	70.520000
571.000000	70.519500
570.000000	70.486200
569.000000	70.437700
568.000000	70.376400
567.000000	70.322000
566.000000	70.242300
565.000000	70.179200
564.000000	70.103900
563.000000	69.985300
562.000000	69.894400
561.000000	69.783500
560.000000	69.583000
559.000000	69.442400
558.000000	69.348300
557.000000	69.154700
556.000000	68.952700
555.000000	68.783700
554.000000	68.525100
553.000000	68.266000
552.000000	68.034700
551.000000	67.706600
550.000000	67.428100
549.000000	67.106800
548.000000	66.722500
547.000000	66.372400
546.000000	65.991400
545.000000	65.580600
544.000000	65.145300
543.000000	64.716800
542.000000	64.230400
541.000000	63.688100
540.000000	63.201700
539.000000	62.653700
538.000000	62.031600
537.000000	61.428200
536.000000	60.778800
535.000000	60.066200
534.000000	59.293900
533.000000	58.488600
532.000000	57.659500
531.000000	56.746300
530.000000	55.822300
529.000000	54.853100
528.000000	53.811400
527.000000	52.786600
526.000000	51.735900
525.000000	50.650600
524.000000	49.568900
523.000000	48.420300
522.000000	47.310800
521.000000	46.218500
520.000000	45.134600
519.000000	44.047500
518.000000	42.989100
517.000000	41.959800
516.000000	40.917400
515.000000	39.929800
514.000000	38.938000
513.000000	37.974300
512.000000	37.042200
511.000000	36.165700
510.000000	35.339600
509.000000	34.522900
508.000000	33.732800
507.000000	33.034900
506.000000	32.339000
505.000000	31.678200
504.000000	31.045400
503.000000	30.430800
502.000000	29.833700
501.000000	29.281100
500.000000	28.744400
499.000000	28.241900
498.000000	27.746100
497.000000	27.271700
496.000000	26.851100
495.000000	26.450500
494.000000	26.069000
493.000000	25.723300
492.000000	25.393000
491.000000	25.085900
490.000000	24.844700
489.000000	24.668000
488.000000	24.499900
487.000000	24.360800
486.000000	24.269300
485.000000	24.203300
484.000000	24.149400
483.000000	24.113000
482.000000	24.058200
481.000000	24.004700
480.000000	23.943200
479.000000	23.870000
478.000000	23.781600
477.000000	23.675500
476.000000	23.548100
475.000000	23.394700
474.000000	23.210000
473.000000	23.002300
472.000000	22.784600
471.000000	22.529700
470.000000	22.249900
469.000000	21.948000
468.000000	21.618400
467.000000	21.284800
466.000000	20.925000
465.000000	20.545300
464.000000	20.169800
463.000000	19.776600
462.000000	19.388700
461.000000	18.999000
460.000000	18.629400
459.000000	18.303300
458.000000	17.982900
457.000000	17.687700
456.000000	17.434300
455.000000	17.222700
454.000000	17.037800
453.000000	16.892200
452.000000	16.790000
451.000000	16.733700
450.000000	16.721100
449.000000	16.734400
448.000000	16.780000
447.000000	16.853900
446.000000	16.947200
445.000000	17.070400
444.000000	17.218200
443.000000	17.354800
442.000000	17.473900
441.000000	17.608500
440.000000	17.750300
439.000000	17.877300
438.000000	17.993000
437.000000	18.083700
436.000000	18.156600
435.000000	18.230300
434.000000	18.275000
433.000000	18.321800
432.000000	18.345200
431.000000	18.324200
430.000000	18.301800
429.000000	18.283800
428.000000	18.252300
427.000000	18.182600
426.000000	18.097300
425.000000	18.015700
424.000000	17.927900
423.000000	17.830600
422.000000	17.702200
421.000000	17.554500
420.000000	17.404400
419.000000	17.241600
418.000000	17.069000
417.000000	16.906500
416.000000	16.735600
415.000000	16.534100
414.000000	16.329400
413.000000	16.112700
412.000000	15.865400
411.000000	15.630200
410.000000	15.388600
409.000000	15.126500
408.000000	14.848700
407.000000	14.580300
406.000000	14.312100
405.000000	14.036500
404.000000	13.755400
403.000000	13.439800
402.000000	13.118000
401.000000	12.791900
400.000000	12.481300
399.000000	12.182400
398.000000	11.856000
397.000000	11.520300
396.000000	11.201100
395.000000	10.887900
394.000000	10.559200
393.000000	10.263100
392.000000	9.947800
391.000000	9.651900
390.000000	9.366400
389.000000	9.096400
388.000000	8.836300
387.000000	8.583000
386.000000	8.335800
385.000000	8.093700
384.000000	7.869700
383.000000	7.663400
382.000000	7.469000
381.000000	7.297000
380.000000	7.115500
379.000000	6.957700
378.000000	6.822900
377.000000	6.685300
376.000000	6.541500
375.000000	6.365300
374.000000	6.213000
373.000000	6.129500
372.000000	6.030800
371.000000	6.022600
370.000000	5.993900
369.000000	5.943800
368.000000	5.917200
367.000000	5.845500
366.000000	5.847400
365.000000	5.808500
364.000000	5.687500
363.000000	5.695000
362.000000	5.699800
361.000000	5.623400
360.000000	5.598600
359.000000	5.577100
358.000000	5.561100
357.000000	5.528200
356.000000	5.523300
355.000000	5.438700
354.000000	5.475700
353.000000	5.411000
352.000000	5.347600
351.000000	5.263800
350.000000	5.317400
349.000000	5.173500
348.000000	5.244900
347.000000	5.300100
346.000000	5.202000
345.000000	5.215000
344.000000	5.224300
343.000000	5.387900
342.000000	5.299200
341.000000	5.300600
340.000000	5.210800
339.000000	5.208900
338.000000	5.263200
337.000000	5.259600
336.000000	5.209900
335.000000	5.281200
334.000000	5.180600
333.000000	5.259800
332.000000	5.311600
331.000000	5.101100
330.000000	5.191400
329.000000	5.299400
328.000000	5.248400
327.000000	5.242800
326.000000	5.261800
325.000000	5.370900
324.000000	5.361000
323.000000	5.351800
322.000000	5.244100
321.000000	5.266900
320.000000	5.205600
319.000000	5.162800
318.000000	5.478500
317.000000	5.820500
316.000000	5.176400
315.000000	5.153500
314.000000	5.117100
313.000000	5.125600
312.000000	5.120200
311.000000	5.147100
310.000000	5.136800
309.000000	5.126500
308.000000	5.145600
307.000000	5.205400
306.000000	5.121500
305.000000	5.184400
304.000000	5.135700
303.000000	5.195500
302.000000	5.124600
301.000000	5.193100
300.000000	5.166400
299.000000	5.198400
298.000000	5.233900
297.000000	5.187500
296.000000	5.167000
295.000000	5.219000
294.000000	5.224200
293.000000	5.204500
292.000000	5.237800
291.000000	5.164400
290.000000	5.213000
289.000000	5.177000
288.000000	5.237100
287.000000	5.230800
286.000000	5.186700
285.000000	5.230300
284.000000	5.267300
283.000000	5.270200
282.000000	5.271900
281.000000	5.213200
280.000000	5.259400
279.000000	5.270100
278.000000	5.336200
277.000000	5.264300
276.000000	5.300500
275.000000	5.330000
274.000000	5.276000
273.000000	5.284800
272.000000	5.346400
271.000000	5.338900
270.000000	5.337300
269.000000	5.396700
268.000000	5.363000
267.000000	5.412500
266.000000	5.423700
265.000000	5.461000
264.000000	5.486800
263.000000	5.466600
262.000000	5.539300
261.000000	5.459800
260.000000	5.548100
259.000000	5.533300
258.000000	5.543900
257.000000	5.556000
256.000000	5.541200
255.000000	5.620800
254.000000	5.577500
253.000000	5.591600
252.000000	5.577700
251.000000	5.613600
250.000000	5.617300
