PE UV       SUBTECH     SPECTRUM    ASCII       PEDS        4.00        
   -1
CICIMAUCR0141-1.Sample.ASC
24/04/04
12:21:23.00
24/04/04
12:21:23.00
Vinicio Soto Monge
C. kalinini
250,000000
1
Lambda 1050
1050L1511233
PerkinElmer UV WinLab 6.3.2.0749 / 2.02.05 Lambda 900 UV/VIS/NIR, Aug  7 2015 09:38:08

0
0
3350/servo 860,8/2
0
0
UV/VIS
1
1
1
DoubleDePol,CommonBeamDepol,RBeamAtt,SBeamAtt,60mm sphere, WB InGaAs Detector
0
0
0
0
Program
Program
3350/servo 860,8/2
3350/0,2 860,8/0,2
3350/0,2 860,8/0,2
0
15.00
 
 
 
0
 
860,8
319,2
860,8
Front
100
on
S:100 R:100
0
0
0
0
 
0
 
 
 
0
 
 
0
0
0
0
0
 
 
 
 
0
0


0
0
#HDR
-1
-1
#GR
nm
%R
1.0
0.0
2500,000000
-1,000000
2251
8
80,492200
5,685100
#DATA
2500.000000	6.875715
2499.000000	6.907215
2498.000000	6.878409
2497.000000	6.869705
2496.000000	6.860690
2495.000000	6.738625
2494.000000	6.784943
2493.000000	6.728263
2492.000000	6.810330
2491.000000	6.823801
2490.000000	6.811884
2489.000000	6.819760
2488.000000	6.865871
2487.000000	6.794684
2486.000000	6.759349
2485.000000	6.836132
2484.000000	6.906075
2483.000000	6.909080
2482.000000	6.871570
2481.000000	6.844628
2480.000000	6.855301
2479.000000	6.935711
2478.000000	6.964310
2477.000000	6.931773
2476.000000	6.983790
2475.000000	6.972288
2474.000000	7.012597
2473.000000	6.987003
2472.000000	7.097047
2471.000000	7.037673
2470.000000	7.034357
2469.000000	7.118393
2468.000000	7.145749
2467.000000	7.163571
2466.000000	7.194243
2465.000000	7.217039
2464.000000	7.232168
2463.000000	7.286879
2462.000000	7.352367
2461.000000	7.402934
2460.000000	7.423036
2459.000000	7.457231
2458.000000	7.504067
2457.000000	7.570695
2456.000000	7.574425
2455.000000	7.659912
2454.000000	7.711307
2453.000000	7.764568
2452.000000	7.819176
2451.000000	7.878550
2450.000000	7.958234
2449.000000	8.018437
2448.000000	8.092837
2447.000000	8.158325
2446.000000	8.224849
2445.000000	8.276555
2444.000000	8.335930
2443.000000	8.410640
2442.000000	8.482863
2441.000000	8.539232
2440.000000	8.626584
2439.000000	8.692486
2438.000000	8.765331
2437.000000	8.841389
2436.000000	8.927082
2435.000000	8.994125
2434.000000	9.078161
2433.000000	9.143130
2432.000000	9.189967
2431.000000	9.267682
2430.000000	9.326745
2429.000000	9.398140
2428.000000	9.481450
2427.000000	9.548285
2426.000000	9.602271
2425.000000	9.674287
2424.000000	9.735941
2423.000000	9.793554
2422.000000	9.863187
2421.000000	9.926291
2420.000000	9.984215
2419.000000	10.047527
2418.000000	10.090529
2417.000000	10.148349
2416.000000	10.203993
2415.000000	10.261606
2414.000000	10.299635
2413.000000	10.346264
2412.000000	10.396831
2411.000000	10.434237
2410.000000	10.446775
2409.000000	10.492368
2408.000000	10.549463
2407.000000	10.576715
2406.000000	10.614847
2405.000000	10.639405
2404.000000	10.677641
2403.000000	10.704272
2402.000000	10.719296
2401.000000	10.752973
2400.000000	10.784681
2399.000000	10.803021
2398.000000	10.830999
2397.000000	10.852137
2396.000000	10.873587
2395.000000	10.890062
2394.000000	10.914517
2393.000000	10.934308
2392.000000	10.944670
2391.000000	10.958452
2390.000000	10.973787
2389.000000	10.985600
2388.000000	10.995755
2387.000000	11.011091
2386.000000	11.009951
2385.000000	11.007568
2384.000000	11.013267
2383.000000	11.012541
2382.000000	11.008604
2381.000000	11.011712
2380.000000	11.013474
2379.000000	11.010573
2378.000000	10.998967
2377.000000	10.990781
2376.000000	10.988398
2375.000000	10.974409
2374.000000	10.959592
2373.000000	10.947157
2372.000000	10.945085
2371.000000	10.946535
2370.000000	10.947364
2369.000000	10.937520
2368.000000	10.924361
2367.000000	10.921770
2366.000000	10.918869
2365.000000	10.911097
2364.000000	10.913170
2363.000000	10.913481
2362.000000	10.909854
2361.000000	10.903429
2360.000000	10.905916
2359.000000	10.901150
2358.000000	10.882913
2357.000000	10.870685
2356.000000	10.866852
2355.000000	10.860738
2354.000000	10.849236
2353.000000	10.827372
2352.000000	10.802711
2351.000000	10.792349
2350.000000	10.773490
2349.000000	10.757843
2348.000000	10.746030
2347.000000	10.728104
2346.000000	10.722509
2345.000000	10.725306
2344.000000	10.711732
2343.000000	10.689557
2342.000000	10.676501
2341.000000	10.679610
2340.000000	10.666657
2339.000000	10.657539
2338.000000	10.641996
2337.000000	10.627178
2336.000000	10.636608
2335.000000	10.620132
2334.000000	10.630598
2333.000000	10.637540
2332.000000	10.633603
2331.000000	10.635260
2330.000000	10.639716
2329.000000	10.653083
2328.000000	10.651840
2327.000000	10.645623
2326.000000	10.663860
2325.000000	10.668626
2324.000000	10.682200
2323.000000	10.684273
2322.000000	10.679506
2321.000000	10.670077
2320.000000	10.657539
2319.000000	10.658264
2318.000000	10.633499
2317.000000	10.611946
2316.000000	10.571845
2315.000000	10.558167
2314.000000	10.526252
2313.000000	10.491228
2312.000000	10.466774
2311.000000	10.442423
2310.000000	10.401597
2309.000000	10.351652
2308.000000	10.315489
2307.000000	10.287511
2306.000000	10.240053
2305.000000	10.204719
2304.000000	10.154463
2303.000000	10.120786
2302.000000	10.105347
2301.000000	10.081100
2300.000000	10.055091
2299.000000	10.031673
2298.000000	10.004525
2297.000000	9.986184
2296.000000	9.955201
2295.000000	9.951057
2294.000000	9.924841
2293.000000	9.910748
2292.000000	9.908572
2291.000000	9.899661
2290.000000	9.874792
2289.000000	9.857591
2288.000000	9.872720
2287.000000	9.852721
2286.000000	9.845571
2285.000000	9.839665
2284.000000	9.809615
2283.000000	9.816661
2282.000000	9.807232
2281.000000	9.788995
2280.000000	9.757702
2279.000000	9.744542
2278.000000	9.736977
2277.000000	9.727341
2276.000000	9.704648
2275.000000	9.679986
2274.000000	9.641854
2273.000000	9.619058
2272.000000	9.592324
2271.000000	9.571082
2270.000000	9.557611
2269.000000	9.542586
2268.000000	9.508288
2267.000000	9.494506
2266.000000	9.467047
2265.000000	9.461037
2264.000000	9.472435
2263.000000	9.477409
2262.000000	9.482176
2261.000000	9.515127
2260.000000	9.506630
2259.000000	9.540825
2258.000000	9.581444
2257.000000	9.603411
2256.000000	9.635430
2255.000000	9.694908
2254.000000	9.736252
2253.000000	9.801326
2252.000000	9.833344
2251.000000	9.902044
2250.000000	9.940280
2249.000000	10.010638
2248.000000	10.043900
2247.000000	10.098197
2246.000000	10.125035
2245.000000	10.174565
2244.000000	10.237048
2243.000000	10.247410
2242.000000	10.294557
2241.000000	10.321602
2240.000000	10.336938
2239.000000	10.359320
2238.000000	10.369786
2237.000000	10.375899
2236.000000	10.378593
2235.000000	10.349476
2234.000000	10.340772
2233.000000	10.349580
2232.000000	10.285232
2231.000000	10.265026
2230.000000	10.213319
2229.000000	10.161924
2228.000000	10.127625
2227.000000	10.056956
2226.000000	9.963906
2225.000000	9.900386
2224.000000	9.840390
2223.000000	9.747029
2222.000000	9.623928
2221.000000	9.567351
2220.000000	9.483937
2219.000000	9.394202
2218.000000	9.303742
2217.000000	9.230379
2216.000000	9.144063
2215.000000	9.066244
2214.000000	8.984902
2213.000000	8.961899
2212.000000	8.906669
2211.000000	8.870506
2210.000000	8.859004
2209.000000	8.858693
2208.000000	8.855170
2207.000000	8.918275
2206.000000	8.955267
2205.000000	9.019304
2204.000000	9.113806
2203.000000	9.171730
2202.000000	9.293587
2201.000000	9.408709
2200.000000	9.519168
2199.000000	9.658123
2198.000000	9.783296
2197.000000	9.893548
2196.000000	10.016959
2195.000000	10.162545
2194.000000	10.292485
2193.000000	10.376521
2192.000000	10.470297
2191.000000	10.600755
2190.000000	10.702821
2189.000000	10.778256
2188.000000	10.842190
2187.000000	10.925501
2186.000000	10.991403
2185.000000	11.041555
2184.000000	11.076371
2183.000000	11.119477
2182.000000	11.164863
2181.000000	11.196156
2180.000000	11.233252
2179.000000	11.246930
2178.000000	11.276047
2177.000000	11.292109
2176.000000	11.315423
2175.000000	11.347856
2174.000000	11.384849
2173.000000	11.405055
2172.000000	11.438627
2171.000000	11.478314
2170.000000	11.506809
2169.000000	11.539450
2168.000000	11.555718
2167.000000	11.597166
2166.000000	11.655297
2165.000000	11.682446
2164.000000	11.737675
2163.000000	11.791765
2162.000000	11.856631
2161.000000	11.902846
2160.000000	11.949475
2159.000000	12.014963
2158.000000	12.082109
2157.000000	12.146249
2156.000000	12.216193
2155.000000	12.291836
2154.000000	12.371001
2153.000000	12.464156
2152.000000	12.551093
2151.000000	12.623420
2150.000000	12.713362
2149.000000	12.786518
2148.000000	12.885475
2147.000000	12.976143
2146.000000	13.067225
2145.000000	13.133646
2144.000000	13.224624
2143.000000	13.331249
2142.000000	13.408964
2141.000000	13.477975
2140.000000	13.555380
2139.000000	13.634545
2138.000000	13.722726
2137.000000	13.802617
2136.000000	13.872975
2135.000000	13.957322
2134.000000	14.020220
2133.000000	14.078247
2132.000000	14.146947
2131.000000	14.206632
2130.000000	14.271602
2129.000000	14.327557
2128.000000	14.370352
2127.000000	14.423302
2126.000000	14.469517
2125.000000	14.517389
2124.000000	14.556454
2123.000000	14.598316
2122.000000	14.643495
2121.000000	14.671369
2120.000000	14.697274
2119.000000	14.727220
2118.000000	14.757270
2117.000000	14.775610
2116.000000	14.795506
2115.000000	14.825348
2114.000000	14.841824
2113.000000	14.858610
2112.000000	14.870112
2111.000000	14.882546
2110.000000	14.887831
2109.000000	14.893427
2108.000000	14.902856
2107.000000	14.907623
2106.000000	14.913114
2105.000000	14.907830
2104.000000	14.909591
2103.000000	14.921508
2102.000000	14.933528
2101.000000	14.922958
2100.000000	14.923476
2099.000000	14.935704
2098.000000	14.943682
2097.000000	14.950210
2096.000000	14.943786
2095.000000	14.939330
2094.000000	14.949692
2093.000000	14.958396
2092.000000	14.969484
2091.000000	14.982436
2090.000000	14.992280
2089.000000	14.994560
2088.000000	14.992384
2087.000000	14.996839
2086.000000	14.993213
2085.000000	14.985959
2084.000000	14.985338
2083.000000	14.963474
2082.000000	14.937051
2081.000000	14.927725
2080.000000	14.904410
2079.000000	14.870527
2078.000000	14.819545
2077.000000	14.772087
2076.000000	14.721935
2075.000000	14.668571
2074.000000	14.601114
2073.000000	14.528476
2072.000000	14.470242
2071.000000	14.406412
2070.000000	14.316470
2069.000000	14.235128
2068.000000	14.141973
2067.000000	14.070890
2066.000000	13.996076
2065.000000	13.896083
2064.000000	13.805208
2063.000000	13.726353
2062.000000	13.648327
2061.000000	13.562322
2060.000000	13.501083
2059.000000	13.424611
2058.000000	13.366687
2057.000000	13.329488
2056.000000	13.294879
2055.000000	13.261098
2054.000000	13.235090
2053.000000	13.220169
2052.000000	13.243379
2051.000000	13.272497
2050.000000	13.300785
2049.000000	13.354978
2048.000000	13.421295
2047.000000	13.492068
2046.000000	13.577140
2045.000000	13.652990
2044.000000	13.758164
2043.000000	13.858987
2042.000000	13.957840
2041.000000	14.046436
2040.000000	14.156066
2039.000000	14.251189
2038.000000	14.340302
2037.000000	14.441332
2036.000000	14.539564
2035.000000	14.630231
2034.000000	14.691678
2033.000000	14.767943
2032.000000	14.865035
2031.000000	14.922233
2030.000000	15.000881
2029.000000	15.033728
2028.000000	15.114656
2027.000000	15.194547
2026.000000	15.250916
2025.000000	15.291017
2024.000000	15.334434
2023.000000	15.393394
2022.000000	15.448105
2021.000000	15.498568
2020.000000	15.503438
2019.000000	15.561051
2018.000000	15.594417
2017.000000	15.629648
2016.000000	15.682390
2015.000000	15.713891
2014.000000	15.723735
2013.000000	15.727983
2012.000000	15.768706
2011.000000	15.771296
2010.000000	15.783213
2009.000000	15.775027
2008.000000	15.780311
2007.000000	15.774509
2006.000000	15.768188
2005.000000	15.765494
2004.000000	15.755028
2003.000000	15.761763
2002.000000	15.723838
2001.000000	15.700213
2000.000000	15.677002
1999.000000	15.652341
1998.000000	15.621669
1997.000000	15.564885
1996.000000	15.533074
1995.000000	15.487481
1994.000000	15.457535
1993.000000	15.404688
1992.000000	15.368939
1991.000000	15.323139
1990.000000	15.261278
1989.000000	15.215582
1988.000000	15.181698
1987.000000	15.110304
1986.000000	15.061188
1985.000000	15.000673
1984.000000	14.948760
1983.000000	14.889696
1982.000000	14.839648
1981.000000	14.779755
1980.000000	14.722557
1979.000000	14.663597
1978.000000	14.618730
1977.000000	14.537284
1976.000000	14.463921
1975.000000	14.457600
1974.000000	14.371181
1973.000000	14.332531
1972.000000	14.296575
1971.000000	14.243210
1970.000000	14.177204
1969.000000	14.139072
1968.000000	14.079387
1967.000000	14.021774
1966.000000	13.957944
1965.000000	13.913284
1964.000000	13.836916
1963.000000	13.798680
1962.000000	13.736508
1961.000000	13.669776
1960.000000	13.612993
1959.000000	13.547815
1958.000000	13.477250
1957.000000	13.422331
1956.000000	13.383888
1955.000000	13.300992
1954.000000	13.249908
1953.000000	13.199445
1952.000000	13.132299
1951.000000	13.089918
1950.000000	13.039869
1949.000000	12.965677
1948.000000	12.933659
1947.000000	12.878015
1946.000000	12.837499
1945.000000	12.790559
1944.000000	12.741340
1943.000000	12.690048
1942.000000	12.663936
1941.000000	12.654506
1940.000000	12.619379
1939.000000	12.606737
1938.000000	12.587049
1937.000000	12.551093
1936.000000	12.557518
1935.000000	12.544254
1934.000000	12.562284
1933.000000	12.565600
1932.000000	12.584252
1931.000000	12.604354
1930.000000	12.644662
1929.000000	12.684556
1928.000000	12.731807
1927.000000	12.779368
1926.000000	12.849312
1925.000000	12.917494
1924.000000	12.984951
1923.000000	13.068054
1922.000000	13.163488
1921.000000	13.293117
1920.000000	13.425129
1919.000000	13.527091
1918.000000	13.648638
1917.000000	13.778163
1916.000000	13.927065
1915.000000	14.084775
1914.000000	14.265074
1913.000000	14.500188
1912.000000	14.714060
1911.000000	14.921093
1910.000000	15.150301
1909.000000	15.360443
1908.000000	15.586024
1907.000000	15.880719
1906.000000	16.215723
1905.000000	16.570000
1904.000000	16.933604
1903.000000	17.263841
1902.000000	17.628998
1901.000000	18.000995
1900.000000	18.415164
1899.000000	18.879901
1898.000000	19.327540
1897.000000	19.778184
1896.000000	20.181888
1895.000000	20.581551
1894.000000	21.034371
1893.000000	21.507707
1892.000000	21.997520
1891.000000	22.517589
1890.000000	22.995589
1889.000000	23.440327
1888.000000	23.907032
1887.000000	24.323274
1886.000000	24.751225
1885.000000	25.172545
1884.000000	25.586300
1883.000000	25.975394
1882.000000	26.343349
1881.000000	26.688507
1880.000000	27.011699
1879.000000	27.324735
1878.000000	27.644818
1877.000000	27.930291
1876.000000	28.209237
1875.000000	28.497611
1874.000000	28.747750
1873.000000	28.995299
1872.000000	29.220880
1871.000000	29.404184
1870.000000	29.569976
1869.000000	29.723438
1868.000000	29.866537
1867.000000	29.961971
1866.000000	30.044556
1865.000000	30.138747
1864.000000	30.229104
1863.000000	30.327543
1862.000000	30.451266
1861.000000	30.566077
1860.000000	30.665345
1859.000000	30.737568
1858.000000	30.811242
1857.000000	30.865435
1856.000000	30.929576
1855.000000	30.982940
1854.000000	31.017446
1853.000000	31.034958
1852.000000	31.064179
1851.000000	31.120755
1850.000000	31.185932
1849.000000	31.245410
1848.000000	31.248933
1847.000000	31.233390
1846.000000	31.210387
1845.000000	31.195155
1844.000000	31.189455
1843.000000	31.214739
1842.000000	31.248830
1841.000000	31.252767
1840.000000	31.236188
1839.000000	31.212874
1838.000000	31.193082
1837.000000	31.167695
1836.000000	31.128527
1835.000000	31.080136
1834.000000	31.041797
1833.000000	31.009364
1832.000000	30.976827
1831.000000	30.980972
1830.000000	30.979625
1829.000000	30.965740
1828.000000	30.923359
1827.000000	30.890615
1826.000000	30.885745
1825.000000	30.874347
1824.000000	30.869891
1823.000000	30.888646
1822.000000	30.942321
1821.000000	30.964082
1820.000000	30.954859
1819.000000	30.917971
1818.000000	30.904500
1817.000000	30.918178
1816.000000	30.925431
1815.000000	30.909992
1814.000000	30.887403
1813.000000	30.891444
1812.000000	30.899526
1811.000000	30.860254
1810.000000	30.816941
1809.000000	30.801709
1808.000000	30.803885
1807.000000	30.794352
1806.000000	30.768032
1805.000000	30.718502
1804.000000	30.703581
1803.000000	30.704099
1802.000000	30.704617
1801.000000	30.680266
1800.000000	30.630528
1799.000000	30.596541
1798.000000	30.582138
1797.000000	30.566077
1796.000000	30.545560
1795.000000	30.517790
1794.000000	30.493543
1793.000000	30.462353
1792.000000	30.442769
1791.000000	30.428780
1790.000000	30.408263
1789.000000	30.394274
1788.000000	30.388886
1787.000000	30.387746
1786.000000	30.377902
1785.000000	30.368991
1784.000000	30.346609
1783.000000	30.324020
1782.000000	30.299980
1781.000000	30.274800
1780.000000	30.245890
1779.000000	30.218949
1778.000000	30.161026
1777.000000	30.111288
1776.000000	30.071290
1775.000000	30.020102
1774.000000	29.956272
1773.000000	29.907882
1772.000000	29.857315
1771.000000	29.797941
1770.000000	29.734214
1769.000000	29.669244
1768.000000	29.608834
1767.000000	29.549667
1766.000000	29.495059
1765.000000	29.432680
1764.000000	29.397552
1763.000000	29.364912
1762.000000	29.327816
1761.000000	29.289787
1760.000000	29.273519
1759.000000	29.270928
1758.000000	29.232589
1757.000000	29.209482
1756.000000	29.198394
1755.000000	29.179432
1754.000000	29.156221
1753.000000	29.142543
1752.000000	29.130834
1751.000000	29.081200
1750.000000	29.053119
1749.000000	29.010946
1748.000000	28.976336
1747.000000	28.920278
1746.000000	28.872405
1745.000000	28.793551
1744.000000	28.730964
1743.000000	28.674076
1742.000000	28.588279
1741.000000	28.522584
1740.000000	28.447148
1739.000000	28.364667
1738.000000	28.327882
1737.000000	28.270683
1736.000000	28.214107
1735.000000	28.162297
1734.000000	28.121574
1733.000000	28.084271
1732.000000	28.050180
1731.000000	27.988629
1730.000000	27.944902
1729.000000	27.937441
1728.000000	27.901485
1727.000000	27.871124
1726.000000	27.855995
1725.000000	27.857135
1724.000000	27.877238
1723.000000	27.899620
1722.000000	28.000131
1721.000000	28.099088
1720.000000	28.245296
1719.000000	28.447563
1718.000000	28.646928
1717.000000	28.844324
1716.000000	29.041306
1715.000000	29.247199
1714.000000	29.445736
1713.000000	29.613911
1712.000000	29.787682
1711.000000	29.943734
1710.000000	30.056576
1709.000000	30.182268
1708.000000	30.307855
1707.000000	30.386192
1706.000000	30.477171
1705.000000	30.528255
1704.000000	30.586283
1703.000000	30.637575
1702.000000	30.668453
1701.000000	30.701301
1700.000000	30.724615
1699.000000	30.750728
1698.000000	30.771866
1697.000000	30.785544
1696.000000	30.785026
1695.000000	30.764924
1694.000000	30.736843
1693.000000	30.684100
1692.000000	30.646175
1691.000000	30.592189
1690.000000	30.574366
1689.000000	30.555404
1688.000000	30.565869
1687.000000	30.628145
1686.000000	30.748552
1685.000000	30.907194
1684.000000	31.081380
1683.000000	31.282921
1682.000000	31.503943
1681.000000	31.713670
1680.000000	31.916143
1679.000000	32.122244
1678.000000	32.284409
1677.000000	32.469475
1676.000000	32.659411
1675.000000	32.798573
1674.000000	32.947268
1673.000000	33.113163
1672.000000	33.263931
1671.000000	33.424542
1670.000000	33.576449
1669.000000	33.746904
1668.000000	33.888760
1667.000000	34.031238
1666.000000	34.150194
1665.000000	34.280962
1664.000000	34.391629
1663.000000	34.532034
1662.000000	34.626432
1661.000000	34.740518
1660.000000	34.835434
1659.000000	34.923304
1658.000000	34.989931
1657.000000	35.050653
1656.000000	35.111167
1655.000000	35.156760
1654.000000	35.185152
1653.000000	35.174686
1652.000000	35.201316
1651.000000	35.203182
1650.000000	35.208881
1649.000000	35.200177
1648.000000	35.194996
1647.000000	35.177691
1646.000000	35.161630
1645.000000	35.134274
1644.000000	35.103188
1643.000000	35.091168
1642.000000	35.069201
1641.000000	35.061740
1640.000000	35.041949
1639.000000	35.019670
1638.000000	35.006200
1637.000000	34.981227
1636.000000	34.948172
1635.000000	34.931697
1634.000000	34.898746
1633.000000	34.873670
1632.000000	34.824450
1631.000000	34.791913
1630.000000	34.759998
1629.000000	34.727358
1628.000000	34.702904
1627.000000	34.657518
1626.000000	34.616070
1625.000000	34.567990
1624.000000	34.539702
1623.000000	34.511621
1622.000000	34.480431
1621.000000	34.477737
1620.000000	34.439605
1619.000000	34.420642
1618.000000	34.394737
1617.000000	34.379920
1616.000000	34.358159
1615.000000	34.323343
1614.000000	34.315468
1613.000000	34.295780
1612.000000	34.256819
1611.000000	34.218479
1610.000000	34.175995
1609.000000	34.130713
1608.000000	34.088333
1607.000000	34.051651
1606.000000	34.003675
1605.000000	33.949378
1604.000000	33.884512
1603.000000	33.833323
1602.000000	33.785140
1601.000000	33.736749
1600.000000	33.683489
1599.000000	33.644009
1598.000000	33.590645
1597.000000	33.543083
1596.000000	33.505055
1595.000000	33.459669
1594.000000	33.412418
1593.000000	33.376048
1592.000000	33.346723
1591.000000	33.311181
1590.000000	33.284447
1589.000000	33.253051
1588.000000	33.215436
1587.000000	33.175957
1586.000000	33.144975
1585.000000	33.126945
1584.000000	33.093165
1583.000000	33.068399
1582.000000	33.045499
1581.000000	33.018040
1580.000000	32.999803
1579.000000	32.972033
1578.000000	32.952863
1577.000000	32.939392
1576.000000	32.920844
1575.000000	32.913487
1574.000000	32.910068
1573.000000	32.922502
1572.000000	32.922191
1571.000000	32.911622
1570.000000	32.916389
1569.000000	32.932864
1568.000000	32.957319
1567.000000	32.961256
1566.000000	32.980737
1565.000000	32.990788
1564.000000	32.990270
1563.000000	32.998974
1562.000000	32.999285
1561.000000	32.980426
1560.000000	32.955246
1559.000000	32.931414
1558.000000	32.896390
1557.000000	32.847481
1556.000000	32.803857
1555.000000	32.737644
1554.000000	32.666250
1553.000000	32.608326
1552.000000	32.533305
1551.000000	32.448440
1550.000000	32.364611
1549.000000	32.278814
1548.000000	32.176541
1547.000000	32.085770
1546.000000	32.002874
1545.000000	31.915936
1544.000000	31.856562
1543.000000	31.798845
1542.000000	31.724446
1541.000000	31.665072
1540.000000	31.623831
1539.000000	31.572332
1538.000000	31.532956
1537.000000	31.491923
1536.000000	31.441770
1535.000000	31.373381
1534.000000	31.318981
1533.000000	31.265513
1532.000000	31.203962
1531.000000	31.143863
1530.000000	31.090913
1529.000000	31.029880
1528.000000	30.969159
1527.000000	30.915069
1526.000000	30.863674
1525.000000	30.815387
1524.000000	30.758188
1523.000000	30.705238
1522.000000	30.646486
1521.000000	30.590842
1520.000000	30.534369
1519.000000	30.494268
1518.000000	30.445152
1517.000000	30.383083
1516.000000	30.331481
1515.000000	30.287235
1514.000000	30.240813
1513.000000	30.197707
1512.000000	30.161958
1511.000000	30.099372
1510.000000	30.052846
1509.000000	30.002590
1508.000000	29.962800
1507.000000	29.933787
1506.000000	29.903529
1505.000000	29.875863
1504.000000	29.838042
1503.000000	29.798977
1502.000000	29.784366
1501.000000	29.774315
1500.000000	29.753591
1499.000000	29.743540
1498.000000	29.747478
1497.000000	29.758772
1496.000000	29.755456
1495.000000	29.769238
1494.000000	29.784470
1493.000000	29.812447
1492.000000	29.838352
1491.000000	29.878039
1490.000000	29.912337
1489.000000	29.956687
1488.000000	30.002279
1487.000000	30.039583
1486.000000	30.077715
1485.000000	30.116987
1484.000000	30.148280
1483.000000	30.197396
1482.000000	30.221540
1481.000000	30.266614
1480.000000	30.316974
1479.000000	30.341325
1478.000000	30.375830
1477.000000	30.414584
1476.000000	30.447639
1475.000000	30.511883
1474.000000	30.565144
1473.000000	30.633223
1472.000000	30.703373
1471.000000	30.745754
1470.000000	30.788342
1469.000000	30.850825
1468.000000	30.934861
1467.000000	30.981283
1466.000000	31.050915
1465.000000	31.114331
1464.000000	31.181891
1463.000000	31.247275
1462.000000	31.326545
1461.000000	31.396281
1460.000000	31.463945
1459.000000	31.528811
1458.000000	31.589015
1457.000000	31.668906
1456.000000	31.730767
1455.000000	31.834284
1454.000000	31.889099
1453.000000	31.950027
1452.000000	32.035203
1451.000000	32.128254
1450.000000	32.158925
1449.000000	32.208870
1448.000000	32.271146
1447.000000	32.367306
1446.000000	32.472273
1445.000000	32.518073
1444.000000	32.569158
1443.000000	32.622833
1442.000000	32.745519
1441.000000	32.809867
1440.000000	32.906234
1439.000000	32.994829
1438.000000	33.084046
1437.000000	33.187148
1436.000000	33.284862
1435.000000	33.379260
1434.000000	33.527955
1433.000000	33.640279
1432.000000	33.782446
1431.000000	33.885548
1430.000000	34.012172
1429.000000	34.186564
1428.000000	34.348419
1427.000000	34.495560
1426.000000	34.691920
1425.000000	34.893357
1424.000000	35.100805
1423.000000	35.288461
1422.000000	35.459123
1421.000000	35.697346
1420.000000	35.995668
1419.000000	36.259589
1418.000000	36.479264
1417.000000	36.691478
1416.000000	36.959232
1415.000000	37.294029
1414.000000	37.617427
1413.000000	37.864665
1412.000000	38.144957
1411.000000	38.453849
1410.000000	38.817038
1409.000000	39.193593
1408.000000	39.508909
1407.000000	39.843913
1406.000000	40.154463
1405.000000	40.491850
1404.000000	40.740642
1403.000000	41.060414
1402.000000	41.394589
1401.000000	41.819328
1400.000000	42.002114
1399.000000	42.140861
1398.000000	42.286136
1397.000000	42.544047
1396.000000	42.789938
1395.000000	42.939669
1394.000000	43.021218
1393.000000	43.133127
1392.000000	43.268559
1391.000000	43.369796
1390.000000	43.492378
1389.000000	43.638483
1388.000000	43.851837
1387.000000	43.890694
1386.000000	44.049958
1385.000000	44.251085
1384.000000	44.494489
1383.000000	44.711780
1382.000000	44.965442
1381.000000	45.252367
1380.000000	45.533903
1379.000000	45.968175
1378.000000	46.418611
1377.000000	46.931635
1376.000000	47.473775
1375.000000	48.013740
1374.000000	48.507801
1373.000000	49.051599
1372.000000	49.538717
1371.000000	49.935375
1370.000000	50.248619
1369.000000	50.532227
1368.000000	50.807546
1367.000000	50.958831
1366.000000	51.135711
1365.000000	51.328859
1364.000000	51.478590
1363.000000	51.579412
1362.000000	51.715673
1361.000000	51.793181
1360.000000	51.825303
1359.000000	51.896076
1358.000000	51.975138
1357.000000	52.086737
1356.000000	52.212221
1355.000000	52.360294
1354.000000	52.494378
1353.000000	52.626079
1352.000000	52.825963
1351.000000	53.024188
1350.000000	53.239718
1349.000000	53.473174
1348.000000	53.714816
1347.000000	53.909104
1346.000000	54.077694
1345.000000	54.309285
1344.000000	54.523261
1343.000000	54.703663
1342.000000	54.890801
1341.000000	55.075660
1340.000000	55.234406
1339.000000	55.411078
1338.000000	55.578735
1337.000000	55.733129
1336.000000	55.880581
1335.000000	56.025442
1334.000000	56.147299
1333.000000	56.270814
1332.000000	56.402723
1331.000000	56.517223
1330.000000	56.602606
1329.000000	56.719904
1328.000000	56.818654
1327.000000	56.901861
1326.000000	56.990456
1325.000000	57.066203
1324.000000	57.136664
1323.000000	57.198318
1322.000000	57.274686
1321.000000	57.341625
1320.000000	57.379757
1319.000000	57.432914
1318.000000	57.487418
1317.000000	57.533840
1316.000000	57.593733
1315.000000	57.643678
1314.000000	57.680877
1313.000000	57.712067
1312.000000	57.738594
1311.000000	57.764706
1310.000000	57.813822
1309.000000	57.850503
1308.000000	57.870917
1307.000000	57.892884
1306.000000	57.907494
1305.000000	57.926561
1304.000000	57.932156
1303.000000	57.931845
1302.000000	57.927390
1301.000000	57.913919
1300.000000	57.912365
1299.000000	57.900656
1298.000000	57.885631
1297.000000	57.883973
1296.000000	57.866875
1295.000000	57.849985
1294.000000	57.824495
1293.000000	57.788124
1292.000000	57.767607
1291.000000	57.751546
1290.000000	57.716730
1289.000000	57.681810
1288.000000	57.642952
1287.000000	57.599535
1286.000000	57.558709
1285.000000	57.518815
1284.000000	57.494672
1283.000000	57.465451
1282.000000	57.430427
1281.000000	57.395300
1280.000000	57.355096
1279.000000	57.321833
1278.000000	57.298933
1277.000000	57.284323
1276.000000	57.279971
1275.000000	57.272303
1274.000000	57.271889
1273.000000	57.275204
1272.000000	57.274686
1271.000000	57.285048
1270.000000	57.292198
1269.000000	57.297379
1268.000000	57.304011
1267.000000	57.314995
1266.000000	57.309710
1265.000000	57.318518
1264.000000	57.311264
1263.000000	57.295618
1262.000000	57.300280
1261.000000	57.288571
1260.000000	57.272407
1259.000000	57.275619
1258.000000	57.271785
1257.000000	57.261941
1256.000000	57.236450
1255.000000	57.203914
1254.000000	57.193137
1253.000000	57.176144
1252.000000	57.137286
1251.000000	57.081435
1250.000000	57.045271
1249.000000	56.990871
1248.000000	56.929631
1247.000000	56.863625
1246.000000	56.798344
1245.000000	56.750472
1244.000000	56.679285
1243.000000	56.635557
1242.000000	56.574111
1241.000000	56.518777
1240.000000	56.462408
1239.000000	56.415572
1238.000000	56.375989
1237.000000	56.331743
1236.000000	56.299517
1235.000000	56.249469
1234.000000	56.219315
1233.000000	56.180250
1232.000000	56.140460
1231.000000	56.089583
1230.000000	56.047720
1229.000000	55.996014
1228.000000	55.928661
1227.000000	55.875089
1226.000000	55.829703
1225.000000	55.771987
1224.000000	55.726705
1223.000000	55.662564
1222.000000	55.611272
1221.000000	55.553867
1220.000000	55.501124
1219.000000	55.440506
1218.000000	55.384966
1217.000000	55.334399
1216.000000	55.279480
1215.000000	55.219899
1214.000000	55.170576
1213.000000	55.108818
1212.000000	55.054728
1211.000000	54.980744
1210.000000	54.941057
1209.000000	54.892252
1208.000000	54.840546
1207.000000	54.764385
1206.000000	54.698171
1205.000000	54.625326
1204.000000	54.568957
1203.000000	54.511033
1202.000000	54.428655
1201.000000	54.381716
1200.000000	54.310114
1199.000000	54.239238
1198.000000	54.165564
1197.000000	54.070233
1196.000000	54.009305
1195.000000	53.935838
1194.000000	53.840715
1193.000000	53.743623
1192.000000	53.658758
1191.000000	53.562598
1190.000000	53.498561
1189.000000	53.435146
1188.000000	53.395563
1187.000000	53.363648
1186.000000	53.369658
1185.000000	53.342509
1184.000000	53.355980
1183.000000	53.377118
1182.000000	53.415872
1181.000000	53.447891
1180.000000	53.496903
1179.000000	53.557417
1178.000000	53.601663
1177.000000	53.662903
1176.000000	53.703522
1175.000000	53.763000
1174.000000	53.817193
1173.000000	53.857190
1172.000000	53.918741
1171.000000	53.994280
1170.000000	54.065156
1169.000000	54.151575
1168.000000	54.269495
1167.000000	54.365344
1166.000000	54.479118
1165.000000	54.607815
1164.000000	54.709984
1163.000000	54.843551
1162.000000	54.976599
1161.000000	55.098560
1160.000000	55.218966
1159.000000	55.340616
1158.000000	55.447034
1157.000000	55.543297
1156.000000	55.633550
1155.000000	55.737792
1154.000000	55.827009
1153.000000	55.886694
1152.000000	55.934671
1151.000000	55.978191
1150.000000	56.035597
1149.000000	56.099219
1148.000000	56.124503
1147.000000	56.194654
1146.000000	56.227501
1145.000000	56.274130
1144.000000	56.316718
1143.000000	56.336613
1142.000000	56.395987
1141.000000	56.465517
1140.000000	56.522922
1139.000000	56.591311
1138.000000	56.665814
1137.000000	56.764979
1136.000000	56.871086
1135.000000	56.934709
1134.000000	56.986519
1133.000000	57.003720
1132.000000	57.038225
1131.000000	57.107340
1130.000000	57.145783
1129.000000	57.180806
1128.000000	57.208680
1127.000000	57.216555
1126.000000	57.218628
1125.000000	57.204846
1124.000000	57.192308
1123.000000	57.187438
1122.000000	57.151482
1121.000000	57.121121
1120.000000	57.076254
1119.000000	57.034702
1118.000000	56.980405
1117.000000	56.936159
1116.000000	56.891499
1115.000000	56.845077
1114.000000	56.812126
1113.000000	56.748710
1112.000000	56.693688
1111.000000	56.638666
1110.000000	56.597425
1109.000000	56.535357
1108.000000	56.496188
1107.000000	56.457227
1106.000000	56.418473
1105.000000	56.368425
1104.000000	56.323039
1103.000000	56.281073
1102.000000	56.219833
1101.000000	56.181079
1100.000000	56.122430
1099.000000	56.080257
1098.000000	56.026996
1097.000000	55.966793
1096.000000	55.915190
1095.000000	55.875711
1094.000000	55.825351
1093.000000	55.771573
1092.000000	55.729399
1091.000000	55.680698
1090.000000	55.611997
1089.000000	55.550758
1088.000000	55.491384
1087.000000	55.433771
1086.000000	55.375640
1085.000000	55.315126
1084.000000	55.255337
1083.000000	55.191300
1082.000000	55.117315
1081.000000	55.056904
1080.000000	54.990587
1079.000000	54.922613
1078.000000	54.855881
1077.000000	54.786559
1076.000000	54.724076
1075.000000	54.660350
1074.000000	54.606364
1073.000000	54.533208
1072.000000	54.461399
1071.000000	54.403579
1070.000000	54.335708
1069.000000	54.250843
1068.000000	54.183387
1067.000000	54.123701
1066.000000	54.056763
1065.000000	53.993347
1064.000000	53.934802
1063.000000	53.886308
1062.000000	53.813670
1061.000000	53.750669
1060.000000	53.691916
1059.000000	53.649639
1058.000000	53.603217
1057.000000	53.538144
1056.000000	53.487370
1055.000000	53.446751
1054.000000	53.383646
1053.000000	53.333287
1052.000000	53.283031
1051.000000	53.217647
1050.000000	53.180551
1049.000000	53.131435
1048.000000	53.075376
1047.000000	53.036104
1046.000000	52.999112
1045.000000	52.954659
1044.000000	52.913625
1043.000000	52.860054
1042.000000	52.822854
1041.000000	52.784929
1040.000000	52.730321
1039.000000	52.693743
1038.000000	52.665248
1037.000000	52.638618
1036.000000	52.600174
1035.000000	52.562560
1034.000000	52.524117
1033.000000	52.488990
1032.000000	52.478524
1031.000000	52.450340
1030.000000	52.398944
1029.000000	52.378013
1028.000000	52.371899
1027.000000	52.338534
1026.000000	52.311696
1025.000000	52.304339
1024.000000	52.284651
1023.000000	52.267657
1022.000000	52.252011
1021.000000	52.233774
1020.000000	52.233670
1019.000000	52.235328
1018.000000	52.230043
1017.000000	52.218852
1016.000000	52.215744
1015.000000	52.232323
1014.000000	52.234395
1013.000000	52.239887
1012.000000	52.239576
1011.000000	52.234499
1010.000000	52.253047
1009.000000	52.260715
1008.000000	52.263202
1007.000000	52.280506
1006.000000	52.302992
1005.000000	52.308173
1004.000000	52.309002
1003.000000	52.324338
1002.000000	52.348170
1001.000000	52.374386
1000.000000	52.382365
999.000000	52.406301
998.000000	52.429098
997.000000	52.462981
996.000000	52.495104
995.000000	52.511372
994.000000	52.553131
993.000000	52.595097
992.000000	52.640690
991.000000	52.683381
990.000000	52.727109
989.000000	52.771459
988.000000	52.822336
987.000000	52.870623
986.000000	52.930619
985.000000	52.990719
984.000000	53.054134
983.000000	53.128015
982.000000	53.188219
981.000000	53.259095
980.000000	53.358363
979.000000	53.453072
978.000000	53.528611
977.000000	53.628086
976.000000	53.716060
975.000000	53.816571
974.000000	53.900296
973.000000	54.005678
972.000000	54.107640
971.000000	54.216441
970.000000	54.314673
969.000000	54.418708
968.000000	54.539115
967.000000	54.619938
966.000000	54.743661
965.000000	54.832049
964.000000	54.935047
963.000000	55.044470
962.000000	55.128299
961.000000	55.231090
960.000000	55.320825
959.000000	55.411389
958.000000	55.511486
957.000000	55.589719
956.000000	55.681734
955.000000	55.786183
954.000000	55.871773
953.000000	55.967933
952.000000	56.034871
951.000000	56.122223
950.000000	56.247085
949.000000	56.336199
948.000000	56.429560
947.000000	56.530901
946.000000	56.613175
945.000000	56.705915
944.000000	56.796065
943.000000	56.919891
942.000000	57.062472
941.000000	57.155938
940.000000	57.262874
939.000000	57.410118
938.000000	57.548140
937.000000	57.664816
936.000000	57.824495
935.000000	57.953916
934.000000	58.077017
933.000000	58.206853
932.000000	58.363423
931.000000	58.490254
930.000000	58.627862
929.000000	58.795415
928.000000	58.928464
927.000000	59.053533
926.000000	59.212797
925.000000	59.359938
924.000000	59.501794
923.000000	59.634013
922.000000	59.778771
921.000000	59.904255
920.000000	60.049841
919.000000	60.166206
918.000000	60.281432
917.000000	60.369613
916.000000	60.535716
915.000000	60.629388
914.000000	60.717776
913.000000	60.827096
912.000000	60.935690
911.000000	61.031020
910.000000	61.096612
909.000000	61.217744
908.000000	61.315872
907.000000	61.395556
906.000000	61.476690
905.000000	61.557203
904.000000	61.663932
903.000000	61.726415
902.000000	61.816668
901.000000	61.906817
900.000000	61.984636
899.000000	62.036757
898.000000	62.109913
897.000000	62.204311
896.000000	62.261613
895.000000	62.357565
894.000000	62.438700
893.000000	62.499732
892.000000	62.558899
891.000000	62.645525
890.000000	62.716505
889.000000	62.848621
888.000000	62.947993
887.000000	63.044256
886.000000	63.157409
885.000000	63.260304
884.000000	63.331905
883.000000	63.449100
882.000000	63.540803
881.000000	63.690327
880.000000	63.822650
879.000000	63.922747
878.000000	64.048024
877.000000	64.149675
876.000000	64.299614
875.000000	64.408933
874.000000	64.550375
873.000000	64.687568
872.000000	64.813052
871.000000	64.957809
870.000000	65.069304
869.000000	65.217792
868.000000	65.378196
867.000000	65.508964
866.000000	65.639940
865.000000	65.781693
864.000000	65.901374
863.000000	66.036080
862.000000	66.135037
861.000000	66.213892
860.000000	66.267982
859.000000	66.370670
858.000000	66.962133
857.000000	66.885400
856.000000	66.929200
855.000000	67.071800
854.000000	67.516400
853.000000	68.105200
852.000000	68.228300
851.000000	68.486400
850.000000	69.056800
849.000000	69.432200
848.000000	69.771800
847.000000	69.962100
846.000000	70.408800
845.000000	70.566500
844.000000	71.077100
843.000000	71.315900
842.000000	72.020400
841.000000	72.072300
840.000000	72.230700
839.000000	72.893500
838.000000	73.121300
837.000000	73.490200
836.000000	73.928000
835.000000	74.377600
834.000000	74.461900
833.000000	74.774800
832.000000	75.137600
831.000000	75.427100
830.000000	75.468400
829.000000	75.962700
828.000000	76.276500
827.000000	76.395500
826.000000	76.786800
825.000000	76.925300
824.000000	77.137300
823.000000	77.302700
822.000000	77.644600
821.000000	77.721400
820.000000	77.658900
819.000000	77.910100
818.000000	77.875000
817.000000	77.887000
816.000000	77.964500
815.000000	78.190200
814.000000	78.190800
813.000000	78.344500
812.000000	78.336600
811.000000	78.454900
810.000000	78.363200
809.000000	78.378700
808.000000	78.433900
807.000000	78.485100
806.000000	78.676900
805.000000	78.691200
804.000000	78.793000
803.000000	78.895800
802.000000	78.975700
801.000000	78.918800
800.000000	78.863200
799.000000	78.890700
798.000000	78.990500
797.000000	79.125000
796.000000	79.184900
795.000000	79.209900
794.000000	79.309500
793.000000	79.452800
792.000000	79.512200
791.000000	79.558300
790.000000	79.714400
789.000000	79.798300
788.000000	79.853300
787.000000	79.848700
786.000000	79.954400
785.000000	80.069900
784.000000	80.107700
783.000000	80.176000
782.000000	80.236200
781.000000	80.300300
780.000000	80.365700
779.000000	80.365700
778.000000	80.409500
777.000000	80.449300
776.000000	80.492200
775.000000	80.352600
774.000000	80.308400
773.000000	80.384500
772.000000	80.418000
771.000000	80.383300
770.000000	80.298200
769.000000	80.234300
768.000000	80.178900
767.000000	80.097400
766.000000	79.979700
765.000000	79.891900
764.000000	79.756100
763.000000	79.453100
762.000000	79.265400
761.000000	79.160500
760.000000	78.911500
759.000000	78.686800
758.000000	78.477500
757.000000	78.279200
756.000000	78.117200
755.000000	77.853400
754.000000	77.632500
753.000000	77.406900
752.000000	77.124100
751.000000	76.833900
750.000000	76.621100
749.000000	76.387000
748.000000	76.099400
747.000000	75.854800
746.000000	75.601700
745.000000	75.355300
744.000000	74.949400
743.000000	74.523800
742.000000	74.201000
741.000000	73.894000
740.000000	73.582900
739.000000	73.187900
738.000000	72.753500
737.000000	72.331800
736.000000	71.960600
735.000000	71.554600
734.000000	71.183900
733.000000	70.828900
732.000000	70.455500
731.000000	70.076300
730.000000	69.787000
729.000000	69.471600
728.000000	69.091500
727.000000	68.771200
726.000000	68.468300
725.000000	68.228500
724.000000	67.979700
723.000000	67.701200
722.000000	67.513800
721.000000	67.267400
720.000000	66.981600
719.000000	66.773000
718.000000	66.570900
717.000000	66.342300
716.000000	66.150700
715.000000	65.988200
714.000000	65.760900
713.000000	65.543200
712.000000	65.388800
711.000000	65.169700
710.000000	64.985000
709.000000	64.748300
708.000000	64.570500
707.000000	64.363700
706.000000	64.233000
705.000000	64.093000
704.000000	63.854700
703.000000	63.587100
702.000000	63.334300
701.000000	63.031300
700.000000	62.697400
699.000000	62.347700
698.000000	61.991800
697.000000	61.586400
696.000000	61.183800
695.000000	60.763000
694.000000	60.251300
693.000000	59.767100
692.000000	59.350500
691.000000	58.827900
690.000000	58.325500
689.000000	57.842400
688.000000	57.399500
687.000000	56.989400
686.000000	56.567700
685.000000	56.198600
684.000000	55.784900
683.000000	55.469000
682.000000	55.142600
681.000000	54.814500
680.000000	54.444600
679.000000	54.149500
678.000000	53.863500
677.000000	53.561300
676.000000	53.325100
675.000000	53.016600
674.000000	52.757800
673.000000	52.509200
672.000000	52.271000
671.000000	52.031800
670.000000	51.823100
669.000000	51.670100
668.000000	51.549300
667.000000	51.436200
666.000000	51.329000
665.000000	51.307300
664.000000	51.262100
663.000000	51.282100
662.000000	51.245800
661.000000	51.204100
660.000000	51.212500
659.000000	51.173700
658.000000	51.061000
657.000000	50.950400
656.000000	50.769700
655.000000	50.612500
654.000000	50.397600
653.000000	50.194800
652.000000	49.943200
651.000000	49.645700
650.000000	49.381500
649.000000	49.149900
648.000000	48.955300
647.000000	48.756200
646.000000	48.600800
645.000000	48.537100
644.000000	48.444500
643.000000	48.389600
642.000000	48.400100
641.000000	48.380000
640.000000	48.432900
639.000000	48.436200
638.000000	48.495300
637.000000	48.592100
636.000000	48.692400
635.000000	48.724900
634.000000	48.856700
633.000000	48.964600
632.000000	49.122000
631.000000	49.272100
630.000000	49.472200
629.000000	49.709700
628.000000	50.003100
627.000000	50.275400
626.000000	50.605400
625.000000	50.956900
624.000000	51.339900
623.000000	51.741800
622.000000	52.143400
621.000000	52.604500
620.000000	53.080200
619.000000	53.570400
618.000000	54.042300
617.000000	54.515700
616.000000	54.993700
615.000000	55.489100
614.000000	55.957200
613.000000	56.420400
612.000000	56.879700
611.000000	57.244200
610.000000	57.713900
609.000000	58.161200
608.000000	58.605700
607.000000	58.969400
606.000000	59.434300
605.000000	59.866300
604.000000	60.358100
603.000000	60.898400
602.000000	61.381000
601.000000	61.825000
600.000000	62.238100
599.000000	62.651500
598.000000	62.949500
597.000000	63.279400
596.000000	63.529900
595.000000	63.759800
594.000000	64.043000
593.000000	64.292200
592.000000	64.533400
591.000000	64.771100
590.000000	65.034900
589.000000	65.236900
588.000000	65.394100
587.000000	65.458800
586.000000	65.507300
585.000000	65.486900
584.000000	65.394800
583.000000	65.290000
582.000000	65.246600
581.000000	65.170900
580.000000	65.125900
579.000000	65.111600
578.000000	65.048200
577.000000	65.006000
576.000000	64.894600
575.000000	64.763900
574.000000	64.602900
573.000000	64.401300
572.000000	64.237400
571.000000	64.063400
570.000000	63.857100
569.000000	63.760700
568.000000	63.645300
567.000000	63.526000
566.000000	63.294300
565.000000	63.057200
564.000000	62.755300
563.000000	62.407400
562.000000	62.010700
561.000000	61.682700
560.000000	61.235100
559.000000	60.821300
558.000000	60.451700
557.000000	60.052300
556.000000	59.573100
555.000000	59.062300
554.000000	58.514700
553.000000	57.909600
552.000000	57.303700
551.000000	56.719000
550.000000	56.090200
549.000000	55.422500
548.000000	54.773700
547.000000	54.099400
546.000000	53.365500
545.000000	52.601200
544.000000	51.817400
543.000000	51.052700
542.000000	50.259900
541.000000	49.487000
540.000000	48.670200
539.000000	47.855100
538.000000	47.039600
537.000000	46.188200
536.000000	45.337000
535.000000	44.526100
534.000000	43.692600
533.000000	42.883000
532.000000	42.099500
531.000000	41.330200
530.000000	40.563000
529.000000	39.834700
528.000000	39.151400
527.000000	38.492700
526.000000	37.836000
525.000000	37.194400
524.000000	36.561100
523.000000	35.938000
522.000000	35.343400
521.000000	34.714600
520.000000	34.142700
519.000000	33.551200
518.000000	32.972700
517.000000	32.406200
516.000000	31.833200
515.000000	31.260500
514.000000	30.714700
513.000000	30.122500
512.000000	29.518500
511.000000	28.943200
510.000000	28.343100
509.000000	27.718300
508.000000	27.115700
507.000000	26.543400
506.000000	25.969800
505.000000	25.427900
504.000000	24.914900
503.000000	24.415500
502.000000	23.964800
501.000000	23.538600
500.000000	23.183700
499.000000	22.872200
498.000000	22.618100
497.000000	22.415700
496.000000	22.279200
495.000000	22.193700
494.000000	22.167100
493.000000	22.181700
492.000000	22.233300
491.000000	22.337500
490.000000	22.492900
489.000000	22.653300
488.000000	22.833100
487.000000	23.045500
486.000000	23.272500
485.000000	23.497500
484.000000	23.729400
483.000000	23.960400
482.000000	24.177400
481.000000	24.362800
480.000000	24.534100
479.000000	24.698000
478.000000	24.845200
477.000000	24.977000
476.000000	25.083500
475.000000	25.185100
474.000000	25.263400
473.000000	25.329300
472.000000	25.366200
471.000000	25.382500
470.000000	25.403600
469.000000	25.409100
468.000000	25.396400
467.000000	25.358700
466.000000	25.326200
465.000000	25.286600
464.000000	25.227300
463.000000	25.147700
462.000000	25.057100
461.000000	24.964200
460.000000	24.846900
459.000000	24.707200
458.000000	24.572100
457.000000	24.418300
456.000000	24.256600
455.000000	24.097000
454.000000	23.917100
453.000000	23.724500
452.000000	23.511000
451.000000	23.268200
450.000000	23.028400
449.000000	22.795400
448.000000	22.543800
447.000000	22.289300
446.000000	21.995900
445.000000	21.696300
444.000000	21.407700
443.000000	21.071800
442.000000	20.706200
441.000000	20.346600
440.000000	19.977400
439.000000	19.579500
438.000000	19.181500
437.000000	18.788700
436.000000	18.375200
435.000000	17.945200
434.000000	17.502300
433.000000	17.049200
432.000000	16.587900
431.000000	16.125800
430.000000	15.660900
429.000000	15.181600
428.000000	14.722900
427.000000	14.272100
426.000000	13.822200
425.000000	13.376600
424.000000	12.933300
423.000000	12.513900
422.000000	12.098000
421.000000	11.685600
420.000000	11.304700
419.000000	10.945000
418.000000	10.604900
417.000000	10.268600
416.000000	9.949400
415.000000	9.650400
414.000000	9.365700
413.000000	9.105700
412.000000	8.859500
411.000000	8.622100
410.000000	8.407900
409.000000	8.230300
408.000000	8.075000
407.000000	7.902400
406.000000	7.722900
405.000000	7.568800
404.000000	7.442300
403.000000	7.312400
402.000000	7.207100
401.000000	7.104100
400.000000	7.010800
399.000000	6.929800
398.000000	6.840600
397.000000	6.755400
396.000000	6.686600
395.000000	6.631500
394.000000	6.578800
393.000000	6.517700
392.000000	6.457700
391.000000	6.406400
390.000000	6.377400
389.000000	6.347800
388.000000	6.321400
387.000000	6.269600
386.000000	6.231700
385.000000	6.203700
384.000000	6.176500
383.000000	6.147400
382.000000	6.133600
381.000000	6.108300
380.000000	6.065900
379.000000	6.046100
378.000000	6.024700
377.000000	6.012100
376.000000	5.998700
375.000000	5.988800
374.000000	5.904300
373.000000	5.928600
372.000000	5.950700
371.000000	5.945100
370.000000	5.838600
369.000000	5.943900
368.000000	5.950000
367.000000	5.851200
366.000000	5.860700
365.000000	5.896500
364.000000	5.905300
363.000000	5.876300
362.000000	5.821300
361.000000	5.913200
360.000000	5.899200
359.000000	5.850800
358.000000	5.862400
357.000000	5.800300
356.000000	5.804100
355.000000	5.856800
354.000000	5.874600
353.000000	6.015100
352.000000	5.902400
351.000000	5.744900
350.000000	5.859700
349.000000	5.751900
348.000000	5.830200
347.000000	5.840200
346.000000	5.795300
345.000000	5.720500
344.000000	5.696400
343.000000	5.778300
342.000000	5.866300
341.000000	5.799900
340.000000	5.742300
339.000000	5.783000
338.000000	5.795900
337.000000	5.953600
336.000000	5.755100
335.000000	5.754500
334.000000	5.685100
333.000000	5.729200
332.000000	5.775600
331.000000	5.827700
330.000000	5.748500
329.000000	5.816800
328.000000	5.851800
327.000000	5.862800
326.000000	5.910500
325.000000	6.015400
324.000000	6.035300
323.000000	5.952000
322.000000	5.987000
321.000000	6.205500
320.000000	6.012300
319.000000	5.972100
318.000000	6.059000
317.000000	6.034200
316.000000	5.735400
315.000000	5.704200
314.000000	5.716500
313.000000	5.723900
312.000000	5.724400
311.000000	5.698500
310.000000	5.740900
309.000000	5.833400
308.000000	5.763000
307.000000	5.791800
306.000000	5.815900
305.000000	5.773300
304.000000	5.801200
303.000000	5.858100
302.000000	5.807600
301.000000	5.826100
300.000000	5.864300
299.000000	5.812400
298.000000	5.886400
297.000000	5.798500
296.000000	5.816800
295.000000	5.869600
294.000000	5.875100
293.000000	5.889300
292.000000	5.882700
291.000000	5.836700
290.000000	5.890600
289.000000	5.909000
288.000000	5.911700
287.000000	5.911500
286.000000	5.923700
285.000000	5.902000
284.000000	5.879600
283.000000	5.918400
282.000000	5.874000
281.000000	5.915500
280.000000	5.922700
279.000000	5.946600
278.000000	5.906300
277.000000	5.957700
276.000000	5.968100
275.000000	5.940300
274.000000	5.995000
273.000000	6.053500
272.000000	5.939000
271.000000	6.009600
270.000000	6.007200
269.000000	6.010700
268.000000	6.066100
267.000000	6.090000
266.000000	6.101000
265.000000	6.170200
264.000000	6.165600
263.000000	6.164800
262.000000	6.170900
261.000000	6.205300
260.000000	6.242100
259.000000	6.240600
258.000000	6.282300
257.000000	6.294000
256.000000	6.300200
255.000000	6.263700
254.000000	6.259500
253.000000	6.338700
252.000000	6.402600
251.000000	6.350500
250.000000	6.407000
