PE UV       SUBTECH     SPECTRUM    ASCII       PEDS        4.00        
   -1
CICIMAUCR0001-1.Sample.ASC
24/03/08
10:42:50.00
24/03/08
10:42:50.00
Vinicio Soto Monge
C. kalinini
250,000000
1
Lambda 1050
1050L1511233
PerkinElmer UV WinLab 6.3.2.0749 / 2.02.05 Lambda 900 UV/VIS/NIR, Aug  7 2015 09:38:08

0
0
3350/servo 860,8/2
0
0
UV/VIS
1
1
1
DoubleDePol,CommonBeamDepol,RBeamAtt,SBeamAtt,60mm sphere, WB InGaAs Detector
0
0
0
0
Program
Program
3350/servo 860,8/2
3350/0,2 860,8/0,2
3350/0,2 860,8/0,2
0
15.00
 
 
 
0
 
860,8
319,2
860,8
Front
100
on
S:100 R:100
0
0
0
0
 
0
 
 
 
0
 
 
0
0
0
0
0
 
 
 
 
0
0


0
0
#HDR
-1
-1
#GR
nm
%R
1.0
0.0
2500,000000
-1,000000
2251
8
36,425100
2,679800
#DATA
2500.000000	3.521613
2499.000000	3.473520
2498.000000	3.583230
2497.000000	3.456641
2496.000000	3.474740
2495.000000	3.577129
2494.000000	3.558522
2493.000000	3.578350
2492.000000	3.563403
2491.000000	3.523138
2490.000000	3.550591
2489.000000	3.513174
2488.000000	3.544694
2487.000000	3.511140
2486.000000	3.563911
2485.000000	3.577434
2484.000000	3.509107
2483.000000	3.566962
2482.000000	3.508090
2481.000000	3.540322
2480.000000	3.559539
2479.000000	3.566148
2478.000000	3.598482
2477.000000	3.595228
2476.000000	3.606514
2475.000000	3.614649
2474.000000	3.644338
2473.000000	3.668233
2472.000000	3.620953
2471.000000	3.623494
2470.000000	3.632340
2469.000000	3.648812
2468.000000	3.691212
2467.000000	3.698634
2466.000000	3.728121
2465.000000	3.737679
2464.000000	3.775300
2463.000000	3.814649
2462.000000	3.825732
2461.000000	3.836205
2460.000000	3.884197
2459.000000	3.871690
2458.000000	3.902194
2457.000000	3.916022
2456.000000	3.972351
2455.000000	4.000719
2454.000000	4.009870
2453.000000	4.050542
2452.000000	4.056337
2451.000000	4.092128
2450.000000	4.111345
2449.000000	4.166353
2448.000000	4.196653
2447.000000	4.225733
2446.000000	4.265590
2445.000000	4.297619
2444.000000	4.343476
2443.000000	4.367675
2442.000000	4.395230
2441.000000	4.440476
2440.000000	4.472606
2439.000000	4.520903
2438.000000	4.537477
2437.000000	4.579267
2436.000000	4.619938
2435.000000	4.643934
2434.000000	4.693654
2433.000000	4.718972
2432.000000	4.762185
2431.000000	4.792688
2430.000000	4.826344
2429.000000	4.862439
2428.000000	4.905958
2427.000000	4.968693
2426.000000	5.041087
2425.000000	5.111550
2424.000000	5.181403
2423.000000	5.231632
2422.000000	5.258678
2421.000000	5.284911
2420.000000	5.313991
2419.000000	5.368389
2418.000000	5.402959
2417.000000	5.436309
2416.000000	5.461119
2415.000000	5.496503
2414.000000	5.557103
2413.000000	5.573880
2412.000000	5.601333
2411.000000	5.653087
2410.000000	5.675659
2409.000000	5.692944
2408.000000	5.713280
2407.000000	5.744190
2406.000000	5.782523
2405.000000	5.810484
2404.000000	5.849223
2403.000000	5.859493
2402.000000	5.879625
2401.000000	5.920703
2400.000000	5.933819
2399.000000	5.942767
2398.000000	5.983946
2397.000000	5.993707
2396.000000	6.020449
2395.000000	6.039462
2394.000000	6.053799
2393.000000	6.082777
2392.000000	6.103113
2391.000000	6.116534
2390.000000	6.137785
2389.000000	6.166153
2388.000000	6.182218
2387.000000	6.192183
2386.000000	6.182523
2385.000000	6.204282
2384.000000	6.221161
2383.000000	6.227567
2382.000000	6.241496
2381.000000	6.252376
2380.000000	6.247902
2379.000000	6.254104
2378.000000	6.283998
2377.000000	6.292132
2376.000000	6.274745
2375.000000	6.282574
2374.000000	6.303927
2373.000000	6.312366
2372.000000	6.311451
2371.000000	6.321212
2370.000000	6.323754
2369.000000	6.321924
2368.000000	6.323652
2367.000000	6.342056
2366.000000	6.362493
2365.000000	6.367170
2364.000000	6.389946
2363.000000	6.393403
2362.000000	6.383744
2361.000000	6.391573
2360.000000	6.402656
2359.000000	6.403774
2358.000000	6.415264
2357.000000	6.412417
2356.000000	6.422381
2355.000000	6.439260
2354.000000	6.446377
2353.000000	6.442005
2352.000000	6.440175
2351.000000	6.438752
2350.000000	6.439158
2349.000000	6.439463
2348.000000	6.444751
2347.000000	6.431634
2346.000000	6.414857
2345.000000	6.416586
2344.000000	6.420958
2343.000000	6.438040
2342.000000	6.442005
2341.000000	6.456240
2340.000000	6.449733
2339.000000	6.429194
2338.000000	6.445869
2337.000000	6.438040
2336.000000	6.449733
2335.000000	6.468543
2334.000000	6.456037
2333.000000	6.450444
2332.000000	6.457664
2331.000000	6.486133
2330.000000	6.494471
2329.000000	6.503114
2328.000000	6.512366
2327.000000	6.506062
2326.000000	6.522432
2325.000000	6.524466
2324.000000	6.541446
2323.000000	6.554258
2322.000000	6.556291
2321.000000	6.570628
2320.000000	6.566662
2319.000000	6.562290
2318.000000	6.570424
2317.000000	6.549885
2316.000000	6.530872
2315.000000	6.507791
2314.000000	6.503419
2313.000000	6.494878
2312.000000	6.490912
2311.000000	6.472712
2310.000000	6.468950
2309.000000	6.441598
2308.000000	6.421161
2307.000000	6.394827
2306.000000	6.367780
2305.000000	6.350088
2304.000000	6.340836
2303.000000	6.336057
2302.000000	6.313993
2301.000000	6.282473
2300.000000	6.277795
2299.000000	6.280642
2298.000000	6.247699
2297.000000	6.236718
2296.000000	6.218416
2295.000000	6.216484
2294.000000	6.208044
2293.000000	6.200622
2292.000000	6.187099
2291.000000	6.172355
2290.000000	6.171745
2289.000000	6.166153
2288.000000	6.164323
2287.000000	6.132599
2286.000000	6.151715
2285.000000	6.125889
2284.000000	6.112569
2283.000000	6.119686
2282.000000	6.122127
2281.000000	6.117144
2280.000000	6.116534
2279.000000	6.080845
2278.000000	6.067322
2277.000000	6.064780
2276.000000	6.046682
2275.000000	6.045360
2274.000000	6.026651
2273.000000	6.027871
2272.000000	5.989437
2271.000000	5.980184
2270.000000	5.964933
2269.000000	5.977337
2268.000000	5.959035
2267.000000	5.927820
2266.000000	5.929854
2265.000000	5.908298
2264.000000	5.910738
2263.000000	5.927719
2262.000000	5.925482
2261.000000	5.939310
2260.000000	5.932091
2259.000000	5.962594
2258.000000	5.971440
2257.000000	5.984658
2256.000000	5.992284
2255.000000	6.013331
2254.000000	6.059900
2253.000000	6.082066
2252.000000	6.121313
2251.000000	6.119076
2250.000000	6.152427
2249.000000	6.179981
2248.000000	6.228888
2247.000000	6.251156
2246.000000	6.243428
2245.000000	6.280744
2244.000000	6.323144
2243.000000	6.329753
2242.000000	6.361680
2241.000000	6.355071
2240.000000	6.367780
2239.000000	6.399097
2238.000000	6.382524
2237.000000	6.386387
2236.000000	6.389133
2235.000000	6.373474
2234.000000	6.376220
2233.000000	6.358426
2232.000000	6.355986
2231.000000	6.321924
2230.000000	6.293556
2229.000000	6.263459
2228.000000	6.233972
2227.000000	6.192894
2226.000000	6.176219
2225.000000	6.131888
2224.000000	6.061628
2223.000000	6.027058
2222.000000	5.974999
2221.000000	5.943275
2220.000000	5.874439
2219.000000	5.822787
2218.000000	5.779879
2217.000000	5.741445
2216.000000	5.692843
2215.000000	5.647494
2214.000000	5.618414
2213.000000	5.603976
2212.000000	5.561576
2211.000000	5.574693
2210.000000	5.542359
2209.000000	5.564627
2208.000000	5.579065
2207.000000	5.601231
2206.000000	5.656950
2205.000000	5.693554
2204.000000	5.746529
2203.000000	5.819940
2202.000000	5.884505
2201.000000	5.967576
2200.000000	6.044953
2199.000000	6.131684
2198.000000	6.238141
2197.000000	6.307485
2196.000000	6.386082
2195.000000	6.478203
2194.000000	6.541039
2193.000000	6.612722
2192.000000	6.695488
2191.000000	6.766256
2190.000000	6.844548
2189.000000	6.899352
2188.000000	6.940532
2187.000000	6.986795
2186.000000	7.032245
2185.000000	7.055733
2184.000000	7.086745
2183.000000	7.114401
2182.000000	7.151208
2181.000000	7.168290
2180.000000	7.197370
2179.000000	7.231839
2178.000000	7.245159
2177.000000	7.259089
2176.000000	7.273934
2175.000000	7.276171
2174.000000	7.305149
2173.000000	7.324366
2172.000000	7.349582
2171.000000	7.364630
2170.000000	7.383949
2169.000000	7.404081
2168.000000	7.429602
2167.000000	7.448413
2166.000000	7.471189
2165.000000	7.480746
2164.000000	7.504742
2163.000000	7.525078
2162.000000	7.546735
2161.000000	7.589847
2160.000000	7.611606
2159.000000	7.640279
2158.000000	7.666512
2157.000000	7.700167
2156.000000	7.747549
2155.000000	7.780391
2154.000000	7.826146
2153.000000	7.844855
2152.000000	7.877595
2151.000000	7.939517
2150.000000	7.984967
2149.000000	8.011912
2148.000000	8.049837
2147.000000	8.103930
2146.000000	8.159141
2145.000000	8.189340
2144.000000	8.229706
2143.000000	8.274749
2142.000000	8.324673
2141.000000	8.358837
2140.000000	8.389747
2139.000000	8.418623
2138.000000	8.466818
2137.000000	8.512370
2136.000000	8.541450
2135.000000	8.566463
2134.000000	8.601033
2133.000000	8.633265
2132.000000	8.641196
2131.000000	8.678308
2130.000000	8.711862
2129.000000	8.721318
2128.000000	8.756092
2127.000000	8.768293
2126.000000	8.780901
2125.000000	8.806829
2124.000000	8.824216
2123.000000	8.837739
2122.000000	8.849432
2121.000000	8.863667
2120.000000	8.884206
2119.000000	8.891120
2118.000000	8.893967
2117.000000	8.898441
2116.000000	8.906677
2115.000000	8.913286
2114.000000	8.919997
2113.000000	8.923250
2112.000000	8.914608
2111.000000	8.914709
2110.000000	8.930063
2109.000000	8.935350
2108.000000	8.927216
2107.000000	8.929859
2106.000000	8.922437
2105.000000	8.919997
2104.000000	8.922437
2103.000000	8.916235
2102.000000	8.915320
2101.000000	8.916235
2100.000000	8.924674
2099.000000	8.915320
2098.000000	8.907795
2097.000000	8.910134
2096.000000	8.922335
2095.000000	8.913591
2094.000000	8.900373
2093.000000	8.903830
2092.000000	8.912778
2091.000000	8.930368
2090.000000	8.921115
2089.000000	8.915726
2088.000000	8.916641
2087.000000	8.917963
2086.000000	8.911456
2085.000000	8.891730
2084.000000	8.887561
2083.000000	8.874953
2082.000000	8.852178
2081.000000	8.836011
2080.000000	8.823098
2079.000000	8.806321
2078.000000	8.786799
2077.000000	8.768903
2076.000000	8.737078
2075.000000	8.716946
2074.000000	8.678715
2073.000000	8.636722
2072.000000	8.602558
2071.000000	8.573377
2070.000000	8.523148
2069.000000	8.482477
2068.000000	8.441602
2067.000000	8.406015
2066.000000	8.371140
2065.000000	8.316742
2064.000000	8.264581
2063.000000	8.223707
2062.000000	8.193915
2061.000000	8.162700
2060.000000	8.125282
2059.000000	8.097321
2058.000000	8.075460
2057.000000	8.043635
2056.000000	8.030519
2055.000000	8.023808
2054.000000	8.015979
2053.000000	8.018114
2052.000000	8.023503
2051.000000	8.039161
2050.000000	8.059599
2049.000000	8.073223
2048.000000	8.106675
2047.000000	8.135044
2046.000000	8.184256
2045.000000	8.231332
2044.000000	8.274342
2043.000000	8.309929
2042.000000	8.339213
2041.000000	8.388832
2040.000000	8.437942
2039.000000	8.477291
2038.000000	8.514404
2037.000000	8.554973
2036.000000	8.586900
2035.000000	8.628791
2034.000000	8.661328
2033.000000	8.674750
2032.000000	8.690408
2031.000000	8.716336
2030.000000	8.750398
2029.000000	8.771547
2028.000000	8.783952
2027.000000	8.809880
2026.000000	8.810795
2025.000000	8.843637
2024.000000	8.852686
2023.000000	8.863769
2022.000000	8.873022
2021.000000	8.880647
2020.000000	8.880647
2019.000000	8.891019
2018.000000	8.886646
2017.000000	8.903525
2016.000000	8.894984
2015.000000	8.890103
2014.000000	8.881257
2013.000000	8.904847
2012.000000	8.875665
2011.000000	8.858380
2010.000000	8.856245
2009.000000	8.839671
2008.000000	8.845874
2007.000000	8.820759
2006.000000	8.801847
2005.000000	8.778461
2004.000000	8.768090
2003.000000	8.762904
2002.000000	8.714201
2001.000000	8.677292
2000.000000	8.673021
1999.000000	8.626148
1998.000000	8.602762
1997.000000	8.559854
1996.000000	8.537586
1995.000000	8.514810
1994.000000	8.472817
1993.000000	8.436010
1992.000000	8.396966
1991.000000	8.352838
1990.000000	8.338704
1989.000000	8.301287
1988.000000	8.255939
1987.000000	8.211607
1986.000000	8.175816
1985.000000	8.145415
1984.000000	8.106269
1983.000000	8.074240
1982.000000	8.016996
1981.000000	7.984865
1980.000000	7.962700
1979.000000	7.901998
1978.000000	7.867732
1977.000000	7.849735
1976.000000	7.790864
1975.000000	7.754260
1974.000000	7.721926
1973.000000	7.668444
1972.000000	7.633162
1971.000000	7.599506
1970.000000	7.560258
1969.000000	7.515724
1968.000000	7.504437
1967.000000	7.486745
1966.000000	7.434686
1965.000000	7.396557
1964.000000	7.321417
1963.000000	7.320299
1962.000000	7.292134
1961.000000	7.247497
1960.000000	7.196150
1959.000000	7.174086
1958.000000	7.143176
1957.000000	7.096709
1956.000000	7.069256
1955.000000	7.035092
1954.000000	6.985372
1953.000000	6.940532
1952.000000	6.918569
1951.000000	6.890100
1950.000000	6.861121
1949.000000	6.851869
1948.000000	6.799708
1947.000000	6.772560
1946.000000	6.754563
1945.000000	6.724365
1944.000000	6.703216
1943.000000	6.693861
1942.000000	6.692133
1941.000000	6.655325
1940.000000	6.636108
1939.000000	6.608960
1938.000000	6.621162
1937.000000	6.611197
1936.000000	6.586591
1935.000000	6.593302
1934.000000	6.596149
1933.000000	6.624822
1932.000000	6.609265
1931.000000	6.624314
1930.000000	6.647903
1929.000000	6.671187
1928.000000	6.688167
1927.000000	6.728635
1926.000000	6.746429
1925.000000	6.796963
1924.000000	6.852682
1923.000000	6.899657
1922.000000	6.920806
1921.000000	6.974086
1920.000000	7.037736
1919.000000	7.100166
1918.000000	7.183644
1917.000000	7.237736
1916.000000	7.328230
1915.000000	7.412521
1914.000000	7.524570
1913.000000	7.605098
1912.000000	7.702201
1911.000000	7.790457
1910.000000	7.908607
1909.000000	8.059395
1908.000000	8.209675
1907.000000	8.371445
1906.000000	8.504948
1905.000000	8.652787
1904.000000	8.816794
1903.000000	9.010897
1902.000000	9.181004
1901.000000	9.375310
1900.000000	9.565346
1899.000000	9.764838
1898.000000	9.981920
1897.000000	10.197783
1896.000000	10.421677
1895.000000	10.666213
1894.000000	10.899665
1893.000000	11.132304
1892.000000	11.368603
1891.000000	11.571959
1890.000000	11.783449
1889.000000	12.041914
1888.000000	12.274248
1887.000000	12.500583
1886.000000	12.721733
1885.000000	12.947051
1884.000000	13.145018
1883.000000	13.306482
1882.000000	13.491942
1881.000000	13.695705
1880.000000	13.889198
1879.000000	14.066117
1878.000000	14.216804
1877.000000	14.372371
1876.000000	14.532616
1875.000000	14.659815
1874.000000	14.788742
1873.000000	14.908010
1872.000000	14.996368
1871.000000	15.056358
1870.000000	15.098250
1869.000000	15.171051
1868.000000	15.239073
1867.000000	15.309434
1866.000000	15.385083
1865.000000	15.475983
1864.000000	15.578576
1863.000000	15.658393
1862.000000	15.714621
1861.000000	15.767697
1860.000000	15.809995
1859.000000	15.830534
1858.000000	15.847209
1857.000000	15.899166
1856.000000	15.944006
1855.000000	15.965562
1854.000000	15.982949
1853.000000	15.990880
1852.000000	16.026874
1851.000000	16.093879
1850.000000	16.180102
1849.000000	16.165257
1848.000000	16.074154
1847.000000	16.003081
1846.000000	15.987524
1845.000000	16.065206
1844.000000	16.160885
1843.000000	16.200133
1842.000000	16.173493
1841.000000	16.122959
1840.000000	16.089100
1839.000000	16.095608
1838.000000	16.086457
1837.000000	16.044972
1836.000000	15.993422
1835.000000	15.979288
1834.000000	15.995150
1833.000000	16.007555
1832.000000	16.012334
1831.000000	15.989863
1830.000000	15.980508
1829.000000	15.960275
1828.000000	15.929059
1827.000000	15.903538
1826.000000	15.875882
1825.000000	15.883406
1824.000000	15.945328
1823.000000	15.991185
1822.000000	15.975221
1821.000000	15.922247
1820.000000	15.882491
1819.000000	15.875882
1818.000000	15.887880
1817.000000	15.891337
1816.000000	15.895099
1815.000000	15.887677
1814.000000	15.872222
1813.000000	15.864596
1812.000000	15.860834
1811.000000	15.840295
1810.000000	15.824128
1809.000000	15.815689
1808.000000	15.828398
1807.000000	15.815994
1806.000000	15.796675
1805.000000	15.775628
1804.000000	15.763731
1803.000000	15.784372
1802.000000	15.759867
1801.000000	15.731906
1800.000000	15.714722
1799.000000	15.701403
1798.000000	15.694895
1797.000000	15.687066
1796.000000	15.675983
1795.000000	15.667951
1794.000000	15.651784
1793.000000	15.641514
1792.000000	15.636939
1791.000000	15.620060
1790.000000	15.614061
1789.000000	15.630940
1788.000000	15.625246
1787.000000	15.620365
1786.000000	15.607249
1785.000000	15.598200
1784.000000	15.591591
1783.000000	15.584880
1782.000000	15.590370
1781.000000	15.588134
1780.000000	15.580813
1779.000000	15.562307
1778.000000	15.554376
1777.000000	15.534753
1776.000000	15.516247
1775.000000	15.498962
1774.000000	15.471204
1773.000000	15.455851
1772.000000	15.439989
1771.000000	15.440396
1770.000000	15.411926
1769.000000	15.400640
1768.000000	15.385490
1767.000000	15.372475
1766.000000	15.348479
1765.000000	15.354478
1764.000000	15.360477
1763.000000	15.358342
1762.000000	15.353258
1761.000000	15.328143
1760.000000	15.338514
1759.000000	15.355800
1758.000000	15.349292
1757.000000	15.319297
1756.000000	15.326720
1755.000000	15.327126
1754.000000	15.333125
1753.000000	15.332312
1752.000000	15.334549
1751.000000	15.343395
1750.000000	15.348377
1749.000000	15.320416
1748.000000	15.314010
1747.000000	15.300385
1746.000000	15.269577
1745.000000	15.264595
1744.000000	15.237650
1743.000000	15.204706
1742.000000	15.197792
1741.000000	15.173898
1740.000000	15.144310
1739.000000	15.117873
1738.000000	15.111163
1737.000000	15.081676
1736.000000	15.075677
1735.000000	15.058087
1734.000000	15.044869
1733.000000	15.049648
1732.000000	15.018839
1731.000000	14.997385
1730.000000	14.993928
1729.000000	14.972677
1728.000000	14.966475
1727.000000	14.934040
1726.000000	14.947868
1725.000000	14.953969
1724.000000	14.976846
1723.000000	14.979083
1722.000000	15.014467
1721.000000	15.070186
1720.000000	15.154884
1719.000000	15.210909
1718.000000	15.328855
1717.000000	15.382846
1716.000000	15.458799
1715.000000	15.535159
1714.000000	15.607147
1713.000000	15.672831
1712.000000	15.740447
1711.000000	15.778881
1710.000000	15.822908
1709.000000	15.884830
1708.000000	15.925806
1707.000000	15.951327
1706.000000	15.978272
1705.000000	15.986202
1704.000000	16.017824
1703.000000	15.999624
1702.000000	16.014774
1701.000000	16.042837
1700.000000	16.020468
1699.000000	16.033788
1698.000000	16.031144
1697.000000	16.006741
1696.000000	16.015994
1695.000000	15.992405
1694.000000	15.949090
1693.000000	15.941464
1692.000000	15.902013
1691.000000	15.882288
1690.000000	15.853614
1689.000000	15.875984
1688.000000	15.870290
1687.000000	15.914825
1686.000000	15.957224
1685.000000	16.007555
1684.000000	16.098048
1683.000000	16.152242
1682.000000	16.230433
1681.000000	16.305471
1680.000000	16.370850
1679.000000	16.458700
1678.000000	16.516453
1677.000000	16.584983
1676.000000	16.646499
1675.000000	16.692660
1674.000000	16.764242
1673.000000	16.818639
1672.000000	16.871613
1671.000000	16.945126
1670.000000	16.996982
1669.000000	17.056870
1668.000000	17.128553
1667.000000	17.249347
1666.000000	17.293373
1665.000000	17.323877
1664.000000	17.376444
1663.000000	17.442026
1662.000000	17.452499
1661.000000	17.490628
1660.000000	17.513709
1659.000000	17.544111
1658.000000	17.591188
1657.000000	17.603389
1656.000000	17.626165
1655.000000	17.641823
1654.000000	17.648026
1653.000000	17.647721
1652.000000	17.667649
1651.000000	17.669683
1650.000000	17.645687
1649.000000	17.633791
1648.000000	17.642942
1647.000000	17.647212
1646.000000	17.627385
1645.000000	17.606643
1644.000000	17.607049
1643.000000	17.605728
1642.000000	17.605728
1641.000000	17.581122
1640.000000	17.589358
1639.000000	17.570649
1638.000000	17.569022
1637.000000	17.559973
1636.000000	17.548178
1635.000000	17.535773
1634.000000	17.528452
1633.000000	17.530181
1632.000000	17.515946
1631.000000	17.494187
1630.000000	17.485239
1629.000000	17.460125
1628.000000	17.445890
1627.000000	17.423826
1626.000000	17.422911
1625.000000	17.421386
1624.000000	17.390069
1623.000000	17.365870
1622.000000	17.367496
1621.000000	17.346754
1620.000000	17.332214
1619.000000	17.326419
1618.000000	17.312590
1617.000000	17.301406
1616.000000	17.293780
1615.000000	17.272529
1614.000000	17.250872
1613.000000	17.227689
1612.000000	17.228401
1611.000000	17.209896
1610.000000	17.198813
1609.000000	17.161904
1608.000000	17.124283
1607.000000	17.108014
1606.000000	17.091136
1605.000000	17.059921
1604.000000	17.033891
1603.000000	17.012742
1602.000000	16.988543
1601.000000	16.966174
1600.000000	16.941568
1599.000000	16.909031
1598.000000	16.873749
1597.000000	16.838365
1596.000000	16.821690
1595.000000	16.808166
1594.000000	16.783052
1593.000000	16.743601
1592.000000	16.704658
1591.000000	16.693067
1590.000000	16.693474
1589.000000	16.671918
1588.000000	16.636127
1587.000000	16.600032
1586.000000	16.590271
1585.000000	16.563529
1584.000000	16.550311
1583.000000	16.545837
1582.000000	16.515741
1581.000000	16.503946
1580.000000	16.480357
1579.000000	16.460428
1578.000000	16.456259
1577.000000	16.434805
1576.000000	16.411521
1575.000000	16.398100
1574.000000	16.385288
1573.000000	16.387118
1572.000000	16.393931
1571.000000	16.405115
1570.000000	16.402472
1569.000000	16.379391
1568.000000	16.371562
1567.000000	16.375730
1566.000000	16.370240
1565.000000	16.365664
1564.000000	16.374917
1563.000000	16.369223
1562.000000	16.350006
1561.000000	16.345735
1560.000000	16.335974
1559.000000	16.316249
1558.000000	16.295608
1557.000000	16.283102
1556.000000	16.258902
1555.000000	16.222095
1554.000000	16.190473
1553.000000	16.160580
1552.000000	16.133534
1551.000000	16.096116
1550.000000	16.057174
1549.000000	16.025247
1548.000000	15.995353
1547.000000	15.965460
1546.000000	15.945735
1545.000000	15.903742
1544.000000	15.875272
1543.000000	15.858800
1542.000000	15.848734
1541.000000	15.842837
1540.000000	15.821891
1539.000000	15.796472
1538.000000	15.777356
1537.000000	15.753462
1536.000000	15.747869
1535.000000	15.741159
1534.000000	15.717061
1533.000000	15.694387
1532.000000	15.662053
1531.000000	15.622297
1530.000000	15.608164
1529.000000	15.599826
1528.000000	15.573594
1527.000000	15.553868
1526.000000	15.523670
1525.000000	15.491743
1524.000000	15.470797
1523.000000	15.450767
1522.000000	15.429414
1521.000000	15.397182
1520.000000	15.378575
1519.000000	15.352444
1518.000000	15.313807
1517.000000	15.288997
1516.000000	15.267136
1515.000000	15.226262
1514.000000	15.204503
1513.000000	15.197385
1512.000000	15.145530
1511.000000	15.116653
1510.000000	15.094792
1509.000000	15.062866
1508.000000	15.037141
1507.000000	15.000842
1506.000000	14.957324
1505.000000	14.937904
1504.000000	14.922143
1503.000000	14.882082
1502.000000	14.860628
1501.000000	14.837039
1500.000000	14.810603
1499.000000	14.796876
1498.000000	14.782845
1497.000000	14.767695
1496.000000	14.758544
1495.000000	14.753562
1494.000000	14.737598
1493.000000	14.715229
1492.000000	14.722448
1491.000000	14.713805
1490.000000	14.711365
1489.000000	14.718889
1488.000000	14.700689
1487.000000	14.678218
1486.000000	14.683607
1485.000000	14.668661
1484.000000	14.666119
1483.000000	14.667542
1482.000000	14.654731
1481.000000	14.655239
1480.000000	14.661746
1479.000000	14.657578
1478.000000	14.667949
1477.000000	14.642428
1476.000000	14.643851
1475.000000	14.661746
1474.000000	14.652900
1473.000000	14.680455
1472.000000	14.674253
1471.000000	14.674151
1470.000000	14.685641
1469.000000	14.701197
1468.000000	14.722956
1467.000000	14.733938
1466.000000	14.747258
1465.000000	14.768407
1464.000000	14.784370
1463.000000	14.795860
1462.000000	14.808061
1461.000000	14.850867
1460.000000	14.867136
1459.000000	14.885133
1458.000000	14.918890
1457.000000	14.929973
1456.000000	14.950003
1455.000000	14.972677
1454.000000	14.999825
1453.000000	15.031956
1452.000000	15.072423
1451.000000	15.087675
1450.000000	15.101097
1449.000000	15.121025
1448.000000	15.165052
1447.000000	15.218331
1446.000000	15.225449
1445.000000	15.250665
1444.000000	15.287472
1443.000000	15.311366
1442.000000	15.355291
1441.000000	15.400131
1440.000000	15.428093
1439.000000	15.468052
1438.000000	15.524280
1437.000000	15.556308
1436.000000	15.600538
1435.000000	15.652496
1434.000000	15.687269
1433.000000	15.783863
1432.000000	15.821383
1431.000000	15.864189
1430.000000	15.945023
1429.000000	16.008368
1428.000000	16.077204
1427.000000	16.142075
1426.000000	16.227281
1425.000000	16.297845
1424.000000	16.399523
1423.000000	16.464597
1422.000000	16.547159
1421.000000	16.683103
1420.000000	16.781933
1419.000000	16.858904
1418.000000	16.950719
1417.000000	17.059616
1416.000000	17.197796
1415.000000	17.329469
1414.000000	17.403389
1413.000000	17.493780
1412.000000	17.660735
1411.000000	17.807152
1410.000000	17.964142
1409.000000	18.081377
1408.000000	18.195663
1407.000000	18.331708
1406.000000	18.455043
1405.000000	18.562516
1404.000000	18.660636
1403.000000	18.822100
1402.000000	18.989259
1401.000000	19.112187
1400.000000	19.135471
1399.000000	19.213357
1398.000000	19.365263
1397.000000	19.491547
1396.000000	19.565569
1395.000000	19.593733
1394.000000	19.684837
1393.000000	19.745742
1392.000000	19.783871
1391.000000	19.842438
1390.000000	19.924492
1389.000000	20.041726
1388.000000	20.060537
1387.000000	20.135066
1386.000000	20.229220
1385.000000	20.352555
1384.000000	20.448336
1383.000000	20.564452
1382.000000	20.675993
1381.000000	20.807361
1380.000000	21.001159
1379.000000	21.201159
1378.000000	21.439899
1377.000000	21.713209
1376.000000	21.987231
1375.000000	22.224547
1374.000000	22.477216
1373.000000	22.725615
1372.000000	22.912093
1371.000000	23.052001
1370.000000	23.203603
1369.000000	23.319618
1368.000000	23.406145
1367.000000	23.503756
1366.000000	23.576354
1365.000000	23.620177
1364.000000	23.695012
1363.000000	23.786319
1362.000000	23.794250
1361.000000	23.789064
1360.000000	23.820991
1359.000000	23.888607
1358.000000	23.934972
1357.000000	23.982049
1356.000000	24.042141
1355.000000	24.095420
1354.000000	24.129584
1353.000000	24.177677
1352.000000	24.251902
1351.000000	24.336701
1350.000000	24.427093
1349.000000	24.523687
1348.000000	24.593743
1347.000000	24.653835
1346.000000	24.731923
1345.000000	24.820485
1344.000000	24.899692
1343.000000	24.963037
1342.000000	25.030551
1341.000000	25.100201
1340.000000	25.175747
1339.000000	25.247125
1338.000000	25.317995
1337.000000	25.376968
1336.000000	25.432992
1335.000000	25.484441
1334.000000	25.557243
1333.000000	25.622418
1332.000000	25.670512
1331.000000	25.713521
1330.000000	25.768733
1329.000000	25.806455
1328.000000	25.850482
1327.000000	25.897355
1326.000000	25.958769
1325.000000	26.008489
1324.000000	26.048957
1323.000000	26.079562
1322.000000	26.101423
1321.000000	26.146974
1320.000000	26.180325
1319.000000	26.200457
1318.000000	26.231875
1317.000000	26.268581
1316.000000	26.316370
1315.000000	26.337925
1314.000000	26.346365
1313.000000	26.374834
1312.000000	26.408693
1311.000000	26.434824
1310.000000	26.453838
1309.000000	26.466548
1308.000000	26.462786
1307.000000	26.470310
1306.000000	26.490137
1305.000000	26.502338
1304.000000	26.503457
1303.000000	26.517387
1302.000000	26.534875
1301.000000	26.539044
1300.000000	26.528571
1299.000000	26.518912
1298.000000	26.526131
1297.000000	26.529791
1296.000000	26.531215
1295.000000	26.532232
1294.000000	26.534367
1293.000000	26.523081
1292.000000	26.510879
1291.000000	26.514133
1290.000000	26.501830
1289.000000	26.497763
1288.000000	26.503050
1287.000000	26.497356
1286.000000	26.492374
1285.000000	26.481291
1284.000000	26.490035
1283.000000	26.487392
1282.000000	26.467361
1281.000000	26.456787
1280.000000	26.456583
1279.000000	26.467463
1278.000000	26.459329
1277.000000	26.448246
1276.000000	26.452313
1275.000000	26.478139
1274.000000	26.497763
1273.000000	26.501118
1272.000000	26.505389
1271.000000	26.508744
1270.000000	26.513320
1269.000000	26.519929
1268.000000	26.507524
1267.000000	26.496746
1266.000000	26.505490
1265.000000	26.503762
1264.000000	26.500407
1263.000000	26.498780
1262.000000	26.464108
1261.000000	26.463498
1260.000000	26.475801
1259.000000	26.445806
1258.000000	26.422521
1257.000000	26.430656
1256.000000	26.413167
1255.000000	26.383782
1254.000000	26.369344
1253.000000	26.362226
1252.000000	26.359583
1251.000000	26.335587
1250.000000	26.311997
1249.000000	26.291459
1248.000000	26.283731
1247.000000	26.263395
1246.000000	26.248347
1245.000000	26.229638
1244.000000	26.207371
1243.000000	26.196186
1242.000000	26.188866
1241.000000	26.181850
1240.000000	26.178901
1239.000000	26.181748
1238.000000	26.174936
1237.000000	26.174834
1236.000000	26.188866
1235.000000	26.194254
1234.000000	26.197203
1233.000000	26.202795
1232.000000	26.206252
1231.000000	26.195881
1230.000000	26.194763
1229.000000	26.197813
1228.000000	26.196390
1227.000000	26.187035
1226.000000	26.164463
1225.000000	26.147788
1224.000000	26.150025
1223.000000	26.139450
1222.000000	26.133553
1221.000000	26.121860
1220.000000	26.094000
1219.000000	26.094102
1218.000000	26.068886
1217.000000	26.043771
1216.000000	26.039094
1215.000000	26.001778
1214.000000	25.979307
1213.000000	25.953278
1212.000000	25.926842
1211.000000	25.909150
1210.000000	25.868275
1209.000000	25.844889
1208.000000	25.828417
1207.000000	25.799948
1206.000000	25.771376
1205.000000	25.750431
1204.000000	25.720842
1203.000000	25.694406
1202.000000	25.682103
1201.000000	25.659327
1200.000000	25.639297
1199.000000	25.599032
1198.000000	25.592830
1197.000000	25.561513
1196.000000	25.544024
1195.000000	25.534467
1194.000000	25.497354
1193.000000	25.493084
1192.000000	25.465936
1191.000000	25.441737
1190.000000	25.431569
1189.000000	25.431365
1188.000000	25.418554
1187.000000	25.416520
1186.000000	25.452718
1185.000000	25.453633
1184.000000	25.455260
1183.000000	25.466241
1182.000000	25.488102
1181.000000	25.525519
1180.000000	25.535077
1179.000000	25.555107
1178.000000	25.608285
1177.000000	25.637466
1176.000000	25.645499
1175.000000	25.697558
1174.000000	25.736501
1173.000000	25.774630
1172.000000	25.808692
1171.000000	25.839500
1170.000000	25.902744
1169.000000	25.959074
1168.000000	26.005845
1167.000000	26.060751
1166.000000	26.125317
1165.000000	26.189069
1164.000000	26.232587
1163.000000	26.334672
1162.000000	26.370767
1161.000000	26.451703
1160.000000	26.515150
1159.000000	26.538129
1158.000000	26.616523
1157.000000	26.672751
1156.000000	26.698272
1155.000000	26.757448
1154.000000	26.809304
1153.000000	26.801881
1152.000000	26.853229
1151.000000	26.887698
1150.000000	26.925623
1149.000000	26.969243
1148.000000	27.007983
1147.000000	27.015913
1146.000000	27.055364
1145.000000	27.086681
1144.000000	27.084749
1143.000000	27.139554
1142.000000	27.178293
1141.000000	27.222828
1140.000000	27.260957
1139.000000	27.291257
1138.000000	27.346773
1137.000000	27.422727
1136.000000	27.487495
1135.000000	27.529387
1134.000000	27.544435
1133.000000	27.557551
1132.000000	27.615101
1131.000000	27.654959
1130.000000	27.692478
1129.000000	27.722270
1128.000000	27.766296
1127.000000	27.800765
1126.000000	27.797816
1125.000000	27.826896
1124.000000	27.823439
1123.000000	27.847740
1122.000000	27.856281
1121.000000	27.857094
1120.000000	27.852722
1119.000000	27.858620
1118.000000	27.853841
1117.000000	27.855061
1116.000000	27.838792
1115.000000	27.846215
1114.000000	27.854044
1113.000000	27.863704
1112.000000	27.864009
1111.000000	27.852316
1110.000000	27.868381
1109.000000	27.857705
1108.000000	27.859535
1107.000000	27.860247
1106.000000	27.864517
1105.000000	27.852112
1104.000000	27.853231
1103.000000	27.861975
1102.000000	27.859941
1101.000000	27.856179
1100.000000	27.855874
1099.000000	27.838894
1098.000000	27.826693
1097.000000	27.834522
1096.000000	27.847333
1095.000000	27.829743
1094.000000	27.833404
1093.000000	27.841029
1092.000000	27.830658
1091.000000	27.814593
1090.000000	27.814390
1089.000000	27.816728
1088.000000	27.811848
1087.000000	27.814796
1086.000000	27.797918
1085.000000	27.775345
1084.000000	27.774430
1083.000000	27.781751
1082.000000	27.771380
1081.000000	27.774939
1080.000000	27.777379
1079.000000	27.774735
1078.000000	27.759179
1077.000000	27.747181
1076.000000	27.750231
1075.000000	27.754196
1074.000000	27.740267
1073.000000	27.738030
1072.000000	27.729184
1071.000000	27.718203
1070.000000	27.718406
1069.000000	27.709560
1068.000000	27.697664
1067.000000	27.698477
1066.000000	27.697969
1065.000000	27.681497
1064.000000	27.671532
1063.000000	27.662280
1062.000000	27.662991
1061.000000	27.677125
1060.000000	27.677023
1059.000000	27.677328
1058.000000	27.667465
1057.000000	27.666448
1056.000000	27.663601
1055.000000	27.652315
1054.000000	27.645401
1053.000000	27.640114
1052.000000	27.631166
1051.000000	27.624456
1050.000000	27.612966
1049.000000	27.606865
1048.000000	27.613271
1047.000000	27.610221
1046.000000	27.601680
1045.000000	27.597308
1044.000000	27.617846
1043.000000	27.610831
1042.000000	27.602696
1041.000000	27.608594
1040.000000	27.602798
1039.000000	27.598833
1038.000000	27.601375
1037.000000	27.604730
1036.000000	27.610627
1035.000000	27.612458
1034.000000	27.618151
1033.000000	27.614186
1032.000000	27.591410
1031.000000	27.589783
1030.000000	27.604120
1029.000000	27.600561
1028.000000	27.581344
1027.000000	27.579311
1026.000000	27.576972
1025.000000	27.578090
1024.000000	27.588563
1023.000000	27.596494
1022.000000	27.589173
1021.000000	27.588157
1020.000000	27.587445
1019.000000	27.593037
1018.000000	27.605848
1017.000000	27.615101
1016.000000	27.620388
1015.000000	27.598934
1014.000000	27.597104
1013.000000	27.610831
1012.000000	27.619168
1011.000000	27.620998
1010.000000	27.620185
1009.000000	27.623845
1008.000000	27.631776
1007.000000	27.647943
1006.000000	27.645706
1005.000000	27.646215
1004.000000	27.663398
1003.000000	27.679362
1002.000000	27.667059
1001.000000	27.651197
1000.000000	27.647435
999.000000	27.642961
998.000000	27.653840
997.000000	27.663907
996.000000	27.673058
995.000000	27.665330
994.000000	27.667262
993.000000	27.653129
992.000000	27.654349
991.000000	27.658009
990.000000	27.652620
989.000000	27.663195
988.000000	27.655264
987.000000	27.663805
986.000000	27.677023
985.000000	27.673363
984.000000	27.691665
983.000000	27.682717
982.000000	27.678446
981.000000	27.676515
980.000000	27.671736
979.000000	27.684750
978.000000	27.688208
977.000000	27.680277
976.000000	27.692275
975.000000	27.710272
974.000000	27.718508
973.000000	27.714847
972.000000	27.713322
971.000000	27.723591
970.000000	27.730200
969.000000	27.732844
968.000000	27.724507
967.000000	27.739758
966.000000	27.756637
965.000000	27.751248
964.000000	27.762229
963.000000	27.763653
962.000000	27.772193
961.000000	27.774227
960.000000	27.785310
959.000000	27.792021
958.000000	27.803714
957.000000	27.815000
956.000000	27.820389
955.000000	27.837267
954.000000	27.848554
953.000000	27.848045
952.000000	27.850587
951.000000	27.879769
950.000000	27.875600
949.000000	27.883124
948.000000	27.885158
947.000000	27.878243
946.000000	27.884548
945.000000	27.900003
944.000000	27.890953
943.000000	27.893902
942.000000	27.947893
941.000000	27.934980
940.000000	27.937725
939.000000	27.939962
938.000000	27.981243
937.000000	27.950130
936.000000	27.954400
935.000000	27.955722
934.000000	27.939149
933.000000	27.963856
932.000000	27.960908
931.000000	27.960908
930.000000	27.963348
929.000000	27.980531
928.000000	27.965076
927.000000	27.995071
926.000000	28.009103
925.000000	28.022016
924.000000	28.066856
923.000000	28.070211
922.000000	28.079972
921.000000	28.085768
920.000000	28.127761
919.000000	28.145961
918.000000	28.199444
917.000000	28.221813
916.000000	28.234014
915.000000	28.258214
914.000000	28.306206
913.000000	28.327050
912.000000	28.338844
911.000000	28.368127
910.000000	28.393547
909.000000	28.420593
908.000000	28.460044
907.000000	28.497157
906.000000	28.524203
905.000000	28.533354
904.000000	28.571077
903.000000	28.610019
902.000000	28.643064
901.000000	28.668281
900.000000	28.719221
899.000000	28.722577
898.000000	28.736506
897.000000	28.789277
896.000000	28.804529
895.000000	28.834219
894.000000	28.833100
893.000000	28.866552
892.000000	28.896039
891.000000	28.879567
890.000000	28.902750
889.000000	28.907834
888.000000	28.925526
887.000000	28.913833
886.000000	28.909562
885.000000	28.847844
884.000000	28.836863
883.000000	28.757960
882.000000	28.751148
881.000000	28.725932
880.000000	28.700106
879.000000	28.685973
878.000000	28.595784
877.000000	28.520644
876.000000	28.440420
875.000000	28.369246
874.000000	28.275092
873.000000	28.216729
872.000000	28.133760
871.000000	28.066856
870.000000	28.000257
869.000000	27.957959
868.000000	27.885971
867.000000	27.834624
866.000000	27.692681
865.000000	27.560398
864.000000	27.434216
863.000000	27.344028
862.000000	27.207068
861.000000	27.172294
860.000000	27.232894
859.000000	27.299493
858.000000	27.514033
857.000000	27.799100
856.000000	27.388300
855.000000	27.354700
854.000000	27.577000
853.000000	27.822300
852.000000	27.955700
851.000000	27.940200
850.000000	28.239100
849.000000	28.340700
848.000000	28.678100
847.000000	28.701700
846.000000	28.576100
845.000000	28.747000
844.000000	28.948500
843.000000	28.889600
842.000000	29.192300
841.000000	29.468200
840.000000	29.642700
839.000000	29.772100
838.000000	29.983400
837.000000	30.029000
836.000000	30.252000
835.000000	30.514100
834.000000	30.650400
833.000000	30.785200
832.000000	30.902000
831.000000	31.215900
830.000000	31.405200
829.000000	31.592300
828.000000	31.869200
827.000000	32.119500
826.000000	32.304900
825.000000	32.481300
824.000000	32.617600
823.000000	32.857600
822.000000	33.047000
821.000000	33.196700
820.000000	33.505300
819.000000	33.714900
818.000000	33.832400
817.000000	34.030200
816.000000	34.175900
815.000000	34.341900
814.000000	34.510900
813.000000	34.588400
812.000000	34.755700
811.000000	34.889900
810.000000	35.005300
809.000000	35.094000
808.000000	35.226600
807.000000	35.267800
806.000000	35.358200
805.000000	35.409600
804.000000	35.504900
803.000000	35.539300
802.000000	35.633700
801.000000	35.740700
800.000000	35.829900
799.000000	35.837400
798.000000	35.865300
797.000000	35.880000
796.000000	35.932200
795.000000	35.962900
794.000000	35.948900
793.000000	36.063000
792.000000	36.160200
791.000000	36.171100
790.000000	36.116400
789.000000	36.101300
788.000000	36.179600
787.000000	36.243900
786.000000	36.312900
785.000000	36.338200
784.000000	36.314800
783.000000	36.298400
782.000000	36.239600
781.000000	36.259100
780.000000	36.297000
779.000000	36.302700
778.000000	36.336200
777.000000	36.362700
776.000000	36.322900
775.000000	36.349400
774.000000	36.394500
773.000000	36.419700
772.000000	36.404400
771.000000	36.398800
770.000000	36.392000
769.000000	36.368100
768.000000	36.393100
767.000000	36.425100
766.000000	36.423000
765.000000	36.356100
764.000000	36.338500
763.000000	36.322100
762.000000	36.277700
761.000000	36.201300
760.000000	36.132200
759.000000	36.080200
758.000000	36.017100
757.000000	35.902500
756.000000	35.848200
755.000000	35.773000
754.000000	35.725700
753.000000	35.700100
752.000000	35.628100
751.000000	35.590500
750.000000	35.514000
749.000000	35.393100
748.000000	35.297300
747.000000	35.215900
746.000000	35.178400
745.000000	35.109200
744.000000	35.041800
743.000000	34.942800
742.000000	34.838400
741.000000	34.811300
740.000000	34.776900
739.000000	34.665300
738.000000	34.565400
737.000000	34.491000
736.000000	34.399000
735.000000	34.278800
734.000000	34.157900
733.000000	34.030800
732.000000	33.907200
731.000000	33.780900
730.000000	33.645600
729.000000	33.534100
728.000000	33.382200
727.000000	33.246500
726.000000	33.140300
725.000000	32.994400
724.000000	32.842300
723.000000	32.734200
722.000000	32.642300
721.000000	32.507900
720.000000	32.344700
719.000000	32.184700
718.000000	32.107200
717.000000	31.986500
716.000000	31.855500
715.000000	31.713000
714.000000	31.632800
713.000000	31.520000
712.000000	31.373000
711.000000	31.224200
710.000000	31.086000
709.000000	30.946800
708.000000	30.780300
707.000000	30.567100
706.000000	30.380700
705.000000	30.204600
704.000000	30.023600
703.000000	29.877300
702.000000	29.689100
701.000000	29.476700
700.000000	29.310100
699.000000	29.188300
698.000000	29.049900
697.000000	28.853700
696.000000	28.726500
695.000000	28.640500
694.000000	28.536500
693.000000	28.406800
692.000000	28.229700
691.000000	28.102600
690.000000	27.984400
689.000000	27.804000
688.000000	27.652000
687.000000	27.469300
686.000000	27.267400
685.000000	27.089700
684.000000	26.907900
683.000000	26.659300
682.000000	26.377000
681.000000	26.094700
680.000000	25.797000
679.000000	25.492600
678.000000	25.168200
677.000000	24.894800
676.000000	24.624700
675.000000	24.318100
674.000000	24.073400
673.000000	23.834900
672.000000	23.592200
671.000000	23.366500
670.000000	23.204400
669.000000	23.035600
668.000000	22.932800
667.000000	22.827400
666.000000	22.759400
665.000000	22.686600
664.000000	22.644600
663.000000	22.614100
662.000000	22.590300
661.000000	22.544000
660.000000	22.530300
659.000000	22.476000
658.000000	22.471800
657.000000	22.436400
656.000000	22.397200
655.000000	22.374200
654.000000	22.366800
653.000000	22.326800
652.000000	22.265300
651.000000	22.240100
650.000000	22.223200
649.000000	22.203100
648.000000	22.170800
647.000000	22.172700
646.000000	22.184300
645.000000	22.187800
644.000000	22.185300
643.000000	22.182400
642.000000	22.152800
641.000000	22.109700
640.000000	22.070100
639.000000	21.971900
638.000000	21.873000
637.000000	21.764600
636.000000	21.638900
635.000000	21.507600
634.000000	21.367400
633.000000	21.219600
632.000000	21.037800
631.000000	20.893200
630.000000	20.752700
629.000000	20.621400
628.000000	20.514300
627.000000	20.433200
626.000000	20.342700
625.000000	20.334100
624.000000	20.359000
623.000000	20.426800
622.000000	20.520500
621.000000	20.668100
620.000000	20.853200
619.000000	21.022200
618.000000	21.202300
617.000000	21.420200
616.000000	21.639300
615.000000	21.870600
614.000000	22.119000
613.000000	22.370900
612.000000	22.588700
611.000000	22.841000
610.000000	23.078400
609.000000	23.355500
608.000000	23.623300
607.000000	23.888500
606.000000	24.181300
605.000000	24.483200
604.000000	24.813000
603.000000	25.110100
602.000000	25.441500
601.000000	25.759100
600.000000	26.067100
599.000000	26.355700
598.000000	26.637500
597.000000	26.881000
596.000000	27.101200
595.000000	27.342900
594.000000	27.543100
593.000000	27.742800
592.000000	27.946800
591.000000	28.125900
590.000000	28.237600
589.000000	28.366400
588.000000	28.473300
587.000000	28.552100
586.000000	28.615600
585.000000	28.680500
584.000000	28.701600
583.000000	28.715700
582.000000	28.797300
581.000000	28.808500
580.000000	28.805900
579.000000	28.827400
578.000000	28.824600
577.000000	28.789300
576.000000	28.754900
575.000000	28.732700
574.000000	28.683200
573.000000	28.631900
572.000000	28.596700
571.000000	28.593800
570.000000	28.541800
569.000000	28.501100
568.000000	28.465100
567.000000	28.404600
566.000000	28.320400
565.000000	28.238600
564.000000	28.128200
563.000000	28.060200
562.000000	27.963900
561.000000	27.861700
560.000000	27.849800
559.000000	28.493800
558.000000	28.393700
557.000000	28.260500
556.000000	28.123900
555.000000	27.962900
554.000000	27.787700
553.000000	27.638900
552.000000	27.481300
551.000000	27.310400
550.000000	27.143100
549.000000	26.964000
548.000000	26.760000
547.000000	26.551000
546.000000	26.317500
545.000000	26.081100
544.000000	25.828100
543.000000	25.550500
542.000000	25.262000
541.000000	24.959600
540.000000	24.647200
539.000000	24.284200
538.000000	23.911700
537.000000	23.508600
536.000000	23.076600
535.000000	22.651000
534.000000	22.177600
533.000000	21.689100
532.000000	21.198300
531.000000	20.699200
530.000000	20.190500
529.000000	19.680900
528.000000	19.197600
527.000000	18.721500
526.000000	18.263400
525.000000	17.830200
524.000000	17.427700
523.000000	17.019300
522.000000	16.639300
521.000000	16.316100
520.000000	16.014700
519.000000	15.754800
518.000000	15.529400
517.000000	15.320100
516.000000	15.126400
515.000000	14.955500
514.000000	14.813000
513.000000	14.683600
512.000000	14.549600
511.000000	14.417900
510.000000	14.306700
509.000000	14.203500
508.000000	14.093600
507.000000	13.977900
506.000000	13.892700
505.000000	13.795900
504.000000	13.698600
503.000000	13.604800
502.000000	13.488200
501.000000	13.395500
500.000000	13.305600
499.000000	13.193200
498.000000	13.109000
497.000000	13.036700
496.000000	12.953500
495.000000	12.869200
494.000000	12.780900
493.000000	12.694500
492.000000	12.619700
491.000000	12.540700
490.000000	12.450400
489.000000	12.361400
488.000000	12.280400
487.000000	12.200800
486.000000	12.110400
485.000000	12.034000
484.000000	11.956300
483.000000	11.870100
482.000000	11.801300
481.000000	11.745300
480.000000	11.694600
479.000000	11.645200
478.000000	11.581000
477.000000	11.513500
476.000000	11.438800
475.000000	11.364500
474.000000	11.296700
473.000000	11.222900
472.000000	11.141900
471.000000	11.053800
470.000000	10.962600
469.000000	10.870700
468.000000	10.764100
467.000000	10.649600
466.000000	10.535500
465.000000	10.421400
464.000000	10.293600
463.000000	10.153800
462.000000	10.015100
461.000000	9.869900
460.000000	9.724200
459.000000	9.581400
458.000000	9.430100
457.000000	9.270800
456.000000	9.091000
455.000000	8.914600
454.000000	8.744600
453.000000	8.555300
452.000000	8.362100
451.000000	8.176100
450.000000	7.978600
449.000000	7.765800
448.000000	7.565000
447.000000	7.362200
446.000000	7.153700
445.000000	6.942200
444.000000	6.726700
443.000000	6.510900
442.000000	6.307500
441.000000	6.111700
440.000000	5.915200
439.000000	5.720200
438.000000	5.521400
437.000000	5.340200
436.000000	5.167100
435.000000	4.992200
434.000000	4.834800
433.000000	4.674300
432.000000	4.527700
431.000000	4.388800
430.000000	4.256300
429.000000	4.137300
428.000000	4.032600
427.000000	3.929800
426.000000	3.832700
425.000000	3.745000
424.000000	3.666200
423.000000	3.590000
422.000000	3.521000
421.000000	3.465100
420.000000	3.410900
419.000000	3.358100
418.000000	3.317100
417.000000	3.278800
416.000000	3.236000
415.000000	3.202500
414.000000	3.165000
413.000000	3.141600
412.000000	3.122600
411.000000	3.095300
410.000000	3.075000
409.000000	3.054000
408.000000	3.041000
407.000000	3.020300
406.000000	2.995300
405.000000	2.987700
404.000000	2.973500
403.000000	2.950800
402.000000	2.943000
401.000000	2.938200
400.000000	2.919000
399.000000	2.912000
398.000000	2.908100
397.000000	2.907800
396.000000	2.895900
395.000000	2.880400
394.000000	2.872400
393.000000	2.862500
392.000000	2.861800
391.000000	2.846100
390.000000	2.821400
389.000000	2.812300
388.000000	2.805000
387.000000	2.796600
386.000000	2.783800
385.000000	2.777200
384.000000	2.769100
383.000000	2.751000
382.000000	2.726700
381.000000	2.727600
380.000000	2.718300
379.000000	2.700200
378.000000	2.702200
377.000000	2.697900
376.000000	2.932400
375.000000	2.836500
374.000000	2.734600
373.000000	2.767000
372.000000	2.870700
371.000000	2.992900
370.000000	2.979200
369.000000	2.879000
368.000000	2.977100
367.000000	2.982700
366.000000	2.871200
365.000000	2.911000
364.000000	2.956800
363.000000	2.904600
362.000000	2.985600
361.000000	2.988900
360.000000	2.954400
359.000000	3.020300
358.000000	2.988400
357.000000	2.997800
356.000000	2.952600
355.000000	3.017800
354.000000	2.982800
353.000000	2.994500
352.000000	2.969800
351.000000	2.988100
350.000000	2.985500
349.000000	2.947700
348.000000	2.915000
347.000000	2.954500
346.000000	2.979600
345.000000	3.007000
344.000000	2.898600
343.000000	2.819800
342.000000	2.850000
341.000000	2.952100
340.000000	2.998500
339.000000	3.035600
338.000000	2.876900
337.000000	2.904000
336.000000	2.811800
335.000000	2.977300
334.000000	3.111300
333.000000	3.017100
332.000000	2.947500
331.000000	2.819800
330.000000	2.978300
329.000000	3.060500
328.000000	2.991100
327.000000	3.175300
326.000000	3.299600
325.000000	2.917600
324.000000	3.032900
323.000000	3.139500
322.000000	3.292200
321.000000	3.124000
320.000000	3.386300
319.000000	3.313300
318.000000	3.308000
317.000000	2.991800
316.000000	2.744100
315.000000	2.762000
314.000000	2.780900
313.000000	2.770700
312.000000	2.776400
311.000000	2.729500
310.000000	2.744700
309.000000	2.761200
308.000000	2.767900
307.000000	2.679800
306.000000	2.710600
305.000000	2.687500
304.000000	2.733000
303.000000	2.757100
302.000000	2.724000
301.000000	2.715500
300.000000	2.775600
299.000000	2.771700
298.000000	2.779200
297.000000	2.755800
296.000000	2.755000
295.000000	2.716500
294.000000	2.818200
293.000000	2.766100
292.000000	2.790100
291.000000	2.760900
290.000000	2.761000
289.000000	2.756100
288.000000	2.780200
287.000000	2.773600
286.000000	2.809200
285.000000	2.765300
284.000000	2.771700
283.000000	2.780900
282.000000	2.738100
281.000000	2.810500
280.000000	2.828200
279.000000	2.804800
278.000000	2.789300
277.000000	2.712400
276.000000	2.771700
275.000000	2.789900
274.000000	2.812200
273.000000	2.822600
272.000000	2.819400
271.000000	2.823900
270.000000	2.842700
269.000000	2.800200
268.000000	2.859900
267.000000	2.841100
266.000000	2.877600
265.000000	2.873500
264.000000	2.890700
263.000000	2.905600
262.000000	2.893900
261.000000	2.918600
260.000000	2.956600
259.000000	2.986000
258.000000	2.947500
257.000000	2.949300
256.000000	2.961300
255.000000	2.988500
254.000000	2.950500
253.000000	2.945600
252.000000	2.985400
251.000000	2.958200
250.000000	2.969300
