PE UV       SUBTECH     SPECTRUM    ASCII       PEDS        4.00        
   -1
CICIMAUCR0012-1.Sample.ASC
24/03/08
11:02:51.00
24/03/08
11:02:51.00
Vinicio Soto Monge
C. cupreomarginata
250,000000
1
Lambda 1050
1050L1511233
PerkinElmer UV WinLab 6.3.2.0749 / 2.02.05 Lambda 900 UV/VIS/NIR, Aug  7 2015 09:38:08

0
0
3350/servo 860,8/2
0
0
UV/VIS
1
1
1
DoubleDePol,CommonBeamDepol,RBeamAtt,SBeamAtt,60mm sphere, WB InGaAs Detector
0
0
0
0
Program
Program
3350/servo 860,8/2
3350/0,2 860,8/0,2
3350/0,2 860,8/0,2
0
15.00
 
 
 
0
 
860,8
319,2
860,8
Front
100
on
S:100 R:100
0
0
0
0
 
0
 
 
 
0
 
 
0
0
0
0
0
 
 
 
 
0
0


0
0
#HDR
-1
-1
#GR
nm
%R
1.0
0.0
2500,000000
-1,000000
2251
8
25,165700
2,391800
#DATA
2500.000000	3.142256
2499.000000	3.111419
2498.000000	3.051523
2497.000000	3.070401
2496.000000	3.039959
2495.000000	3.055773
2494.000000	3.006255
2493.000000	2.985202
2492.000000	3.012086
2491.000000	2.982237
2490.000000	2.970772
2489.000000	3.054488
2488.000000	3.000325
2487.000000	2.987673
2486.000000	2.941220
2485.000000	3.018807
2484.000000	2.984016
2483.000000	2.939144
2482.000000	2.995778
2481.000000	2.979865
2480.000000	2.986092
2479.000000	2.956638
2478.000000	2.968598
2477.000000	2.952685
2476.000000	3.029284
2475.000000	3.054587
2474.000000	3.021970
2473.000000	3.039860
2472.000000	3.029778
2471.000000	3.035610
2470.000000	3.025331
2469.000000	3.050436
2468.000000	3.028790
2467.000000	3.075145
2466.000000	3.056761
2465.000000	3.075145
2464.000000	3.074453
2463.000000	3.094122
2462.000000	3.119227
2461.000000	3.142355
2460.000000	3.147791
2459.000000	3.165088
2458.000000	3.203733
2457.000000	3.198890
2456.000000	3.246135
2455.000000	3.260268
2454.000000	3.293676
2453.000000	3.326095
2452.000000	3.343292
2451.000000	3.375612
2450.000000	3.415938
2449.000000	3.423450
2448.000000	3.472869
2447.000000	3.515567
2446.000000	3.542846
2445.000000	3.568445
2444.000000	3.609661
2443.000000	3.637335
2442.000000	3.656411
2441.000000	3.716900
2440.000000	3.747540
2439.000000	3.767406
2438.000000	3.805854
2437.000000	3.835505
2436.000000	3.875238
2435.000000	3.907756
2434.000000	3.933454
2433.000000	3.954506
2432.000000	3.970913
2431.000000	4.025373
2430.000000	4.068368
2429.000000	4.080722
2428.000000	4.094461
2427.000000	4.123124
2426.000000	4.186380
2425.000000	4.249735
2424.000000	4.295695
2423.000000	4.334538
2422.000000	4.358062
2421.000000	4.375259
2420.000000	4.408074
2419.000000	4.429818
2418.000000	4.462533
2417.000000	4.506318
2416.000000	4.521935
2415.000000	4.523516
2414.000000	4.563644
2413.000000	4.585290
2412.000000	4.587366
2411.000000	4.595470
2410.000000	4.617907
2409.000000	4.636883
2408.000000	4.668709
2407.000000	4.686500
2406.000000	4.717140
2405.000000	4.744617
2404.000000	4.764780
2403.000000	4.775257
2402.000000	4.801943
2401.000000	4.823094
2400.000000	4.835053
2399.000000	4.835745
2398.000000	4.861641
2397.000000	4.898310
2396.000000	4.910071
2395.000000	4.929048
2394.000000	4.959392
2393.000000	4.957613
2392.000000	4.972339
2391.000000	4.986770
2390.000000	5.006340
2389.000000	5.035299
2388.000000	5.056846
2387.000000	5.059317
2386.000000	5.064852
2385.000000	5.077799
2384.000000	5.102015
2383.000000	5.095986
2382.000000	5.083730
2381.000000	5.085410
2380.000000	5.105276
2379.000000	5.096084
2378.000000	5.081852
2377.000000	5.087881
2376.000000	5.077108
2375.000000	5.073549
2374.000000	5.091933
2373.000000	5.099148
2372.000000	5.074736
2371.000000	5.059613
2370.000000	5.064160
2369.000000	5.058328
2368.000000	5.048543
2367.000000	5.020473
2366.000000	5.018991
2365.000000	5.015630
2364.000000	4.984793
2363.000000	4.965618
2362.000000	4.948816
2361.000000	4.924897
2360.000000	4.887932
2359.000000	4.874193
2358.000000	4.865594
2357.000000	4.838315
2356.000000	4.796012
2355.000000	4.771204
2354.000000	4.771896
2353.000000	4.770611
2352.000000	4.776146
2351.000000	4.786129
2350.000000	4.783460
2349.000000	4.783065
2348.000000	4.783460
2347.000000	4.810838
2346.000000	4.833373
2345.000000	4.854920
2344.000000	4.882595
2343.000000	4.893467
2342.000000	4.910566
2341.000000	4.933891
2340.000000	4.935769
2339.000000	4.937845
2338.000000	4.955438
2337.000000	4.968781
2336.000000	4.960380
2335.000000	4.952176
2334.000000	4.959490
2333.000000	4.935275
2332.000000	4.907403
2331.000000	4.909380
2330.000000	4.898409
2329.000000	4.869943
2328.000000	4.857589
2327.000000	4.812420
2326.000000	4.791268
2325.000000	4.787117
2324.000000	4.746989
2323.000000	4.695494
2322.000000	4.671180
2321.000000	4.645482
2320.000000	4.610790
2319.000000	4.556924
2318.000000	4.510766
2317.000000	4.458679
2316.000000	4.414202
2315.000000	4.377335
2314.000000	4.311904
2313.000000	4.266735
2312.000000	4.236194
2311.000000	4.182427
2310.000000	4.144077
2309.000000	4.111856
2308.000000	4.088728
2307.000000	4.059373
2306.000000	4.037234
2305.000000	4.059472
2304.000000	4.051565
2303.000000	4.057693
2302.000000	4.080623
2301.000000	4.086751
2300.000000	4.123025
2299.000000	4.144275
2298.000000	4.167008
2297.000000	4.183909
2296.000000	4.210892
2295.000000	4.255764
2294.000000	4.260113
2293.000000	4.291544
2292.000000	4.295596
2291.000000	4.305381
2290.000000	4.283538
2289.000000	4.305776
2288.000000	4.300044
2287.000000	4.282253
2286.000000	4.262979
2285.000000	4.232043
2284.000000	4.205357
2283.000000	4.176496
2282.000000	4.146944
2281.000000	4.110670
2280.000000	4.087344
2279.000000	4.059176
2278.000000	4.045832
2277.000000	4.007780
2276.000000	3.973483
2275.000000	3.961524
2274.000000	3.921297
2273.000000	3.924855
2272.000000	3.905878
2271.000000	3.873558
2270.000000	3.876325
2269.000000	3.877215
2268.000000	3.888285
2267.000000	3.894907
2266.000000	3.903209
2265.000000	3.953913
2264.000000	3.969628
2263.000000	4.009658
2262.000000	4.050577
2261.000000	4.097129
2260.000000	4.176200
2259.000000	4.246375
2258.000000	4.314672
2257.000000	4.362608
2256.000000	4.445632
2255.000000	4.526778
2254.000000	4.570365
2253.000000	4.640837
2252.000000	4.696582
2251.000000	4.759640
2250.000000	4.823687
2249.000000	4.862432
2248.000000	4.915310
2247.000000	4.953363
2246.000000	5.010886
2245.000000	5.051212
2244.000000	5.097073
2243.000000	5.120102
2242.000000	5.160230
2241.000000	5.185039
2240.000000	5.202236
2239.000000	5.245725
2238.000000	5.273499
2237.000000	5.286051
2236.000000	5.303150
2235.000000	5.317976
2234.000000	5.326080
2233.000000	5.322127
2232.000000	5.328057
2231.000000	5.334877
2230.000000	5.331516
2229.000000	5.315307
2228.000000	5.309574
2227.000000	5.268952
2226.000000	5.273202
2225.000000	5.223091
2224.000000	5.201248
2223.000000	5.166259
2222.000000	5.122375
2221.000000	5.139573
2220.000000	5.095689
2219.000000	5.059811
2218.000000	5.007625
2217.000000	4.986276
2216.000000	4.967595
2215.000000	4.948816
2214.000000	4.929048
2213.000000	4.896333
2212.000000	4.882298
2211.000000	4.896630
2210.000000	4.883484
2209.000000	4.887141
2208.000000	4.907502
2207.000000	4.947235
2206.000000	4.966607
2205.000000	5.016026
2204.000000	5.077701
2203.000000	5.143527
2202.000000	5.216271
2201.000000	5.300284
2200.000000	5.362453
2199.000000	5.427883
2198.000000	5.497960
2197.000000	5.601937
2196.000000	5.685257
2195.000000	5.771642
2194.000000	5.851701
2193.000000	5.903195
2192.000000	5.967440
2191.000000	6.035539
2190.000000	6.091284
2189.000000	6.139418
2188.000000	6.171046
2187.000000	6.231436
2186.000000	6.261483
2185.000000	6.293111
2184.000000	6.331855
2183.000000	6.332350
2182.000000	6.359925
2181.000000	6.398373
2180.000000	6.413001
2179.000000	6.422885
2178.000000	6.439688
2177.000000	6.462223
2176.000000	6.483572
2175.000000	6.483868
2174.000000	6.487031
2173.000000	6.506502
2172.000000	6.517572
2171.000000	6.541589
2170.000000	6.561061
2169.000000	6.577468
2168.000000	6.596642
2167.000000	6.608898
2166.000000	6.628270
2165.000000	6.660393
2164.000000	6.670276
2163.000000	6.677195
2162.000000	6.693701
2161.000000	6.708230
2160.000000	6.731358
2159.000000	6.729283
2158.000000	6.760614
2157.000000	6.779492
2156.000000	6.802423
2155.000000	6.812702
2154.000000	6.850952
2153.000000	6.878923
2152.000000	6.891871
2151.000000	6.915988
2150.000000	6.953250
2149.000000	6.976575
2148.000000	6.987546
2147.000000	7.015320
2146.000000	7.057029
2145.000000	7.075710
2144.000000	7.096070
2143.000000	7.116925
2142.000000	7.150827
2141.000000	7.191745
2140.000000	7.195205
2139.000000	7.202123
2138.000000	7.217839
2137.000000	7.238199
2136.000000	7.266763
2135.000000	7.278822
2134.000000	7.294735
2133.000000	7.295624
2132.000000	7.303630
2131.000000	7.319345
2130.000000	7.325967
2129.000000	7.342968
2128.000000	7.355718
2127.000000	7.363032
2126.000000	7.367183
2125.000000	7.364712
2124.000000	7.370049
2123.000000	7.378450
2122.000000	7.379241
2121.000000	7.372817
2120.000000	7.369160
2119.000000	7.371532
2118.000000	7.372718
2117.000000	7.374003
2116.000000	7.360561
2115.000000	7.355718
2114.000000	7.365404
2113.000000	7.360264
2112.000000	7.357793
2111.000000	7.344252
2110.000000	7.326264
2109.000000	7.316380
2108.000000	7.320927
2107.000000	7.323299
2106.000000	7.310252
2105.000000	7.292362
2104.000000	7.289595
2103.000000	7.286432
2102.000000	7.280502
2101.000000	7.281688
2100.000000	7.269926
2099.000000	7.253223
2098.000000	7.251740
2097.000000	7.248083
2096.000000	7.240967
2095.000000	7.236519
2094.000000	7.232368
2093.000000	7.233653
2092.000000	7.218531
2091.000000	7.211711
2090.000000	7.224461
2089.000000	7.224659
2088.000000	7.212897
2087.000000	7.205089
2086.000000	7.217740
2085.000000	7.220310
2084.000000	7.190164
2083.000000	7.172571
2082.000000	7.168519
2081.000000	7.168716
2080.000000	7.144699
2079.000000	7.139559
2078.000000	7.147071
2077.000000	7.127105
2076.000000	7.103187
2075.000000	7.091227
2074.000000	7.086780
2073.000000	7.073239
2072.000000	7.060686
2071.000000	7.048430
2070.000000	7.031331
2069.000000	7.008599
2068.000000	7.002965
2067.000000	6.992982
2066.000000	6.990314
2065.000000	6.967087
2064.000000	6.938523
2063.000000	6.933778
2062.000000	6.934075
2061.000000	6.926464
2060.000000	6.917174
2059.000000	6.907883
2058.000000	6.912924
2057.000000	6.910255
2056.000000	6.926563
2055.000000	6.937040
2054.000000	6.942575
2053.000000	6.972029
2052.000000	6.999506
2051.000000	7.014134
2050.000000	7.060884
2049.000000	7.093402
2048.000000	7.123448
2047.000000	7.152803
2046.000000	7.213984
2045.000000	7.285048
2044.000000	7.342572
2043.000000	7.376869
2042.000000	7.437555
2041.000000	7.476794
2040.000000	7.512870
2039.000000	7.570789
2038.000000	7.621691
2037.000000	7.674272
2036.000000	7.722209
2035.000000	7.749785
2034.000000	7.794953
2033.000000	7.839233
2032.000000	7.870466
2031.000000	7.898239
2030.000000	7.940937
2029.000000	7.958135
2028.000000	7.986403
2027.000000	8.008345
2026.000000	8.067549
2025.000000	8.083363
2024.000000	8.127840
2023.000000	8.144346
2022.000000	8.161148
2021.000000	8.188922
2020.000000	8.200189
2019.000000	8.233399
2018.000000	8.240713
2017.000000	8.256527
2016.000000	8.269376
2015.000000	8.291614
2014.000000	8.314545
2013.000000	8.309010
2012.000000	8.314940
2011.000000	8.318399
2010.000000	8.315434
2009.000000	8.327986
2008.000000	8.338859
2007.000000	8.327097
2006.000000	8.330556
2005.000000	8.332138
2004.000000	8.303574
2003.000000	8.302783
2002.000000	8.307922
2001.000000	8.279457
2000.000000	8.268980
1999.000000	8.262160
1998.000000	8.262655
1997.000000	8.233992
1996.000000	8.194753
1995.000000	8.162038
1994.000000	8.158974
1993.000000	8.123392
1992.000000	8.122206
1991.000000	8.085339
1990.000000	8.067647
1989.000000	8.051141
1988.000000	8.023071
1987.000000	7.970687
1986.000000	7.952303
1985.000000	7.944298
1984.000000	7.896559
1983.000000	7.854652
1982.000000	7.846349
1981.000000	7.823419
1980.000000	7.772418
1979.000000	7.733377
1978.000000	7.705406
1977.000000	7.676348
1976.000000	7.655691
1975.000000	7.628708
1974.000000	7.601132
1973.000000	7.555864
1972.000000	7.514550
1971.000000	7.499922
1970.000000	7.484701
1969.000000	7.435084
1968.000000	7.403852
1967.000000	7.380625
1966.000000	7.363032
1965.000000	7.313909
1964.000000	7.304223
1963.000000	7.275857
1962.000000	7.247589
1961.000000	7.218333
1960.000000	7.192338
1959.000000	7.158141
1958.000000	7.127698
1957.000000	7.105361
1956.000000	7.087966
1955.000000	7.052779
1954.000000	7.004645
1953.000000	6.987744
1952.000000	6.947813
1951.000000	6.924290
1950.000000	6.914406
1949.000000	6.913319
1948.000000	6.865383
1947.000000	6.863999
1946.000000	6.828911
1945.000000	6.826539
1944.000000	6.787795
1943.000000	6.806080
1942.000000	6.787399
1941.000000	6.772475
1940.000000	6.768620
1939.000000	6.760713
1938.000000	6.755969
1937.000000	6.763184
1936.000000	6.770893
1935.000000	6.757946
1934.000000	6.796888
1933.000000	6.821499
1932.000000	6.852731
1931.000000	6.887325
1930.000000	6.894935
1929.000000	6.921819
1928.000000	6.940302
1927.000000	6.985273
1926.000000	7.022733
1925.000000	7.084605
1924.000000	7.138373
1923.000000	7.193821
1922.000000	7.231973
1921.000000	7.291473
1920.000000	7.335950
1919.000000	7.395945
1918.000000	7.482527
1917.000000	7.598068
1916.000000	7.686627
1915.000000	7.759569
1914.000000	7.830041
1913.000000	7.873826
1912.000000	7.941925
1911.000000	8.039380
1910.000000	8.139305
1909.000000	8.264928
1908.000000	8.366237
1907.000000	8.456179
1906.000000	8.532878
1905.000000	8.623018
1904.000000	8.715728
1903.000000	8.818124
1902.000000	8.930107
1901.000000	9.047626
1900.000000	9.146266
1899.000000	9.238679
1898.000000	9.350663
1897.000000	9.469664
1896.000000	9.584118
1895.000000	9.719822
1894.000000	9.844161
1893.000000	9.949225
1892.000000	10.041738
1891.000000	10.146901
1890.000000	10.247815
1889.000000	10.368298
1888.000000	10.500346
1887.000000	10.655324
1886.000000	10.802790
1885.000000	10.928413
1884.000000	11.080524
1883.000000	11.241531
1882.000000	11.430510
1881.000000	11.609703
1880.000000	11.794134
1879.000000	11.969473
1878.000000	12.117730
1877.000000	12.255016
1876.000000	12.385778
1875.000000	12.523262
1874.000000	12.627931
1873.000000	12.697217
1872.000000	12.773816
1871.000000	12.819578
1870.000000	12.839247
1869.000000	12.898945
1868.000000	12.952021
1867.000000	13.011917
1866.000000	13.075173
1865.000000	13.134278
1864.000000	13.185674
1863.000000	13.236575
1862.000000	13.272058
1861.000000	13.293111
1860.000000	13.290047
1859.000000	13.265238
1858.000000	13.253378
1857.000000	13.271762
1856.000000	13.285204
1855.000000	13.265733
1854.000000	13.238849
1853.000000	13.208505
1852.000000	13.214633
1851.000000	13.248634
1850.000000	13.276012
1849.000000	13.245273
1848.000000	13.140999
1847.000000	13.054911
1846.000000	13.032475
1845.000000	13.080411
1844.000000	13.126865
1843.000000	13.166499
1842.000000	13.136551
1841.000000	13.071615
1840.000000	13.038900
1839.000000	13.015376
1838.000000	13.003713
1837.000000	12.972085
1836.000000	12.916933
1835.000000	12.904776
1834.000000	12.914858
1833.000000	12.904678
1832.000000	12.891137
1831.000000	12.868404
1830.000000	12.833415
1829.000000	12.792497
1828.000000	12.756025
1827.000000	12.709374
1826.000000	12.667961
1825.000000	12.669246
1824.000000	12.705124
1823.000000	12.736554
1822.000000	12.729240
1821.000000	12.679722
1820.000000	12.625164
1819.000000	12.603716
1818.000000	12.625658
1817.000000	12.651949
1816.000000	12.652443
1815.000000	12.644141
1814.000000	12.641769
1813.000000	12.633071
1812.000000	12.619530
1811.000000	12.601739
1810.000000	12.575350
1809.000000	12.580588
1808.000000	12.573472
1807.000000	12.558646
1806.000000	12.529390
1805.000000	12.511303
1804.000000	12.508239
1803.000000	12.494698
1802.000000	12.469494
1801.000000	12.444686
1800.000000	12.427290
1799.000000	12.409203
1798.000000	12.391709
1797.000000	12.381133
1796.000000	12.368679
1795.000000	12.360081
1794.000000	12.342982
1793.000000	12.314516
1792.000000	12.284964
1791.000000	12.262923
1790.000000	12.241870
1789.000000	12.227934
1788.000000	12.198480
1787.000000	12.163393
1786.000000	12.142736
1785.000000	12.118125
1784.000000	12.078985
1783.000000	12.050915
1782.000000	12.019584
1781.000000	11.977775
1780.000000	11.939822
1779.000000	11.905920
1778.000000	11.877652
1777.000000	11.834559
1776.000000	11.785239
1775.000000	11.727518
1774.000000	11.692826
1773.000000	11.645680
1772.000000	11.620476
1771.000000	11.544470
1770.000000	11.487045
1769.000000	11.453144
1768.000000	11.406986
1767.000000	11.346003
1766.000000	11.312299
1765.000000	11.299648
1764.000000	11.295102
1763.000000	11.270590
1762.000000	11.282450
1761.000000	11.302218
1760.000000	11.350154
1759.000000	11.349759
1758.000000	11.377631
1757.000000	11.380695
1756.000000	11.400463
1755.000000	11.407184
1754.000000	11.400463
1753.000000	11.396312
1752.000000	11.402934
1751.000000	11.370317
1750.000000	11.355294
1749.000000	11.333648
1748.000000	11.297474
1747.000000	11.243607
1746.000000	11.203084
1745.000000	11.142397
1744.000000	11.065205
1743.000000	10.988506
1742.000000	10.910622
1741.000000	10.813069
1740.000000	10.728266
1739.000000	10.656114
1738.000000	10.567753
1737.000000	10.507759
1736.000000	10.457549
1735.000000	10.437979
1734.000000	10.421078
1733.000000	10.433136
1732.000000	10.449444
1731.000000	10.482555
1730.000000	10.518137
1729.000000	10.555695
1728.000000	10.596713
1727.000000	10.634568
1726.000000	10.669260
1725.000000	10.662045
1724.000000	10.664516
1723.000000	10.671731
1722.000000	10.700394
1721.000000	10.697231
1720.000000	10.731923
1719.000000	10.720754
1718.000000	10.738051
1717.000000	10.750702
1716.000000	10.781935
1715.000000	10.788063
1714.000000	10.841930
1713.000000	10.828488
1712.000000	10.874942
1711.000000	10.869802
1710.000000	10.885913
1709.000000	10.882157
1708.000000	10.862290
1707.000000	10.859424
1706.000000	10.837087
1705.000000	10.829278
1704.000000	10.806546
1703.000000	10.760191
1702.000000	10.719667
1701.000000	10.666196
1700.000000	10.616777
1699.000000	10.545416
1698.000000	10.506671
1697.000000	10.476822
1696.000000	10.431752
1695.000000	10.445392
1694.000000	10.467037
1693.000000	10.499753
1692.000000	10.584457
1691.000000	10.627155
1690.000000	10.678847
1689.000000	10.719469
1688.000000	10.722632
1687.000000	10.733999
1686.000000	10.733801
1685.000000	10.764935
1684.000000	10.795871
1683.000000	10.902320
1682.000000	11.032094
1681.000000	11.212374
1680.000000	11.412126
1679.000000	11.616028
1678.000000	11.792751
1677.000000	11.969769
1676.000000	12.140957
1675.000000	12.293661
1674.000000	12.409895
1673.000000	12.501715
1672.000000	12.586617
1671.000000	12.658868
1670.000000	12.735171
1669.000000	12.799613
1668.000000	12.867119
1667.000000	12.949649
1666.000000	12.977027
1665.000000	13.014882
1664.000000	13.056394
1663.000000	13.073789
1662.000000	13.100772
1661.000000	13.115795
1660.000000	13.135365
1659.000000	13.161459
1658.000000	13.153453
1657.000000	13.164819
1656.000000	13.166895
1655.000000	13.162150
1654.000000	13.161063
1653.000000	13.156517
1652.000000	13.161953
1651.000000	13.129732
1650.000000	13.128249
1649.000000	13.125679
1648.000000	13.116784
1647.000000	13.093952
1646.000000	13.074580
1645.000000	13.060249
1644.000000	13.049574
1643.000000	13.021010
1642.000000	12.994324
1641.000000	12.979004
1640.000000	12.985033
1639.000000	12.967341
1638.000000	12.936701
1637.000000	12.899538
1636.000000	12.862474
1635.000000	12.857631
1634.000000	12.829956
1633.000000	12.794967
1632.000000	12.777177
1631.000000	12.741496
1630.000000	12.706606
1629.000000	12.681106
1628.000000	12.675472
1627.000000	12.640385
1626.000000	12.622693
1625.000000	12.591361
1624.000000	12.563983
1623.000000	12.543820
1622.000000	12.512884
1621.000000	12.491337
1620.000000	12.464552
1619.000000	12.442116
1618.000000	12.427290
1617.000000	12.394377
1616.000000	12.358894
1615.000000	12.338732
1614.000000	12.314912
1613.000000	12.292871
1612.000000	12.274388
1611.000000	12.256301
1610.000000	12.220126
1609.000000	12.195120
1608.000000	12.176736
1607.000000	12.141747
1606.000000	12.117038
1605.000000	12.099346
1604.000000	12.070782
1603.000000	12.054869
1602.000000	12.041130
1601.000000	12.030159
1600.000000	11.994479
1599.000000	11.967694
1598.000000	11.949508
1597.000000	11.919659
1596.000000	11.897321
1595.000000	11.881804
1594.000000	11.858972
1593.000000	11.847309
1592.000000	11.827245
1591.000000	11.806687
1590.000000	11.793245
1589.000000	11.780495
1588.000000	11.755686
1587.000000	11.737105
1586.000000	11.743332
1585.000000	11.729297
1584.000000	11.701326
1583.000000	11.682942
1582.000000	11.686105
1581.000000	11.677901
1580.000000	11.669697
1579.000000	11.662087
1578.000000	11.656255
1577.000000	11.661988
1576.000000	11.658825
1575.000000	11.656255
1574.000000	11.662680
1573.000000	11.653389
1572.000000	11.645186
1571.000000	11.650721
1570.000000	11.652500
1569.000000	11.669895
1568.000000	11.671477
1567.000000	11.683930
1566.000000	11.709430
1565.000000	11.710814
1564.000000	11.711209
1563.000000	11.710122
1562.000000	11.712988
1561.000000	11.725047
1560.000000	11.738884
1559.000000	11.728012
1558.000000	11.719215
1557.000000	11.733843
1556.000000	11.739378
1555.000000	11.738390
1554.000000	11.724256
1553.000000	11.727122
1552.000000	11.734832
1551.000000	11.722971
1550.000000	11.710715
1549.000000	11.714175
1548.000000	11.713779
1547.000000	11.701820
1546.000000	11.693419
1545.000000	11.693913
1544.000000	11.698657
1543.000000	11.689070
1542.000000	11.682744
1541.000000	11.684820
1540.000000	11.686203
1539.000000	11.700238
1538.000000	11.687982
1537.000000	11.677901
1536.000000	11.669006
1535.000000	11.659221
1534.000000	11.664163
1533.000000	11.658133
1532.000000	11.649040
1531.000000	11.644098
1530.000000	11.627988
1529.000000	11.632831
1528.000000	11.624133
1527.000000	11.603476
1526.000000	11.589342
1525.000000	11.585685
1524.000000	11.586476
1523.000000	11.568586
1522.000000	11.560679
1521.000000	11.537551
1520.000000	11.530632
1519.000000	11.523615
1518.000000	11.502167
1517.000000	11.482597
1516.000000	11.481312
1515.000000	11.471527
1514.000000	11.444149
1513.000000	11.438812
1512.000000	11.437527
1511.000000	11.417661
1510.000000	11.403329
1509.000000	11.395521
1508.000000	11.391172
1507.000000	11.371998
1506.000000	11.355788
1505.000000	11.350253
1504.000000	11.332957
1503.000000	11.309927
1502.000000	11.308445
1501.000000	11.301625
1500.000000	11.297770
1499.000000	11.299945
1498.000000	11.298462
1497.000000	11.294607
1496.000000	11.271677
1495.000000	11.287689
1494.000000	11.304195
1493.000000	11.302811
1492.000000	11.313881
1491.000000	11.305084
1490.000000	11.304491
1489.000000	11.313387
1488.000000	11.326334
1487.000000	11.315759
1486.000000	11.319613
1485.000000	11.324457
1484.000000	11.337108
1483.000000	11.355195
1482.000000	11.371800
1481.000000	11.376248
1480.000000	11.381980
1479.000000	11.407777
1478.000000	11.426358
1477.000000	11.445138
1476.000000	11.448103
1475.000000	11.468266
1474.000000	11.501969
1473.000000	11.538243
1472.000000	11.540121
1471.000000	11.538737
1470.000000	11.547040
1469.000000	11.577482
1468.000000	11.590429
1467.000000	11.606837
1466.000000	11.638168
1465.000000	11.647064
1464.000000	11.659122
1463.000000	11.682448
1462.000000	11.713779
1461.000000	11.744715
1460.000000	11.765373
1459.000000	11.805007
1458.000000	11.848495
1457.000000	11.889908
1456.000000	11.906513
1455.000000	11.939130
1454.000000	11.968089
1453.000000	12.013555
1452.000000	12.047851
1451.000000	12.061096
1450.000000	12.101125
1449.000000	12.133643
1448.000000	12.184050
1447.000000	12.237818
1446.000000	12.280911
1445.000000	12.316987
1444.000000	12.337941
1443.000000	12.396255
1442.000000	12.439052
1441.000000	12.486988
1440.000000	12.525338
1439.000000	12.585135
1438.000000	12.626152
1437.000000	12.657682
1436.000000	12.694746
1435.000000	12.758990
1434.000000	12.804357
1433.000000	12.827881
1432.000000	12.870480
1431.000000	12.914858
1430.000000	12.983847
1429.000000	13.012707
1428.000000	13.080411
1427.000000	13.152563
1426.000000	13.214633
1425.000000	13.260099
1424.000000	13.347669
1423.000000	13.412902
1422.000000	13.474874
1421.000000	13.563235
1420.000000	13.633805
1419.000000	13.684212
1418.000000	13.743614
1417.000000	13.791056
1416.000000	13.868446
1415.000000	13.957994
1414.000000	14.007709
1413.000000	14.026291
1412.000000	14.078576
1411.000000	14.169111
1410.000000	14.253420
1409.000000	14.335752
1408.000000	14.401183
1407.000000	14.491916
1406.000000	14.577510
1405.000000	14.670813
1404.000000	14.725866
1403.000000	14.826285
1402.000000	14.934315
1401.000000	14.969303
1400.000000	14.984623
1399.000000	15.009333
1398.000000	15.067153
1397.000000	15.093938
1396.000000	15.082374
1395.000000	15.018920
1394.000000	15.002414
1393.000000	15.012298
1392.000000	14.991147
1391.000000	14.976123
1390.000000	14.984722
1389.000000	15.036316
1388.000000	15.035723
1387.000000	15.081287
1386.000000	15.174788
1385.000000	15.273625
1384.000000	15.403301
1383.000000	15.528726
1382.000000	15.608785
1381.000000	15.722251
1380.000000	15.845502
1379.000000	15.989410
1378.000000	16.172458
1377.000000	16.340087
1376.000000	16.543990
1375.000000	16.787131
1374.000000	16.998941
1373.000000	17.233285
1372.000000	17.448456
1371.000000	17.641288
1370.000000	17.793005
1369.000000	17.962018
1368.000000	18.060559
1367.000000	18.157717
1366.000000	18.270689
1365.000000	18.343038
1364.000000	18.428533
1363.000000	18.518969
1362.000000	18.530731
1361.000000	18.525295
1360.000000	18.543580
1359.000000	18.595668
1358.000000	18.650325
1357.000000	18.726924
1356.000000	18.846024
1355.000000	18.993095
1354.000000	19.132951
1353.000000	19.302853
1352.000000	19.506756
1351.000000	19.698403
1350.000000	19.855950
1349.000000	19.990271
1348.000000	20.136749
1347.000000	20.263163
1346.000000	20.368820
1345.000000	20.490490
1344.000000	20.612258
1343.000000	20.701311
1342.000000	20.810626
1341.000000	20.907981
1340.000000	20.998616
1339.000000	21.090239
1338.000000	21.171286
1337.000000	21.252629
1336.000000	21.342275
1335.000000	21.442497
1334.000000	21.518899
1333.000000	21.580178
1332.000000	21.646993
1331.000000	21.707482
1330.000000	21.774197
1329.000000	21.835279
1328.000000	21.894779
1327.000000	21.948943
1326.000000	22.000437
1325.000000	22.057170
1324.000000	22.110740
1323.000000	22.145235
1322.000000	22.182003
1321.000000	22.233596
1320.000000	22.264730
1319.000000	22.305056
1318.000000	22.356056
1317.000000	22.390155
1316.000000	22.416743
1315.000000	22.448766
1314.000000	22.464185
1313.000000	22.496801
1312.000000	22.520028
1311.000000	22.525168
1310.000000	22.541180
1309.000000	22.557686
1308.000000	22.575081
1307.000000	22.606116
1306.000000	22.609576
1305.000000	22.609279
1304.000000	22.622326
1303.000000	22.621535
1302.000000	22.615703
1301.000000	22.617680
1300.000000	22.615506
1299.000000	22.607401
1298.000000	22.607006
1297.000000	22.598308
1296.000000	22.581604
1295.000000	22.578540
1294.000000	22.565790
1293.000000	22.553337
1292.000000	22.549383
1291.000000	22.534459
1290.000000	22.515185
1289.000000	22.500953
1288.000000	22.488697
1287.000000	22.460330
1286.000000	22.432754
1285.000000	22.407946
1284.000000	22.381260
1283.000000	22.361295
1282.000000	22.341132
1281.000000	22.332632
1280.000000	22.312666
1279.000000	22.272637
1278.000000	22.249114
1277.000000	22.239032
1276.000000	22.219857
1275.000000	22.196828
1274.000000	22.188427
1273.000000	22.188032
1272.000000	22.172119
1271.000000	22.143851
1270.000000	22.124479
1269.000000	22.112618
1268.000000	22.101252
1267.000000	22.089787
1266.000000	22.072589
1265.000000	22.040862
1264.000000	22.010618
1263.000000	21.989071
1262.000000	21.966536
1261.000000	21.944297
1260.000000	21.901402
1259.000000	21.868093
1258.000000	21.850006
1257.000000	21.828756
1256.000000	21.805331
1255.000000	21.756406
1254.000000	21.727051
1253.000000	21.689098
1252.000000	21.653714
1251.000000	21.652033
1250.000000	21.616847
1249.000000	21.588481
1248.000000	21.539754
1247.000000	21.500120
1246.000000	21.460782
1245.000000	21.417590
1244.000000	21.398811
1243.000000	21.370543
1242.000000	21.320333
1241.000000	21.281984
1240.000000	21.218530
1239.000000	21.178501
1238.000000	21.152507
1237.000000	21.122361
1236.000000	21.083616
1235.000000	21.051692
1234.000000	20.996639
1233.000000	20.952557
1232.000000	20.903435
1231.000000	20.857179
1230.000000	20.807760
1229.000000	20.771190
1228.000000	20.730765
1227.000000	20.665631
1226.000000	20.609293
1225.000000	20.559380
1224.000000	20.495333
1223.000000	20.444036
1222.000000	20.392640
1221.000000	20.349745
1220.000000	20.292419
1219.000000	20.258221
1218.000000	20.191802
1217.000000	20.156418
1216.000000	20.115795
1215.000000	20.056591
1214.000000	20.023777
1213.000000	20.004899
1212.000000	19.969515
1211.000000	19.927114
1210.000000	19.889852
1209.000000	19.856939
1208.000000	19.850415
1207.000000	19.826200
1206.000000	19.796845
1205.000000	19.794572
1204.000000	19.788444
1203.000000	19.779054
1202.000000	19.779647
1201.000000	19.776386
1200.000000	19.779351
1199.000000	19.732403
1198.000000	19.694251
1197.000000	19.663513
1196.000000	19.600454
1195.000000	19.520000
1194.000000	19.407819
1193.000000	19.269051
1192.000000	19.138585
1191.000000	18.977775
1190.000000	18.866582
1189.000000	18.737797
1188.000000	18.644098
1187.000000	18.618203
1186.000000	18.637081
1185.000000	18.687389
1184.000000	18.759343
1183.000000	18.889809
1182.000000	19.055363
1181.000000	19.171992
1180.000000	19.350197
1179.000000	19.511204
1178.000000	19.630896
1177.000000	19.759682
1176.000000	19.873840
1175.000000	19.972381
1174.000000	20.048388
1173.000000	20.154441
1172.000000	20.267907
1171.000000	20.381373
1170.000000	20.489304
1169.000000	20.610479
1168.000000	20.716631
1167.000000	20.839388
1166.000000	20.975389
1165.000000	21.088855
1164.000000	21.212995
1163.000000	21.355717
1162.000000	21.469579
1161.000000	21.578300
1160.000000	21.696412
1159.000000	21.807506
1158.000000	21.930855
1157.000000	22.019414
1156.000000	22.081386
1155.000000	22.139898
1154.000000	22.178939
1153.000000	22.194258
1152.000000	22.178346
1151.000000	22.192183
1150.000000	22.188032
1149.000000	22.204439
1148.000000	22.221834
1147.000000	22.256329
1146.000000	22.281236
1145.000000	22.335201
1144.000000	22.425342
1143.000000	22.520325
1142.000000	22.638832
1141.000000	22.757734
1140.000000	22.860920
1139.000000	22.968851
1138.000000	23.115823
1137.000000	23.255580
1136.000000	23.374680
1135.000000	23.482611
1134.000000	23.579275
1133.000000	23.674554
1132.000000	23.781794
1131.000000	23.884091
1130.000000	23.983028
1129.000000	24.029185
1128.000000	24.092145
1127.000000	24.134744
1126.000000	24.189895
1125.000000	24.230518
1124.000000	24.242082
1123.000000	24.257797
1122.000000	24.263431
1121.000000	24.275588
1120.000000	24.300594
1119.000000	24.314431
1118.000000	24.323030
1117.000000	24.327676
1116.000000	24.320460
1115.000000	24.325303
1114.000000	24.319966
1113.000000	24.312454
1112.000000	24.315420
1111.000000	24.328466
1110.000000	24.327577
1109.000000	24.321548
1108.000000	24.336373
1107.000000	24.343984
1106.000000	24.312751
1105.000000	24.317989
1104.000000	24.323426
1103.000000	24.312356
1102.000000	24.309489
1101.000000	24.297925
1100.000000	24.295652
1099.000000	24.297925
1098.000000	24.281914
1097.000000	24.251471
1096.000000	24.249594
1095.000000	24.248210
1094.000000	24.202250
1093.000000	24.169831
1092.000000	24.173093
1091.000000	24.150854
1090.000000	24.130692
1089.000000	24.125058
1088.000000	24.102523
1087.000000	24.076133
1086.000000	24.057947
1085.000000	24.046284
1084.000000	24.011295
1083.000000	23.982929
1082.000000	23.969487
1081.000000	23.941021
1080.000000	23.914731
1079.000000	23.897137
1078.000000	23.872033
1077.000000	23.853253
1076.000000	23.832596
1075.000000	23.807491
1074.000000	23.788020
1073.000000	23.761235
1072.000000	23.743741
1071.000000	23.725456
1070.000000	23.686514
1069.000000	23.656665
1068.000000	23.647275
1067.000000	23.625531
1066.000000	23.588170
1065.000000	23.584711
1064.000000	23.585897
1063.000000	23.556740
1062.000000	23.529460
1061.000000	23.488245
1060.000000	23.475495
1059.000000	23.476780
1058.000000	23.439419
1057.000000	23.420541
1056.000000	23.393163
1055.000000	23.378535
1054.000000	23.371418
1053.000000	23.346314
1052.000000	23.333069
1051.000000	23.339593
1050.000000	23.324965
1049.000000	23.312214
1048.000000	23.301639
1047.000000	23.287406
1046.000000	23.283749
1045.000000	23.277325
1044.000000	23.269319
1043.000000	23.260819
1042.000000	23.268825
1041.000000	23.251627
1040.000000	23.231464
1039.000000	23.233441
1038.000000	23.225138
1037.000000	23.198353
1036.000000	23.186789
1035.000000	23.189359
1034.000000	23.180859
1033.000000	23.176213
1032.000000	23.156644
1031.000000	23.142411
1030.000000	23.121062
1029.000000	23.097341
1028.000000	23.086271
1027.000000	23.063538
1026.000000	23.042090
1025.000000	23.023015
1024.000000	23.002852
1023.000000	22.991881
1022.000000	22.957782
1021.000000	22.923287
1020.000000	22.911328
1019.000000	22.885037
1018.000000	22.842438
1017.000000	22.825932
1016.000000	22.811600
1015.000000	22.791437
1014.000000	22.780170
1013.000000	22.764059
1012.000000	22.739646
1011.000000	22.734704
1010.000000	22.721460
1009.000000	22.697541
1008.000000	22.675995
1007.000000	22.663936
1006.000000	22.661367
1005.000000	22.653954
1004.000000	22.615308
1003.000000	22.579331
1002.000000	22.564703
1001.000000	22.550075
1000.000000	22.534854
999.000000	22.518645
998.000000	22.500656
997.000000	22.478121
996.000000	22.451435
995.000000	22.426824
994.000000	22.420894
993.000000	22.395295
992.000000	22.374045
991.000000	22.364556
990.000000	22.348050
989.000000	22.323143
988.000000	22.300806
987.000000	22.296062
986.000000	22.288550
985.000000	22.271451
984.000000	22.255241
983.000000	22.248916
982.000000	22.243480
981.000000	22.208392
980.000000	22.197520
979.000000	22.192381
978.000000	22.183683
977.000000	22.193863
976.000000	22.174886
975.000000	22.171526
974.000000	22.163718
973.000000	22.166485
972.000000	22.155119
971.000000	22.165200
970.000000	22.152747
969.000000	22.160752
968.000000	22.149188
967.000000	22.147706
966.000000	22.143752
965.000000	22.153636
964.000000	22.180322
963.000000	22.173601
962.000000	22.202264
961.000000	22.197520
960.000000	22.210666
959.000000	22.223613
958.000000	22.239032
957.000000	22.257614
956.000000	22.269079
955.000000	22.267695
954.000000	22.278073
953.000000	22.293788
952.000000	22.291120
951.000000	22.293195
950.000000	22.305847
949.000000	22.306242
948.000000	22.308120
947.000000	22.324823
946.000000	22.324033
945.000000	22.329568
944.000000	22.355760
943.000000	22.362975
942.000000	22.376713
941.000000	22.376021
940.000000	22.392923
939.000000	22.412789
938.000000	22.438092
937.000000	22.444318
936.000000	22.464976
935.000000	22.457167
934.000000	22.480295
933.000000	22.481185
932.000000	22.499272
931.000000	22.492848
930.000000	22.515185
929.000000	22.536732
928.000000	22.555610
927.000000	22.576069
926.000000	22.594354
925.000000	22.608686
924.000000	22.647727
923.000000	22.646640
922.000000	22.679059
921.000000	22.692995
920.000000	22.713553
919.000000	22.717309
918.000000	22.737669
917.000000	22.757239
916.000000	22.808042
915.000000	22.811699
914.000000	22.795391
913.000000	22.835618
912.000000	22.858746
911.000000	22.898281
910.000000	22.930997
909.000000	22.944043
908.000000	22.985950
907.000000	23.023707
906.000000	23.120074
905.000000	23.169591
904.000000	23.218911
903.000000	23.270011
902.000000	23.347302
901.000000	23.422023
900.000000	23.497041
899.000000	23.564943
898.000000	23.613275
897.000000	23.681473
896.000000	23.754415
895.000000	23.824689
894.000000	23.865707
893.000000	23.929161
892.000000	23.957824
891.000000	24.015446
890.000000	24.071290
889.000000	24.127133
888.000000	24.169436
887.000000	24.203239
886.000000	24.228838
885.000000	24.284483
884.000000	24.318385
883.000000	24.330838
882.000000	24.300001
881.000000	24.315123
880.000000	24.299309
879.000000	24.320757
878.000000	24.346949
877.000000	24.308106
876.000000	24.303954
875.000000	24.279344
874.000000	24.236942
873.000000	24.237535
872.000000	24.191081
871.000000	24.200076
870.000000	24.157872
869.000000	24.155203
868.000000	24.124662
867.000000	24.113000
866.000000	24.076331
865.000000	24.023156
864.000000	23.989650
863.000000	23.969487
862.000000	23.907713
861.000000	23.858393
860.000000	23.856515
859.000000	23.890416
858.000000	23.866300
857.000000	23.828000
856.000000	23.820400
855.000000	23.950500
854.000000	24.146800
853.000000	24.023800
852.000000	23.951200
851.000000	24.004300
850.000000	23.935700
849.000000	24.043500
848.000000	24.144200
847.000000	24.302100
846.000000	24.241200
845.000000	24.355400
844.000000	24.597200
843.000000	24.554400
842.000000	24.551100
841.000000	24.520900
840.000000	24.531600
839.000000	24.466400
838.000000	24.474200
837.000000	24.590800
836.000000	24.572100
835.000000	24.587200
834.000000	24.576900
833.000000	24.652700
832.000000	24.695400
831.000000	24.621800
830.000000	24.661000
829.000000	24.669200
828.000000	24.650700
827.000000	24.687800
826.000000	24.643800
825.000000	24.655900
824.000000	24.614800
823.000000	24.701300
822.000000	24.648800
821.000000	24.576900
820.000000	24.563800
819.000000	24.535900
818.000000	24.543400
817.000000	24.458900
816.000000	24.497500
815.000000	24.455900
814.000000	24.403700
813.000000	24.379400
812.000000	24.273600
811.000000	24.320700
810.000000	24.319700
809.000000	24.312800
808.000000	24.145300
807.000000	24.005000
806.000000	24.017900
805.000000	23.978500
804.000000	23.959400
803.000000	23.900800
802.000000	23.863300
801.000000	23.831800
800.000000	23.791200
799.000000	23.755100
798.000000	23.702300
797.000000	23.635700
796.000000	23.645300
795.000000	23.595700
794.000000	23.555900
793.000000	23.501600
792.000000	23.466000
791.000000	23.316900
790.000000	23.253800
789.000000	23.228200
788.000000	23.139000
787.000000	23.073500
786.000000	23.002000
785.000000	23.006900
784.000000	22.946200
783.000000	22.857900
782.000000	22.792200
781.000000	22.786500
780.000000	22.796100
779.000000	22.735500
778.000000	22.651700
777.000000	22.599300
776.000000	22.564000
775.000000	22.500300
774.000000	22.456500
773.000000	22.403200
772.000000	22.315600
771.000000	22.320700
770.000000	22.268200
769.000000	22.202100
768.000000	22.163700
767.000000	22.176600
766.000000	22.152800
765.000000	22.140100
764.000000	22.176400
763.000000	22.169200
762.000000	22.133500
761.000000	22.133600
760.000000	22.131300
759.000000	22.126500
758.000000	22.123100
757.000000	22.123200
756.000000	22.089800
755.000000	22.013800
754.000000	21.985000
753.000000	21.958800
752.000000	21.909900
751.000000	21.877700
750.000000	21.845000
749.000000	21.806000
748.000000	21.765000
747.000000	21.731000
746.000000	21.759000
745.000000	21.780100
744.000000	21.763600
743.000000	21.765900
742.000000	21.739800
741.000000	21.675300
740.000000	21.633800
739.000000	21.645500
738.000000	21.637100
737.000000	21.565600
736.000000	21.510500
735.000000	21.475300
734.000000	21.442300
733.000000	21.432100
732.000000	21.415400
731.000000	21.407600
730.000000	21.410200
729.000000	21.400700
728.000000	21.383300
727.000000	21.402800
726.000000	21.417200
725.000000	21.430100
724.000000	21.464600
723.000000	21.450300
722.000000	21.443200
721.000000	21.430600
720.000000	21.408200
719.000000	21.392400
718.000000	21.393100
717.000000	21.345000
716.000000	21.301500
715.000000	21.266300
714.000000	21.217900
713.000000	21.168600
712.000000	21.151600
711.000000	21.089200
710.000000	21.032500
709.000000	20.990000
708.000000	20.945200
707.000000	20.900000
706.000000	20.860300
705.000000	20.786400
704.000000	20.753200
703.000000	20.699000
702.000000	20.643700
701.000000	20.596400
700.000000	20.514900
699.000000	20.434000
698.000000	20.374600
697.000000	20.298800
696.000000	20.251200
695.000000	20.205600
694.000000	20.144200
693.000000	20.098700
692.000000	20.057100
691.000000	20.026400
690.000000	20.010600
689.000000	19.994700
688.000000	19.978300
687.000000	20.001400
686.000000	20.013900
685.000000	19.966700
684.000000	19.964500
683.000000	19.968200
682.000000	19.964100
681.000000	19.948300
680.000000	19.930800
679.000000	19.908800
678.000000	19.877100
677.000000	19.833800
676.000000	19.804600
675.000000	19.800000
674.000000	19.813900
673.000000	19.816900
672.000000	19.776000
671.000000	19.766900
670.000000	19.757600
669.000000	19.746700
668.000000	19.732400
667.000000	19.709600
666.000000	19.663900
665.000000	19.609300
664.000000	19.589100
663.000000	19.534300
662.000000	19.431100
661.000000	19.364000
660.000000	19.249400
659.000000	19.113200
658.000000	18.999000
657.000000	18.871100
656.000000	18.713000
655.000000	18.587600
654.000000	18.448700
653.000000	18.309000
652.000000	18.177200
651.000000	18.050700
650.000000	17.932800
649.000000	17.798600
648.000000	17.681900
647.000000	17.554100
646.000000	17.434100
645.000000	17.311900
644.000000	17.132600
643.000000	16.991500
642.000000	16.853000
641.000000	16.719900
640.000000	16.613600
639.000000	16.519600
638.000000	16.442900
637.000000	16.402800
636.000000	16.362800
635.000000	16.400600
634.000000	16.438200
633.000000	16.521700
632.000000	16.655300
631.000000	16.795200
630.000000	16.972900
629.000000	17.146600
628.000000	17.358200
627.000000	17.594400
626.000000	17.800500
625.000000	18.005100
624.000000	18.236300
623.000000	18.472000
622.000000	18.702300
621.000000	18.949800
620.000000	19.188000
619.000000	19.446300
618.000000	19.712700
617.000000	19.964400
616.000000	20.220600
615.000000	20.480000
614.000000	20.712000
613.000000	20.949600
612.000000	21.131500
611.000000	21.345400
610.000000	21.533900
609.000000	21.740400
608.000000	21.892200
607.000000	22.066300
606.000000	22.208200
605.000000	22.364200
604.000000	22.528500
603.000000	22.700400
602.000000	22.850300
601.000000	23.014300
600.000000	23.172300
599.000000	23.329100
598.000000	23.502900
597.000000	23.624400
596.000000	23.774200
595.000000	23.929000
594.000000	24.049500
593.000000	24.141700
592.000000	24.256600
591.000000	24.322900
590.000000	24.337600
589.000000	24.355500
588.000000	24.338500
587.000000	24.326900
586.000000	24.278200
585.000000	24.246000
584.000000	24.229100
583.000000	24.217100
582.000000	24.236100
581.000000	24.243900
580.000000	24.305000
579.000000	24.361300
578.000000	24.462600
577.000000	24.570100
576.000000	24.666000
575.000000	24.801600
574.000000	24.913800
573.000000	25.019000
572.000000	25.091900
571.000000	25.150500
570.000000	25.165700
569.000000	25.154800
568.000000	25.094900
567.000000	24.995500
566.000000	24.888700
565.000000	24.742300
564.000000	24.584300
563.000000	24.418900
562.000000	24.260700
561.000000	24.119600
560.000000	24.069000
559.000000	24.586300
558.000000	24.509300
557.000000	24.460200
556.000000	24.441600
555.000000	24.427400
554.000000	24.417600
553.000000	24.408700
552.000000	24.399400
551.000000	24.353800
550.000000	24.272900
549.000000	24.180100
548.000000	24.044700
547.000000	23.856900
546.000000	23.656000
545.000000	23.426500
544.000000	23.139900
543.000000	22.846700
542.000000	22.549600
541.000000	22.234700
540.000000	21.941100
539.000000	21.617400
538.000000	21.281100
537.000000	20.943600
536.000000	20.578500
535.000000	20.194900
534.000000	19.809700
533.000000	19.380900
532.000000	18.956200
531.000000	18.526600
530.000000	18.087600
529.000000	17.683000
528.000000	17.290400
527.000000	16.942900
526.000000	16.603600
525.000000	16.286400
524.000000	16.001800
523.000000	15.729500
522.000000	15.477600
521.000000	15.256800
520.000000	15.051400
519.000000	14.873200
518.000000	14.708300
517.000000	14.562900
516.000000	14.422500
515.000000	14.274600
514.000000	14.106900
513.000000	13.931800
512.000000	13.743300
511.000000	13.559600
510.000000	13.368500
509.000000	13.166700
508.000000	12.970400
507.000000	12.778200
506.000000	12.576000
505.000000	12.356700
504.000000	12.152600
503.000000	11.946400
502.000000	11.753400
501.000000	11.594900
500.000000	11.438200
499.000000	11.292100
498.000000	11.157200
497.000000	11.021300
496.000000	10.895100
495.000000	10.770500
494.000000	10.657700
493.000000	10.564700
492.000000	10.461600
491.000000	10.366700
490.000000	10.259900
489.000000	10.145900
488.000000	10.045100
487.000000	9.935800
486.000000	9.824200
485.000000	9.703200
484.000000	9.566300
483.000000	9.422600
482.000000	9.282900
481.000000	9.156800
480.000000	9.031200
479.000000	8.905000
478.000000	8.767100
477.000000	8.616100
476.000000	8.468800
475.000000	8.333900
474.000000	8.190400
473.000000	8.047100
472.000000	7.909000
471.000000	7.768600
470.000000	7.636000
469.000000	7.520200
468.000000	7.420800
467.000000	7.326800
466.000000	7.248100
465.000000	7.186500
464.000000	7.139300
463.000000	7.110800
462.000000	7.101800
461.000000	7.102600
460.000000	7.114300
459.000000	7.143600
458.000000	7.184900
457.000000	7.221100
456.000000	7.263800
455.000000	7.326400
454.000000	7.378900
453.000000	7.430800
452.000000	7.481600
451.000000	7.521100
450.000000	7.562000
449.000000	7.585200
448.000000	7.606600
447.000000	7.630200
446.000000	7.634800
445.000000	7.628900
444.000000	7.618500
443.000000	7.604000
442.000000	7.580800
441.000000	7.535400
440.000000	7.487600
439.000000	7.454800
438.000000	7.412500
437.000000	7.360500
436.000000	7.306300
435.000000	7.242700
434.000000	7.185900
433.000000	7.126500
432.000000	7.055500
431.000000	6.964700
430.000000	6.886700
429.000000	6.808100
428.000000	6.720200
427.000000	6.631000
426.000000	6.541100
425.000000	6.450100
424.000000	6.336900
423.000000	6.232600
422.000000	6.133400
421.000000	6.030000
420.000000	5.916200
419.000000	5.798900
418.000000	5.680400
417.000000	5.551500
416.000000	5.426900
415.000000	5.295700
414.000000	5.159100
413.000000	5.033700
412.000000	4.897000
411.000000	4.752600
410.000000	4.615000
409.000000	4.481300
408.000000	4.345800
407.000000	4.218600
406.000000	4.094800
405.000000	3.966800
404.000000	3.854100
403.000000	3.745200
402.000000	3.627300
401.000000	3.516700
400.000000	3.413400
399.000000	3.324800
398.000000	3.241000
397.000000	3.144900
396.000000	3.067600
395.000000	3.011500
394.000000	2.938500
393.000000	2.874400
392.000000	2.812400
391.000000	2.763400
390.000000	2.723000
389.000000	2.681300
388.000000	2.638900
387.000000	2.618900
386.000000	2.581300
385.000000	2.549700
384.000000	2.522600
383.000000	2.502600
382.000000	2.482500
381.000000	2.466300
380.000000	2.445300
379.000000	2.422500
378.000000	2.410200
377.000000	2.391800
376.000000	2.674200
375.000000	2.631600
374.000000	2.559900
373.000000	2.583500
372.000000	2.588600
371.000000	2.576000
370.000000	2.635500
369.000000	2.686800
368.000000	2.700400
367.000000	2.656500
366.000000	2.664100
365.000000	2.577200
364.000000	2.583700
363.000000	2.656600
362.000000	2.635900
361.000000	2.637800
360.000000	2.652500
359.000000	2.668300
358.000000	2.671000
357.000000	2.649000
356.000000	2.627800
355.000000	2.558600
354.000000	2.589400
353.000000	2.581500
352.000000	2.624800
351.000000	2.560300
350.000000	2.603800
349.000000	2.625400
348.000000	2.569100
347.000000	2.619700
346.000000	2.586000
345.000000	2.624200
344.000000	2.642000
343.000000	2.625000
342.000000	2.696800
341.000000	2.704500
340.000000	2.644500
339.000000	2.601200
338.000000	2.697200
337.000000	2.487300
336.000000	2.580100
335.000000	2.614900
334.000000	2.689000
333.000000	2.650100
332.000000	2.651900
331.000000	2.769100
330.000000	2.683700
329.000000	2.545400
328.000000	2.672600
327.000000	2.759700
326.000000	2.859900
325.000000	2.881400
324.000000	2.707900
323.000000	2.612900
322.000000	2.824600
321.000000	2.474100
320.000000	2.751700
319.000000	2.500400
318.000000	2.992800
317.000000	2.839700
316.000000	2.507700
315.000000	2.496300
314.000000	2.451400
313.000000	2.458100
312.000000	2.442600
311.000000	2.448400
310.000000	2.509800
309.000000	2.503700
308.000000	2.473100
307.000000	2.489500
306.000000	2.502800
305.000000	2.477800
304.000000	2.457400
303.000000	2.440000
302.000000	2.488800
301.000000	2.489800
300.000000	2.495900
299.000000	2.494100
298.000000	2.460400
297.000000	2.512400
296.000000	2.524000
295.000000	2.485100
294.000000	2.485400
293.000000	2.517700
292.000000	2.512500
291.000000	2.528500
290.000000	2.511000
289.000000	2.478400
288.000000	2.559600
287.000000	2.541300
286.000000	2.549300
285.000000	2.519700
284.000000	2.591500
283.000000	2.523500
282.000000	2.570400
281.000000	2.551800
280.000000	2.533600
279.000000	2.551700
278.000000	2.572000
277.000000	2.541700
276.000000	2.559200
275.000000	2.597000
274.000000	2.570800
273.000000	2.617600
272.000000	2.596500
271.000000	2.620600
270.000000	2.596500
269.000000	2.613000
268.000000	2.646500
267.000000	2.650600
266.000000	2.655200
265.000000	2.661800
264.000000	2.664500
263.000000	2.639200
262.000000	2.700500
261.000000	2.674100
260.000000	2.679400
259.000000	2.702500
258.000000	2.726000
257.000000	2.707400
256.000000	2.752500
255.000000	2.745400
254.000000	2.769700
253.000000	2.774600
252.000000	2.762400
251.000000	2.737400
250.000000	2.758700
