PE UV       SUBTECH     SPECTRUM    ASCII       PEDS        4.00        
   -1
CICIMAUCR0014-2.Sample.ASC
24/04/04
11:56:19.00
24/04/04
11:56:19.00
Vinicio Soto Monge
C. cupreomarginata
250,000000
1
Lambda 1050
1050L1511233
PerkinElmer UV WinLab 6.3.2.0749 / 2.02.05 Lambda 900 UV/VIS/NIR, Aug  7 2015 09:38:08

0
0
3350/servo 860,8/2
0
0
UV/VIS
1
1
1
DoubleDePol,CommonBeamDepol,RBeamAtt,SBeamAtt,60mm sphere, WB InGaAs Detector
0
0
0
0
Program
Program
3350/servo 860,8/2
3350/0,2 860,8/0,2
3350/0,2 860,8/0,2
0
15.00
 
 
 
0
 
860,8
319,2
860,8
Front
100
on
S:100 R:100
0
0
0
0
 
0
 
 
 
0
 
 
0
0
0
0
0
 
 
 
 
0
0


0
0
#HDR
-1
-1
#GR
nm
%R
1.0
0.0
2500,000000
-1,000000
2251
8
66,693600
4,828800
#DATA
2500.000000	11.332167
2499.000000	11.205438
2498.000000	11.288202
2497.000000	11.272602
2496.000000	11.318086
2495.000000	11.258926
2494.000000	11.296712
2493.000000	11.349693
2492.000000	11.352023
2491.000000	11.384642
2490.000000	11.369751
2489.000000	11.341893
2488.000000	11.340474
2487.000000	11.321632
2486.000000	11.404497
2485.000000	11.358607
2484.000000	11.367421
2483.000000	11.481386
2482.000000	11.415134
2481.000000	11.388492
2480.000000	11.457985
2479.000000	11.512485
2478.000000	11.512283
2477.000000	11.580662
2476.000000	11.573672
2475.000000	11.564859
2474.000000	11.617029
2473.000000	11.662007
2472.000000	11.708910
2471.000000	11.716407
2470.000000	11.740415
2469.000000	11.784887
2468.000000	11.853266
2467.000000	11.882137
2466.000000	11.913237
2465.000000	12.008866
2464.000000	12.068533
2463.000000	12.147650
2462.000000	12.187766
2461.000000	12.284408
2460.000000	12.342353
2459.000000	12.412859
2458.000000	12.502511
2457.000000	12.573423
2456.000000	12.676245
2455.000000	12.751310
2454.000000	12.868010
2453.000000	12.945810
2452.000000	13.039616
2451.000000	13.143349
2450.000000	13.253971
2449.000000	13.377864
2448.000000	13.480989
2447.000000	13.611973
2446.000000	13.712465
2445.000000	13.848615
2444.000000	13.951943
2443.000000	14.075633
2442.000000	14.160220
2441.000000	14.285632
2440.000000	14.396153
2439.000000	14.521666
2438.000000	14.614459
2437.000000	14.731362
2436.000000	14.844618
2435.000000	14.961723
2434.000000	15.077207
2433.000000	15.157540
2432.000000	15.258741
2431.000000	15.356194
2430.000000	15.470260
2429.000000	15.573386
2428.000000	15.658885
2427.000000	15.756641
2426.000000	15.840823
2425.000000	15.931185
2424.000000	16.014962
2423.000000	16.086684
2422.000000	16.176539
2421.000000	16.268521
2420.000000	16.342168
2419.000000	16.400011
2418.000000	16.475481
2417.000000	16.541429
2416.000000	16.588839
2415.000000	16.653165
2414.000000	16.719113
2413.000000	16.769258
2412.000000	16.824569
2411.000000	16.882108
2410.000000	16.932557
2409.000000	16.958186
2408.000000	16.996884
2407.000000	17.057766
2406.000000	17.109532
2405.000000	17.142860
2404.000000	17.175986
2403.000000	17.201919
2402.000000	17.234133
2401.000000	17.274553
2400.000000	17.305349
2399.000000	17.329763
2398.000000	17.345768
2397.000000	17.377375
2396.000000	17.420833
2395.000000	17.439574
2394.000000	17.460746
2393.000000	17.477968
2392.000000	17.499241
2391.000000	17.516665
2390.000000	17.524263
2389.000000	17.522642
2388.000000	17.526289
2387.000000	17.541585
2386.000000	17.522135
2385.000000	17.513221
2384.000000	17.510486
2383.000000	17.497519
2382.000000	17.494885
2381.000000	17.460544
2380.000000	17.426202
2379.000000	17.424784
2378.000000	17.412020
2377.000000	17.381933
2376.000000	17.354784
2375.000000	17.319632
2374.000000	17.271514
2373.000000	17.241934
2372.000000	17.205364
2371.000000	17.163526
2370.000000	17.136478
2369.000000	17.095147
2368.000000	17.056044
2367.000000	17.019373
2366.000000	16.975408
2365.000000	16.938534
2364.000000	16.890314
2363.000000	16.834901
2362.000000	16.788201
2361.000000	16.754670
2360.000000	16.715466
2359.000000	16.661776
2358.000000	16.616899
2357.000000	16.584786
2356.000000	16.550445
2355.000000	16.502428
2354.000000	16.464136
2353.000000	16.442254
2352.000000	16.399505
2351.000000	16.372660
2350.000000	16.366987
2349.000000	16.350171
2348.000000	16.339433
2347.000000	16.339331
2346.000000	16.331632
2345.000000	16.320185
2344.000000	16.314107
2343.000000	16.301748
2342.000000	16.294961
2341.000000	16.279158
2340.000000	16.272573
2339.000000	16.259809
2338.000000	16.260619
2337.000000	16.230634
2336.000000	16.209563
2335.000000	16.180895
2334.000000	16.150200
2333.000000	16.134093
2332.000000	16.105121
2331.000000	16.077263
2330.000000	16.035526
2329.000000	16.011315
2328.000000	15.979810
2327.000000	15.931084
2326.000000	15.893703
2325.000000	15.852574
2324.000000	15.805975
2323.000000	15.752589
2322.000000	15.697886
2321.000000	15.636598
2320.000000	15.562648
2319.000000	15.496801
2318.000000	15.409681
2317.000000	15.319725
2316.000000	15.232200
2315.000000	15.120362
2314.000000	15.032027
2313.000000	14.939538
2312.000000	14.842085
2311.000000	14.742708
2310.000000	14.651536
2309.000000	14.571304
2308.000000	14.514373
2307.000000	14.463215
2306.000000	14.396254
2305.000000	14.346211
2304.000000	14.330104
2303.000000	14.299207
2302.000000	14.289178
2301.000000	14.295661
2300.000000	14.294952
2299.000000	14.286645
2298.000000	14.307412
2297.000000	14.333852
2296.000000	14.334966
2295.000000	14.335372
2294.000000	14.348642
2293.000000	14.366066
2292.000000	14.370726
2291.000000	14.355632
2290.000000	14.332434
2289.000000	14.335878
2288.000000	14.310654
2287.000000	14.279352
2286.000000	14.241262
2285.000000	14.206921
2284.000000	14.193245
2283.000000	14.133578
2282.000000	14.082825
2281.000000	14.045749
2280.000000	13.985373
2279.000000	13.925908
2278.000000	13.872218
2277.000000	13.813969
2276.000000	13.763926
2275.000000	13.707400
2274.000000	13.665562
2273.000000	13.623015
2272.000000	13.585634
2271.000000	13.529006
2270.000000	13.519079
2269.000000	13.496995
2268.000000	13.500135
2267.000000	13.505606
2266.000000	13.544810
2265.000000	13.579151
2264.000000	13.632639
2263.000000	13.693217
2262.000000	13.766661
2261.000000	13.857833
2260.000000	13.953463
2259.000000	14.076747
2258.000000	14.196183
2257.000000	14.325039
2256.000000	14.460075
2255.000000	14.587411
2254.000000	14.744126
2253.000000	14.880276
2252.000000	14.995153
2251.000000	15.143257
2250.000000	15.269479
2249.000000	15.382937
2248.000000	15.502879
2247.000000	15.597901
2246.000000	15.710245
2245.000000	15.806077
2244.000000	15.880939
2243.000000	15.964007
2242.000000	16.049404
2241.000000	16.096713
2240.000000	16.135613
2239.000000	16.182110
2238.000000	16.237421
2237.000000	16.255757
2236.000000	16.242182
2235.000000	16.272978
2234.000000	16.248666
2233.000000	16.227899
2232.000000	16.215236
2231.000000	16.160432
2230.000000	16.120519
2229.000000	16.038768
2228.000000	15.956510
2227.000000	15.890867
2226.000000	15.788045
2225.000000	15.653009
2224.000000	15.543197
2223.000000	15.438654
2222.000000	15.321650
2221.000000	15.186715
2220.000000	15.052794
2219.000000	14.914010
2218.000000	14.784748
2217.000000	14.652042
2216.000000	14.553779
2215.000000	14.440523
2214.000000	14.340842
2213.000000	14.271653
2212.000000	14.215329
2211.000000	14.187167
2210.000000	14.153028
2209.000000	14.160322
2208.000000	14.188787
2207.000000	14.240958
2206.000000	14.341855
2205.000000	14.459872
2204.000000	14.589235
2203.000000	14.725486
2202.000000	14.917859
2201.000000	15.101014
2200.000000	15.295311
2199.000000	15.522228
2198.000000	15.730910
2197.000000	15.953370
2196.000000	16.168941
2195.000000	16.382689
2194.000000	16.571313
2193.000000	16.778983
2192.000000	16.962137
2191.000000	17.129590
2190.000000	17.296535
2189.000000	17.426911
2188.000000	17.563062
2187.000000	17.656665
2186.000000	17.771643
2185.000000	17.861092
2184.000000	17.946186
2183.000000	18.020745
2182.000000	18.084666
2181.000000	18.151830
2180.000000	18.198327
2179.000000	18.238848
2178.000000	18.308848
2177.000000	18.335085
2176.000000	18.365273
2175.000000	18.400932
2174.000000	18.448442
2173.000000	18.488659
2172.000000	18.562306
2171.000000	18.604245
2170.000000	18.656011
2169.000000	18.691264
2168.000000	18.752146
2167.000000	18.811104
2166.000000	18.853955
2165.000000	18.928311
2164.000000	19.010568
2163.000000	19.079352
2162.000000	19.135575
2161.000000	19.219352
2160.000000	19.305965
2159.000000	19.394909
2158.000000	19.485372
2157.000000	19.584749
2156.000000	19.677744
2155.000000	19.793128
2154.000000	19.914690
2153.000000	20.022172
2152.000000	20.131072
2151.000000	20.248785
2150.000000	20.383111
2149.000000	20.508118
2148.000000	20.633125
2147.000000	20.757423
2146.000000	20.887900
2145.000000	21.008855
2144.000000	21.132342
2143.000000	21.251372
2142.000000	21.367465
2141.000000	21.477783
2140.000000	21.593166
2139.000000	21.711385
2138.000000	21.809649
2137.000000	21.915205
2136.000000	22.014279
2135.000000	22.111023
2134.000000	22.203815
2133.000000	22.277563
2132.000000	22.362049
2131.000000	22.449473
2130.000000	22.517953
2129.000000	22.578735
2128.000000	22.644986
2127.000000	22.709111
2126.000000	22.768676
2125.000000	22.816390
2124.000000	22.855492
2123.000000	22.899964
2122.000000	22.928936
2121.000000	22.966317
2120.000000	22.995796
2119.000000	23.019804
2118.000000	23.035304
2117.000000	23.051917
2116.000000	23.058704
2115.000000	23.071468
2114.000000	23.078863
2113.000000	23.087981
2112.000000	23.085246
2111.000000	23.080788
2110.000000	23.075824
2109.000000	23.075521
2108.000000	23.070354
2107.000000	23.051816
2106.000000	23.039356
2105.000000	23.036114
2104.000000	23.029124
2103.000000	23.020716
2102.000000	23.007040
2101.000000	23.002076
2100.000000	22.992149
2099.000000	22.975535
2098.000000	22.970268
2097.000000	22.974218
2096.000000	22.967735
2095.000000	22.963886
2094.000000	22.969964
2093.000000	22.965608
2092.000000	22.960036
2091.000000	22.962062
2090.000000	22.969761
2089.000000	22.969558
2088.000000	22.955174
2087.000000	22.943625
2086.000000	22.925695
2085.000000	22.908372
2084.000000	22.884465
2083.000000	22.848401
2082.000000	22.819125
2081.000000	22.789646
2080.000000	22.739501
2079.000000	22.679632
2078.000000	22.613279
2077.000000	22.547939
2076.000000	22.481890
2075.000000	22.398518
2074.000000	22.299546
2073.000000	22.224785
2072.000000	22.127535
2071.000000	22.020762
2070.000000	21.940227
2069.000000	21.835278
2068.000000	21.711791
2067.000000	21.615959
2066.000000	21.519924
2065.000000	21.400185
2064.000000	21.304252
2063.000000	21.203254
2062.000000	21.096785
2061.000000	21.018681
2060.000000	20.952227
2059.000000	20.884861
2058.000000	20.821243
2057.000000	20.785180
2056.000000	20.765527
2055.000000	20.759753
2054.000000	20.790346
2053.000000	20.835628
2052.000000	20.883544
2051.000000	20.973197
2050.000000	21.063761
2049.000000	21.181980
2048.000000	21.322385
2047.000000	21.471907
2046.000000	21.643614
2045.000000	21.819981
2044.000000	21.985610
2043.000000	22.165624
2042.000000	22.367013
2041.000000	22.561311
2040.000000	22.749530
2039.000000	22.941700
2038.000000	23.095173
2037.000000	23.270325
2036.000000	23.436156
2035.000000	23.603204
2034.000000	23.755461
2033.000000	23.897993
2032.000000	24.037992
2031.000000	24.184070
2030.000000	24.320626
2029.000000	24.430336
2028.000000	24.542680
2027.000000	24.656746
2026.000000	24.763113
2025.000000	24.866340
2024.000000	24.955891
2023.000000	25.036021
2022.000000	25.115240
2021.000000	25.218365
2020.000000	25.290493
2019.000000	25.346006
2018.000000	25.410232
2017.000000	25.455716
2016.000000	25.518929
2015.000000	25.553372
2014.000000	25.597843
2013.000000	25.660752
2012.000000	25.681519
2011.000000	25.707655
2010.000000	25.720318
2009.000000	25.733487
2008.000000	25.750404
2007.000000	25.732575
2006.000000	25.737944
2005.000000	25.725788
2004.000000	25.709478
2003.000000	25.685470
2002.000000	25.636136
2001.000000	25.610607
2000.000000	25.556613
1999.000000	25.524298
1998.000000	25.478205
1997.000000	25.415702
1996.000000	25.365659
1995.000000	25.301534
1994.000000	25.234574
1993.000000	25.165080
1992.000000	25.081101
1991.000000	25.002288
1990.000000	24.917194
1989.000000	24.851246
1988.000000	24.754908
1987.000000	24.650668
1986.000000	24.572159
1985.000000	24.483722
1984.000000	24.376038
1983.000000	24.297225
1982.000000	24.198759
1981.000000	24.121871
1980.000000	24.011958
1979.000000	23.925648
1978.000000	23.817559
1977.000000	23.729325
1976.000000	23.639368
1975.000000	23.552046
1974.000000	23.477082
1973.000000	23.381352
1972.000000	23.304970
1971.000000	23.223118
1970.000000	23.140557
1969.000000	23.046953
1968.000000	22.967634
1967.000000	22.887098
1966.000000	22.802815
1965.000000	22.725623
1964.000000	22.626549
1963.000000	22.583293
1962.000000	22.481788
1961.000000	22.399936
1960.000000	22.285971
1959.000000	22.222455
1958.000000	22.137868
1957.000000	22.052166
1956.000000	21.970618
1955.000000	21.918751
1954.000000	21.809750
1953.000000	21.702066
1952.000000	21.642095
1951.000000	21.549505
1950.000000	21.492471
1949.000000	21.429158
1948.000000	21.366350
1947.000000	21.282776
1946.000000	21.250866
1945.000000	21.191908
1944.000000	21.123225
1943.000000	21.091011
1942.000000	21.077335
1941.000000	21.058290
1940.000000	21.056163
1939.000000	21.037219
1938.000000	21.012198
1937.000000	21.007335
1936.000000	21.014224
1935.000000	21.058594
1934.000000	21.097494
1933.000000	21.174180
1932.000000	21.228275
1931.000000	21.303442
1930.000000	21.389143
1929.000000	21.466133
1928.000000	21.566321
1927.000000	21.676132
1926.000000	21.793035
1925.000000	21.923107
1924.000000	22.098765
1923.000000	22.245856
1922.000000	22.447346
1921.000000	22.627360
1920.000000	22.800181
1919.000000	22.982221
1918.000000	23.189587
1917.000000	23.446894
1916.000000	23.704404
1915.000000	23.967385
1914.000000	24.267746
1913.000000	24.535285
1912.000000	24.805559
1911.000000	25.107237
1910.000000	25.419551
1909.000000	25.774818
1908.000000	26.124412
1907.000000	26.512298
1906.000000	26.920850
1905.000000	27.329300
1904.000000	27.744943
1903.000000	28.168487
1902.000000	28.624853
1901.000000	29.066126
1900.000000	29.541030
1899.000000	30.023431
1898.000000	30.509277
1897.000000	30.980737
1896.000000	31.430518
1895.000000	31.927811
1894.000000	32.442932
1893.000000	32.968387
1892.000000	33.496779
1891.000000	34.004201
1890.000000	34.492275
1889.000000	34.950566
1888.000000	35.466397
1887.000000	35.936844
1886.000000	36.395743
1885.000000	36.887768
1884.000000	37.355379
1883.000000	37.778315
1882.000000	38.174204
1881.000000	38.565332
1880.000000	38.925765
1879.000000	39.285286
1878.000000	39.634272
1877.000000	39.956109
1876.000000	40.250595
1875.000000	40.529885
1874.000000	40.798741
1873.000000	41.035585
1872.000000	41.229275
1871.000000	41.392777
1870.000000	41.480606
1869.000000	41.598116
1868.000000	41.723832
1867.000000	41.789982
1866.000000	41.868188
1865.000000	41.956017
1864.000000	42.060865
1863.000000	42.173614
1862.000000	42.267622
1861.000000	42.355451
1860.000000	42.426059
1859.000000	42.451283
1858.000000	42.472253
1857.000000	42.511963
1856.000000	42.545494
1855.000000	42.563931
1854.000000	42.558157
1853.000000	42.523309
1852.000000	42.524322
1851.000000	42.578620
1850.000000	42.661992
1849.000000	42.700486
1848.000000	42.622484
1847.000000	42.486232
1846.000000	42.388273
1845.000000	42.378852
1844.000000	42.410762
1843.000000	42.473671
1842.000000	42.483193
1841.000000	42.405596
1840.000000	42.309764
1839.000000	42.247261
1838.000000	42.224265
1837.000000	42.161255
1836.000000	42.066639
1835.000000	41.977594
1834.000000	41.910532
1833.000000	41.865453
1832.000000	41.844382
1831.000000	41.816726
1830.000000	41.745308
1829.000000	41.689288
1828.000000	41.622429
1827.000000	41.555873
1826.000000	41.488912
1825.000000	41.437856
1824.000000	41.446872
1823.000000	41.518189
1822.000000	41.564585
1821.000000	41.532776
1820.000000	41.454064
1819.000000	41.381127
1818.000000	41.371908
1817.000000	41.397133
1816.000000	41.408479
1815.000000	41.370085
1814.000000	41.354484
1813.000000	41.365729
1812.000000	41.346076
1811.000000	41.292893
1810.000000	41.214789
1809.000000	41.188957
1808.000000	41.189261
1807.000000	41.174369
1806.000000	41.114905
1805.000000	41.039637
1804.000000	41.016743
1803.000000	41.012184
1802.000000	40.992836
1801.000000	40.948060
1800.000000	40.884037
1799.000000	40.838856
1798.000000	40.813936
1797.000000	40.793473
1796.000000	40.748697
1795.000000	40.703314
1794.000000	40.676672
1793.000000	40.640000
1792.000000	40.618828
1791.000000	40.579725
1790.000000	40.552678
1789.000000	40.519451
1788.000000	40.494936
1787.000000	40.483894
1786.000000	40.459581
1785.000000	40.420985
1784.000000	40.382591
1783.000000	40.337917
1782.000000	40.299726
1781.000000	40.254444
1780.000000	40.190219
1779.000000	40.136832
1778.000000	40.070885
1777.000000	39.988323
1776.000000	39.898975
1775.000000	39.821783
1774.000000	39.718657
1773.000000	39.644605
1772.000000	39.550597
1771.000000	39.447370
1770.000000	39.358325
1769.000000	39.264013
1768.000000	39.175779
1767.000000	39.094636
1766.000000	39.023218
1765.000000	38.952509
1764.000000	38.909253
1763.000000	38.880280
1762.000000	38.850092
1761.000000	38.818587
1760.000000	38.818283
1759.000000	38.813725
1758.000000	38.813927
1757.000000	38.789311
1756.000000	38.775736
1755.000000	38.767632
1754.000000	38.729137
1753.000000	38.704622
1752.000000	38.674232
1751.000000	38.607372
1750.000000	38.555607
1749.000000	38.474869
1748.000000	38.396866
1747.000000	38.296273
1746.000000	38.177446
1745.000000	38.064899
1744.000000	37.913351
1743.000000	37.778011
1742.000000	37.636999
1741.000000	37.471674
1740.000000	37.316985
1739.000000	37.173541
1738.000000	37.041747
1737.000000	36.928795
1736.000000	36.851299
1735.000000	36.764179
1734.000000	36.735511
1733.000000	36.702081
1732.000000	36.678376
1731.000000	36.677464
1730.000000	36.668550
1729.000000	36.673716
1728.000000	36.670981
1727.000000	36.665713
1726.000000	36.640287
1725.000000	36.660243
1724.000000	36.680504
1723.000000	36.713933
1722.000000	36.775221
1721.000000	36.866900
1720.000000	36.994135
1719.000000	37.169996
1718.000000	37.337549
1717.000000	37.508750
1716.000000	37.719965
1715.000000	37.869386
1714.000000	38.044335
1713.000000	38.192540
1712.000000	38.329602
1711.000000	38.434247
1710.000000	38.520759
1709.000000	38.581945
1708.000000	38.614970
1707.000000	38.658125
1706.000000	38.676562
1705.000000	38.660961
1704.000000	38.653161
1703.000000	38.615882
1702.000000	38.561077
1701.000000	38.482061
1700.000000	38.414999
1699.000000	38.333552
1698.000000	38.283003
1697.000000	38.238024
1696.000000	38.188082
1695.000000	38.172988
1694.000000	38.169747
1693.000000	38.144117
1692.000000	38.142091
1691.000000	38.119096
1690.000000	38.120615
1689.000000	38.136722
1688.000000	38.198111
1687.000000	38.264363
1686.000000	38.389876
1685.000000	38.549022
1684.000000	38.768848
1683.000000	39.044998
1682.000000	39.352348
1681.000000	39.688672
1680.000000	40.045559
1679.000000	40.399914
1678.000000	40.721548
1677.000000	41.032951
1676.000000	41.298870
1675.000000	41.567016
1674.000000	41.812573
1673.000000	42.061168
1672.000000	42.294771
1671.000000	42.527766
1670.000000	42.728547
1669.000000	42.947664
1668.000000	43.138213
1667.000000	43.328256
1666.000000	43.487807
1665.000000	43.639051
1664.000000	43.784521
1663.000000	43.932523
1662.000000	44.069889
1661.000000	44.202392
1660.000000	44.289512
1659.000000	44.404592
1658.000000	44.476921
1657.000000	44.558672
1656.000000	44.612970
1655.000000	44.664634
1654.000000	44.698267
1653.000000	44.745777
1652.000000	44.729164
1651.000000	44.753375
1650.000000	44.763505
1649.000000	44.744764
1648.000000	44.737065
1647.000000	44.713259
1646.000000	44.695227
1645.000000	44.673245
1644.000000	44.646096
1643.000000	44.630495
1642.000000	44.604967
1641.000000	44.588860
1640.000000	44.567080
1639.000000	44.551277
1638.000000	44.518557
1637.000000	44.486545
1636.000000	44.458079
1635.000000	44.429613
1634.000000	44.391220
1633.000000	44.355460
1632.000000	44.304910
1631.000000	44.246864
1630.000000	44.174433
1629.000000	44.119325
1628.000000	44.075056
1627.000000	44.031597
1626.000000	43.962408
1625.000000	43.889470
1624.000000	43.853001
1623.000000	43.800628
1622.000000	43.734174
1621.000000	43.691120
1620.000000	43.634695
1619.000000	43.589312
1618.000000	43.550918
1617.000000	43.491960
1616.000000	43.444855
1615.000000	43.398864
1614.000000	43.340615
1613.000000	43.286823
1612.000000	43.231512
1611.000000	43.161817
1610.000000	43.087967
1609.000000	43.024653
1608.000000	42.962960
1607.000000	42.880196
1606.000000	42.809082
1605.000000	42.716492
1604.000000	42.634336
1603.000000	42.563323
1602.000000	42.473570
1601.000000	42.396884
1600.000000	42.318577
1599.000000	42.239663
1598.000000	42.167130
1597.000000	42.087811
1596.000000	42.013860
1595.000000	41.953586
1594.000000	41.883180
1593.000000	41.810243
1592.000000	41.746321
1591.000000	41.692023
1590.000000	41.647450
1589.000000	41.591532
1588.000000	41.536524
1587.000000	41.493572
1586.000000	41.435526
1585.000000	41.370490
1584.000000	41.327437
1583.000000	41.294817
1582.000000	41.250447
1581.000000	41.194224
1580.000000	41.149348
1579.000000	41.128479
1578.000000	41.105382
1577.000000	41.093935
1576.000000	41.088465
1575.000000	41.073675
1574.000000	41.072257
1573.000000	41.079550
1572.000000	41.087249
1571.000000	41.102647
1570.000000	41.116222
1569.000000	41.136280
1568.000000	41.168494
1567.000000	41.195541
1566.000000	41.218233
1565.000000	41.250143
1564.000000	41.269593
1563.000000	41.278508
1562.000000	41.289854
1561.000000	41.286916
1560.000000	41.268682
1559.000000	41.263414
1558.000000	41.246598
1557.000000	41.204861
1556.000000	41.163023
1555.000000	41.123718
1554.000000	41.072459
1553.000000	41.001142
1552.000000	40.936410
1551.000000	40.867728
1550.000000	40.793068
1549.000000	40.713140
1548.000000	40.625311
1547.000000	40.561592
1546.000000	40.490883
1545.000000	40.428380
1544.000000	40.371651
1543.000000	40.319075
1542.000000	40.289697
1541.000000	40.262042
1540.000000	40.225067
1539.000000	40.194068
1538.000000	40.159524
1537.000000	40.130045
1536.000000	40.106340
1535.000000	40.086384
1534.000000	40.042925
1533.000000	39.983258
1532.000000	39.945067
1531.000000	39.913562
1530.000000	39.890769
1529.000000	39.831609
1528.000000	39.784301
1527.000000	39.727369
1526.000000	39.676920
1525.000000	39.628903
1524.000000	39.584533
1523.000000	39.530336
1522.000000	39.486979
1521.000000	39.424172
1520.000000	39.377269
1519.000000	39.320742
1518.000000	39.262493
1517.000000	39.212957
1516.000000	39.153492
1515.000000	39.101322
1514.000000	39.045909
1513.000000	38.997082
1512.000000	38.937009
1511.000000	38.891018
1510.000000	38.841279
1509.000000	38.793566
1508.000000	38.732683
1507.000000	38.667546
1506.000000	38.608689
1505.000000	38.569789
1504.000000	38.519847
1503.000000	38.478718
1502.000000	38.447923
1501.000000	38.389370
1500.000000	38.368400
1499.000000	38.340846
1498.000000	38.330817
1497.000000	38.336389
1496.000000	38.306809
1495.000000	38.289790
1494.000000	38.304681
1493.000000	38.347329
1492.000000	38.366577
1491.000000	38.380354
1490.000000	38.419659
1489.000000	38.448936
1488.000000	38.479326
1487.000000	38.510021
1486.000000	38.536359
1485.000000	38.556822
1484.000000	38.614869
1483.000000	38.649109
1482.000000	38.697936
1481.000000	38.743016
1480.000000	38.783435
1479.000000	38.831250
1478.000000	38.904188
1477.000000	38.950989
1476.000000	39.013999
1475.000000	39.061408
1474.000000	39.161596
1473.000000	39.246893
1472.000000	39.342218
1471.000000	39.398340
1470.000000	39.457703
1469.000000	39.507543
1468.000000	39.601045
1467.000000	39.691103
1466.000000	39.773158
1465.000000	39.853895
1464.000000	39.960465
1463.000000	40.029655
1462.000000	40.131159
1461.000000	40.225978
1460.000000	40.330421
1459.000000	40.425442
1458.000000	40.519957
1457.000000	40.631187
1456.000000	40.762576
1455.000000	40.839566
1454.000000	40.956063
1453.000000	41.085730
1452.000000	41.232213
1451.000000	41.330780
1450.000000	41.392675
1449.000000	41.471691
1448.000000	41.571676
1447.000000	41.719780
1446.000000	41.888651
1445.000000	41.951965
1444.000000	42.023180
1443.000000	42.165206
1442.000000	42.298621
1441.000000	42.403772
1440.000000	42.529894
1439.000000	42.652570
1438.000000	42.791456
1437.000000	42.892859
1436.000000	43.037012
1435.000000	43.163843
1434.000000	43.305159
1433.000000	43.484363
1432.000000	43.610079
1431.000000	43.721511
1430.000000	43.873059
1429.000000	44.082653
1428.000000	44.252233
1427.000000	44.411987
1426.000000	44.618035
1425.000000	44.860654
1424.000000	45.089192
1423.000000	45.256543
1422.000000	45.474039
1421.000000	45.730232
1420.000000	45.991997
1419.000000	46.222763
1418.000000	46.395382
1417.000000	46.561214
1416.000000	46.873629
1415.000000	47.158086
1414.000000	47.395741
1413.000000	47.590342
1412.000000	47.787071
1411.000000	48.098980
1410.000000	48.405825
1409.000000	48.670426
1408.000000	48.894000
1407.000000	49.136011
1406.000000	49.379237
1405.000000	49.612334
1404.000000	49.713129
1403.000000	49.941059
1402.000000	50.191478
1401.000000	50.486673
1400.000000	50.467527
1399.000000	50.428728
1398.000000	50.505515
1397.000000	50.664559
1396.000000	50.750362
1395.000000	50.688872
1394.000000	50.621708
1393.000000	50.613098
1392.000000	50.604183
1391.000000	50.554343
1390.000000	50.565384
1389.000000	50.657873
1388.000000	50.726759
1387.000000	50.756947
1386.000000	50.866961
1385.000000	51.065412
1384.000000	51.280375
1383.000000	51.463023
1382.000000	51.694802
1381.000000	51.937016
1380.000000	52.174873
1379.000000	52.682802
1378.000000	53.160138
1377.000000	53.730166
1376.000000	54.312957
1375.000000	54.885517
1374.000000	55.496268
1373.000000	56.097496
1372.000000	56.640374
1371.000000	57.073340
1370.000000	57.428100
1369.000000	57.757028
1368.000000	58.027201
1367.000000	58.202150
1366.000000	58.402323
1365.000000	58.612424
1364.000000	58.760325
1363.000000	58.925245
1362.000000	59.069601
1361.000000	59.138182
1360.000000	59.143551
1359.000000	59.225606
1358.000000	59.338558
1357.000000	59.478355
1356.000000	59.635576
1355.000000	59.803231
1354.000000	59.985068
1353.000000	60.182709
1352.000000	60.421579
1351.000000	60.663084
1350.000000	60.903575
1349.000000	61.133024
1348.000000	61.371996
1347.000000	61.558494
1346.000000	61.766062
1345.000000	61.986597
1344.000000	62.196697
1343.000000	62.368303
1342.000000	62.550343
1341.000000	62.728027
1340.000000	62.868331
1339.000000	63.013294
1338.000000	63.170819
1337.000000	63.312338
1336.000000	63.425391
1335.000000	63.540268
1334.000000	63.661324
1333.000000	63.770730
1332.000000	63.887127
1331.000000	63.987922
1330.000000	64.065216
1329.000000	64.144941
1328.000000	64.221221
1327.000000	64.294969
1326.000000	64.365678
1325.000000	64.431626
1324.000000	64.499802
1323.000000	64.556531
1322.000000	64.607385
1321.000000	64.668774
1320.000000	64.727428
1319.000000	64.769772
1318.000000	64.809280
1317.000000	64.856386
1316.000000	64.902276
1315.000000	64.952623
1314.000000	65.003578
1313.000000	65.033867
1312.000000	65.072565
1311.000000	65.116327
1310.000000	65.142767
1309.000000	65.170625
1308.000000	65.203650
1307.000000	65.231508
1306.000000	65.254098
1305.000000	65.268990
1304.000000	65.280234
1303.000000	65.291681
1302.000000	65.290668
1301.000000	65.285603
1300.000000	65.299279
1299.000000	65.302622
1298.000000	65.296544
1297.000000	65.292188
1296.000000	65.283273
1295.000000	65.285806
1294.000000	65.275473
1293.000000	65.252072
1292.000000	65.237282
1291.000000	65.217629
1290.000000	65.190480
1289.000000	65.165965
1288.000000	65.136993
1287.000000	65.105893
1286.000000	65.076414
1285.000000	65.031537
1284.000000	64.977037
1283.000000	64.946241
1282.000000	64.921624
1281.000000	64.886979
1280.000000	64.847167
1279.000000	64.814447
1278.000000	64.801277
1277.000000	64.783550
1276.000000	64.755590
1275.000000	64.747385
1274.000000	64.739584
1273.000000	64.739179
1272.000000	64.748499
1271.000000	64.750728
1270.000000	64.758325
1269.000000	64.755286
1268.000000	64.759338
1267.000000	64.742421
1266.000000	64.726111
1265.000000	64.727529
1264.000000	64.716184
1263.000000	64.704534
1262.000000	64.708991
1261.000000	64.689339
1260.000000	64.682754
1259.000000	64.667862
1258.000000	64.645475
1257.000000	64.616198
1256.000000	64.591177
1255.000000	64.558861
1254.000000	64.517935
1253.000000	64.476705
1252.000000	64.431524
1251.000000	64.380164
1250.000000	64.335591
1249.000000	64.275215
1248.000000	64.225273
1247.000000	64.176952
1246.000000	64.127922
1245.000000	64.055896
1244.000000	63.990151
1243.000000	63.944970
1242.000000	63.896750
1241.000000	63.872438
1240.000000	63.826244
1239.000000	63.786534
1238.000000	63.762728
1237.000000	63.738415
1236.000000	63.708835
1235.000000	63.691411
1234.000000	63.647547
1233.000000	63.616549
1232.000000	63.578560
1231.000000	63.538445
1230.000000	63.516057
1229.000000	63.459935
1228.000000	63.414755
1227.000000	63.369371
1226.000000	63.321759
1225.000000	63.289444
1224.000000	63.247606
1223.000000	63.199285
1222.000000	63.156941
1221.000000	63.111456
1220.000000	63.053511
1219.000000	63.018967
1218.000000	62.968113
1217.000000	62.922629
1216.000000	62.872079
1215.000000	62.825986
1214.000000	62.769055
1213.000000	62.712629
1212.000000	62.662282
1211.000000	62.581443
1210.000000	62.532109
1209.000000	62.471327
1208.000000	62.382080
1207.000000	62.319070
1206.000000	62.271965
1205.000000	62.214324
1204.000000	62.149794
1203.000000	62.090533
1202.000000	62.044643
1201.000000	61.983051
1200.000000	61.915786
1199.000000	61.847610
1198.000000	61.755020
1197.000000	61.672560
1196.000000	61.577032
1195.000000	61.466815
1194.000000	61.330969
1193.000000	61.185904
1192.000000	61.054313
1191.000000	60.908539
1190.000000	60.802678
1189.000000	60.698641
1188.000000	60.606253
1187.000000	60.587411
1186.000000	60.607570
1185.000000	60.636745
1184.000000	60.723358
1183.000000	60.835804
1182.000000	60.962026
1181.000000	61.107294
1180.000000	61.256005
1179.000000	61.402590
1178.000000	61.536308
1177.000000	61.702647
1176.000000	61.812357
1175.000000	61.929361
1174.000000	62.046567
1173.000000	62.172993
1172.000000	62.301444
1171.000000	62.435264
1170.000000	62.595321
1169.000000	62.744438
1168.000000	62.883627
1167.000000	63.066883
1166.000000	63.218937
1165.000000	63.396622
1164.000000	63.573799
1163.000000	63.735579
1162.000000	63.916808
1161.000000	64.078284
1160.000000	64.227603
1159.000000	64.391611
1158.000000	64.512668
1157.000000	64.645677
1156.000000	64.758123
1155.000000	64.845243
1154.000000	64.931755
1153.000000	64.999222
1152.000000	65.046023
1151.000000	65.076110
1150.000000	65.114706
1149.000000	65.169004
1148.000000	65.199192
1147.000000	65.257644
1146.000000	65.286312
1145.000000	65.369076
1144.000000	65.411623
1143.000000	65.497325
1142.000000	65.611999
1141.000000	65.723532
1140.000000	65.826354
1139.000000	65.948930
1138.000000	66.083662
1137.000000	66.247569
1136.000000	66.432040
1135.000000	66.562821
1134.000000	66.672734
1133.000000	66.725107
1132.000000	66.847075
1131.000000	66.985859
1130.000000	67.088680
1129.000000	67.186133
1128.000000	67.232833
1127.000000	67.312457
1126.000000	67.365641
1125.000000	67.417305
1124.000000	67.468868
1123.000000	67.493687
1122.000000	67.514048
1121.000000	67.530662
1120.000000	67.544844
1119.000000	67.551935
1118.000000	67.552847
1117.000000	67.562066
1116.000000	67.545452
1115.000000	67.545452
1114.000000	67.547478
1113.000000	67.531067
1112.000000	67.544135
1111.000000	67.557203
1110.000000	67.536132
1109.000000	67.523368
1108.000000	67.518809
1107.000000	67.525901
1106.000000	67.523875
1105.000000	67.507565
1104.000000	67.490344
1103.000000	67.477276
1102.000000	67.474034
1101.000000	67.463802
1100.000000	67.458332
1099.000000	67.443542
1098.000000	67.431588
1097.000000	67.420344
1096.000000	67.410011
1095.000000	67.391473
1094.000000	67.362298
1093.000000	67.334136
1092.000000	67.329881
1091.000000	67.304049
1090.000000	67.272037
1089.000000	67.249244
1088.000000	67.229693
1087.000000	67.197682
1086.000000	67.159997
1085.000000	67.131835
1084.000000	67.100837
1083.000000	67.084628
1082.000000	67.045121
1081.000000	66.999129
1080.000000	66.957595
1079.000000	66.914643
1078.000000	66.886887
1077.000000	66.847581
1076.000000	66.814253
1075.000000	66.776974
1074.000000	66.748001
1073.000000	66.712444
1072.000000	66.671923
1071.000000	66.622893
1070.000000	66.580346
1069.000000	66.529290
1068.000000	66.491403
1067.000000	66.449970
1066.000000	66.407727
1065.000000	66.370549
1064.000000	66.336613
1063.000000	66.291230
1062.000000	66.247670
1061.000000	66.189016
1060.000000	66.153864
1059.000000	66.129450
1058.000000	66.076368
1057.000000	66.036252
1056.000000	65.996137
1055.000000	65.953488
1054.000000	65.917830
1053.000000	65.885109
1052.000000	65.840739
1051.000000	65.821593
1050.000000	65.795963
1049.000000	65.764357
1048.000000	65.740247
1047.000000	65.698409
1046.000000	65.677744
1045.000000	65.664878
1044.000000	65.636919
1043.000000	65.610277
1042.000000	65.591434
1041.000000	65.571782
1040.000000	65.540277
1039.000000	65.518193
1038.000000	65.501681
1037.000000	65.476963
1036.000000	65.461261
1035.000000	65.454676
1034.000000	65.433909
1033.000000	65.404836
1032.000000	65.375357
1031.000000	65.363403
1030.000000	65.352361
1029.000000	65.335950
1028.000000	65.331189
1027.000000	65.319843
1026.000000	65.300393
1025.000000	65.291073
1024.000000	65.270712
1023.000000	65.257542
1022.000000	65.263823
1021.000000	65.255212
1020.000000	65.242448
1019.000000	65.243360
1018.000000	65.242246
1017.000000	65.233432
1016.000000	65.227152
1015.000000	65.221175
1014.000000	65.231103
1013.000000	65.242246
1012.000000	65.243461
1011.000000	65.250147
1010.000000	65.253288
1009.000000	65.262101
1008.000000	65.283982
1007.000000	65.300393
1006.000000	65.286920
1005.000000	65.288845
1004.000000	65.308295
1003.000000	65.306370
1002.000000	65.305154
1001.000000	65.296746
1000.000000	65.301406
999.000000	65.323490
998.000000	65.331290
997.000000	65.335444
996.000000	65.340610
995.000000	65.333215
994.000000	65.319742
993.000000	65.321869
992.000000	65.327238
991.000000	65.331898
990.000000	65.348005
989.000000	65.347094
988.000000	65.340914
987.000000	65.344358
986.000000	65.361681
985.000000	65.372318
984.000000	65.371609
983.000000	65.390046
982.000000	65.397339
981.000000	65.416182
980.000000	65.419119
979.000000	65.432086
978.000000	65.462071
977.000000	65.482231
976.000000	65.486080
975.000000	65.490841
974.000000	65.519105
973.000000	65.544430
972.000000	65.545139
971.000000	65.576340
970.000000	65.586268
969.000000	65.602274
968.000000	65.640971
967.000000	65.661130
966.000000	65.673489
965.000000	65.718366
964.000000	65.749162
963.000000	65.791202
962.000000	65.805587
961.000000	65.851072
960.000000	65.891694
959.000000	65.933633
958.000000	65.943561
957.000000	65.977902
956.000000	66.020449
955.000000	66.060970
954.000000	66.102200
953.000000	66.126816
952.000000	66.152344
951.000000	66.167742
950.000000	66.185470
949.000000	66.235514
948.000000	66.231259
947.000000	66.248278
946.000000	66.277554
945.000000	66.298827
944.000000	66.296903
943.000000	66.341982
942.000000	66.365282
941.000000	66.404384
940.000000	66.482995
939.000000	66.511663
938.000000	66.541750
937.000000	66.583993
936.000000	66.637987
935.000000	66.694919
934.000000	66.701605
933.000000	66.728754
932.000000	66.740910
931.000000	66.772314
930.000000	66.788016
929.000000	66.782444
928.000000	66.819622
927.000000	66.815671
926.000000	66.824383
925.000000	66.826814
924.000000	66.848493
923.000000	66.828840
922.000000	66.831474
921.000000	66.835932
920.000000	66.835932
919.000000	66.847075
918.000000	66.852241
917.000000	66.882733
916.000000	66.860751
915.000000	66.830056
914.000000	66.838869
913.000000	66.825396
912.000000	66.824788
911.000000	66.809086
910.000000	66.788522
909.000000	66.795613
908.000000	66.780317
907.000000	66.759145
906.000000	66.750433
905.000000	66.778898
904.000000	66.746583
903.000000	66.687423
902.000000	66.681344
901.000000	66.665744
900.000000	66.631909
899.000000	66.619955
898.000000	66.582879
897.000000	66.582575
896.000000	66.561403
895.000000	66.515614
894.000000	66.489579
893.000000	66.429811
892.000000	66.401649
891.000000	66.358089
890.000000	66.317366
889.000000	66.306526
888.000000	66.237033
887.000000	66.186281
886.000000	66.109899
885.000000	66.026831
884.000000	65.976079
883.000000	65.878525
882.000000	65.811361
881.000000	65.708236
880.000000	65.641782
879.000000	65.550103
878.000000	65.456905
877.000000	65.383056
876.000000	65.306978
875.000000	65.179540
874.000000	65.092825
873.000000	64.965691
872.000000	64.889208
871.000000	64.779194
870.000000	64.683260
869.000000	64.565243
868.000000	64.486532
867.000000	64.359296
866.000000	64.265794
865.000000	64.123768
864.000000	64.002206
863.000000	63.812366
862.000000	63.627185
861.000000	63.430862
860.000000	63.274147
859.000000	63.120472
858.000000	63.223800
857.000000	63.337400
856.000000	62.942300
855.000000	63.391700
854.000000	62.986400
853.000000	63.029100
852.000000	62.718400
851.000000	63.012100
850.000000	62.935800
849.000000	62.700600
848.000000	62.408600
847.000000	62.433200
846.000000	62.404900
845.000000	62.248300
844.000000	62.073200
843.000000	62.077600
842.000000	62.142200
841.000000	61.685800
840.000000	61.583300
839.000000	61.378100
838.000000	61.377700
837.000000	61.388300
836.000000	61.222100
835.000000	60.932100
834.000000	60.927500
833.000000	60.763400
832.000000	60.737900
831.000000	60.476300
830.000000	60.438000
829.000000	60.259600
828.000000	60.084100
827.000000	59.930500
826.000000	59.701100
825.000000	59.621700
824.000000	59.472800
823.000000	59.429000
822.000000	59.168200
821.000000	58.898700
820.000000	58.851000
819.000000	58.869500
818.000000	58.796400
817.000000	58.614200
816.000000	58.252500
815.000000	58.205700
814.000000	58.048600
813.000000	57.950200
812.000000	57.878400
811.000000	57.658300
810.000000	57.511100
809.000000	57.414500
808.000000	57.164000
807.000000	56.993700
806.000000	56.908900
805.000000	56.707500
804.000000	56.733600
803.000000	56.586900
802.000000	56.407400
801.000000	56.300000
800.000000	56.150400
799.000000	55.962500
798.000000	55.852800
797.000000	55.757300
796.000000	55.517800
795.000000	55.377600
794.000000	55.294800
793.000000	55.072800
792.000000	55.000900
791.000000	54.891300
790.000000	54.763300
789.000000	54.621000
788.000000	54.474700
787.000000	54.372500
786.000000	54.264700
785.000000	54.057200
784.000000	53.887800
783.000000	53.690900
782.000000	53.563600
781.000000	53.483900
780.000000	53.341800
779.000000	53.141700
778.000000	53.078100
777.000000	52.979500
776.000000	52.763400
775.000000	52.535300
774.000000	52.411600
773.000000	52.332200
772.000000	52.186000
771.000000	52.009800
770.000000	51.834700
769.000000	51.648500
768.000000	51.449000
767.000000	51.293700
766.000000	51.122100
765.000000	50.888800
764.000000	50.745700
763.000000	50.639200
762.000000	50.461200
761.000000	50.258400
760.000000	50.111000
759.000000	49.943300
758.000000	49.734100
757.000000	49.610700
756.000000	49.433500
755.000000	49.253700
754.000000	49.130100
753.000000	48.966000
752.000000	48.805700
751.000000	48.639700
750.000000	48.465400
749.000000	48.325900
748.000000	48.207300
747.000000	48.055100
746.000000	47.875400
745.000000	47.733200
744.000000	47.559700
743.000000	47.419100
742.000000	47.332400
741.000000	47.184100
740.000000	47.051800
739.000000	46.962500
738.000000	46.792100
737.000000	46.632200
736.000000	46.523200
735.000000	46.427500
734.000000	46.285400
733.000000	46.131900
732.000000	46.017100
731.000000	45.888200
730.000000	45.726700
729.000000	45.589800
728.000000	45.439600
727.000000	45.302400
726.000000	45.167800
725.000000	44.984300
724.000000	44.803400
723.000000	44.596000
722.000000	44.381700
721.000000	44.192100
720.000000	44.040900
719.000000	43.851800
718.000000	43.631500
717.000000	43.432800
716.000000	43.246800
715.000000	43.063500
714.000000	42.861100
713.000000	42.642100
712.000000	42.437200
711.000000	42.232000
710.000000	42.053200
709.000000	41.832100
708.000000	41.625400
707.000000	41.439700
706.000000	41.226400
705.000000	41.053400
704.000000	40.919300
703.000000	40.738200
702.000000	40.575500
701.000000	40.366100
700.000000	40.193900
699.000000	40.045800
698.000000	39.888600
697.000000	39.759300
696.000000	39.620800
695.000000	39.527600
694.000000	39.402800
693.000000	39.305700
692.000000	39.252500
691.000000	39.167700
690.000000	39.140600
689.000000	39.118300
688.000000	39.099300
687.000000	39.072600
686.000000	39.073100
685.000000	39.070300
684.000000	39.041900
683.000000	39.041800
682.000000	39.052200
681.000000	39.025900
680.000000	38.989600
679.000000	38.954100
678.000000	38.895100
677.000000	38.792400
676.000000	38.775600
675.000000	38.661100
674.000000	38.534700
673.000000	38.404100
672.000000	38.326900
671.000000	38.159200
670.000000	37.966800
669.000000	37.799800
668.000000	37.657900
667.000000	37.518800
666.000000	37.351700
665.000000	37.175900
664.000000	37.033400
663.000000	36.863700
662.000000	36.695100
661.000000	36.567300
660.000000	36.408300
659.000000	36.262800
658.000000	36.095800
657.000000	35.926900
656.000000	35.778400
655.000000	35.639400
654.000000	35.486400
653.000000	35.304100
652.000000	35.139000
651.000000	34.969800
650.000000	34.815000
649.000000	34.651200
648.000000	34.498500
647.000000	34.377000
646.000000	34.284700
645.000000	34.215500
644.000000	34.209000
643.000000	34.261300
642.000000	34.366800
641.000000	34.496100
640.000000	34.721400
639.000000	34.964400
638.000000	35.253200
637.000000	35.587100
636.000000	35.948600
635.000000	36.317600
634.000000	36.748900
633.000000	37.159100
632.000000	37.519100
631.000000	37.915900
630.000000	38.347500
629.000000	38.712900
628.000000	39.084800
627.000000	39.488000
626.000000	39.833400
625.000000	40.185700
624.000000	40.527800
623.000000	40.915000
622.000000	41.272200
621.000000	41.667900
620.000000	42.028600
619.000000	42.404800
618.000000	42.856200
617.000000	43.212700
616.000000	43.581800
615.000000	43.947300
614.000000	44.297500
613.000000	44.705600
612.000000	44.994200
611.000000	45.349300
610.000000	45.650300
609.000000	45.941000
608.000000	46.179800
607.000000	46.376300
606.000000	46.580500
605.000000	46.777700
604.000000	46.975200
603.000000	47.176200
602.000000	47.332100
601.000000	47.492700
600.000000	47.613200
599.000000	47.763000
598.000000	47.961200
597.000000	48.127800
596.000000	48.295900
595.000000	48.430300
594.000000	48.638700
593.000000	48.832600
592.000000	49.002500
591.000000	49.227000
590.000000	49.343400
589.000000	49.493500
588.000000	49.633200
587.000000	49.733700
586.000000	49.831600
585.000000	49.916300
584.000000	49.949100
583.000000	49.942100
582.000000	49.926000
581.000000	49.876600
580.000000	49.832800
579.000000	49.772500
578.000000	49.729400
577.000000	49.664600
576.000000	49.568200
575.000000	49.511200
574.000000	49.412500
573.000000	49.364800
572.000000	49.290300
571.000000	49.218400
570.000000	49.121300
569.000000	49.041100
568.000000	48.934600
567.000000	48.832800
566.000000	48.670200
565.000000	48.531200
564.000000	48.377200
563.000000	48.203100
562.000000	47.994600
561.000000	47.766600
560.000000	47.533900
559.000000	47.115600
558.000000	46.851200
557.000000	46.572700
556.000000	46.246000
555.000000	45.948500
554.000000	45.608900
553.000000	45.233700
552.000000	44.900600
551.000000	44.469900
550.000000	44.050300
549.000000	43.585300
548.000000	43.121300
547.000000	42.602300
546.000000	42.048600
545.000000	41.451600
544.000000	40.834300
543.000000	40.159200
542.000000	39.474900
541.000000	38.765500
540.000000	38.053800
539.000000	37.335900
538.000000	36.589800
537.000000	35.856200
536.000000	35.129000
535.000000	34.407600
534.000000	33.689000
533.000000	32.996100
532.000000	32.315800
531.000000	31.651400
530.000000	31.003400
529.000000	30.387200
528.000000	29.808100
527.000000	29.258600
526.000000	28.724000
525.000000	28.185900
524.000000	27.669200
523.000000	27.171600
522.000000	26.696000
521.000000	26.245800
520.000000	25.793900
519.000000	25.358000
518.000000	24.935000
517.000000	24.505300
516.000000	24.087500
515.000000	23.689200
514.000000	23.281900
513.000000	22.899300
512.000000	22.520100
511.000000	22.146000
510.000000	21.786100
509.000000	21.409100
508.000000	21.031700
507.000000	20.673300
506.000000	20.323000
505.000000	19.996800
504.000000	19.667200
503.000000	19.333200
502.000000	19.009600
501.000000	18.694800
500.000000	18.404400
499.000000	18.143000
498.000000	17.901600
497.000000	17.670500
496.000000	17.441300
495.000000	17.255500
494.000000	17.066300
493.000000	16.903200
492.000000	16.747100
491.000000	16.610900
490.000000	16.505000
489.000000	16.401700
488.000000	16.318300
487.000000	16.240300
486.000000	16.171700
485.000000	16.107000
484.000000	16.033700
483.000000	15.954900
482.000000	15.909700
481.000000	15.869400
480.000000	15.814200
479.000000	15.743200
478.000000	15.659100
477.000000	15.573500
476.000000	15.484900
475.000000	15.399700
474.000000	15.293100
473.000000	15.191300
472.000000	15.096700
471.000000	14.989000
470.000000	14.867500
469.000000	14.742300
468.000000	14.623100
467.000000	14.510600
466.000000	14.387500
465.000000	14.254500
464.000000	14.121400
463.000000	13.994300
462.000000	13.859800
461.000000	13.726600
460.000000	13.587000
459.000000	13.454500
458.000000	13.318400
457.000000	13.185500
456.000000	13.050100
455.000000	12.906500
454.000000	12.761700
453.000000	12.614600
452.000000	12.458700
451.000000	12.295000
450.000000	12.133800
449.000000	11.970100
448.000000	11.808000
447.000000	11.632800
446.000000	11.453100
445.000000	11.271200
444.000000	11.086900
443.000000	10.895900
442.000000	10.710200
441.000000	10.520900
440.000000	10.316900
439.000000	10.115600
438.000000	9.933900
437.000000	9.754000
436.000000	9.555400
435.000000	9.367900
434.000000	9.179600
433.000000	8.992300
432.000000	8.804600
431.000000	8.613200
430.000000	8.417500
429.000000	8.231900
428.000000	8.065600
427.000000	7.887200
426.000000	7.696800
425.000000	7.524600
424.000000	7.369800
423.000000	7.217400
422.000000	7.069500
421.000000	6.916700
420.000000	6.770600
419.000000	6.635200
418.000000	6.510400
417.000000	6.389600
416.000000	6.271100
415.000000	6.160000
414.000000	6.058800
413.000000	5.964900
412.000000	5.877600
411.000000	5.789200
410.000000	5.721000
409.000000	5.652000
408.000000	5.596300
407.000000	5.537800
406.000000	5.484800
405.000000	5.445800
404.000000	5.418500
403.000000	5.381500
402.000000	5.329500
401.000000	5.301900
400.000000	5.278100
399.000000	5.266000
398.000000	5.239500
397.000000	5.206300
396.000000	5.195600
395.000000	5.176700
394.000000	5.162300
393.000000	5.149300
392.000000	5.139200
391.000000	5.134600
390.000000	5.117600
389.000000	5.106300
388.000000	5.091100
387.000000	5.082500
386.000000	5.078200
385.000000	5.070500
384.000000	5.053500
383.000000	5.064700
382.000000	5.053400
381.000000	5.048100
380.000000	5.041400
379.000000	5.039900
378.000000	5.030100
377.000000	5.014900
376.000000	5.118600
375.000000	4.983200
374.000000	4.938400
373.000000	4.980000
372.000000	5.003700
371.000000	5.014500
370.000000	5.052900
369.000000	5.043300
368.000000	5.066300
367.000000	5.129800
366.000000	5.103200
365.000000	5.160000
364.000000	5.103900
363.000000	5.016600
362.000000	5.095000
361.000000	5.097000
360.000000	5.046600
359.000000	5.091000
358.000000	5.078200
357.000000	5.051500
356.000000	5.089900
355.000000	5.067700
354.000000	5.018600
353.000000	5.137200
352.000000	5.062900
351.000000	5.095700
350.000000	5.090800
349.000000	5.123900
348.000000	5.140100
347.000000	5.037700
346.000000	5.062400
345.000000	5.119100
344.000000	5.053400
343.000000	5.162500
342.000000	5.128700
341.000000	5.107200
340.000000	5.090200
339.000000	5.320100
338.000000	5.181400
337.000000	5.111500
336.000000	5.066900
335.000000	5.094200
334.000000	5.127800
333.000000	5.208000
332.000000	5.148300
331.000000	5.140700
330.000000	5.204000
329.000000	5.023900
328.000000	5.171400
327.000000	5.349600
326.000000	5.265600
325.000000	4.828800
324.000000	5.465400
323.000000	4.992900
322.000000	5.147400
321.000000	5.189800
320.000000	5.127400
319.000000	5.373100
318.000000	5.291500
317.000000	5.205100
316.000000	5.060800
315.000000	5.072300
314.000000	5.042500
313.000000	5.063500
312.000000	5.081000
311.000000	5.088100
310.000000	5.063000
309.000000	5.072200
308.000000	5.046100
307.000000	5.015500
306.000000	5.034500
305.000000	5.052700
304.000000	5.097700
303.000000	5.034200
302.000000	5.080700
301.000000	5.075300
300.000000	5.089600
299.000000	5.070400
298.000000	5.102400
297.000000	5.061400
296.000000	5.126500
295.000000	5.130100
294.000000	5.088100
293.000000	5.176900
292.000000	5.074600
291.000000	5.153000
290.000000	5.134800
289.000000	5.155500
288.000000	5.091400
287.000000	5.179900
286.000000	5.179100
285.000000	5.145900
284.000000	5.143700
283.000000	5.153300
282.000000	5.181200
281.000000	5.209500
280.000000	5.161300
279.000000	5.206000
278.000000	5.222600
277.000000	5.267400
276.000000	5.215600
275.000000	5.267000
274.000000	5.273400
273.000000	5.281800
272.000000	5.277400
271.000000	5.280500
270.000000	5.291600
269.000000	5.287600
268.000000	5.328300
267.000000	5.348600
266.000000	5.335000
265.000000	5.385200
264.000000	5.392800
263.000000	5.361200
262.000000	5.356000
261.000000	5.457900
260.000000	5.486900
259.000000	5.491700
258.000000	5.498100
257.000000	5.465800
256.000000	5.486300
255.000000	5.519500
254.000000	5.533800
253.000000	5.543900
252.000000	5.526100
251.000000	5.524200
250.000000	5.520500
