PE UV       SUBTECH     SPECTRUM    ASCII       PEDS        4.00        
   -1
CICIMAUCR0044-1.ASC
24/04/03
11:33:37.00
24/04/03
11:33:37.00
Vinicio Soto Monge
C optima #8 17
250,000000
1
Lambda 1050
1050L1511233
PerkinElmer UV WinLab 6.3.2.0749 / 2.02.05 Lambda 900 UV/VIS/NIR, Aug  7 2015 09:38:08

0
0
3350/servo 860,8/2
0
0
UV/VIS
1
1
1
DoubleDePol,CommonBeamDepol,RBeamAtt,SBeamAtt,60mm sphere, WB InGaAs Detector
0
0
0
0
Program
Program
3350/servo 860,8/2
3350/0,2 860,8/0,2
3350/0,2 860,8/0,2
0
15.00
 
 
 
0
 
860,8
319,2
860,8
Front
100
on
S:100 R:100
0
0
0
0
 
0
 
 
 
0
 
 
0
0
0
0
0
 
 
 
 
0
0


0
0
#HDR
-1
-1
#GR
nm
%R
1.0
0.0
2000,000000
-1,000000
1751
8
60,646000
5,166000
#DATA
2000.000000	26.674935
1999.000000	26.590147
1998.000000	26.507095
1997.000000	26.441387
1996.000000	26.359967
1995.000000	26.270180
1994.000000	26.167945
1993.000000	26.077751
1992.000000	25.974088
1991.000000	25.861956
1990.000000	25.765640
1989.000000	25.640652
1988.000000	25.539540
1987.000000	25.430674
1986.000000	25.317828
1985.000000	25.183148
1984.000000	25.070200
1983.000000	24.966027
1982.000000	24.850019
1981.000000	24.731051
1980.000000	24.603105
1979.000000	24.468833
1978.000000	24.370680
1977.000000	24.232939
1976.000000	24.120297
1975.000000	23.992759
1974.000000	23.868486
1973.000000	23.759517
1972.000000	23.639428
1971.000000	23.515767
1970.000000	23.431082
1969.000000	23.318848
1968.000000	23.202023
1967.000000	23.082852
1966.000000	22.980107
1965.000000	22.867874
1964.000000	22.744417
1963.000000	22.632387
1962.000000	22.503523
1961.000000	22.405166
1960.000000	22.277220
1959.000000	22.156211
1958.000000	22.059487
1957.000000	21.953987
1956.000000	21.842366
1955.000000	21.743804
1954.000000	21.648916
1953.000000	21.523113
1952.000000	21.419246
1951.000000	21.315889
1950.000000	21.238040
1949.000000	21.154885
1948.000000	21.063160
1947.000000	20.959089
1946.000000	20.862568
1945.000000	20.797064
1944.000000	20.728398
1943.000000	20.661772
1942.000000	20.595758
1941.000000	20.554946
1940.000000	20.510359
1939.000000	20.448018
1938.000000	20.417715
1937.000000	20.389963
1936.000000	20.378740
1935.000000	20.358946
1934.000000	20.379250
1933.000000	20.399656
1932.000000	20.443937
1931.000000	20.486382
1930.000000	20.526888
1929.000000	20.590861
1928.000000	20.664731
1927.000000	20.729418
1926.000000	20.840835
1925.000000	20.972659
1924.000000	21.075403
1923.000000	21.202635
1922.000000	21.359966
1921.000000	21.511175
1920.000000	21.674322
1919.000000	21.850834
1918.000000	22.064588
1917.000000	22.275485
1916.000000	22.495361
1915.000000	22.748294
1914.000000	23.037346
1913.000000	23.331296
1912.000000	23.607798
1911.000000	23.905523
1910.000000	24.231918
1909.000000	24.574536
1908.000000	24.944805
1907.000000	25.348335
1906.000000	25.823899
1905.000000	26.286403
1904.000000	26.724011
1903.000000	27.199269
1902.000000	27.688301
1901.000000	28.210084
1900.000000	28.749723
1899.000000	29.275792
1898.000000	29.833082
1897.000000	30.381190
1896.000000	30.881955
1895.000000	31.418227
1894.000000	31.963171
1893.000000	32.515462
1892.000000	33.076323
1891.000000	33.586475
1890.000000	34.078670
1889.000000	34.576680
1888.000000	35.031328
1887.000000	35.462610
1886.000000	35.875324
1885.000000	36.289261
1884.000000	36.663815
1883.000000	37.012350
1882.000000	37.370273
1881.000000	37.700138
1880.000000	38.015309
1879.000000	38.347419
1878.000000	38.642184
1877.000000	38.906545
1876.000000	39.156010
1875.000000	39.399250
1874.000000	39.611779
1873.000000	39.787374
1872.000000	39.935828
1871.000000	40.026125
1870.000000	40.101423
1869.000000	40.192945
1868.000000	40.249061
1867.000000	40.313239
1866.000000	40.383333
1865.000000	40.459550
1864.000000	40.564131
1863.000000	40.674426
1862.000000	40.766050
1861.000000	40.832573
1860.000000	40.851755
1859.000000	40.852061
1858.000000	40.883180
1857.000000	40.913279
1856.000000	40.942868
1855.000000	40.953275
1854.000000	40.910321
1853.000000	40.871957
1852.000000	40.901036
1851.000000	40.979803
1850.000000	41.065101
1849.000000	41.010821
1848.000000	40.848898
1847.000000	40.703913
1846.000000	40.641368
1845.000000	40.662999
1844.000000	40.728196
1843.000000	40.756867
1842.000000	40.680854
1841.000000	40.611882
1840.000000	40.561377
1839.000000	40.524544
1838.000000	40.476895
1837.000000	40.391700
1836.000000	40.306096
1835.000000	40.244878
1834.000000	40.209066
1833.000000	40.202434
1832.000000	40.202229
1831.000000	40.155500
1830.000000	40.112137
1829.000000	40.066835
1828.000000	40.023370
1827.000000	39.978885
1826.000000	39.917667
1825.000000	39.899811
1824.000000	39.948378
1823.000000	40.040919
1822.000000	40.026227
1821.000000	39.965009
1820.000000	39.898791
1819.000000	39.860019
1818.000000	39.884201
1817.000000	39.919809
1816.000000	39.899097
1815.000000	39.875324
1814.000000	39.876038
1813.000000	39.868896
1812.000000	39.850123
1811.000000	39.801148
1810.000000	39.757377
1809.000000	39.742378
1808.000000	39.731563
1807.000000	39.702791
1806.000000	39.653816
1805.000000	39.606372
1804.000000	39.572090
1803.000000	39.563927
1802.000000	39.549031
1801.000000	39.483527
1800.000000	39.420472
1799.000000	39.389353
1798.000000	39.370682
1797.000000	39.372212
1796.000000	39.358336
1795.000000	39.322523
1794.000000	39.291812
1793.000000	39.270998
1792.000000	39.239675
1791.000000	39.206004
1790.000000	39.171008
1789.000000	39.134481
1788.000000	39.109076
1787.000000	39.070304
1786.000000	38.996638
1785.000000	38.912361
1784.000000	38.834512
1783.000000	38.747378
1782.000000	38.655142
1781.000000	38.601984
1780.000000	38.513830
1779.000000	38.447102
1778.000000	38.361397
1777.000000	38.269671
1776.000000	38.168355
1775.000000	38.079079
1774.000000	37.974191
1773.000000	37.858897
1772.000000	37.715544
1771.000000	37.532400
1770.000000	37.333338
1769.000000	37.110300
1768.000000	36.873589
1767.000000	36.663406
1766.000000	36.528930
1765.000000	36.468732
1764.000000	36.500260
1763.000000	36.556785
1762.000000	36.636572
1761.000000	36.710851
1760.000000	36.791965
1759.000000	36.869814
1758.000000	36.922360
1757.000000	36.966845
1756.000000	37.054081
1755.000000	37.117442
1754.000000	37.179476
1753.000000	37.234165
1752.000000	37.269059
1751.000000	37.271202
1750.000000	37.277630
1749.000000	37.234471
1748.000000	37.136624
1747.000000	37.020003
1746.000000	36.895424
1745.000000	36.765641
1744.000000	36.639225
1743.000000	36.496587
1742.000000	36.331808
1741.000000	36.173558
1740.000000	35.975415
1739.000000	35.739929
1738.000000	35.507198
1737.000000	35.221513
1736.000000	34.908075
1735.000000	34.579843
1734.000000	34.270487
1733.000000	33.971028
1732.000000	33.787271
1731.000000	33.712585
1730.000000	33.728910
1729.000000	33.794107
1728.000000	33.862161
1727.000000	33.912768
1726.000000	33.935521
1725.000000	33.964906
1724.000000	34.019492
1723.000000	34.113666
1722.000000	34.232430
1721.000000	34.446081
1720.000000	34.633103
1719.000000	34.884710
1718.000000	35.139582
1717.000000	35.405269
1716.000000	35.672283
1715.000000	35.935011
1714.000000	36.176313
1713.000000	36.430981
1712.000000	36.689526
1711.000000	36.913585
1710.000000	37.175905
1709.000000	37.410371
1708.000000	37.657897
1707.000000	37.890220
1706.000000	38.114381
1705.000000	38.325686
1704.000000	38.518932
1703.000000	38.687180
1702.000000	38.833185
1701.000000	38.946745
1700.000000	39.064692
1699.000000	39.175089
1698.000000	39.263142
1697.000000	39.380579
1696.000000	39.478528
1695.000000	39.559642
1694.000000	39.620860
1693.000000	39.685037
1692.000000	39.767784
1691.000000	39.823697
1690.000000	39.921238
1689.000000	40.045715
1688.000000	40.191312
1687.000000	40.365886
1686.000000	40.598312
1685.000000	40.801352
1684.000000	41.056122
1683.000000	41.344154
1682.000000	41.593312
1681.000000	41.832472
1680.000000	42.091527
1679.000000	42.295792
1678.000000	42.513423
1677.000000	42.695853
1676.000000	42.850837
1675.000000	43.008576
1674.000000	43.185395
1673.000000	43.372417
1672.000000	43.568315
1671.000000	43.773600
1670.000000	43.973070
1669.000000	44.191517
1668.000000	44.411596
1667.000000	44.563520
1666.000000	44.741665
1665.000000	44.933176
1664.000000	45.128972
1663.000000	45.323646
1662.000000	45.472509
1661.000000	45.624942
1660.000000	45.753398
1659.000000	45.879304
1658.000000	45.997149
1657.000000	46.097037
1656.000000	46.191313
1655.000000	46.250287
1654.000000	46.302322
1653.000000	46.352929
1652.000000	46.382518
1651.000000	46.404148
1650.000000	46.410066
1649.000000	46.418433
1648.000000	46.414352
1647.000000	46.406801
1646.000000	46.393333
1645.000000	46.390170
1644.000000	46.386701
1643.000000	46.340992
1642.000000	46.302118
1641.000000	46.268754
1640.000000	46.249572
1639.000000	46.224881
1638.000000	46.210699
1637.000000	46.212637
1636.000000	46.212739
1635.000000	46.227432
1634.000000	46.258041
1633.000000	46.271917
1632.000000	46.280284
1631.000000	46.295180
1630.000000	46.297629
1629.000000	46.301914
1628.000000	46.307628
1627.000000	46.301710
1626.000000	46.280998
1625.000000	46.262836
1624.000000	46.252123
1623.000000	46.247532
1622.000000	46.222840
1621.000000	46.200190
1620.000000	46.174478
1619.000000	46.152133
1618.000000	46.114892
1617.000000	46.083467
1616.000000	46.050307
1615.000000	46.012964
1614.000000	45.975723
1613.000000	45.938482
1612.000000	45.903893
1611.000000	45.847573
1610.000000	45.799108
1609.000000	45.753398
1608.000000	45.699016
1607.000000	45.642389
1606.000000	45.575457
1605.000000	45.500771
1604.000000	45.435880
1603.000000	45.378029
1602.000000	45.310893
1601.000000	45.258653
1600.000000	45.200087
1599.000000	45.139277
1598.000000	45.080100
1597.000000	45.014188
1596.000000	44.967968
1595.000000	44.921749
1594.000000	44.870325
1593.000000	44.829207
1592.000000	44.791354
1591.000000	44.743603
1590.000000	44.692894
1589.000000	44.641471
1588.000000	44.609229
1587.000000	44.565050
1586.000000	44.516892
1585.000000	44.489038
1584.000000	44.447307
1583.000000	44.410678
1582.000000	44.377722
1581.000000	44.341195
1580.000000	44.309362
1579.000000	44.293241
1578.000000	44.274876
1577.000000	44.250694
1576.000000	44.231717
1575.000000	44.215902
1574.000000	44.210086
1573.000000	44.221004
1572.000000	44.221310
1571.000000	44.208862
1570.000000	44.208148
1569.000000	44.218045
1568.000000	44.237635
1567.000000	44.254470
1566.000000	44.260489
1565.000000	44.259265
1564.000000	44.265183
1563.000000	44.265489
1562.000000	44.262020
1561.000000	44.252837
1560.000000	44.224473
1559.000000	44.180702
1558.000000	44.153051
1557.000000	44.120606
1556.000000	44.085813
1555.000000	44.030411
1554.000000	43.972968
1553.000000	43.912260
1552.000000	43.862673
1551.000000	43.793088
1550.000000	43.708199
1549.000000	43.630554
1548.000000	43.541583
1547.000000	43.469550
1546.000000	43.388741
1545.000000	43.320993
1544.000000	43.267019
1543.000000	43.220493
1542.000000	43.183150
1541.000000	43.117137
1540.000000	43.100914
1539.000000	43.075406
1538.000000	43.032757
1537.000000	42.989088
1536.000000	42.957255
1535.000000	42.909811
1534.000000	42.847164
1533.000000	42.802985
1532.000000	42.745746
1531.000000	42.677998
1530.000000	42.623717
1529.000000	42.558622
1528.000000	42.508321
1527.000000	42.441389
1526.000000	42.376906
1525.000000	42.317524
1524.000000	42.236002
1523.000000	42.164172
1522.000000	42.086221
1521.000000	42.034288
1520.000000	41.947358
1519.000000	41.864713
1518.000000	41.799414
1517.000000	41.728400
1516.000000	41.642491
1515.000000	41.553010
1514.000000	41.472916
1513.000000	41.383436
1512.000000	41.291710
1511.000000	41.182130
1510.000000	41.100709
1509.000000	41.001434
1508.000000	40.921646
1507.000000	40.819616
1506.000000	40.720442
1505.000000	40.629125
1504.000000	40.556173
1503.000000	40.462611
1502.000000	40.393128
1501.000000	40.320279
1500.000000	40.247021
1499.000000	40.186721
1498.000000	40.136522
1497.000000	40.080507
1496.000000	40.040817
1495.000000	39.995414
1494.000000	39.952663
1493.000000	39.918279
1492.000000	39.903280
1491.000000	39.866651
1490.000000	39.835838
1489.000000	39.824207
1488.000000	39.799719
1487.000000	39.761152
1486.000000	39.738909
1485.000000	39.695444
1484.000000	39.675753
1483.000000	39.693302
1482.000000	39.670651
1481.000000	39.643511
1480.000000	39.650449
1479.000000	39.653204
1478.000000	39.654938
1477.000000	39.648000
1476.000000	39.673202
1475.000000	39.713912
1474.000000	39.762376
1473.000000	39.816657
1472.000000	39.852877
1471.000000	39.884609
1470.000000	39.893281
1469.000000	39.930931
1468.000000	40.007249
1467.000000	40.083160
1466.000000	40.099179
1465.000000	40.169376
1464.000000	40.221003
1463.000000	40.249776
1462.000000	40.331808
1461.000000	40.390986
1460.000000	40.436185
1459.000000	40.495465
1458.000000	40.571376
1457.000000	40.651980
1456.000000	40.692894
1455.000000	40.731665
1454.000000	40.801148
1453.000000	40.874508
1452.000000	40.939399
1451.000000	40.966131
1450.000000	40.965315
1449.000000	40.993781
1448.000000	41.091935
1447.000000	41.174375
1446.000000	41.221717
1445.000000	41.223248
1444.000000	41.267631
1443.000000	41.321605
1442.000000	41.363132
1441.000000	41.395781
1440.000000	41.457816
1439.000000	41.526686
1438.000000	41.575763
1437.000000	41.632696
1436.000000	41.710035
1435.000000	41.825533
1434.000000	41.912157
1433.000000	42.001842
1432.000000	42.078773
1431.000000	42.143970
1430.000000	42.233553
1429.000000	42.334869
1428.000000	42.423432
1427.000000	42.519748
1426.000000	42.653102
1425.000000	42.777783
1424.000000	42.898281
1423.000000	42.995924
1422.000000	43.107546
1421.000000	43.322524
1420.000000	43.470060
1419.000000	43.542705
1418.000000	43.611270
1417.000000	43.751766
1416.000000	43.990721
1415.000000	44.205903
1414.000000	44.317626
1413.000000	44.524442
1412.000000	44.764724
1411.000000	45.061734
1410.000000	45.288140
1409.000000	45.468019
1408.000000	45.680243
1407.000000	45.898282
1406.000000	46.106118
1405.000000	46.236819
1404.000000	46.352521
1403.000000	46.627901
1402.000000	46.884916
1401.000000	46.898894
1400.000000	46.790436
1399.000000	46.793395
1398.000000	46.909505
1397.000000	46.960826
1396.000000	46.780641
1395.000000	46.454041
1394.000000	46.147848
1393.000000	45.739624
1392.000000	45.537808
1391.000000	45.967254
1390.000000	46.570866
1389.000000	46.883793
1388.000000	46.904098
1387.000000	47.000312
1386.000000	47.146114
1385.000000	47.342522
1384.000000	47.491895
1383.000000	47.674121
1382.000000	47.862571
1381.000000	48.145196
1380.000000	48.499853
1379.000000	48.981131
1378.000000	49.485569
1377.000000	50.029595
1376.000000	50.579131
1375.000000	51.102037
1374.000000	51.669836
1373.000000	52.170398
1372.000000	52.569643
1371.000000	52.856450
1370.000000	53.140503
1369.000000	53.397007
1368.000000	53.529545
1367.000000	53.684529
1366.000000	53.863592
1365.000000	53.961031
1364.000000	54.086733
1363.000000	54.251920
1362.000000	54.239064
1361.000000	54.176928
1360.000000	54.198864
1359.000000	54.323341
1358.000000	54.410373
1357.000000	54.514342
1356.000000	54.603721
1355.000000	54.632085
1354.000000	54.662491
1353.000000	54.760236
1352.000000	54.909302
1351.000000	55.022250
1350.000000	55.162338
1349.000000	55.315179
1348.000000	55.413945
1347.000000	55.504650
1346.000000	55.626780
1345.000000	55.764827
1344.000000	55.863389
1343.000000	55.969602
1342.000000	56.088366
1341.000000	56.184682
1340.000000	56.278856
1339.000000	56.367623
1338.000000	56.448941
1337.000000	56.523627
1336.000000	56.589539
1335.000000	56.664633
1334.000000	56.748604
1333.000000	56.812986
1332.000000	56.875632
1331.000000	56.934300
1330.000000	56.992253
1329.000000	57.040309
1328.000000	57.082142
1327.000000	57.121730
1326.000000	57.159073
1325.000000	57.191416
1324.000000	57.222332
1323.000000	57.256716
1322.000000	57.279469
1321.000000	57.298140
1320.000000	57.315690
1319.000000	57.337626
1318.000000	57.361909
1317.000000	57.379356
1316.000000	57.390172
1315.000000	57.407211
1314.000000	57.416394
1313.000000	57.417312
1312.000000	57.431698
1311.000000	57.441289
1310.000000	57.452206
1309.000000	57.449655
1308.000000	57.450472
1307.000000	57.469755
1306.000000	57.479958
1305.000000	57.475469
1304.000000	57.465674
1303.000000	57.469653
1302.000000	57.474857
1301.000000	57.474653
1300.000000	57.468531
1299.000000	57.468939
1298.000000	57.462205
1297.000000	57.463226
1296.000000	57.473429
1295.000000	57.474347
1294.000000	57.472102
1293.000000	57.466184
1292.000000	57.456389
1291.000000	57.457002
1290.000000	57.450880
1289.000000	57.441085
1288.000000	57.424658
1287.000000	57.407721
1286.000000	57.408333
1285.000000	57.384968
1284.000000	57.374969
1283.000000	57.358236
1282.000000	57.331606
1281.000000	57.314567
1280.000000	57.302324
1279.000000	57.272837
1278.000000	57.238861
1277.000000	57.221413
1276.000000	57.197028
1275.000000	57.188151
1274.000000	57.175602
1273.000000	57.157338
1272.000000	57.130198
1271.000000	57.103976
1270.000000	57.080611
1269.000000	57.064695
1268.000000	57.042656
1267.000000	57.009598
1266.000000	56.976642
1265.000000	56.940728
1264.000000	56.908282
1263.000000	56.890121
1262.000000	56.867980
1261.000000	56.819210
1260.000000	56.796253
1259.000000	56.779010
1258.000000	56.739830
1257.000000	56.726566
1256.000000	56.682387
1255.000000	56.644840
1254.000000	56.630147
1253.000000	56.597191
1252.000000	56.577295
1251.000000	56.529851
1250.000000	56.481489
1249.000000	56.452512
1248.000000	56.437514
1247.000000	56.391702
1246.000000	56.349972
1245.000000	56.289059
1244.000000	56.250492
1243.000000	56.196008
1242.000000	56.137748
1241.000000	56.106323
1240.000000	56.074489
1239.000000	56.025923
1238.000000	55.975418
1237.000000	55.936136
1236.000000	55.878795
1235.000000	55.822372
1234.000000	55.772479
1233.000000	55.699222
1232.000000	55.604027
1231.000000	55.534545
1230.000000	55.435167
1229.000000	55.337932
1228.000000	55.224882
1227.000000	55.119995
1226.000000	54.998477
1225.000000	54.852165
1224.000000	54.711873
1223.000000	54.578519
1222.000000	54.429555
1221.000000	54.300181
1220.000000	54.195497
1219.000000	54.089590
1218.000000	54.008271
1217.000000	53.954195
1216.000000	53.914097
1215.000000	53.877979
1214.000000	53.861756
1213.000000	53.841860
1212.000000	53.863694
1211.000000	53.864205
1210.000000	53.901752
1209.000000	53.928892
1208.000000	53.944809
1207.000000	53.976438
1206.000000	54.007659
1205.000000	54.041942
1204.000000	54.058062
1203.000000	54.098466
1202.000000	54.112240
1201.000000	54.133463
1200.000000	54.147339
1199.000000	54.178764
1198.000000	54.182743
1197.000000	54.200905
1196.000000	54.212230
1195.000000	54.208863
1194.000000	54.233351
1193.000000	54.244370
1192.000000	54.215495
1191.000000	54.220495
1190.000000	54.213659
1189.000000	54.203864
1188.000000	54.189069
1187.000000	54.129892
1186.000000	54.182641
1185.000000	54.250594
1184.000000	54.336503
1183.000000	54.399660
1182.000000	54.492100
1181.000000	54.558726
1180.000000	54.640554
1179.000000	54.724627
1178.000000	54.817883
1177.000000	54.868184
1176.000000	54.938381
1175.000000	55.001027
1174.000000	55.062960
1173.000000	55.106833
1172.000000	55.163970
1171.000000	55.197028
1170.000000	55.249676
1169.000000	55.292324
1168.000000	55.381805
1167.000000	55.452002
1166.000000	55.563419
1165.000000	55.648615
1164.000000	55.756563
1163.000000	55.841554
1162.000000	55.957154
1161.000000	56.039493
1160.000000	56.103670
1159.000000	56.181928
1158.000000	56.249676
1157.000000	56.318750
1156.000000	56.392824
1155.000000	56.455879
1154.000000	56.532504
1153.000000	56.568725
1152.000000	56.620760
1151.000000	56.663715
1150.000000	56.700854
1149.000000	56.754420
1148.000000	56.805639
1147.000000	56.872673
1146.000000	56.860940
1145.000000	56.906650
1144.000000	56.949298
1143.000000	57.001028
1142.000000	57.050819
1141.000000	57.107649
1140.000000	57.150808
1139.000000	57.211618
1138.000000	57.277632
1137.000000	57.365480
1136.000000	57.424250
1135.000000	57.459042
1134.000000	57.456083
1133.000000	57.496691
1132.000000	57.573010
1131.000000	57.635453
1130.000000	57.678204
1129.000000	57.698610
1128.000000	57.719832
1127.000000	57.753808
1126.000000	57.768603
1125.000000	57.787478
1124.000000	57.806660
1123.000000	57.805231
1122.000000	57.783499
1121.000000	57.769113
1120.000000	57.779112
1119.000000	57.784213
1118.000000	57.794620
1117.000000	57.785336
1116.000000	57.769419
1115.000000	57.765440
1114.000000	57.756665
1113.000000	57.748401
1112.000000	57.740646
1111.000000	57.747380
1110.000000	57.721362
1109.000000	57.710751
1108.000000	57.723097
1107.000000	57.708099
1106.000000	57.700548
1105.000000	57.688509
1104.000000	57.671980
1103.000000	57.651472
1102.000000	57.649941
1101.000000	57.643717
1100.000000	57.620046
1099.000000	57.611476
1098.000000	57.606170
1097.000000	57.590151
1096.000000	57.573622
1095.000000	57.543830
1094.000000	57.539748
1093.000000	57.519648
1092.000000	57.495569
1091.000000	57.487509
1090.000000	57.462715
1089.000000	57.433024
1088.000000	57.416394
1087.000000	57.401191
1086.000000	57.379969
1085.000000	57.353033
1084.000000	57.332320
1083.000000	57.319465
1082.000000	57.298650
1081.000000	57.267633
1080.000000	57.253349
1079.000000	57.234881
1078.000000	57.206007
1077.000000	57.175296
1076.000000	57.146523
1075.000000	57.123362
1074.000000	57.107037
1073.000000	57.088366
1072.000000	57.057961
1071.000000	57.033473
1070.000000	57.018679
1069.000000	56.994396
1068.000000	56.968582
1067.000000	56.946033
1066.000000	56.921240
1065.000000	56.892773
1064.000000	56.876040
1063.000000	56.868898
1062.000000	56.840942
1061.000000	56.803395
1060.000000	56.772786
1059.000000	56.743605
1058.000000	56.718710
1057.000000	56.696569
1056.000000	56.668409
1055.000000	56.641983
1054.000000	56.614434
1053.000000	56.577908
1052.000000	56.548217
1051.000000	56.530361
1050.000000	56.513730
1049.000000	56.495161
1048.000000	56.459756
1047.000000	56.440575
1046.000000	56.419352
1045.000000	56.382111
1044.000000	56.357114
1043.000000	56.343034
1042.000000	56.307119
1041.000000	56.280081
1040.000000	56.259777
1039.000000	56.233861
1038.000000	56.209884
1037.000000	56.171724
1036.000000	56.146829
1035.000000	56.137136
1034.000000	56.114689
1033.000000	56.081938
1032.000000	56.067143
1031.000000	56.059593
1030.000000	56.030106
1029.000000	56.007660
1028.000000	55.987662
1027.000000	55.955216
1026.000000	55.936952
1025.000000	55.930014
1024.000000	55.894100
1023.000000	55.880836
1022.000000	55.867674
1021.000000	55.834718
1020.000000	55.814108
1019.000000	55.800742
1018.000000	55.764725
1017.000000	55.763909
1016.000000	55.756461
1015.000000	55.732177
1014.000000	55.725647
1013.000000	55.716669
1012.000000	55.700956
1011.000000	55.702180
1010.000000	55.695446
1009.000000	55.700242
1008.000000	55.701262
1007.000000	55.702691
1006.000000	55.696569
1005.000000	55.692488
1004.000000	55.691161
1003.000000	55.689937
1002.000000	55.702589
1001.000000	55.684223
1000.000000	55.694018
999.000000	55.707588
998.000000	55.689121
997.000000	55.677387
996.000000	55.666878
995.000000	55.665552
994.000000	55.656879
993.000000	55.648717
992.000000	55.658716
991.000000	55.629535
990.000000	55.648921
989.000000	55.641676
988.000000	55.654940
987.000000	55.633412
986.000000	55.660756
985.000000	55.678101
984.000000	55.685856
983.000000	55.687284
982.000000	55.689529
981.000000	55.685958
980.000000	55.717281
979.000000	55.732790
978.000000	55.747686
977.000000	55.740238
976.000000	55.755746
975.000000	55.768908
974.000000	55.785845
973.000000	55.790947
972.000000	55.794620
971.000000	55.838595
970.000000	55.873796
969.000000	55.887876
968.000000	55.926239
967.000000	55.977867
966.000000	55.984805
965.000000	56.016638
964.000000	56.080203
963.000000	56.130300
962.000000	56.147135
961.000000	56.176010
960.000000	56.212435
959.000000	56.290692
958.000000	56.334157
957.000000	56.379560
956.000000	56.417822
955.000000	56.457308
954.000000	56.515261
953.000000	56.583723
952.000000	56.608721
951.000000	56.659940
950.000000	56.708200
949.000000	56.752584
948.000000	56.827984
947.000000	56.895120
946.000000	56.952971
945.000000	57.005415
944.000000	57.080407
943.000000	57.153971
942.000000	57.219373
941.000000	57.310180
940.000000	57.388029
939.000000	57.460063
938.000000	57.557808
937.000000	57.639534
936.000000	57.704017
935.000000	57.784213
934.000000	57.866246
933.000000	57.955930
932.000000	58.002252
931.000000	58.087142
930.000000	58.143768
929.000000	58.245595
928.000000	58.324770
927.000000	58.379561
926.000000	58.473429
925.000000	58.572500
924.000000	58.638310
923.000000	58.713506
922.000000	58.773194
921.000000	58.842167
920.000000	58.901956
919.000000	58.967154
918.000000	59.059593
917.000000	59.090713
916.000000	59.133361
915.000000	59.194478
914.000000	59.247533
913.000000	59.295080
912.000000	59.355584
911.000000	59.392825
910.000000	59.437412
909.000000	59.483326
908.000000	59.508221
907.000000	59.562501
906.000000	59.607089
905.000000	59.632392
904.000000	59.685142
903.000000	59.738606
902.000000	59.746054
901.000000	59.810435
900.000000	59.851860
899.000000	59.882469
898.000000	59.921955
897.000000	59.968276
896.000000	59.995825
895.000000	60.018577
894.000000	60.073164
893.000000	60.103671
892.000000	60.124893
891.000000	60.158053
890.000000	60.176112
889.000000	60.216210
888.000000	60.242024
887.000000	60.258553
886.000000	60.283856
885.000000	60.313751
884.000000	60.345483
883.000000	60.367623
882.000000	60.392519
881.000000	60.414966
880.000000	60.417720
879.000000	60.456594
878.000000	60.473735
877.000000	60.495978
876.000000	60.501997
875.000000	60.540259
874.000000	60.562399
873.000000	60.578622
872.000000	60.594845
871.000000	60.600661
870.000000	60.606273
869.000000	60.617598
868.000000	60.615047
867.000000	60.594539
866.000000	60.553727
865.000000	60.497304
864.000000	60.393743
863.000000	60.270388
862.000000	60.134484
861.000000	60.025924
860.000000	59.962563
859.000000	59.924403
858.000000	60.477000
857.000000	60.646000
856.000000	60.345300
855.000000	60.439700
854.000000	60.343400
853.000000	60.502600
852.000000	60.553900
851.000000	60.563600
850.000000	60.175000
849.000000	60.157500
848.000000	60.041900
847.000000	60.162200
846.000000	59.879600
845.000000	60.030800
844.000000	59.952600
843.000000	59.583200
842.000000	59.462500
841.000000	59.526900
840.000000	59.416900
839.000000	59.333900
838.000000	59.366700
837.000000	59.180500
836.000000	59.142300
835.000000	58.922600
834.000000	58.773100
833.000000	58.633700
832.000000	58.684200
831.000000	58.726800
830.000000	58.574700
829.000000	58.393400
828.000000	58.208700
827.000000	58.068900
826.000000	57.895900
825.000000	57.771100
824.000000	57.752700
823.000000	57.646500
822.000000	57.433800
821.000000	57.241000
820.000000	57.152000
819.000000	57.102800
818.000000	56.929900
817.000000	56.825400
816.000000	56.803600
815.000000	56.655400
814.000000	56.466600
813.000000	56.274200
812.000000	56.164000
811.000000	56.136800
810.000000	55.993500
809.000000	55.871200
808.000000	55.657800
807.000000	55.482600
806.000000	55.420500
805.000000	55.419600
804.000000	55.361700
803.000000	55.175400
802.000000	55.039700
801.000000	54.919800
800.000000	54.791700
799.000000	54.637100
798.000000	54.610600
797.000000	54.581400
796.000000	54.375700
795.000000	54.153400
794.000000	54.071000
793.000000	54.079300
792.000000	53.946700
791.000000	53.812500
790.000000	53.700500
789.000000	53.534300
788.000000	53.371300
787.000000	53.278700
786.000000	53.272200
785.000000	53.207900
784.000000	53.008700
783.000000	52.918900
782.000000	52.842900
781.000000	52.756400
780.000000	52.747200
779.000000	52.620900
778.000000	52.451000
777.000000	52.383000
776.000000	52.331500
775.000000	52.211500
774.000000	52.033900
773.000000	51.852400
772.000000	51.755400
771.000000	51.652800
770.000000	51.526600
769.000000	51.412300
768.000000	51.291900
767.000000	51.223500
766.000000	51.142600
765.000000	51.053300
764.000000	50.929800
763.000000	50.726800
762.000000	50.649600
761.000000	50.524400
760.000000	50.424200
759.000000	50.391400
758.000000	50.303900
757.000000	50.205000
756.000000	50.116900
755.000000	50.002700
754.000000	49.873700
753.000000	49.832400
752.000000	49.752000
751.000000	49.597200
750.000000	49.491400
749.000000	49.414000
748.000000	49.326300
747.000000	49.185500
746.000000	49.084300
745.000000	48.993200
744.000000	48.868900
743.000000	48.792100
742.000000	48.700200
741.000000	48.562200
740.000000	48.400600
739.000000	48.302900
738.000000	48.170800
737.000000	48.068600
736.000000	48.012500
735.000000	47.953700
734.000000	47.885100
733.000000	47.748500
732.000000	47.635000
731.000000	47.562000
730.000000	47.474200
729.000000	47.344700
728.000000	47.268600
727.000000	47.152600
726.000000	47.015100
725.000000	46.910200
724.000000	46.761900
723.000000	46.623500
722.000000	46.487200
721.000000	46.346300
720.000000	46.154000
719.000000	46.040300
718.000000	45.886300
717.000000	45.712800
716.000000	45.614800
715.000000	45.425800
714.000000	45.281000
713.000000	45.127200
712.000000	44.948100
711.000000	44.794200
710.000000	44.630600
709.000000	44.450300
708.000000	44.325500
707.000000	44.177000
706.000000	43.999500
705.000000	43.812500
704.000000	43.645200
703.000000	43.486400
702.000000	43.259400
701.000000	43.026600
700.000000	42.843100
699.000000	42.612700
698.000000	42.405900
697.000000	42.102900
696.000000	41.937100
695.000000	41.748900
694.000000	41.508000
693.000000	41.268500
692.000000	41.000500
691.000000	40.782400
690.000000	40.534500
689.000000	40.279000
688.000000	40.022600
687.000000	39.722400
686.000000	39.397800
685.000000	39.150900
684.000000	38.889200
683.000000	38.568100
682.000000	38.268900
681.000000	37.930200
680.000000	37.602300
679.000000	37.302100
678.000000	36.980400
677.000000	36.684700
676.000000	36.383600
675.000000	36.098900
674.000000	35.829800
673.000000	35.594500
672.000000	35.411300
671.000000	35.226800
670.000000	35.107400
669.000000	34.935000
668.000000	34.787400
667.000000	34.704400
666.000000	34.569200
665.000000	34.442700
664.000000	34.354200
663.000000	34.200400
662.000000	34.007200
661.000000	33.906300
660.000000	33.752700
659.000000	33.626100
658.000000	33.478000
657.000000	33.337700
656.000000	33.178300
655.000000	33.076400
654.000000	32.997500
653.000000	32.928600
652.000000	32.894400
651.000000	32.832200
650.000000	32.826800
649.000000	32.866600
648.000000	32.893200
647.000000	32.949100
646.000000	33.020500
645.000000	33.102200
644.000000	33.166100
643.000000	33.231200
642.000000	33.255300
641.000000	33.299300
640.000000	33.303700
639.000000	33.330200
638.000000	33.332500
637.000000	33.309800
636.000000	33.330600
635.000000	33.303200
634.000000	33.284500
633.000000	33.273400
632.000000	33.240800
631.000000	33.249400
630.000000	33.234000
629.000000	33.214600
628.000000	33.245600
627.000000	33.259400
626.000000	33.284200
625.000000	33.339400
624.000000	33.446200
623.000000	33.550900
622.000000	33.688600
621.000000	33.832300
620.000000	33.986400
619.000000	34.196300
618.000000	34.421100
617.000000	34.628400
616.000000	34.899200
615.000000	35.164000
614.000000	35.442300
613.000000	35.803500
612.000000	36.077600
611.000000	36.380200
610.000000	36.686500
609.000000	36.972100
608.000000	37.214900
607.000000	37.435100
606.000000	37.610300
605.000000	37.765400
604.000000	37.934600
603.000000	38.041600
602.000000	38.169200
601.000000	38.290500
600.000000	38.364200
599.000000	38.470700
598.000000	38.572800
597.000000	38.637000
596.000000	38.726600
595.000000	38.781900
594.000000	38.847400
593.000000	38.922300
592.000000	38.954600
591.000000	38.999600
590.000000	39.028600
589.000000	39.047100
588.000000	39.064000
587.000000	39.088900
586.000000	39.075400
585.000000	39.052600
584.000000	39.005800
583.000000	38.959000
582.000000	38.898400
581.000000	38.837200
580.000000	38.808700
579.000000	38.735200
578.000000	38.725200
577.000000	38.685400
576.000000	38.659800
575.000000	38.619200
574.000000	38.609900
573.000000	38.591300
572.000000	38.581500
571.000000	38.568900
570.000000	38.560100
569.000000	38.578700
568.000000	38.589300
567.000000	38.579600
566.000000	38.609500
565.000000	38.583000
564.000000	38.569200
563.000000	38.533000
562.000000	38.475000
561.000000	38.442000
560.000000	38.347900
559.000000	38.158300
558.000000	38.078700
557.000000	37.993200
556.000000	37.903600
555.000000	37.788900
554.000000	37.679100
553.000000	37.576200
552.000000	37.471400
551.000000	37.383300
550.000000	37.296400
549.000000	37.215400
548.000000	37.161300
547.000000	37.080700
546.000000	37.003600
545.000000	36.960000
544.000000	36.880100
543.000000	36.794500
542.000000	36.703500
541.000000	36.614200
540.000000	36.499100
539.000000	36.342100
538.000000	36.169700
537.000000	35.983400
536.000000	35.763200
535.000000	35.514600
534.000000	35.206900
533.000000	34.906300
532.000000	34.573200
531.000000	34.222300
530.000000	33.836800
529.000000	33.422200
528.000000	33.024200
527.000000	32.606400
526.000000	32.176000
525.000000	31.750400
524.000000	31.333000
523.000000	30.909700
522.000000	30.507800
521.000000	30.103300
520.000000	29.727100
519.000000	29.373600
518.000000	29.056200
517.000000	28.759800
516.000000	28.494500
515.000000	28.281000
514.000000	28.098200
513.000000	27.955500
512.000000	27.852600
511.000000	27.803500
510.000000	27.778800
509.000000	27.795000
508.000000	27.827600
507.000000	27.890800
506.000000	27.954200
505.000000	28.003200
504.000000	28.057000
503.000000	28.102300
502.000000	28.134900
501.000000	28.158400
500.000000	28.168100
499.000000	28.164100
498.000000	28.136600
497.000000	28.101600
496.000000	28.065000
495.000000	27.989100
494.000000	27.894600
493.000000	27.779600
492.000000	27.673500
491.000000	27.579000
490.000000	27.458400
489.000000	27.343900
488.000000	27.226000
487.000000	27.095300
486.000000	26.968200
485.000000	26.844200
484.000000	26.753800
483.000000	26.678300
482.000000	26.618000
481.000000	26.597200
480.000000	26.581500
479.000000	26.564400
478.000000	26.549000
477.000000	26.544500
476.000000	26.559500
475.000000	26.584000
474.000000	26.621000
473.000000	26.668200
472.000000	26.744800
471.000000	26.842900
470.000000	26.942000
469.000000	27.068400
468.000000	27.202600
467.000000	27.312000
466.000000	27.413100
465.000000	27.513600
464.000000	27.615700
463.000000	27.716800
462.000000	27.771600
461.000000	27.791200
460.000000	27.799600
459.000000	27.788400
458.000000	27.773300
457.000000	27.706000
456.000000	27.579400
455.000000	27.442400
454.000000	27.286600
453.000000	27.103500
452.000000	26.874800
451.000000	26.615100
450.000000	26.339400
449.000000	26.041100
448.000000	25.756900
447.000000	25.454800
446.000000	25.143500
445.000000	24.875400
444.000000	24.615000
443.000000	24.403100
442.000000	24.228000
441.000000	24.124400
440.000000	24.060900
439.000000	24.022900
438.000000	24.019100
437.000000	24.072400
436.000000	24.156000
435.000000	24.251500
434.000000	24.416500
433.000000	24.625000
432.000000	24.807500
431.000000	24.981100
430.000000	25.201000
429.000000	25.388900
428.000000	25.622000
427.000000	25.811500
426.000000	25.975200
425.000000	26.140300
424.000000	26.318500
423.000000	26.432700
422.000000	26.558100
421.000000	26.664100
420.000000	26.754400
419.000000	26.828000
418.000000	26.922800
417.000000	26.981800
416.000000	27.028900
415.000000	27.076100
414.000000	27.062500
413.000000	27.073700
412.000000	27.062000
411.000000	27.050600
410.000000	26.994800
409.000000	26.944800
408.000000	26.875700
407.000000	26.813000
406.000000	26.708200
405.000000	26.562000
404.000000	26.445200
403.000000	26.295100
402.000000	26.119100
401.000000	25.920900
400.000000	25.681200
399.000000	25.453100
398.000000	25.226300
397.000000	24.973500
396.000000	24.700700
395.000000	24.353700
394.000000	23.996600
393.000000	23.630800
392.000000	23.257300
391.000000	22.871900
390.000000	22.425200
389.000000	22.015500
388.000000	21.515400
387.000000	21.056000
386.000000	20.601800
385.000000	20.118500
384.000000	19.549300
383.000000	19.057500
382.000000	18.539900
381.000000	17.996200
380.000000	17.441400
379.000000	16.874200
378.000000	16.320000
377.000000	15.787300
376.000000	15.014100
375.000000	14.364900
374.000000	14.037100
373.000000	13.530500
372.000000	12.949100
371.000000	12.488900
370.000000	12.054900
369.000000	11.650500
368.000000	11.206700
367.000000	10.693700
366.000000	10.349000
365.000000	10.068600
364.000000	9.626000
363.000000	9.261400
362.000000	8.928400
361.000000	8.650600
360.000000	8.281000
359.000000	8.060100
358.000000	7.804100
357.000000	7.691700
356.000000	7.412600
355.000000	7.145000
354.000000	7.071700
353.000000	6.903400
352.000000	6.705100
351.000000	6.614900
350.000000	6.471100
349.000000	6.359700
348.000000	6.307900
347.000000	6.141900
346.000000	6.130000
345.000000	6.054200
344.000000	5.921800
343.000000	5.976100
342.000000	5.871900
341.000000	5.881600
340.000000	5.737300
339.000000	5.694800
338.000000	5.596900
337.000000	5.608500
336.000000	5.789800
335.000000	5.651300
334.000000	5.647000
333.000000	5.641800
332.000000	5.632600
331.000000	5.584000
330.000000	5.537800
329.000000	5.494500
328.000000	5.499500
327.000000	5.475900
326.000000	5.472800
325.000000	5.468600
324.000000	5.484500
323.000000	5.512100
322.000000	5.555700
321.000000	5.441300
320.000000	5.446400
319.000000	5.366700
318.000000	5.414500
317.000000	5.404200
316.000000	5.274500
315.000000	5.304800
314.000000	5.235500
313.000000	5.298800
312.000000	5.275200
311.000000	5.264500
310.000000	5.283600
309.000000	5.265000
308.000000	5.257300
307.000000	5.210200
306.000000	5.215600
305.000000	5.234900
304.000000	5.196000
303.000000	5.190800
302.000000	5.211800
301.000000	5.262300
300.000000	5.242900
299.000000	5.208000
298.000000	5.200100
297.000000	5.168900
296.000000	5.244100
295.000000	5.220400
294.000000	5.212300
293.000000	5.209700
292.000000	5.181100
291.000000	5.199800
290.000000	5.209900
289.000000	5.229000
288.000000	5.203500
287.000000	5.166000
286.000000	5.195500
285.000000	5.217100
284.000000	5.205400
283.000000	5.237400
282.000000	5.175700
281.000000	5.189400
280.000000	5.173100
279.000000	5.219000
278.000000	5.202800
277.000000	5.217700
276.000000	5.229800
275.000000	5.230600
274.000000	5.245900
273.000000	5.226100
272.000000	5.276200
271.000000	5.269900
270.000000	5.272600
269.000000	5.289800
268.000000	5.273800
267.000000	5.307200
266.000000	5.318600
265.000000	5.325800
264.000000	5.359500
263.000000	5.391400
262.000000	5.411200
261.000000	5.433300
260.000000	5.459300
259.000000	5.473400
258.000000	5.431300
257.000000	5.470100
256.000000	5.463400
255.000000	5.485400
254.000000	5.471400
253.000000	5.506000
252.000000	5.497400
251.000000	5.518600
250.000000	5.520000
