PE UV       SUBTECH     SPECTRUM    ASCII       PEDS        4.00        
   -1
CICIMAUCR0009-1 fail.Sample.ASC
24/03/08
13:57:38.00
24/03/08
13:57:38.00
Vinicio Soto Monge
C. kalinini
250,000000
1
Lambda 1050
1050L1511233
PerkinElmer UV WinLab 6.3.2.0749 / 2.02.05 Lambda 900 UV/VIS/NIR, Aug  7 2015 09:38:08

0
0
3350/servo 860,8/2
0
0
UV/VIS
1
1
1
DoubleDePol,CommonBeamDepol,RBeamAtt,SBeamAtt,60mm sphere, WB InGaAs Detector
0
0
0
0
Program
Program
3350/servo 860,8/2
3350/0,2 860,8/0,2
3350/0,2 860,8/0,2
0
15.00
 
 
 
0
 
860,8
319,2
860,8
Front
100
on
S:100 R:100
0
0
0
0
 
0
 
 
 
0
 
 
0
0
0
0
0
 
 
 
 
0
0


0
0
#HDR
-1
-1
#GR
nm
%R
1.0
0.0
2500,000000
-1,000000
2251
8
24,370700
1,836500
#DATA
2500.000000	1.996069
2499.000000	2.085037
2498.000000	1.977519
2497.000000	2.028421
2496.000000	1.949650
2495.000000	2.032640
2494.000000	1.909562
2493.000000	1.956332
2492.000000	1.879584
2491.000000	2.002926
2490.000000	1.983585
2489.000000	1.903144
2488.000000	1.970486
2487.000000	1.923189
2486.000000	1.894089
2485.000000	1.922837
2484.000000	1.894705
2483.000000	1.883100
2482.000000	1.901826
2481.000000	1.923101
2480.000000	1.875540
2479.000000	1.883188
2478.000000	1.924507
2477.000000	1.899892
2476.000000	1.921958
2475.000000	1.906133
2474.000000	1.926529
2473.000000	1.929958
2472.000000	1.926617
2471.000000	1.949650
2470.000000	1.925826
2469.000000	1.907628
2468.000000	1.938925
2467.000000	1.952552
2466.000000	1.950354
2465.000000	1.955277
2464.000000	1.959057
2463.000000	1.978574
2462.000000	1.980156
2461.000000	1.978398
2460.000000	1.985871
2459.000000	1.985519
2458.000000	2.021651
2457.000000	2.011981
2456.000000	2.025080
2455.000000	2.050926
2454.000000	2.042487
2453.000000	2.072201
2452.000000	2.072377
2451.000000	2.082048
2450.000000	2.107015
2449.000000	2.126620
2448.000000	2.121521
2447.000000	2.137081
2446.000000	2.164686
2445.000000	2.176203
2444.000000	2.207676
2443.000000	2.203192
2442.000000	2.222445
2441.000000	2.241346
2440.000000	2.262709
2439.000000	2.271413
2438.000000	2.297523
2437.000000	2.309567
2436.000000	2.320644
2435.000000	2.349831
2434.000000	2.369084
2433.000000	2.369524
2432.000000	2.391766
2431.000000	2.395634
2430.000000	2.406799
2429.000000	2.423063
2428.000000	2.441788
2427.000000	2.448118
2426.000000	2.449437
2425.000000	2.469569
2424.000000	2.486009
2423.000000	2.517570
2422.000000	2.534185
2421.000000	2.556515
2420.000000	2.561614
2419.000000	2.576735
2418.000000	2.565043
2417.000000	2.589922
2416.000000	2.595197
2415.000000	2.603021
2414.000000	2.612340
2413.000000	2.610758
2412.000000	2.626318
2411.000000	2.634846
2410.000000	2.639681
2409.000000	2.641351
2408.000000	2.654187
2407.000000	2.651813
2406.000000	2.670978
2405.000000	2.695594
2404.000000	2.695418
2403.000000	2.696473
2402.000000	2.702099
2401.000000	2.700781
2400.000000	2.701132
2399.000000	2.712561
2398.000000	2.716957
2397.000000	2.721968
2396.000000	2.725748
2395.000000	2.741484
2394.000000	2.743594
2393.000000	2.758276
2392.000000	2.761704
2391.000000	2.758715
2390.000000	2.756078
2389.000000	2.760122
2388.000000	2.772869
2387.000000	2.778760
2386.000000	2.771727
2385.000000	2.771375
2384.000000	2.778056
2383.000000	2.773045
2382.000000	2.779199
2381.000000	2.778848
2380.000000	2.784298
2379.000000	2.773924
2378.000000	2.756957
2377.000000	2.760562
2376.000000	2.768562
2375.000000	2.769880
2374.000000	2.769441
2373.000000	2.761001
2372.000000	2.752561
2371.000000	2.741836
2370.000000	2.727506
2369.000000	2.727330
2368.000000	2.720473
2367.000000	2.722935
2366.000000	2.724517
2365.000000	2.711594
2364.000000	2.708517
2363.000000	2.699462
2362.000000	2.684165
2361.000000	2.670714
2360.000000	2.657352
2359.000000	2.644165
2358.000000	2.644077
2357.000000	2.632648
2356.000000	2.606714
2355.000000	2.596164
2354.000000	2.605395
2353.000000	2.593351
2352.000000	2.569878
2351.000000	2.569702
2350.000000	2.568647
2349.000000	2.571988
2348.000000	2.585614
2347.000000	2.579021
2346.000000	2.572076
2345.000000	2.581307
2344.000000	2.587373
2343.000000	2.601702
2342.000000	2.606889
2341.000000	2.609439
2340.000000	2.610318
2339.000000	2.606714
2338.000000	2.600296
2337.000000	2.614098
2336.000000	2.616120
2335.000000	2.610758
2334.000000	2.604516
2333.000000	2.601527
2332.000000	2.609351
2331.000000	2.597395
2330.000000	2.587109
2329.000000	2.586845
2328.000000	2.570493
2327.000000	2.565219
2326.000000	2.561087
2325.000000	2.527328
2324.000000	2.509042
2323.000000	2.490668
2322.000000	2.483899
2321.000000	2.470888
2320.000000	2.454184
2319.000000	2.439239
2318.000000	2.426052
2317.000000	2.414272
2316.000000	2.396689
2315.000000	2.374183
2314.000000	2.337611
2313.000000	2.328380
2312.000000	2.315281
2311.000000	2.290314
2310.000000	2.272907
2309.000000	2.247764
2308.000000	2.247588
2307.000000	2.220335
2306.000000	2.215588
2305.000000	2.215412
2304.000000	2.184994
2303.000000	2.185873
2302.000000	2.196335
2301.000000	2.210665
2300.000000	2.214533
2299.000000	2.223236
2298.000000	2.225434
2297.000000	2.230973
2296.000000	2.244423
2295.000000	2.259281
2294.000000	2.265083
2293.000000	2.273698
2292.000000	2.283369
2291.000000	2.292688
2290.000000	2.278534
2289.000000	2.285830
2288.000000	2.266841
2287.000000	2.279677
2286.000000	2.272380
2285.000000	2.279940
2284.000000	2.274578
2283.000000	2.253830
2282.000000	2.237742
2281.000000	2.241171
2280.000000	2.224995
2279.000000	2.203368
2278.000000	2.192642
2277.000000	2.198269
2276.000000	2.156598
2275.000000	2.153169
2274.000000	2.138840
2273.000000	2.150532
2272.000000	2.114224
2271.000000	2.132949
2270.000000	2.111850
2269.000000	2.099806
2268.000000	2.124861
2267.000000	2.113257
2266.000000	2.109037
2265.000000	2.125741
2264.000000	2.118180
2263.000000	2.136642
2262.000000	2.160906
2261.000000	2.177170
2260.000000	2.199324
2259.000000	2.209786
2258.000000	2.222357
2257.000000	2.268512
2256.000000	2.284775
2255.000000	2.301831
2254.000000	2.342886
2253.000000	2.380865
2252.000000	2.401348
2251.000000	2.441349
2250.000000	2.450052
2249.000000	2.497701
2248.000000	2.521262
2247.000000	2.536735
2246.000000	2.566537
2245.000000	2.584032
2244.000000	2.629571
2243.000000	2.645395
2242.000000	2.662802
2241.000000	2.685396
2240.000000	2.670363
2239.000000	2.687945
2238.000000	2.733221
2237.000000	2.731023
2236.000000	2.741309
2235.000000	2.754320
2234.000000	2.753880
2233.000000	2.758012
2232.000000	2.764606
2231.000000	2.762847
2230.000000	2.762759
2229.000000	2.755638
2228.000000	2.761265
2227.000000	2.731902
2226.000000	2.750979
2225.000000	2.710891
2224.000000	2.706143
2223.000000	2.695857
2222.000000	2.691989
2221.000000	2.671945
2220.000000	2.654626
2219.000000	2.638274
2218.000000	2.628164
2217.000000	2.607153
2216.000000	2.582801
2215.000000	2.575592
2214.000000	2.550537
2213.000000	2.539284
2212.000000	2.531724
2211.000000	2.533482
2210.000000	2.534976
2209.000000	2.527416
2208.000000	2.524778
2207.000000	2.550713
2206.000000	2.552207
2205.000000	2.589395
2204.000000	2.610582
2203.000000	2.642758
2202.000000	2.669659
2201.000000	2.693220
2200.000000	2.731902
2199.000000	2.775595
2198.000000	2.797397
2197.000000	2.843112
2196.000000	2.900695
2195.000000	2.932432
2194.000000	2.960212
2193.000000	2.999861
2192.000000	3.033708
2191.000000	3.067291
2190.000000	3.087247
2189.000000	3.115027
2188.000000	3.136127
2187.000000	3.178765
2186.000000	3.198809
2185.000000	3.185094
2184.000000	3.198897
2183.000000	3.218853
2182.000000	3.226326
2181.000000	3.242326
2180.000000	3.251205
2179.000000	3.257798
2178.000000	3.256831
2177.000000	3.264568
2176.000000	3.295513
2175.000000	3.280832
2174.000000	3.283117
2173.000000	3.277315
2172.000000	3.296304
2171.000000	3.301755
2170.000000	3.299821
2169.000000	3.319074
2168.000000	3.326195
2167.000000	3.318019
2166.000000	3.329887
2165.000000	3.327250
2164.000000	3.333492
2163.000000	3.338063
2162.000000	3.349580
2161.000000	3.376042
2160.000000	3.378855
2159.000000	3.371470
2158.000000	3.364437
2157.000000	3.377360
2156.000000	3.382899
2155.000000	3.390108
2154.000000	3.400482
2153.000000	3.414020
2152.000000	3.430020
2151.000000	3.440042
2150.000000	3.449273
2149.000000	3.461669
2148.000000	3.485494
2147.000000	3.493230
2146.000000	3.498065
2145.000000	3.511604
2144.000000	3.518109
2143.000000	3.528219
2142.000000	3.538945
2141.000000	3.534901
2140.000000	3.545978
2139.000000	3.555912
2138.000000	3.568747
2137.000000	3.572264
2136.000000	3.573671
2135.000000	3.580176
2134.000000	3.586682
2133.000000	3.592836
2132.000000	3.594946
2131.000000	3.599517
2130.000000	3.608308
2129.000000	3.598198
2128.000000	3.606023
2127.000000	3.612440
2126.000000	3.606110
2125.000000	3.597319
2124.000000	3.602506
2123.000000	3.607078
2122.000000	3.607165
2121.000000	3.605143
2120.000000	3.599341
2119.000000	3.604440
2118.000000	3.590110
2117.000000	3.590110
2116.000000	3.601275
2115.000000	3.594770
2114.000000	3.577715
2113.000000	3.582374
2112.000000	3.573846
2111.000000	3.568923
2110.000000	3.569978
2109.000000	3.563121
2108.000000	3.561802
2107.000000	3.556352
2106.000000	3.562154
2105.000000	3.562154
2104.000000	3.554593
2103.000000	3.549143
2102.000000	3.539648
2101.000000	3.526637
2100.000000	3.529099
2099.000000	3.527428
2098.000000	3.522505
2097.000000	3.526725
2096.000000	3.518197
2095.000000	3.513274
2094.000000	3.507736
2093.000000	3.504922
2092.000000	3.510461
2091.000000	3.516527
2090.000000	3.521802
2089.000000	3.523208
2088.000000	3.512219
2087.000000	3.494461
2086.000000	3.503252
2085.000000	3.518989
2084.000000	3.513362
2083.000000	3.512307
2082.000000	3.514945
2081.000000	3.515032
2080.000000	3.508087
2079.000000	3.505362
2078.000000	3.498768
2077.000000	3.489010
2076.000000	3.490241
2075.000000	3.484351
2074.000000	3.469757
2073.000000	3.480395
2072.000000	3.488834
2071.000000	3.470021
2070.000000	3.454548
2069.000000	3.440482
2068.000000	3.432306
2067.000000	3.424218
2066.000000	3.424834
2065.000000	3.429932
2064.000000	3.418504
2063.000000	3.395646
2062.000000	3.394855
2061.000000	3.405493
2060.000000	3.386767
2059.000000	3.373492
2058.000000	3.388789
2057.000000	3.387558
2056.000000	3.372789
2055.000000	3.383866
2054.000000	3.406460
2053.000000	3.411031
2052.000000	3.414899
2051.000000	3.417800
2050.000000	3.437141
2049.000000	3.450153
2048.000000	3.470812
2047.000000	3.503252
2046.000000	3.511076
2045.000000	3.525494
2044.000000	3.566637
2043.000000	3.603561
2042.000000	3.619210
2041.000000	3.655342
2040.000000	3.675122
2039.000000	3.707211
2038.000000	3.729277
2037.000000	3.752662
2036.000000	3.766640
2035.000000	3.779212
2034.000000	3.813849
2033.000000	3.844179
2032.000000	3.846905
2031.000000	3.872839
2030.000000	3.895433
2029.000000	3.904136
2028.000000	3.925147
2027.000000	3.955038
2026.000000	3.977807
2025.000000	3.973060
2024.000000	3.985368
2023.000000	4.003302
2022.000000	4.001896
2021.000000	4.011830
2020.000000	4.037061
2019.000000	4.038819
2018.000000	4.047698
2017.000000	4.048841
2016.000000	4.054907
2015.000000	4.064666
2014.000000	4.076710
2013.000000	4.041984
2012.000000	4.050863
2011.000000	4.069413
2010.000000	4.075391
2009.000000	4.062819
2008.000000	4.060006
2007.000000	4.058424
2006.000000	4.059391
2005.000000	4.037676
2004.000000	4.025896
2003.000000	4.040577
2002.000000	4.032050
2001.000000	4.032138
2000.000000	4.012181
1999.000000	4.001280
1998.000000	3.980796
1997.000000	3.978335
1996.000000	3.958027
1995.000000	3.933499
1994.000000	3.918554
1993.000000	3.907389
1992.000000	3.898158
1991.000000	3.881982
1990.000000	3.852707
1989.000000	3.826860
1988.000000	3.821146
1987.000000	3.796267
1986.000000	3.783080
1985.000000	3.777014
1984.000000	3.747211
1983.000000	3.724530
1982.000000	3.716266
1981.000000	3.687606
1980.000000	3.671342
1979.000000	3.633012
1978.000000	3.627913
1977.000000	3.594594
1976.000000	3.570594
1975.000000	3.575077
1974.000000	3.541231
1973.000000	3.525318
1972.000000	3.522593
1971.000000	3.499648
1970.000000	3.468438
1969.000000	3.457625
1968.000000	3.436966
1967.000000	3.422987
1966.000000	3.402767
1965.000000	3.390372
1964.000000	3.371206
1963.000000	3.329799
1962.000000	3.319250
1961.000000	3.305711
1960.000000	3.289271
1959.000000	3.256392
1958.000000	3.260436
1957.000000	3.240831
1956.000000	3.222985
1955.000000	3.199688
1954.000000	3.194061
1953.000000	3.177182
1952.000000	3.171731
1951.000000	3.135160
1950.000000	3.108610
1949.000000	3.105445
1948.000000	3.089972
1947.000000	3.063598
1946.000000	3.080126
1945.000000	3.063686
1944.000000	3.051466
1943.000000	3.055510
1942.000000	3.032213
1941.000000	3.032477
1940.000000	3.057708
1939.000000	3.019202
1938.000000	3.014543
1937.000000	3.014719
1936.000000	3.015334
1935.000000	3.015774
1934.000000	3.022982
1933.000000	3.020345
1932.000000	3.049356
1931.000000	3.064302
1930.000000	3.087862
1929.000000	3.086104
1928.000000	3.082939
1927.000000	3.105621
1926.000000	3.120214
1925.000000	3.148522
1924.000000	3.168215
1923.000000	3.190193
1922.000000	3.203732
1921.000000	3.248743
1920.000000	3.260700
1919.000000	3.283469
1918.000000	3.315294
1917.000000	3.350899
1916.000000	3.411910
1915.000000	3.464043
1914.000000	3.511076
1913.000000	3.526461
1912.000000	3.551428
1911.000000	3.576747
1910.000000	3.625012
1909.000000	3.691914
1908.000000	3.755739
1907.000000	3.811564
1906.000000	3.877059
1905.000000	3.906949
1904.000000	3.948796
1903.000000	4.002599
1902.000000	4.079083
1901.000000	4.162953
1900.000000	4.215349
1899.000000	4.238382
1898.000000	4.305724
1897.000000	4.382208
1896.000000	4.448055
1895.000000	4.550825
1894.000000	4.629684
1893.000000	4.725773
1892.000000	4.796191
1891.000000	4.875225
1890.000000	4.926127
1889.000000	5.009117
1888.000000	5.102217
1887.000000	5.208768
1886.000000	5.325604
1885.000000	5.425122
1884.000000	5.513563
1883.000000	5.633300
1882.000000	5.780731
1881.000000	5.920073
1880.000000	6.061965
1879.000000	6.212121
1878.000000	6.359903
1877.000000	6.498542
1876.000000	6.642016
1875.000000	6.754193
1874.000000	6.854854
1873.000000	6.941976
1872.000000	7.012922
1871.000000	7.057494
1870.000000	7.093362
1869.000000	7.144616
1868.000000	7.198682
1867.000000	7.240793
1866.000000	7.311299
1865.000000	7.369058
1864.000000	7.438246
1863.000000	7.517192
1862.000000	7.572577
1861.000000	7.593500
1860.000000	7.593588
1859.000000	7.596138
1858.000000	7.586028
1857.000000	7.602468
1856.000000	7.626819
1855.000000	7.631039
1854.000000	7.612050
1853.000000	7.588665
1852.000000	7.570467
1851.000000	7.592445
1850.000000	7.640886
1849.000000	7.643787
1848.000000	7.574863
1847.000000	7.473587
1846.000000	7.416531
1845.000000	7.441586
1844.000000	7.502071
1843.000000	7.548577
1842.000000	7.533368
1841.000000	7.471741
1840.000000	7.432971
1839.000000	7.414597
1838.000000	7.410641
1837.000000	7.385674
1836.000000	7.343651
1835.000000	7.296002
1834.000000	7.273672
1833.000000	7.280266
1832.000000	7.274200
1831.000000	7.271914
1830.000000	7.238067
1829.000000	7.194463
1828.000000	7.164132
1827.000000	7.119648
1826.000000	7.080615
1825.000000	7.065054
1824.000000	7.080087
1823.000000	7.101626
1822.000000	7.105934
1821.000000	7.069010
1820.000000	6.999647
1819.000000	6.962987
1818.000000	6.971691
1817.000000	6.992790
1816.000000	6.989801
1815.000000	6.971603
1814.000000	6.960086
1813.000000	6.967998
1812.000000	6.960262
1811.000000	6.933888
1810.000000	6.915514
1809.000000	6.896788
1808.000000	6.895821
1807.000000	6.876393
1806.000000	6.847821
1805.000000	6.836656
1804.000000	6.827337
1803.000000	6.815996
1802.000000	6.789447
1801.000000	6.756655
1800.000000	6.732918
1799.000000	6.717709
1798.000000	6.705314
1797.000000	6.689929
1796.000000	6.672434
1795.000000	6.663819
1794.000000	6.644654
1793.000000	6.627335
1792.000000	6.596301
1791.000000	6.580389
1790.000000	6.560960
1789.000000	6.543993
1788.000000	6.544696
1787.000000	6.527465
1786.000000	6.495377
1785.000000	6.479025
1784.000000	6.451948
1783.000000	6.430497
1782.000000	6.406673
1781.000000	6.385485
1780.000000	6.356562
1779.000000	6.330452
1778.000000	6.310583
1777.000000	6.292913
1776.000000	6.256781
1775.000000	6.219593
1774.000000	6.192868
1773.000000	6.150054
1772.000000	6.130098
1771.000000	6.106273
1770.000000	6.067152
1769.000000	6.020030
1768.000000	6.011854
1767.000000	5.971942
1766.000000	5.938447
1765.000000	5.939414
1764.000000	5.927106
1763.000000	5.917875
1762.000000	5.933172
1761.000000	5.929040
1760.000000	5.966667
1759.000000	5.967019
1758.000000	5.981788
1757.000000	6.027767
1756.000000	6.054580
1755.000000	6.054844
1754.000000	6.063723
1753.000000	6.085877
1752.000000	6.094845
1751.000000	6.087020
1750.000000	6.079636
1749.000000	6.064339
1748.000000	6.057833
1747.000000	6.041569
1746.000000	5.996206
1745.000000	5.977129
1744.000000	5.949700
1743.000000	5.905567
1742.000000	5.848160
1741.000000	5.797522
1740.000000	5.757346
1739.000000	5.687015
1738.000000	5.638048
1737.000000	5.573519
1736.000000	5.531321
1735.000000	5.513914
1734.000000	5.499584
1733.000000	5.494046
1732.000000	5.497299
1731.000000	5.520068
1730.000000	5.544508
1729.000000	5.569739
1728.000000	5.585212
1727.000000	5.627762
1726.000000	5.632333
1725.000000	5.650707
1724.000000	5.657389
1723.000000	5.682883
1722.000000	5.690092
1721.000000	5.688070
1720.000000	5.697741
1719.000000	5.723148
1718.000000	5.739587
1717.000000	5.753917
1716.000000	5.769917
1715.000000	5.801830
1714.000000	5.812907
1713.000000	5.835764
1712.000000	5.858182
1711.000000	5.862314
1710.000000	5.860908
1709.000000	5.878226
1708.000000	5.877963
1707.000000	5.854842
1706.000000	5.844028
1705.000000	5.871897
1704.000000	5.818533
1703.000000	5.804819
1702.000000	5.770884
1701.000000	5.741697
1700.000000	5.699147
1699.000000	5.650092
1698.000000	5.609036
1697.000000	5.566223
1696.000000	5.558750
1695.000000	5.544156
1694.000000	5.531321
1693.000000	5.548464
1692.000000	5.608948
1691.000000	5.615981
1690.000000	5.646048
1689.000000	5.672510
1688.000000	5.681477
1687.000000	5.684993
1686.000000	5.698180
1685.000000	5.694048
1684.000000	5.733082
1683.000000	5.753829
1682.000000	5.825830
1681.000000	5.940381
1680.000000	6.081570
1679.000000	6.235330
1678.000000	6.367639
1677.000000	6.509267
1676.000000	6.661621
1675.000000	6.778106
1674.000000	6.866722
1673.000000	6.949448
1672.000000	7.024526
1671.000000	7.094857
1670.000000	7.153847
1669.000000	7.215474
1668.000000	7.251870
1667.000000	7.305145
1666.000000	7.343387
1665.000000	7.390597
1664.000000	7.427081
1663.000000	7.450905
1662.000000	7.467521
1661.000000	7.488708
1660.000000	7.472532
1659.000000	7.502950
1658.000000	7.531697
1657.000000	7.528533
1656.000000	7.540840
1655.000000	7.545851
1654.000000	7.542599
1653.000000	7.548401
1652.000000	7.535302
1651.000000	7.526247
1650.000000	7.522027
1649.000000	7.519917
1648.000000	7.520796
1647.000000	7.498994
1646.000000	7.485719
1645.000000	7.473587
1644.000000	7.473147
1643.000000	7.445806
1642.000000	7.441235
1641.000000	7.427784
1640.000000	7.413542
1639.000000	7.403696
1638.000000	7.376355
1637.000000	7.370025
1636.000000	7.364311
1635.000000	7.343124
1634.000000	7.320706
1633.000000	7.286683
1632.000000	7.280881
1631.000000	7.262244
1630.000000	7.236661
1629.000000	7.223298
1628.000000	7.200177
1627.000000	7.178111
1626.000000	7.170990
1625.000000	7.132835
1624.000000	7.094241
1623.000000	7.096439
1622.000000	7.099077
1621.000000	7.076043
1620.000000	7.059780
1619.000000	7.038680
1618.000000	7.010988
1617.000000	6.995075
1616.000000	6.990240
1615.000000	6.977669
1614.000000	6.962723
1613.000000	6.915074
1612.000000	6.902503
1611.000000	6.902151
1610.000000	6.890898
1609.000000	6.859953
1608.000000	6.843249
1607.000000	6.832084
1606.000000	6.804655
1605.000000	6.775996
1604.000000	6.756040
1603.000000	6.740039
1602.000000	6.722105
1601.000000	6.708391
1600.000000	6.678588
1599.000000	6.664434
1598.000000	6.651599
1597.000000	6.630939
1596.000000	6.610016
1595.000000	6.587334
1594.000000	6.564125
1593.000000	6.553048
1592.000000	6.531949
1591.000000	6.516476
1590.000000	6.502146
1589.000000	6.469091
1588.000000	6.459508
1587.000000	6.460739
1586.000000	6.441310
1585.000000	6.420739
1584.000000	6.421266
1583.000000	6.419508
1582.000000	6.392255
1581.000000	6.370189
1580.000000	6.359903
1579.000000	6.353309
1578.000000	6.344694
1577.000000	6.334056
1576.000000	6.325617
1575.000000	6.322891
1574.000000	6.314012
1573.000000	6.315243
1572.000000	6.322979
1571.000000	6.327639
1570.000000	6.318671
1569.000000	6.309880
1568.000000	6.321045
1567.000000	6.321309
1566.000000	6.320781
1565.000000	6.329924
1564.000000	6.324562
1563.000000	6.331683
1562.000000	6.349441
1561.000000	6.343727
1560.000000	6.337661
1559.000000	6.339859
1558.000000	6.343287
1557.000000	6.343815
1556.000000	6.345221
1555.000000	6.346540
1554.000000	6.350584
1553.000000	6.332122
1552.000000	6.316210
1551.000000	6.319726
1550.000000	6.314979
1549.000000	6.313221
1548.000000	6.309880
1547.000000	6.302408
1546.000000	6.297660
1545.000000	6.301528
1544.000000	6.306715
1543.000000	6.316034
1542.000000	6.321748
1541.000000	6.307419
1540.000000	6.293177
1539.000000	6.300737
1538.000000	6.304254
1537.000000	6.311199
1536.000000	6.319639
1535.000000	6.322188
1534.000000	6.324122
1533.000000	6.321661
1532.000000	6.321573
1531.000000	6.322364
1530.000000	6.304869
1529.000000	6.296605
1528.000000	6.297045
1527.000000	6.293616
1526.000000	6.286495
1525.000000	6.280605
1524.000000	6.288429
1523.000000	6.276737
1522.000000	6.267242
1521.000000	6.264605
1520.000000	6.255550
1519.000000	6.251154
1518.000000	6.234714
1517.000000	6.221176
1516.000000	6.228736
1515.000000	6.227857
1514.000000	6.220297
1513.000000	6.216253
1512.000000	6.194978
1511.000000	6.181087
1510.000000	6.170010
1509.000000	6.170450
1508.000000	6.150494
1507.000000	6.122273
1506.000000	6.108823
1505.000000	6.110933
1504.000000	6.096603
1503.000000	6.087284
1502.000000	6.078317
1501.000000	6.060646
1500.000000	6.036734
1499.000000	6.019239
1498.000000	6.015898
1497.000000	6.009745
1496.000000	5.995854
1495.000000	5.985832
1494.000000	5.971327
1493.000000	5.976338
1492.000000	5.970535
1491.000000	5.965173
1490.000000	5.947326
1489.000000	5.956557
1488.000000	5.941260
1487.000000	5.950491
1486.000000	5.932469
1485.000000	5.915502
1484.000000	5.890534
1483.000000	5.901875
1482.000000	5.919018
1481.000000	5.900117
1480.000000	5.876029
1479.000000	5.874182
1478.000000	5.884292
1477.000000	5.875677
1476.000000	5.866974
1475.000000	5.865303
1474.000000	5.876996
1473.000000	5.889567
1472.000000	5.865743
1471.000000	5.878842
1470.000000	5.872336
1469.000000	5.884820
1468.000000	5.896688
1467.000000	5.881567
1466.000000	5.895282
1465.000000	5.920513
1464.000000	5.911985
1463.000000	5.930535
1462.000000	5.927194
1461.000000	5.945656
1460.000000	5.944953
1459.000000	5.983019
1458.000000	5.983898
1457.000000	5.987327
1456.000000	6.010096
1455.000000	6.039899
1454.000000	6.075592
1453.000000	6.097746
1452.000000	6.118142
1451.000000	6.143285
1450.000000	6.176868
1449.000000	6.188472
1448.000000	6.219154
1447.000000	6.255550
1446.000000	6.299418
1445.000000	6.305924
1444.000000	6.329133
1443.000000	6.383112
1442.000000	6.403332
1441.000000	6.424958
1440.000000	6.459420
1439.000000	6.521136
1438.000000	6.537751
1437.000000	6.595422
1436.000000	6.609049
1435.000000	6.639994
1434.000000	6.701885
1433.000000	6.749710
1432.000000	6.779249
1431.000000	6.804655
1430.000000	6.861799
1429.000000	6.913228
1428.000000	6.951646
1427.000000	6.981273
1426.000000	7.061802
1425.000000	7.128703
1424.000000	7.169407
1423.000000	7.217320
1422.000000	7.287914
1421.000000	7.372663
1420.000000	7.452663
1419.000000	7.501192
1418.000000	7.546291
1417.000000	7.608006
1416.000000	7.680886
1415.000000	7.768887
1414.000000	7.792360
1413.000000	7.859350
1412.000000	7.922471
1411.000000	8.015484
1410.000000	8.090737
1409.000000	8.179705
1408.000000	8.256102
1407.000000	8.344455
1406.000000	8.453467
1405.000000	8.557820
1404.000000	8.632898
1403.000000	8.717119
1402.000000	8.860857
1401.000000	8.978485
1400.000000	8.981474
1399.000000	9.011012
1398.000000	9.086090
1397.000000	9.178487
1396.000000	9.210575
1395.000000	9.195454
1394.000000	9.213828
1393.000000	9.244598
1392.000000	9.266576
1391.000000	9.293741
1390.000000	9.330313
1389.000000	9.397303
1388.000000	9.439853
1387.000000	9.507810
1386.000000	9.590096
1385.000000	9.725043
1384.000000	9.864737
1383.000000	9.990629
1382.000000	10.108784
1381.000000	10.215862
1380.000000	10.322765
1379.000000	10.462459
1378.000000	10.608834
1377.000000	10.749671
1376.000000	10.909585
1375.000000	11.065280
1374.000000	11.245941
1373.000000	11.467219
1372.000000	11.643133
1371.000000	11.830388
1370.000000	11.988192
1369.000000	12.134743
1368.000000	12.254129
1367.000000	12.361032
1366.000000	12.475319
1365.000000	12.575980
1364.000000	12.645695
1363.000000	12.722795
1362.000000	12.786707
1361.000000	12.785477
1360.000000	12.805609
1359.000000	12.877522
1358.000000	12.927896
1357.000000	12.998139
1356.000000	13.099942
1355.000000	13.220647
1354.000000	13.388473
1353.000000	13.576256
1352.000000	13.773269
1351.000000	13.978634
1350.000000	14.171955
1349.000000	14.353232
1348.000000	14.520355
1347.000000	14.675082
1346.000000	14.800622
1345.000000	14.947525
1344.000000	15.093901
1343.000000	15.214781
1342.000000	15.335047
1341.000000	15.464279
1340.000000	15.582610
1339.000000	15.691886
1338.000000	15.803448
1337.000000	15.920988
1336.000000	16.034132
1335.000000	16.139892
1334.000000	16.250486
1333.000000	16.343587
1332.000000	16.438884
1331.000000	16.540424
1330.000000	16.636513
1329.000000	16.708954
1328.000000	16.783944
1327.000000	16.867813
1326.000000	16.936033
1325.000000	17.024122
1324.000000	17.097882
1323.000000	17.145794
1322.000000	17.201883
1321.000000	17.258499
1320.000000	17.311598
1319.000000	17.376478
1318.000000	17.424039
1317.000000	17.474414
1316.000000	17.516524
1315.000000	17.563294
1314.000000	17.612174
1313.000000	17.636174
1312.000000	17.667031
1311.000000	17.708087
1310.000000	17.736483
1309.000000	17.757846
1308.000000	17.782549
1307.000000	17.819825
1306.000000	17.839253
1305.000000	17.844264
1304.000000	17.856924
1303.000000	17.863693
1302.000000	17.871517
1301.000000	17.876968
1300.000000	17.874155
1299.000000	17.873364
1298.000000	17.872572
1297.000000	17.869847
1296.000000	17.872397
1295.000000	17.859649
1294.000000	17.846462
1293.000000	17.853407
1292.000000	17.860880
1291.000000	17.852968
1290.000000	17.836176
1289.000000	17.812791
1288.000000	17.798110
1287.000000	17.780879
1286.000000	17.766989
1285.000000	17.742285
1284.000000	17.718724
1283.000000	17.705098
1282.000000	17.679251
1281.000000	17.655866
1280.000000	17.637053
1279.000000	17.616921
1278.000000	17.591426
1277.000000	17.579206
1276.000000	17.557580
1275.000000	17.535513
1274.000000	17.530854
1273.000000	17.510986
1272.000000	17.481710
1271.000000	17.470458
1270.000000	17.476084
1269.000000	17.469842
1268.000000	17.453842
1267.000000	17.434413
1266.000000	17.410413
1265.000000	17.380874
1264.000000	17.340874
1263.000000	17.319335
1262.000000	17.310456
1261.000000	17.300697
1260.000000	17.266587
1259.000000	17.238806
1258.000000	17.221136
1257.000000	17.189751
1256.000000	17.161882
1255.000000	17.132080
1254.000000	17.102629
1253.000000	17.075376
1252.000000	17.022276
1251.000000	16.985441
1250.000000	16.948693
1249.000000	16.904912
1248.000000	16.863065
1247.000000	16.820779
1246.000000	16.771900
1245.000000	16.724514
1244.000000	16.698316
1243.000000	16.639678
1242.000000	16.579809
1241.000000	16.526358
1240.000000	16.464467
1239.000000	16.418401
1238.000000	16.358004
1237.000000	16.302795
1236.000000	16.248552
1235.000000	16.190881
1234.000000	16.130837
1233.000000	16.064198
1232.000000	16.001428
1231.000000	15.931889
1230.000000	15.879053
1229.000000	15.808899
1228.000000	15.724678
1227.000000	15.652941
1226.000000	15.588940
1225.000000	15.525554
1224.000000	15.479224
1223.000000	15.402124
1222.000000	15.329684
1221.000000	15.271397
1220.000000	15.197550
1219.000000	15.123615
1218.000000	15.072274
1217.000000	15.023570
1216.000000	14.975306
1215.000000	14.923877
1214.000000	14.873942
1213.000000	14.825414
1212.000000	14.763875
1211.000000	14.718775
1210.000000	14.696533
1209.000000	14.656445
1208.000000	14.620400
1207.000000	14.593323
1206.000000	14.562290
1205.000000	14.545498
1204.000000	14.542421
1203.000000	14.552004
1202.000000	14.534685
1201.000000	14.519916
1200.000000	14.503652
1199.000000	14.497586
1198.000000	14.449409
1197.000000	14.405541
1196.000000	14.333452
1195.000000	14.256967
1194.000000	14.159911
1193.000000	14.016085
1192.000000	13.876127
1191.000000	13.707422
1190.000000	13.543376
1189.000000	13.390935
1188.000000	13.279812
1187.000000	13.228559
1186.000000	13.225658
1185.000000	13.231284
1184.000000	13.298802
1183.000000	13.404825
1182.000000	13.561662
1181.000000	13.734499
1180.000000	13.920436
1179.000000	14.095031
1178.000000	14.259077
1177.000000	14.418991
1176.000000	14.542773
1175.000000	14.657324
1174.000000	14.755523
1173.000000	14.885107
1172.000000	14.996053
1171.000000	15.109549
1170.000000	15.252232
1169.000000	15.408894
1168.000000	15.514741
1167.000000	15.663666
1166.000000	15.803008
1165.000000	15.974527
1164.000000	16.112639
1163.000000	16.304553
1162.000000	16.458401
1161.000000	16.594051
1160.000000	16.715459
1159.000000	16.884868
1158.000000	17.012957
1157.000000	17.142629
1156.000000	17.264037
1155.000000	17.342192
1154.000000	17.421930
1153.000000	17.507205
1152.000000	17.518458
1151.000000	17.518810
1150.000000	17.524173
1149.000000	17.549404
1148.000000	17.557931
1147.000000	17.594064
1146.000000	17.648921
1145.000000	17.723735
1144.000000	17.815429
1143.000000	17.951958
1142.000000	18.093410
1141.000000	18.250775
1140.000000	18.392491
1139.000000	18.547042
1138.000000	18.720759
1137.000000	18.909860
1136.000000	19.082346
1135.000000	19.239622
1134.000000	19.399009
1133.000000	19.510571
1132.000000	19.678749
1131.000000	19.828816
1130.000000	19.937038
1129.000000	20.042973
1128.000000	20.130095
1127.000000	20.208601
1126.000000	20.236734
1125.000000	20.278756
1124.000000	20.313570
1123.000000	20.347065
1122.000000	20.367285
1121.000000	20.381263
1120.000000	20.415461
1119.000000	20.427417
1118.000000	20.433219
1117.000000	20.430318
1116.000000	20.422582
1115.000000	20.420560
1114.000000	20.423637
1113.000000	20.417043
1112.000000	20.416868
1111.000000	20.406582
1110.000000	20.405527
1109.000000	20.392252
1108.000000	20.410010
1107.000000	20.408692
1106.000000	20.403856
1105.000000	20.392604
1104.000000	20.386538
1103.000000	20.359460
1102.000000	20.362977
1101.000000	20.352955
1100.000000	20.345130
1099.000000	20.321482
1098.000000	20.310405
1097.000000	20.322713
1096.000000	20.307152
1095.000000	20.297833
1094.000000	20.270756
1093.000000	20.269349
1092.000000	20.258536
1091.000000	20.239371
1090.000000	20.225920
1089.000000	20.215459
1088.000000	20.186096
1087.000000	20.164469
1086.000000	20.130446
1085.000000	20.099853
1084.000000	20.076204
1083.000000	20.039368
1082.000000	20.015368
1081.000000	19.989785
1080.000000	19.969126
1079.000000	19.946708
1078.000000	19.915235
1077.000000	19.874355
1076.000000	19.838926
1075.000000	19.822223
1074.000000	19.794882
1073.000000	19.758925
1072.000000	19.719101
1071.000000	19.691408
1070.000000	19.670836
1069.000000	19.646836
1068.000000	19.621341
1067.000000	19.584330
1066.000000	19.538703
1065.000000	19.516373
1064.000000	19.479801
1063.000000	19.441295
1062.000000	19.423976
1061.000000	19.397251
1060.000000	19.344415
1059.000000	19.315140
1058.000000	19.283931
1057.000000	19.261425
1056.000000	19.227578
1055.000000	19.185644
1054.000000	19.171314
1053.000000	19.132456
1052.000000	19.095972
1051.000000	19.079181
1050.000000	19.069950
1049.000000	19.057642
1048.000000	19.025730
1047.000000	19.003312
1046.000000	18.982652
1045.000000	18.957861
1044.000000	18.935267
1043.000000	18.913816
1042.000000	18.898168
1041.000000	18.877684
1040.000000	18.852277
1039.000000	18.841464
1038.000000	18.822474
1037.000000	18.779748
1036.000000	18.748100
1035.000000	18.734737
1034.000000	18.700187
1033.000000	18.669505
1032.000000	18.644362
1031.000000	18.609461
1030.000000	18.571394
1029.000000	18.531570
1028.000000	18.500273
1027.000000	18.463173
1026.000000	18.421942
1025.000000	18.390733
1024.000000	18.351348
1023.000000	18.320930
1022.000000	18.292006
1021.000000	18.253061
1020.000000	18.212972
1019.000000	18.167521
1018.000000	18.137806
1017.000000	18.118817
1016.000000	18.081542
1015.000000	18.052531
1014.000000	18.035827
1013.000000	18.010420
1012.000000	17.978947
1011.000000	17.971387
1010.000000	17.959958
1009.000000	17.934375
1008.000000	17.913980
1007.000000	17.913452
1006.000000	17.911254
1005.000000	17.910551
1004.000000	17.892880
1003.000000	17.864924
1002.000000	17.872221
1001.000000	17.864660
1000.000000	17.848220
999.000000	17.815868
998.000000	17.824484
997.000000	17.806198
996.000000	17.781055
995.000000	17.788176
994.000000	17.780703
993.000000	17.766989
992.000000	17.769362
991.000000	17.760044
990.000000	17.749582
989.000000	17.738857
988.000000	17.738329
987.000000	17.738857
986.000000	17.744483
985.000000	17.754945
984.000000	17.756263
983.000000	17.753626
982.000000	17.773406
981.000000	17.764527
980.000000	17.768747
979.000000	17.771472
978.000000	17.765846
977.000000	17.764791
976.000000	17.768395
975.000000	17.760835
974.000000	17.759340
973.000000	17.764527
972.000000	17.751428
971.000000	17.778330
970.000000	17.782198
969.000000	17.783341
968.000000	17.772791
967.000000	17.777978
966.000000	17.772967
965.000000	17.779912
964.000000	17.780439
963.000000	17.785011
962.000000	17.808308
961.000000	17.809890
960.000000	17.818770
959.000000	17.843913
958.000000	17.855957
957.000000	17.872660
956.000000	17.854111
955.000000	17.857100
954.000000	17.865891
953.000000	17.881979
952.000000	17.893408
951.000000	17.891034
950.000000	17.905452
949.000000	17.904221
948.000000	17.908968
947.000000	17.934639
946.000000	17.941408
945.000000	17.957057
944.000000	17.952046
943.000000	17.984662
942.000000	18.012794
941.000000	18.031344
940.000000	18.060970
939.000000	18.091300
938.000000	18.125323
937.000000	18.140444
936.000000	18.157059
935.000000	18.183873
934.000000	18.209104
933.000000	18.225456
932.000000	18.249720
931.000000	18.276621
930.000000	18.319611
929.000000	18.337985
928.000000	18.371568
927.000000	18.391084
926.000000	18.422469
925.000000	18.438206
924.000000	18.457898
923.000000	18.500273
922.000000	18.530075
921.000000	18.554867
920.000000	18.555042
919.000000	18.558207
918.000000	18.589504
917.000000	18.593812
916.000000	18.615439
915.000000	18.642252
914.000000	18.646824
913.000000	18.654121
912.000000	18.658340
911.000000	18.683571
910.000000	18.702121
909.000000	18.724363
908.000000	18.732451
907.000000	18.756364
906.000000	18.790034
905.000000	18.819837
904.000000	18.869859
903.000000	18.903706
902.000000	18.952674
901.000000	19.007092
900.000000	19.059664
899.000000	19.096236
898.000000	19.131401
897.000000	19.185819
896.000000	19.236106
895.000000	19.274700
894.000000	19.352151
893.000000	19.390218
892.000000	19.424152
891.000000	19.474790
890.000000	19.531582
889.000000	19.563143
888.000000	19.585121
887.000000	19.603759
886.000000	19.612198
885.000000	19.631100
884.000000	19.671452
883.000000	19.659496
882.000000	19.672331
881.000000	19.685957
880.000000	19.684023
879.000000	19.705035
878.000000	19.725694
877.000000	19.718485
876.000000	19.735804
875.000000	19.735804
874.000000	19.731145
873.000000	19.715408
872.000000	19.708639
871.000000	19.717079
870.000000	19.720156
869.000000	19.725518
868.000000	19.743277
867.000000	19.749958
866.000000	19.756991
865.000000	19.769563
864.000000	19.783893
863.000000	19.794882
862.000000	19.780816
861.000000	19.761123
860.000000	19.749167
859.000000	19.724903
858.000000	19.391800
857.000000	19.623800
856.000000	19.275600
855.000000	19.276000
854.000000	19.248500
853.000000	19.246300
852.000000	19.093000
851.000000	19.283000
850.000000	19.420300
849.000000	19.240600
848.000000	19.284400
847.000000	19.309200
846.000000	19.355700
845.000000	19.345700
844.000000	19.381600
843.000000	19.329400
842.000000	19.381300
841.000000	19.430600
840.000000	19.267500
839.000000	19.477300
838.000000	19.416300
837.000000	19.407700
836.000000	19.355500
835.000000	19.288700
834.000000	19.375100
833.000000	19.405700
832.000000	19.307500
831.000000	19.299900
830.000000	19.226200
829.000000	19.284400
828.000000	19.308000
827.000000	19.238500
826.000000	19.315600
825.000000	19.327500
824.000000	19.295800
823.000000	19.251100
822.000000	19.297500
821.000000	19.369700
820.000000	19.382900
819.000000	19.441800
818.000000	19.502600
817.000000	19.480600
816.000000	19.637200
815.000000	19.743500
814.000000	19.844300
813.000000	19.978900
812.000000	20.095500
811.000000	20.183900
810.000000	20.255900
809.000000	20.366100
808.000000	20.530000
807.000000	20.615300
806.000000	20.726400
805.000000	20.851300
804.000000	21.053400
803.000000	21.245700
802.000000	21.388900
801.000000	21.496900
800.000000	21.610800
799.000000	21.774900
798.000000	21.952000
797.000000	22.057700
796.000000	22.159500
795.000000	22.328700
794.000000	22.423100
793.000000	22.534100
792.000000	22.653100
791.000000	22.753200
790.000000	22.909400
789.000000	22.967500
788.000000	23.071600
787.000000	23.162400
786.000000	23.241800
785.000000	23.301300
784.000000	23.408100
783.000000	23.481300
782.000000	23.530200
781.000000	23.628200
780.000000	23.704300
779.000000	23.778900
778.000000	23.876200
777.000000	23.933100
776.000000	23.952000
775.000000	24.016200
774.000000	24.040200
773.000000	24.071100
772.000000	24.084000
771.000000	24.129000
770.000000	24.185800
769.000000	24.244000
768.000000	24.241800
767.000000	24.206800
766.000000	24.259900
765.000000	24.321300
764.000000	24.348800
763.000000	24.339700
762.000000	24.336300
761.000000	24.368000
760.000000	24.318900
759.000000	24.308500
758.000000	24.340900
757.000000	24.356400
756.000000	24.370700
755.000000	24.339700
754.000000	24.310000
753.000000	24.317300
752.000000	24.294300
751.000000	24.243100
750.000000	24.209000
749.000000	24.220700
748.000000	24.230900
747.000000	24.199200
746.000000	24.159500
745.000000	24.110300
744.000000	24.060900
743.000000	24.051200
742.000000	24.011000
741.000000	23.960000
740.000000	23.912600
739.000000	23.850600
738.000000	23.833500
737.000000	23.778900
736.000000	23.725200
735.000000	23.706100
734.000000	23.667100
733.000000	23.626100
732.000000	23.611100
731.000000	23.562700
730.000000	23.534700
729.000000	23.539500
728.000000	23.495800
727.000000	23.487600
726.000000	23.476600
725.000000	23.447100
724.000000	23.418600
723.000000	23.421300
722.000000	23.402200
721.000000	23.375500
720.000000	23.369800
719.000000	23.364600
718.000000	23.335900
717.000000	23.329700
716.000000	23.365600
715.000000	23.337200
714.000000	23.308300
713.000000	23.325500
712.000000	23.330200
711.000000	23.301300
710.000000	23.336300
709.000000	23.326000
708.000000	23.284000
707.000000	23.251400
706.000000	23.230600
705.000000	23.205300
704.000000	23.166600
703.000000	23.117200
702.000000	23.061900
701.000000	23.012100
700.000000	23.010700
699.000000	22.965000
698.000000	22.874800
697.000000	22.803500
696.000000	22.740700
695.000000	22.645900
694.000000	22.539100
693.000000	22.436700
692.000000	22.303300
691.000000	22.136000
690.000000	22.012400
689.000000	21.816000
688.000000	21.635500
687.000000	21.432100
686.000000	21.234000
685.000000	20.998400
684.000000	20.754500
683.000000	20.518800
682.000000	20.249900
681.000000	20.013800
680.000000	19.743700
679.000000	19.466800
678.000000	19.237500
677.000000	19.012800
676.000000	18.781100
675.000000	18.536600
674.000000	18.334800
673.000000	18.144200
672.000000	17.971100
671.000000	17.850300
670.000000	17.736300
669.000000	17.640800
668.000000	17.587400
667.000000	17.555000
666.000000	17.532700
665.000000	17.546700
664.000000	17.562300
663.000000	17.575900
662.000000	17.605500
661.000000	17.639000
660.000000	17.649600
659.000000	17.656300
658.000000	17.669000
657.000000	17.685200
656.000000	17.666800
655.000000	17.624800
654.000000	17.557100
653.000000	17.508800
652.000000	17.408400
651.000000	17.297000
650.000000	17.176600
649.000000	17.015900
648.000000	16.872200
647.000000	16.684400
646.000000	16.508800
645.000000	16.318400
644.000000	16.122300
643.000000	15.940900
642.000000	15.757700
641.000000	15.554900
640.000000	15.384000
639.000000	15.211500
638.000000	15.031200
637.000000	14.917700
636.000000	14.806100
635.000000	14.707400
634.000000	14.627400
633.000000	14.568200
632.000000	14.522100
631.000000	14.505400
630.000000	14.522300
629.000000	14.566000
628.000000	14.644500
627.000000	14.703500
626.000000	14.803900
625.000000	14.936100
624.000000	15.093000
623.000000	15.253300
622.000000	15.418000
621.000000	15.585800
620.000000	15.772200
619.000000	15.940700
618.000000	16.107500
617.000000	16.239800
616.000000	16.428300
615.000000	16.552400
614.000000	16.707300
613.000000	16.808900
612.000000	16.919600
611.000000	17.078500
610.000000	17.200500
609.000000	17.313600
608.000000	17.440500
607.000000	17.511300
606.000000	17.618300
605.000000	17.702700
604.000000	17.770500
603.000000	17.877700
602.000000	18.003000
601.000000	18.086200
600.000000	18.212000
599.000000	18.316600
598.000000	18.483500
597.000000	18.632200
596.000000	18.783400
595.000000	18.944300
594.000000	19.010200
593.000000	19.128200
592.000000	19.193700
591.000000	19.268300
590.000000	19.310600
589.000000	19.366800
588.000000	19.409000
587.000000	19.497000
586.000000	19.561800
585.000000	19.639100
584.000000	19.715600
583.000000	19.738100
582.000000	19.772800
581.000000	19.772600
580.000000	19.746800
579.000000	19.696400
578.000000	19.640100
577.000000	19.575300
576.000000	19.526500
575.000000	19.500900
574.000000	19.485200
573.000000	19.456900
572.000000	19.444300
571.000000	19.418000
570.000000	19.391400
569.000000	19.308900
568.000000	19.237400
567.000000	19.149500
566.000000	19.090600
565.000000	19.036700
564.000000	18.994800
563.000000	18.976300
562.000000	18.955300
561.000000	18.925000
560.000000	18.945200
559.000000	19.249100
558.000000	19.134100
557.000000	19.015300
556.000000	18.868900
555.000000	18.703000
554.000000	18.539800
553.000000	18.385000
552.000000	18.257200
551.000000	18.112300
550.000000	17.961800
549.000000	17.808500
548.000000	17.617100
547.000000	17.437800
546.000000	17.234300
545.000000	17.062800
544.000000	16.870000
543.000000	16.679600
542.000000	16.475600
541.000000	16.288600
540.000000	16.085800
539.000000	15.865400
538.000000	15.639900
537.000000	15.408300
536.000000	15.171900
535.000000	14.927400
534.000000	14.661200
533.000000	14.385400
532.000000	14.099800
531.000000	13.817000
530.000000	13.542800
529.000000	13.255200
528.000000	12.970300
527.000000	12.692000
526.000000	12.427400
525.000000	12.165000
524.000000	11.923200
523.000000	11.686000
522.000000	11.462400
521.000000	11.258000
520.000000	11.052700
519.000000	10.846600
518.000000	10.653400
517.000000	10.476200
516.000000	10.302000
515.000000	10.144700
514.000000	9.988000
513.000000	9.840700
512.000000	9.710600
511.000000	9.594100
510.000000	9.494400
509.000000	9.400600
508.000000	9.312100
507.000000	9.242300
506.000000	9.202500
505.000000	9.143500
504.000000	9.097100
503.000000	9.044700
502.000000	9.007500
501.000000	8.958400
500.000000	8.914500
499.000000	8.868900
498.000000	8.816500
497.000000	8.758800
496.000000	8.696400
495.000000	8.626500
494.000000	8.547200
493.000000	8.447000
492.000000	8.336600
491.000000	8.233100
490.000000	8.127300
489.000000	8.015000
488.000000	7.892400
487.000000	7.781600
486.000000	7.665800
485.000000	7.558200
484.000000	7.461400
483.000000	7.378400
482.000000	7.329300
481.000000	7.313100
480.000000	7.317600
479.000000	7.308000
478.000000	7.285900
477.000000	7.279600
476.000000	7.287300
475.000000	7.297200
474.000000	7.306000
473.000000	7.328700
472.000000	7.357500
471.000000	7.392200
470.000000	7.425500
469.000000	7.456600
468.000000	7.492500
467.000000	7.514000
466.000000	7.540700
465.000000	7.563100
464.000000	7.575300
463.000000	7.597900
462.000000	7.608700
461.000000	7.604100
460.000000	7.600500
459.000000	7.587100
458.000000	7.565200
457.000000	7.549200
456.000000	7.538100
455.000000	7.510800
454.000000	7.471900
453.000000	7.436300
452.000000	7.401800
451.000000	7.370800
450.000000	7.329400
449.000000	7.290600
448.000000	7.237000
447.000000	7.188000
446.000000	7.147100
445.000000	7.069400
444.000000	6.993100
443.000000	6.941400
442.000000	6.889400
441.000000	6.825800
440.000000	6.763100
439.000000	6.683200
438.000000	6.609400
437.000000	6.549500
436.000000	6.464200
435.000000	6.370500
434.000000	6.280300
433.000000	6.188300
432.000000	6.100100
431.000000	6.000700
430.000000	5.899800
429.000000	5.798500
428.000000	5.692100
427.000000	5.562900
426.000000	5.430400
425.000000	5.303600
424.000000	5.174200
423.000000	5.047900
422.000000	4.916100
421.000000	4.771400
420.000000	4.622000
419.000000	4.468200
418.000000	4.323400
417.000000	4.181200
416.000000	4.031900
415.000000	3.877600
414.000000	3.746900
413.000000	3.621400
412.000000	3.479700
411.000000	3.351700
410.000000	3.233100
409.000000	3.124600
408.000000	3.010800
407.000000	2.917200
406.000000	2.826800
405.000000	2.750400
404.000000	2.686400
403.000000	2.609700
402.000000	2.543400
401.000000	2.494200
400.000000	2.442700
399.000000	2.390400
398.000000	2.341400
397.000000	2.299900
396.000000	2.273600
395.000000	2.244400
394.000000	2.218300
393.000000	2.188500
392.000000	2.162900
391.000000	2.135500
390.000000	2.111600
389.000000	2.098100
388.000000	2.089700
387.000000	2.077300
386.000000	2.068500
385.000000	2.052400
384.000000	2.042200
383.000000	2.037800
382.000000	2.020500
381.000000	2.024000
380.000000	2.009300
379.000000	1.993000
378.000000	1.986600
377.000000	1.979700
376.000000	2.011900
375.000000	1.957200
374.000000	2.095800
373.000000	2.092800
372.000000	2.095300
371.000000	2.122400
370.000000	2.195300
369.000000	2.130800
368.000000	2.130400
367.000000	2.135600
366.000000	2.088100
365.000000	2.168000
364.000000	2.196700
363.000000	2.151900
362.000000	2.200900
361.000000	2.126700
360.000000	2.178900
359.000000	2.178200
358.000000	2.160000
357.000000	2.157400
356.000000	2.193100
355.000000	2.189500
354.000000	2.073000
353.000000	2.082600
352.000000	2.146300
351.000000	2.084000
350.000000	2.064600
349.000000	2.026500
348.000000	2.106700
347.000000	2.102500
346.000000	2.119400
345.000000	2.163400
344.000000	2.163700
343.000000	2.179500
342.000000	2.132500
341.000000	2.064000
340.000000	2.123000
339.000000	2.129400
338.000000	1.990500
337.000000	2.144100
336.000000	2.221700
335.000000	2.183900
334.000000	2.165100
333.000000	2.042700
332.000000	2.104300
331.000000	2.373400
330.000000	2.193400
329.000000	2.127200
328.000000	2.276400
327.000000	2.306900
326.000000	2.406800
325.000000	2.174500
324.000000	2.303600
323.000000	2.303800
322.000000	2.476000
321.000000	2.423200
320.000000	2.272600
319.000000	2.277800
318.000000	2.158200
317.000000	2.689100
316.000000	1.950800
315.000000	1.883200
314.000000	1.884500
313.000000	1.875900
312.000000	1.894000
311.000000	1.866400
310.000000	1.888200
309.000000	1.884900
308.000000	1.923600
307.000000	1.851500
306.000000	1.875400
305.000000	1.857300
304.000000	1.837800
303.000000	1.905800
302.000000	1.836500
301.000000	1.864200
300.000000	1.903900
299.000000	1.876400
298.000000	1.868300
297.000000	1.868100
296.000000	1.846300
295.000000	1.857900
294.000000	1.896500
293.000000	1.918600
292.000000	1.859800
291.000000	1.875000
290.000000	1.860900
289.000000	1.884000
288.000000	1.886000
287.000000	1.899200
286.000000	1.885000
285.000000	1.898000
284.000000	1.904700
283.000000	1.869300
282.000000	1.904300
281.000000	1.913900
280.000000	1.895300
279.000000	1.875400
278.000000	1.893000
277.000000	1.900600
276.000000	1.911200
275.000000	1.948400
274.000000	1.940100
273.000000	1.946200
272.000000	1.915800
271.000000	1.915900
270.000000	1.939800
269.000000	1.975000
268.000000	1.969100
267.000000	1.950200
266.000000	1.951700
265.000000	1.962800
264.000000	1.978400
263.000000	1.983400
262.000000	1.978000
261.000000	2.030900
260.000000	2.015300
259.000000	2.022100
258.000000	2.005200
257.000000	1.992100
256.000000	2.014900
255.000000	1.996100
254.000000	1.994500
253.000000	2.018700
252.000000	2.045400
251.000000	2.058300
250.000000	2.056200
