PE UV       SUBTECH     SPECTRUM    ASCII       PEDS        4.00        
   -1
CICIMAUCR0098-1.ASC
24/04/03
14:55:53.00
24/04/03
14:55:53.00
Vinicio Soto Monge
C. cupreomarginata
250,000000
1
Lambda 1050
1050L1511233
PerkinElmer UV WinLab 6.3.2.0749 / 2.02.05 Lambda 900 UV/VIS/NIR, Aug  7 2015 09:38:08

0
0
3350/servo 860,8/2
0
0
UV/VIS
1
1
1
DoubleDePol,CommonBeamDepol,RBeamAtt,SBeamAtt,60mm sphere, WB InGaAs Detector
0
0
0
0
Program
Program
3350/servo 860,8/2
3350/0,2 860,8/0,2
3350/0,2 860,8/0,2
0
15.00
 
 
 
0
 
860,8
319,2
860,8
Front
100
on
S:100 R:100
0
0
0
0
 
0
 
 
 
0
 
 
0
0
0
0
0
 
 
 
 
0
0


0
0
#HDR
-1
-1
#GR
nm
%R
1.0
0.0
2500,000000
-1,000000
2251
8
55,162100
5,208800
#DATA
2500.000000	5.626012
2499.000000	5.778392
2498.000000	5.862842
2497.000000	5.869966
2496.000000	5.806886
2495.000000	5.996330
2494.000000	5.745253
2493.000000	5.778083
2492.000000	5.821133
2491.000000	5.748866
2490.000000	5.780870
2489.000000	5.960403
2488.000000	5.780251
2487.000000	5.762081
2486.000000	5.784690
2485.000000	5.902796
2484.000000	5.913945
2483.000000	5.831044
2482.000000	5.922927
2481.000000	5.781593
2480.000000	5.790781
2479.000000	5.902486
2478.000000	5.882457
2477.000000	5.899698
2476.000000	5.902899
2475.000000	5.927160
2474.000000	5.977644
2473.000000	5.928089
2472.000000	5.995194
2471.000000	5.983838
2470.000000	5.958854
2469.000000	5.980741
2468.000000	5.997259
2467.000000	5.998911
2466.000000	6.003867
2465.000000	6.054970
2464.000000	6.051357
2463.000000	6.102563
2462.000000	6.106486
2461.000000	6.143033
2460.000000	6.136735
2459.000000	6.146336
2458.000000	6.213958
2457.000000	6.220978
2456.000000	6.239252
2455.000000	6.257318
2454.000000	6.323908
2453.000000	6.336503
2452.000000	6.375527
2451.000000	6.404641
2450.000000	6.448724
2449.000000	6.459151
2448.000000	6.516139
2447.000000	6.536270
2446.000000	6.577359
2445.000000	6.586651
2444.000000	6.621855
2443.000000	6.657163
2442.000000	6.692471
2441.000000	6.709918
2440.000000	6.748530
2439.000000	6.788793
2438.000000	6.802937
2437.000000	6.837522
2436.000000	6.858479
2435.000000	6.901117
2434.000000	6.929198
2433.000000	6.945200
2432.000000	6.980508
2431.000000	6.969668
2430.000000	6.989180
2429.000000	7.021184
2428.000000	7.032747
2427.000000	7.049472
2426.000000	7.069293
2425.000000	7.084263
2424.000000	7.108834
2423.000000	7.120707
2422.000000	7.138360
2421.000000	7.157460
2420.000000	7.171707
2419.000000	7.188535
2418.000000	7.196071
2417.000000	7.202059
2416.000000	7.205259
2415.000000	7.233031
2414.000000	7.246865
2413.000000	7.267616
2412.000000	7.277836
2411.000000	7.275668
2410.000000	7.294045
2409.000000	7.300239
2408.000000	7.306434
2407.000000	7.317274
2406.000000	7.340090
2405.000000	7.342877
2404.000000	7.355575
2403.000000	7.361976
2402.000000	7.370752
2401.000000	7.391296
2400.000000	7.402033
2399.000000	7.415660
2398.000000	7.425984
2397.000000	7.440438
2396.000000	7.442193
2395.000000	7.455924
2394.000000	7.458505
2393.000000	7.467383
2392.000000	7.477604
2391.000000	7.475229
2390.000000	7.484005
2389.000000	7.506408
2388.000000	7.512602
2387.000000	7.501349
2386.000000	7.501659
2385.000000	7.506408
2384.000000	7.498045
2383.000000	7.480598
2382.000000	7.465731
2381.000000	7.458092
2380.000000	7.462325
2379.000000	7.448697
2378.000000	7.434553
2377.000000	7.445910
2376.000000	7.429907
2375.000000	7.422681
2374.000000	7.419997
2373.000000	7.396871
2372.000000	7.386237
2371.000000	7.379837
2370.000000	7.361357
2369.000000	7.347110
2368.000000	7.337818
2367.000000	7.306434
2366.000000	7.292703
2365.000000	7.275359
2364.000000	7.228901
2363.000000	7.199788
2362.000000	7.184508
2361.000000	7.154879
2360.000000	7.116783
2359.000000	7.081166
2358.000000	7.057834
2357.000000	7.047510
2356.000000	7.038941
2355.000000	7.012718
2354.000000	6.981644
2353.000000	6.983089
2352.000000	6.976378
2351.000000	6.983502
2350.000000	6.998575
2349.000000	6.996510
2348.000000	6.999710
2347.000000	7.001569
2346.000000	7.018087
2345.000000	7.047097
2344.000000	7.080237
2343.000000	7.099233
2342.000000	7.120707
2341.000000	7.137741
2340.000000	7.148168
2339.000000	7.170571
2338.000000	7.171397
2337.000000	7.177694
2336.000000	7.181618
2335.000000	7.191735
2334.000000	7.183992
2333.000000	7.176765
2332.000000	7.157150
2331.000000	7.139909
2330.000000	7.115648
2329.000000	7.096136
2328.000000	7.071255
2327.000000	7.045342
2326.000000	7.010654
2325.000000	6.959344
2324.000000	6.918977
2323.000000	6.881811
2322.000000	6.812332
2321.000000	6.756789
2320.000000	6.706202
2319.000000	6.646323
2318.000000	6.581179
2317.000000	6.498898
2316.000000	6.433857
2315.000000	6.369436
2314.000000	6.310177
2313.000000	6.236567
2312.000000	6.198059
2311.000000	6.142310
2310.000000	6.103286
2309.000000	6.066842
2308.000000	6.042271
2307.000000	6.026579
2306.000000	6.029573
2305.000000	6.032257
2304.000000	6.038348
2303.000000	6.061371
2302.000000	6.089658
2301.000000	6.121043
2300.000000	6.147266
2299.000000	6.154699
2298.000000	6.184948
2297.000000	6.221288
2296.000000	6.261448
2295.000000	6.270223
2294.000000	6.302021
2293.000000	6.327211
2292.000000	6.337948
2291.000000	6.342904
2290.000000	6.346207
2289.000000	6.346620
2288.000000	6.334025
2287.000000	6.333509
2286.000000	6.301608
2285.000000	6.279618
2284.000000	6.263822
2283.000000	6.255460
2282.000000	6.220565
2281.000000	6.192381
2280.000000	6.180405
2279.000000	6.173385
2278.000000	6.146749
2277.000000	6.127857
2276.000000	6.119288
2275.000000	6.097091
2274.000000	6.070249
2273.000000	6.085219
2272.000000	6.090794
2271.000000	6.066533
2270.000000	6.068288
2269.000000	6.080160
2268.000000	6.106383
2267.000000	6.116604
2266.000000	6.141794
2265.000000	6.186083
2264.000000	6.222011
2263.000000	6.265681
2262.000000	6.308731
2261.000000	6.354466
2260.000000	6.433135
2259.000000	6.482896
2258.000000	6.560635
2257.000000	6.622888
2256.000000	6.694536
2255.000000	6.767835
2254.000000	6.801698
2253.000000	6.852182
2252.000000	6.917222
2251.000000	6.972455
2250.000000	7.035947
2249.000000	7.084573
2248.000000	7.138980
2247.000000	7.191838
2246.000000	7.229520
2245.000000	7.279798
2244.000000	7.276701
2243.000000	7.315209
2242.000000	7.346594
2241.000000	7.397697
2240.000000	7.409260
2239.000000	7.444774
2238.000000	7.463254
2237.000000	7.493399
2236.000000	7.505375
2235.000000	7.504033
2234.000000	7.522823
2233.000000	7.511983
2232.000000	7.517454
2231.000000	7.536760
2230.000000	7.537792
2229.000000	7.512292
2228.000000	7.496393
2227.000000	7.450968
2226.000000	7.441573
2225.000000	7.414422
2224.000000	7.360428
2223.000000	7.352788
2222.000000	7.331830
2221.000000	7.279798
2220.000000	7.219403
2219.000000	7.191838
2218.000000	7.151575
2217.000000	7.114202
2216.000000	7.094690
2215.000000	7.054427
2214.000000	7.035121
2213.000000	7.022010
2212.000000	6.987218
2211.000000	6.988354
2210.000000	7.009312
2209.000000	7.040696
2208.000000	7.087360
2207.000000	7.119674
2206.000000	7.184818
2205.000000	7.246968
2204.000000	7.346490
2203.000000	7.427326
2202.000000	7.544090
2201.000000	7.655588
2200.000000	7.759859
2199.000000	7.864647
2198.000000	8.005568
2197.000000	8.122022
2196.000000	8.237650
2195.000000	8.342334
2194.000000	8.436488
2193.000000	8.554284
2192.000000	8.673938
2191.000000	8.749715
2190.000000	8.825906
2189.000000	8.919440
2188.000000	8.981487
2187.000000	9.058503
2186.000000	9.111775
2185.000000	9.150283
2184.000000	9.205000
2183.000000	9.258271
2182.000000	9.269627
2181.000000	9.324757
2180.000000	9.333945
2179.000000	9.375860
2178.000000	9.400844
2177.000000	9.419221
2176.000000	9.448334
2175.000000	9.482093
2174.000000	9.508316
2173.000000	9.537739
2172.000000	9.548579
2171.000000	9.567885
2170.000000	9.610006
2169.000000	9.634164
2168.000000	9.673705
2167.000000	9.698069
2166.000000	9.722640
2165.000000	9.748863
2164.000000	9.795217
2163.000000	9.824227
2162.000000	9.843946
2161.000000	9.879047
2160.000000	9.911877
2159.000000	9.941920
2158.000000	9.968143
2157.000000	9.983422
2156.000000	10.015013
2155.000000	10.047430
2154.000000	10.094094
2153.000000	10.129918
2152.000000	10.154799
2151.000000	10.189797
2150.000000	10.221904
2149.000000	10.247404
2148.000000	10.277240
2147.000000	10.293346
2146.000000	10.338358
2145.000000	10.371601
2144.000000	10.384196
2143.000000	10.401953
2142.000000	10.414548
2141.000000	10.447688
2140.000000	10.476905
2139.000000	10.495075
2138.000000	10.526872
2137.000000	10.549585
2136.000000	10.567136
2135.000000	10.582105
2134.000000	10.596352
2133.000000	10.612251
2132.000000	10.629802
2131.000000	10.631763
2130.000000	10.630834
2129.000000	10.650449
2128.000000	10.666658
2127.000000	10.656644
2126.000000	10.654682
2125.000000	10.655921
2124.000000	10.652308
2123.000000	10.651792
2122.000000	10.655818
2121.000000	10.656231
2120.000000	10.655405
2119.000000	10.640951
2118.000000	10.628769
2117.000000	10.628872
2116.000000	10.619684
2115.000000	10.620820
2114.000000	10.611838
2113.000000	10.606986
2112.000000	10.593668
2111.000000	10.579008
2110.000000	10.570233
2109.000000	10.555986
2108.000000	10.538951
2107.000000	10.538022
2106.000000	10.544423
2105.000000	10.529350
2104.000000	10.522227
2103.000000	10.533686
2102.000000	10.518303
2101.000000	10.498275
2100.000000	10.484338
2099.000000	10.470607
2098.000000	10.460283
2097.000000	10.449237
2096.000000	10.441700
2095.000000	10.442113
2094.000000	10.443145
2093.000000	10.436022
2092.000000	10.423736
2091.000000	10.419813
2090.000000	10.410832
2089.000000	10.415684
2088.000000	10.421878
2087.000000	10.413722
2086.000000	10.412277
2085.000000	10.415374
2084.000000	10.395965
2083.000000	10.379860
2082.000000	10.369846
2081.000000	10.371085
2080.000000	10.363445
2079.000000	10.359315
2078.000000	10.360244
2077.000000	10.342694
2076.000000	10.320188
2075.000000	10.300985
2074.000000	10.296546
2073.000000	10.271769
2072.000000	10.265471
2071.000000	10.247611
2070.000000	10.234293
2069.000000	10.216845
2068.000000	10.185874
2067.000000	10.171730
2066.000000	10.153457
2065.000000	10.114536
2064.000000	10.109890
2063.000000	10.072724
2062.000000	10.050321
2061.000000	10.033906
2060.000000	10.026266
2059.000000	10.000043
2058.000000	9.985590
2057.000000	9.977950
2056.000000	9.960709
2055.000000	9.943262
2054.000000	9.955444
2053.000000	9.962774
2052.000000	9.954618
2051.000000	9.963084
2050.000000	9.976815
2049.000000	10.012122
2048.000000	10.030602
2047.000000	10.083461
2046.000000	10.140242
2045.000000	10.185770
2044.000000	10.220975
2043.000000	10.289010
2042.000000	10.357664
2041.000000	10.430550
2040.000000	10.500030
2039.000000	10.556708
2038.000000	10.616277
2037.000000	10.683279
2036.000000	10.762980
2035.000000	10.818729
2034.000000	10.863019
2033.000000	10.923930
2032.000000	10.990003
2031.000000	11.033570
2030.000000	11.065161
2029.000000	11.109140
2028.000000	11.146307
2027.000000	11.198442
2026.000000	11.225904
2025.000000	11.258424
2024.000000	11.292906
2023.000000	11.325323
2022.000000	11.361457
2021.000000	11.400791
2020.000000	11.437957
2019.000000	11.468516
2018.000000	11.474916
2017.000000	11.505475
2016.000000	11.535931
2015.000000	11.538305
2014.000000	11.577020
2013.000000	11.607992
2012.000000	11.604275
2011.000000	11.627607
2010.000000	11.649184
2009.000000	11.676542
2008.000000	11.671380
2007.000000	11.700287
2006.000000	11.710508
2005.000000	11.739828
2004.000000	11.729194
2003.000000	11.730743
2002.000000	11.736524
2001.000000	11.753455
2000.000000	11.756346
1999.000000	11.733014
1998.000000	11.739415
1997.000000	11.724342
1996.000000	11.729504
1995.000000	11.706688
1994.000000	11.697913
1993.000000	11.675716
1992.000000	11.688931
1991.000000	11.672826
1990.000000	11.644641
1989.000000	11.629259
1988.000000	11.601797
1987.000000	11.574026
1986.000000	11.547493
1985.000000	11.521580
1984.000000	11.485653
1983.000000	11.472955
1982.000000	11.463767
1981.000000	11.431969
1980.000000	11.412973
1979.000000	11.386028
1978.000000	11.350100
1977.000000	11.321193
1976.000000	11.306947
1975.000000	11.285266
1974.000000	11.242319
1973.000000	11.228382
1972.000000	11.220019
1971.000000	11.189151
1970.000000	11.153224
1969.000000	11.143932
1968.000000	11.101501
1967.000000	11.121116
1966.000000	11.076827
1965.000000	11.043274
1964.000000	11.004559
1963.000000	11.013335
1962.000000	11.003527
1961.000000	10.986802
1960.000000	10.955211
1959.000000	10.912160
1958.000000	10.894403
1957.000000	10.872310
1956.000000	10.861677
1955.000000	10.863122
1954.000000	10.826369
1953.000000	10.809128
1952.000000	10.779705
1951.000000	10.782595
1950.000000	10.760193
1949.000000	10.766387
1948.000000	10.748630
1947.000000	10.733660
1946.000000	10.716213
1945.000000	10.740577
1944.000000	10.705373
1943.000000	10.709296
1942.000000	10.728085
1941.000000	10.713838
1940.000000	10.726950
1939.000000	10.730769
1938.000000	10.752140
1937.000000	10.742435
1936.000000	10.768039
1935.000000	10.780427
1934.000000	10.802211
1933.000000	10.858270
1932.000000	10.887177
1931.000000	10.930021
1930.000000	10.981021
1929.000000	11.022213
1928.000000	11.059276
1927.000000	11.087047
1926.000000	11.131234
1925.000000	11.188841
1924.000000	11.279072
1923.000000	11.339054
1922.000000	11.385718
1921.000000	11.461392
1920.000000	11.526226
1919.000000	11.585898
1918.000000	11.663018
1917.000000	11.762024
1916.000000	11.853700
1915.000000	11.947442
1914.000000	12.035711
1913.000000	12.130897
1912.000000	12.208946
1911.000000	12.293705
1910.000000	12.389924
1909.000000	12.483046
1908.000000	12.602080
1907.000000	12.706352
1906.000000	12.803706
1905.000000	12.927283
1904.000000	13.029903
1903.000000	13.153274
1902.000000	13.256409
1901.000000	13.376373
1900.000000	13.501809
1899.000000	13.626108
1898.000000	13.707977
1897.000000	13.844356
1896.000000	13.957712
1895.000000	14.055376
1894.000000	14.178334
1893.000000	14.307693
1892.000000	14.448820
1891.000000	14.579521
1890.000000	14.700724
1889.000000	14.826365
1888.000000	14.978540
1887.000000	15.136083
1886.000000	15.313447
1885.000000	15.526326
1884.000000	15.763879
1883.000000	16.008865
1882.000000	16.250961
1881.000000	16.498115
1880.000000	16.750638
1879.000000	17.003264
1878.000000	17.261362
1877.000000	17.494682
1876.000000	17.711071
1875.000000	17.921162
1874.000000	18.114839
1873.000000	18.287454
1872.000000	18.454598
1871.000000	18.589119
1870.000000	18.703714
1869.000000	18.809328
1868.000000	18.878704
1867.000000	18.915458
1866.000000	18.941474
1865.000000	18.982047
1864.000000	19.000114
1863.000000	19.021071
1862.000000	19.040893
1861.000000	19.048636
1860.000000	19.047810
1859.000000	19.026027
1858.000000	18.990925
1857.000000	18.965941
1856.000000	18.921342
1855.000000	18.880047
1854.000000	18.835241
1853.000000	18.767000
1852.000000	18.696488
1851.000000	18.631240
1850.000000	18.591597
1849.000000	18.566716
1848.000000	18.489803
1847.000000	18.414335
1846.000000	18.334944
1845.000000	18.252353
1844.000000	18.213019
1843.000000	18.197843
1842.000000	18.181531
1841.000000	18.142507
1840.000000	18.096359
1839.000000	18.050211
1838.000000	18.005199
1837.000000	17.958741
1836.000000	17.912284
1835.000000	17.844559
1834.000000	17.766717
1833.000000	17.708077
1832.000000	17.647166
1831.000000	17.589662
1830.000000	17.533809
1829.000000	17.469182
1828.000000	17.386797
1827.000000	17.310400
1826.000000	17.240817
1825.000000	17.192811
1824.000000	17.160497
1823.000000	17.139333
1822.000000	17.119821
1821.000000	17.103819
1820.000000	17.069337
1819.000000	17.014723
1818.000000	16.987262
1817.000000	16.977144
1816.000000	16.970847
1815.000000	16.956393
1814.000000	16.940804
1813.000000	16.935952
1812.000000	16.931410
1811.000000	16.910968
1810.000000	16.870912
1809.000000	16.840456
1808.000000	16.809691
1807.000000	16.767363
1806.000000	16.724415
1805.000000	16.698915
1804.000000	16.667737
1803.000000	16.638107
1802.000000	16.602387
1801.000000	16.560162
1800.000000	16.509368
1799.000000	16.479739
1798.000000	16.431423
1797.000000	16.386514
1796.000000	16.357504
1795.000000	16.328700
1794.000000	16.293599
1793.000000	16.259943
1792.000000	16.213072
1791.000000	16.167234
1790.000000	16.124390
1789.000000	16.091766
1788.000000	16.043554
1787.000000	15.996993
1786.000000	15.934533
1785.000000	15.889521
1784.000000	15.802491
1783.000000	15.744883
1782.000000	15.692128
1781.000000	15.637102
1780.000000	15.581146
1779.000000	15.503614
1778.000000	15.427939
1777.000000	15.357117
1776.000000	15.274526
1775.000000	15.188115
1774.000000	15.100155
1773.000000	15.015912
1772.000000	14.908028
1771.000000	14.813667
1770.000000	14.702582
1769.000000	14.601717
1768.000000	14.509628
1767.000000	14.432922
1766.000000	14.357557
1765.000000	14.286322
1764.000000	14.247091
1763.000000	14.229954
1762.000000	14.258551
1761.000000	14.280850
1760.000000	14.324211
1759.000000	14.348678
1758.000000	14.402156
1757.000000	14.445104
1756.000000	14.482889
1755.000000	14.520468
1754.000000	14.531825
1753.000000	14.521707
1752.000000	14.534509
1751.000000	14.518507
1750.000000	14.496104
1749.000000	14.469984
1748.000000	14.431270
1747.000000	14.378515
1746.000000	14.316261
1745.000000	14.241826
1744.000000	14.138484
1743.000000	14.032457
1742.000000	13.924779
1741.000000	13.802234
1740.000000	13.650060
1739.000000	13.508313
1738.000000	13.367804
1737.000000	13.259197
1736.000000	13.152448
1735.000000	13.067275
1734.000000	13.005126
1733.000000	12.999241
1732.000000	12.996350
1731.000000	13.003680
1730.000000	13.082348
1729.000000	13.144292
1728.000000	13.232045
1727.000000	13.306584
1726.000000	13.382567
1725.000000	13.435632
1724.000000	13.478477
1723.000000	13.508106
1722.000000	13.552602
1721.000000	13.564991
1720.000000	13.590904
1719.000000	13.622082
1718.000000	13.658629
1717.000000	13.693730
1716.000000	13.718714
1715.000000	13.768062
1714.000000	13.809564
1713.000000	13.854886
1712.000000	13.908054
1711.000000	13.938200
1710.000000	13.972372
1709.000000	14.001279
1708.000000	14.011706
1707.000000	14.029773
1706.000000	14.035967
1705.000000	14.040200
1704.000000	14.051969
1703.000000	14.045569
1702.000000	14.011087
1701.000000	14.017797
1700.000000	13.939336
1699.000000	13.907332
1698.000000	13.836613
1697.000000	13.831864
1696.000000	13.839813
1695.000000	13.855093
1694.000000	13.888336
1693.000000	13.989303
1692.000000	14.102040
1691.000000	14.186387
1690.000000	14.297988
1689.000000	14.370255
1688.000000	14.415371
1687.000000	14.460796
1686.000000	14.450782
1685.000000	14.455737
1684.000000	14.538948
1683.000000	14.646626
1682.000000	14.805305
1681.000000	15.062783
1680.000000	15.338225
1679.000000	15.654136
1678.000000	15.976242
1677.000000	16.261698
1676.000000	16.542302
1675.000000	16.800606
1674.000000	17.016788
1673.000000	17.223576
1672.000000	17.368524
1671.000000	17.529370
1670.000000	17.634984
1669.000000	17.746998
1668.000000	17.841978
1667.000000	17.934893
1666.000000	17.991158
1665.000000	18.053205
1664.000000	18.091094
1663.000000	18.136622
1662.000000	18.178228
1661.000000	18.206102
1660.000000	18.239448
1659.000000	18.243062
1658.000000	18.260922
1657.000000	18.254418
1656.000000	18.278266
1655.000000	18.260199
1654.000000	18.264845
1653.000000	18.259064
1652.000000	18.223756
1651.000000	18.215703
1650.000000	18.197223
1649.000000	18.166045
1648.000000	18.127124
1647.000000	18.111122
1646.000000	18.061361
1645.000000	18.029254
1644.000000	17.986409
1643.000000	17.952960
1642.000000	17.924569
1641.000000	17.890913
1640.000000	17.840636
1639.000000	17.777350
1638.000000	17.726866
1637.000000	17.697237
1636.000000	17.648818
1635.000000	17.578305
1634.000000	17.526583
1633.000000	17.478267
1632.000000	17.411884
1631.000000	17.350870
1630.000000	17.308335
1629.000000	17.271892
1628.000000	17.209639
1627.000000	17.145837
1626.000000	17.078938
1625.000000	17.023396
1624.000000	16.979829
1623.000000	16.919640
1622.000000	16.883610
1621.000000	16.822079
1620.000000	16.770047
1619.000000	16.705419
1618.000000	16.671867
1617.000000	16.623551
1616.000000	16.556032
1615.000000	16.509059
1614.000000	16.446186
1613.000000	16.383520
1612.000000	16.347903
1611.000000	16.306297
1610.000000	16.265208
1609.000000	16.219576
1608.000000	16.180139
1607.000000	16.132959
1606.000000	16.075042
1605.000000	16.036843
1604.000000	15.988321
1603.000000	15.937114
1602.000000	15.880539
1601.000000	15.850600
1600.000000	15.829849
1599.000000	15.796193
1598.000000	15.754484
1597.000000	15.715254
1596.000000	15.678088
1595.000000	15.639373
1594.000000	15.622751
1593.000000	15.605407
1592.000000	15.571132
1591.000000	15.545632
1590.000000	15.535927
1589.000000	15.510014
1588.000000	15.491948
1587.000000	15.462318
1586.000000	15.440122
1585.000000	15.453543
1584.000000	15.459118
1583.000000	15.450858
1582.000000	15.444561
1581.000000	15.433101
1580.000000	15.412557
1579.000000	15.414622
1578.000000	15.410079
1577.000000	15.411731
1576.000000	15.414312
1575.000000	15.410492
1574.000000	15.408427
1573.000000	15.423294
1572.000000	15.437437
1571.000000	15.433411
1570.000000	15.449620
1569.000000	15.484824
1568.000000	15.489573
1567.000000	15.501342
1566.000000	15.526326
1565.000000	15.539128
1564.000000	15.559879
1563.000000	15.583004
1562.000000	15.598387
1561.000000	15.607266
1560.000000	15.630494
1559.000000	15.650832
1558.000000	15.667557
1557.000000	15.695948
1556.000000	15.707407
1555.000000	15.717318
1554.000000	15.725371
1553.000000	15.738173
1552.000000	15.751800
1551.000000	15.734353
1550.000000	15.724339
1549.000000	15.712156
1548.000000	15.715150
1547.000000	15.718248
1546.000000	15.724235
1545.000000	15.722584
1544.000000	15.725784
1543.000000	15.717731
1542.000000	15.714841
1541.000000	15.718454
1540.000000	15.718557
1539.000000	15.721964
1538.000000	15.733114
1537.000000	15.743335
1536.000000	15.747155
1535.000000	15.756033
1534.000000	15.762950
1533.000000	15.760782
1532.000000	15.773997
1531.000000	15.791134
1530.000000	15.789070
1529.000000	15.793509
1528.000000	15.800013
1527.000000	15.807859
1526.000000	15.802284
1525.000000	15.813537
1524.000000	15.818596
1523.000000	15.824894
1522.000000	15.834598
1521.000000	15.829333
1520.000000	15.836250
1519.000000	15.844302
1518.000000	15.853387
1517.000000	15.833979
1516.000000	15.822003
1515.000000	15.835940
1514.000000	15.833875
1513.000000	15.824894
1512.000000	15.845128
1511.000000	15.869493
1510.000000	15.872487
1509.000000	15.849464
1508.000000	15.847916
1507.000000	15.851736
1506.000000	15.845851
1505.000000	15.838005
1504.000000	15.852252
1503.000000	15.855452
1502.000000	15.865466
1501.000000	15.862576
1500.000000	15.862060
1499.000000	15.885288
1498.000000	15.888592
1497.000000	15.895199
1496.000000	15.893031
1495.000000	15.916983
1494.000000	15.915744
1493.000000	15.929371
1492.000000	15.940521
1491.000000	15.959311
1490.000000	15.958072
1489.000000	15.971390
1488.000000	16.008143
1487.000000	16.026623
1486.000000	16.036740
1485.000000	16.039940
1484.000000	16.058420
1483.000000	16.084849
1482.000000	16.100232
1481.000000	16.102503
1480.000000	16.125526
1479.000000	16.155362
1478.000000	16.188914
1477.000000	16.201819
1476.000000	16.216892
1475.000000	16.246006
1474.000000	16.275119
1473.000000	16.304749
1472.000000	16.330558
1471.000000	16.369067
1470.000000	16.374745
1469.000000	16.386824
1468.000000	16.406026
1467.000000	16.424093
1466.000000	16.453826
1465.000000	16.465079
1464.000000	16.495638
1463.000000	16.514014
1462.000000	16.558613
1461.000000	16.611369
1460.000000	16.630984
1459.000000	16.681778
1458.000000	16.702735
1457.000000	16.760549
1456.000000	16.810413
1455.000000	16.859762
1454.000000	16.897237
1453.000000	16.972808
1452.000000	17.041875
1451.000000	17.070886
1450.000000	17.135307
1449.000000	17.165246
1448.000000	17.238236
1447.000000	17.321240
1446.000000	17.411471
1445.000000	17.457413
1444.000000	17.496953
1443.000000	17.562716
1442.000000	17.649540
1441.000000	17.720775
1440.000000	17.809354
1439.000000	17.847863
1438.000000	17.912903
1437.000000	17.974640
1436.000000	18.033693
1435.000000	18.088926
1434.000000	18.160367
1433.000000	18.235525
1432.000000	18.318839
1431.000000	18.371491
1430.000000	18.440248
1429.000000	18.527279
1428.000000	18.646107
1427.000000	18.731176
1426.000000	18.845874
1425.000000	18.999184
1424.000000	19.112231
1423.000000	19.224246
1422.000000	19.323252
1421.000000	19.462831
1420.000000	19.587647
1419.000000	19.725058
1418.000000	19.800423
1417.000000	19.897467
1416.000000	19.999158
1415.000000	20.132233
1414.000000	20.241563
1413.000000	20.315482
1412.000000	20.391569
1411.000000	20.544983
1410.000000	20.691272
1409.000000	20.861926
1408.000000	21.048273
1407.000000	21.249796
1406.000000	21.456274
1405.000000	21.677515
1404.000000	21.862003
1403.000000	22.066416
1402.000000	22.292923
1401.000000	22.532644
1400.000000	22.668506
1399.000000	22.737160
1398.000000	22.819442
1397.000000	22.909983
1396.000000	22.976469
1395.000000	22.974713
1394.000000	22.893361
1393.000000	22.898730
1392.000000	22.894600
1391.000000	22.907402
1390.000000	22.929392
1389.000000	23.021378
1388.000000	23.127094
1387.000000	23.265744
1386.000000	23.415957
1385.000000	23.663008
1384.000000	23.962195
1383.000000	24.235469
1382.000000	24.487888
1381.000000	24.709129
1380.000000	24.854387
1379.000000	25.134990
1378.000000	25.364388
1377.000000	25.643959
1376.000000	25.995281
1375.000000	26.398946
1374.000000	26.884789
1373.000000	27.405114
1372.000000	27.978090
1371.000000	28.474051
1370.000000	28.933465
1369.000000	29.342394
1368.000000	29.691859
1367.000000	29.987225
1366.000000	30.251414
1365.000000	30.510957
1364.000000	30.715887
1363.000000	30.903472
1362.000000	31.097665
1361.000000	31.184592
1360.000000	31.239102
1359.000000	31.304556
1358.000000	31.416467
1357.000000	31.597238
1356.000000	31.927707
1355.000000	32.431926
1354.000000	33.011717
1353.000000	33.631048
1352.000000	34.282073
1351.000000	34.908011
1350.000000	35.486769
1349.000000	36.009778
1348.000000	36.490563
1347.000000	36.923134
1346.000000	37.313274
1345.000000	37.709093
1344.000000	38.107699
1343.000000	38.455821
1342.000000	38.782056
1341.000000	39.098897
1340.000000	39.397258
1339.000000	39.676726
1338.000000	39.952271
1337.000000	40.220073
1336.000000	40.457110
1335.000000	40.678867
1334.000000	40.921273
1333.000000	41.148192
1332.000000	41.349508
1331.000000	41.541946
1330.000000	41.712806
1329.000000	41.886661
1328.000000	42.059896
1327.000000	42.219091
1326.000000	42.350617
1325.000000	42.486273
1324.000000	42.610676
1323.000000	42.731363
1322.000000	42.852462
1321.000000	42.956011
1320.000000	43.042422
1319.000000	43.153817
1318.000000	43.248384
1317.000000	43.316728
1316.000000	43.397151
1315.000000	43.478710
1314.000000	43.539518
1313.000000	43.599706
1312.000000	43.659069
1311.000000	43.705733
1310.000000	43.745893
1309.000000	43.793073
1308.000000	43.826110
1307.000000	43.847480
1306.000000	43.859662
1305.000000	43.859662
1304.000000	43.869780
1303.000000	43.868541
1302.000000	43.862553
1301.000000	43.856359
1300.000000	43.846964
1299.000000	43.822290
1298.000000	43.792041
1297.000000	43.778413
1296.000000	43.754462
1295.000000	43.711101
1294.000000	43.684156
1293.000000	43.662166
1292.000000	43.621283
1291.000000	43.576684
1290.000000	43.530020
1289.000000	43.473858
1288.000000	43.397564
1287.000000	43.323335
1286.000000	43.253443
1285.000000	43.167651
1284.000000	43.077214
1283.000000	42.972323
1282.000000	42.888596
1281.000000	42.810547
1280.000000	42.718355
1279.000000	42.629363
1278.000000	42.554101
1277.000000	42.472852
1276.000000	42.392222
1275.000000	42.315309
1274.000000	42.252953
1273.000000	42.189151
1272.000000	42.118226
1271.000000	42.058967
1270.000000	41.997540
1269.000000	41.939313
1268.000000	41.875408
1267.000000	41.801798
1266.000000	41.740268
1265.000000	41.675434
1264.000000	41.614936
1263.000000	41.539158
1262.000000	41.485371
1261.000000	41.435093
1260.000000	41.362516
1259.000000	41.302018
1258.000000	41.244514
1257.000000	41.158722
1256.000000	41.084390
1255.000000	41.003864
1254.000000	40.921582
1253.000000	40.844979
1252.000000	40.753819
1251.000000	40.659975
1250.000000	40.579138
1249.000000	40.476312
1248.000000	40.349741
1247.000000	40.220279
1246.000000	40.099696
1245.000000	39.973745
1244.000000	39.821880
1243.000000	39.668054
1242.000000	39.477475
1241.000000	39.294948
1240.000000	39.118099
1239.000000	38.986779
1238.000000	38.834399
1237.000000	38.656105
1236.000000	38.444774
1235.000000	38.253059
1234.000000	38.034606
1233.000000	37.869836
1232.000000	37.703002
1231.000000	37.487439
1230.000000	37.251538
1229.000000	37.026580
1228.000000	36.808436
1227.000000	36.576767
1226.000000	36.350777
1225.000000	36.117560
1224.000000	35.900551
1223.000000	35.677349
1222.000000	35.453939
1221.000000	35.239512
1220.000000	35.034273
1219.000000	34.853501
1218.000000	34.676446
1217.000000	34.507753
1216.000000	34.337099
1215.000000	34.167374
1214.000000	34.019639
1213.000000	33.890900
1212.000000	33.781777
1211.000000	33.650353
1210.000000	33.536171
1209.000000	33.438094
1208.000000	33.346624
1207.000000	33.283338
1206.000000	33.237087
1205.000000	33.208697
1204.000000	33.209523
1203.000000	33.189184
1202.000000	33.189184
1201.000000	33.162858
1200.000000	33.097198
1199.000000	33.042482
1198.000000	32.922828
1197.000000	32.764149
1196.000000	32.553438
1195.000000	32.272422
1194.000000	31.905820
1193.000000	31.448677
1192.000000	30.952820
1191.000000	30.423204
1190.000000	29.928482
1189.000000	29.496324
1188.000000	29.182477
1187.000000	29.029477
1186.000000	28.976102
1185.000000	29.071289
1184.000000	29.332587
1183.000000	29.699911
1182.000000	30.213732
1181.000000	30.770913
1180.000000	31.338934
1179.000000	31.886514
1178.000000	32.389288
1177.000000	32.819692
1176.000000	33.206632
1175.000000	33.552379
1174.000000	33.889145
1173.000000	34.276188
1172.000000	34.657450
1171.000000	35.067103
1170.000000	35.464676
1169.000000	35.912424
1168.000000	36.348299
1167.000000	36.754545
1166.000000	37.222218
1165.000000	37.671411
1164.000000	38.148891
1163.000000	38.611918
1162.000000	39.076391
1161.000000	39.521971
1160.000000	39.942463
1159.000000	40.378029
1158.000000	40.784378
1157.000000	41.155315
1156.000000	41.464310
1155.000000	41.706612
1154.000000	41.860335
1153.000000	41.950153
1152.000000	41.968633
1151.000000	41.951289
1150.000000	41.924963
1149.000000	41.877576
1148.000000	41.859715
1147.000000	41.912058
1146.000000	42.066194
1145.000000	42.288777
1144.000000	42.641545
1143.000000	43.015373
1142.000000	43.458475
1141.000000	43.909114
1140.000000	44.354177
1139.000000	44.804506
1138.000000	45.273108
1137.000000	45.760706
1136.000000	46.258525
1135.000000	46.744884
1134.000000	47.160214
1133.000000	47.503071
1132.000000	47.845205
1131.000000	48.174848
1130.000000	48.471970
1129.000000	48.705806
1128.000000	48.891636
1127.000000	49.056509
1126.000000	49.164394
1125.000000	49.265775
1124.000000	49.345372
1123.000000	49.427447
1122.000000	49.490526
1121.000000	49.542455
1120.000000	49.578899
1119.000000	49.609767
1118.000000	49.636196
1117.000000	49.629589
1116.000000	49.625873
1115.000000	49.607393
1114.000000	49.595520
1113.000000	49.582925
1112.000000	49.568575
1111.000000	49.546275
1110.000000	49.515613
1109.000000	49.508593
1108.000000	49.493830
1107.000000	49.474524
1106.000000	49.438390
1105.000000	49.429822
1104.000000	49.406077
1103.000000	49.379131
1102.000000	49.344959
1101.000000	49.316568
1100.000000	49.284151
1099.000000	49.242339
1098.000000	49.208477
1097.000000	49.187003
1096.000000	49.153141
1095.000000	49.107406
1094.000000	49.063736
1093.000000	49.027912
1092.000000	48.965659
1091.000000	48.919201
1090.000000	48.885132
1089.000000	48.837023
1088.000000	48.793869
1087.000000	48.726351
1086.000000	48.683403
1085.000000	48.637152
1084.000000	48.584397
1083.000000	48.539178
1082.000000	48.483326
1081.000000	48.434804
1080.000000	48.394024
1079.000000	48.374409
1078.000000	48.328777
1077.000000	48.282733
1076.000000	48.257336
1075.000000	48.221099
1074.000000	48.191469
1073.000000	48.172783
1072.000000	48.132933
1071.000000	48.094425
1070.000000	48.058291
1069.000000	48.041669
1068.000000	48.008426
1067.000000	47.968576
1066.000000	47.942766
1065.000000	47.916027
1064.000000	47.865647
1063.000000	47.822286
1062.000000	47.788114
1061.000000	47.749916
1060.000000	47.720493
1059.000000	47.676719
1058.000000	47.622622
1057.000000	47.569351
1056.000000	47.526197
1055.000000	47.479120
1054.000000	47.426158
1053.000000	47.372267
1052.000000	47.334379
1051.000000	47.301652
1050.000000	47.267170
1049.000000	47.234650
1048.000000	47.203368
1047.000000	47.173739
1046.000000	47.137192
1045.000000	47.100026
1044.000000	47.076591
1043.000000	47.052743
1042.000000	47.025487
1041.000000	46.988941
1040.000000	46.951568
1039.000000	46.918738
1038.000000	46.876617
1037.000000	46.851839
1036.000000	46.817874
1035.000000	46.759337
1034.000000	46.711228
1033.000000	46.661054
1032.000000	46.617074
1031.000000	46.557918
1030.000000	46.491019
1029.000000	46.444355
1028.000000	46.383031
1027.000000	46.315203
1026.000000	46.263480
1025.000000	46.189045
1024.000000	46.097162
1023.000000	46.034393
1022.000000	45.967184
1021.000000	45.905034
1020.000000	45.861261
1019.000000	45.805099
1018.000000	45.748421
1017.000000	45.693704
1016.000000	45.641155
1015.000000	45.617100
1014.000000	45.606880
1013.000000	45.597175
1012.000000	45.586438
1011.000000	45.593872
1010.000000	45.630728
1009.000000	45.672024
1008.000000	45.717242
1007.000000	45.752963
1006.000000	45.791781
1005.000000	45.844743
1004.000000	45.875405
1003.000000	45.905550
1002.000000	45.950150
1001.000000	45.986490
1000.000000	46.042136
999.000000	46.076308
998.000000	46.116571
997.000000	46.168397
996.000000	46.224869
995.000000	46.275146
994.000000	46.336264
993.000000	46.386541
992.000000	46.437335
991.000000	46.489780
990.000000	46.543774
989.000000	46.615216
988.000000	46.683869
987.000000	46.760473
986.000000	46.836767
985.000000	46.911925
984.000000	46.985121
983.000000	47.048200
982.000000	47.117990
981.000000	47.200994
980.000000	47.281004
979.000000	47.346664
978.000000	47.417693
977.000000	47.477262
976.000000	47.548496
975.000000	47.630984
974.000000	47.685288
973.000000	47.755904
972.000000	47.816299
971.000000	47.874009
970.000000	47.938327
969.000000	48.005949
968.000000	48.071093
967.000000	48.120028
966.000000	48.148315
965.000000	48.201174
964.000000	48.251348
963.000000	48.321137
962.000000	48.408065
961.000000	48.479300
960.000000	48.524622
959.000000	48.597612
958.000000	48.678964
957.000000	48.744314
956.000000	48.799341
955.000000	48.848070
954.000000	48.904335
953.000000	48.945218
952.000000	48.980628
951.000000	49.019756
950.000000	49.036481
949.000000	49.083661
948.000000	49.105754
947.000000	49.127951
946.000000	49.176370
945.000000	49.210026
944.000000	49.255554
943.000000	49.302012
942.000000	49.340726
941.000000	49.387907
940.000000	49.461619
939.000000	49.530996
938.000000	49.574459
937.000000	49.643113
936.000000	49.735306
935.000000	49.833073
934.000000	49.912980
933.000000	49.985557
932.000000	50.068665
931.000000	50.163232
930.000000	50.215677
929.000000	50.299507
928.000000	50.370020
927.000000	50.470574
926.000000	50.532931
925.000000	50.595494
924.000000	50.688615
923.000000	50.772652
922.000000	50.835628
921.000000	50.919148
920.000000	50.989764
919.000000	51.043551
918.000000	51.102501
917.000000	51.176316
916.000000	51.194693
915.000000	51.277284
914.000000	51.297932
913.000000	51.333962
912.000000	51.379388
911.000000	51.432143
910.000000	51.511327
909.000000	51.562018
908.000000	51.621896
907.000000	51.680020
906.000000	51.753629
905.000000	51.867192
904.000000	51.958972
903.000000	52.076045
902.000000	52.179903
901.000000	52.326296
900.000000	52.442853
899.000000	52.575206
898.000000	52.711481
897.000000	52.839704
896.000000	53.004164
895.000000	53.112874
894.000000	53.242852
893.000000	53.358996
892.000000	53.488458
891.000000	53.603879
890.000000	53.728902
889.000000	53.807983
888.000000	53.901930
887.000000	54.029018
886.000000	54.132979
885.000000	54.201633
884.000000	54.261409
883.000000	54.351743
882.000000	54.420190
881.000000	54.474494
880.000000	54.555537
879.000000	54.588883
878.000000	54.658156
877.000000	54.680766
876.000000	54.713699
875.000000	54.761086
874.000000	54.786586
873.000000	54.824268
872.000000	54.845226
871.000000	54.850904
870.000000	54.852246
869.000000	54.863602
868.000000	54.847600
867.000000	54.856892
866.000000	54.835934
865.000000	54.814460
864.000000	54.772752
863.000000	54.682727
862.000000	54.620268
861.000000	54.514654
860.000000	54.470778
859.000000	54.419571
858.000000	54.796600
857.000000	55.020800
856.000000	54.491700
855.000000	54.877300
854.000000	55.162100
853.000000	54.726100
852.000000	54.663800
851.000000	54.852000
850.000000	54.589700
849.000000	54.606400
848.000000	54.537300
847.000000	54.545900
846.000000	54.754700
845.000000	54.680200
844.000000	54.578300
843.000000	54.400400
842.000000	54.364000
841.000000	54.378500
840.000000	54.455200
839.000000	54.458700
838.000000	54.519400
837.000000	54.347200
836.000000	54.434800
835.000000	54.420900
834.000000	54.394000
833.000000	54.429300
832.000000	54.090000
831.000000	54.156500
830.000000	54.075700
829.000000	53.850000
828.000000	53.916800
827.000000	53.888800
826.000000	53.811400
825.000000	53.752800
824.000000	53.655800
823.000000	53.638200
822.000000	53.500900
821.000000	53.529800
820.000000	53.584700
819.000000	53.413700
818.000000	53.202100
817.000000	53.176200
816.000000	53.090900
815.000000	52.911400
814.000000	52.760400
813.000000	52.587300
812.000000	52.477600
811.000000	52.339700
810.000000	52.317500
809.000000	52.217500
808.000000	52.165900
807.000000	52.088100
806.000000	52.031600
805.000000	51.930200
804.000000	51.858600
803.000000	51.796500
802.000000	51.833200
801.000000	51.839500
800.000000	51.746500
799.000000	51.658900
798.000000	51.536300
797.000000	51.437600
796.000000	51.467000
795.000000	51.436500
794.000000	51.364000
793.000000	51.384800
792.000000	51.354400
791.000000	51.274300
790.000000	51.338000
789.000000	51.421600
788.000000	51.459800
787.000000	51.419300
786.000000	51.383700
785.000000	51.275800
784.000000	51.314800
783.000000	51.375600
782.000000	51.291700
781.000000	51.179300
780.000000	51.172400
779.000000	51.098500
778.000000	50.979500
777.000000	50.901300
776.000000	50.893600
775.000000	50.790500
774.000000	50.749900
773.000000	50.738300
772.000000	50.652200
771.000000	50.579300
770.000000	50.523600
769.000000	50.461000
768.000000	50.356700
767.000000	50.276900
766.000000	50.216200
765.000000	50.099500
764.000000	50.098400
763.000000	50.100900
762.000000	50.017600
761.000000	49.936400
760.000000	49.915900
759.000000	49.828000
758.000000	49.717500
757.000000	49.677600
756.000000	49.654900
755.000000	49.652200
754.000000	49.594800
753.000000	49.548500
752.000000	49.475200
751.000000	49.408000
750.000000	49.420100
749.000000	49.369500
748.000000	49.294000
747.000000	49.230500
746.000000	49.193400
745.000000	49.135300
744.000000	49.083900
743.000000	49.071600
742.000000	49.037900
741.000000	48.880200
740.000000	48.793400
739.000000	48.768200
738.000000	48.676100
737.000000	48.560500
736.000000	48.436000
735.000000	48.373700
734.000000	48.300600
733.000000	48.233500
732.000000	48.157400
731.000000	48.085800
730.000000	48.073300
729.000000	48.093400
728.000000	48.116400
727.000000	48.097800
726.000000	48.038400
725.000000	48.022800
724.000000	47.988700
723.000000	47.940600
722.000000	47.921500
721.000000	47.864700
720.000000	47.811900
719.000000	47.770200
718.000000	47.687100
717.000000	47.643700
716.000000	47.626900
715.000000	47.571600
714.000000	47.557800
713.000000	47.571600
712.000000	47.561600
711.000000	47.523800
710.000000	47.510200
709.000000	47.507500
708.000000	47.442800
707.000000	47.381300
706.000000	47.274500
705.000000	47.206700
704.000000	47.112500
703.000000	47.014100
702.000000	46.905100
701.000000	46.725900
700.000000	46.587800
699.000000	46.524600
698.000000	46.377600
697.000000	46.179300
696.000000	46.039500
695.000000	45.916500
694.000000	45.720300
693.000000	45.556600
692.000000	45.426700
691.000000	45.304400
690.000000	45.097600
689.000000	44.921000
688.000000	44.735000
687.000000	44.531800
686.000000	44.369900
685.000000	44.191300
684.000000	44.057400
683.000000	43.893000
682.000000	43.724100
681.000000	43.553600
680.000000	43.367500
679.000000	43.188200
678.000000	43.022600
677.000000	42.851100
676.000000	42.680200
675.000000	42.513300
674.000000	42.347100
673.000000	42.169200
672.000000	42.052500
671.000000	41.890800
670.000000	41.795600
669.000000	41.736700
668.000000	41.729100
667.000000	41.700100
666.000000	41.707600
665.000000	41.773400
664.000000	41.818200
663.000000	41.857500
662.000000	41.857700
661.000000	41.905600
660.000000	41.924700
659.000000	41.951400
658.000000	41.881600
657.000000	41.849300
656.000000	41.833400
655.000000	41.795900
654.000000	41.698900
653.000000	41.626500
652.000000	41.551200
651.000000	41.427300
650.000000	41.300700
649.000000	41.151800
648.000000	41.020500
647.000000	40.864100
646.000000	40.772400
645.000000	40.645600
644.000000	40.496200
643.000000	40.383200
642.000000	40.301400
641.000000	40.170100
640.000000	40.069400
639.000000	39.961300
638.000000	39.828200
637.000000	39.685200
636.000000	39.549800
635.000000	39.401300
634.000000	39.194300
633.000000	38.977400
632.000000	38.733400
631.000000	38.451100
630.000000	38.166500
629.000000	37.869600
628.000000	37.559000
627.000000	37.292300
626.000000	37.065500
625.000000	36.881200
624.000000	36.773700
623.000000	36.722700
622.000000	36.787800
621.000000	36.959200
620.000000	37.185300
619.000000	37.491200
618.000000	37.880200
617.000000	38.259700
616.000000	38.747200
615.000000	39.256300
614.000000	39.842700
613.000000	40.411700
612.000000	40.976700
611.000000	41.621100
610.000000	42.291400
609.000000	42.974200
608.000000	43.597100
607.000000	44.258900
606.000000	44.818000
605.000000	45.348400
604.000000	45.789400
603.000000	46.242900
602.000000	46.638700
601.000000	46.950900
600.000000	47.244100
599.000000	47.531900
598.000000	47.816000
597.000000	48.010500
596.000000	48.286600
595.000000	48.539400
594.000000	48.849700
593.000000	49.158400
592.000000	49.515100
591.000000	49.852500
590.000000	50.264000
589.000000	50.690700
588.000000	51.095900
587.000000	51.476000
586.000000	51.814900
585.000000	52.113300
584.000000	52.361400
583.000000	52.551700
582.000000	52.628500
581.000000	52.665100
580.000000	52.622000
579.000000	52.521700
578.000000	52.401400
577.000000	52.226600
576.000000	52.081300
575.000000	51.918000
574.000000	51.838900
573.000000	51.751500
572.000000	51.763200
571.000000	51.837700
570.000000	51.947600
569.000000	52.130600
568.000000	52.323900
567.000000	52.505600
566.000000	52.699200
565.000000	52.917400
564.000000	53.054900
563.000000	53.156500
562.000000	53.177300
561.000000	53.156100
560.000000	53.056000
559.000000	52.950600
558.000000	52.765500
557.000000	52.562100
556.000000	52.342100
555.000000	52.122300
554.000000	51.908400
553.000000	51.745700
552.000000	51.604400
551.000000	51.507300
550.000000	51.393400
549.000000	51.311800
548.000000	51.178300
547.000000	50.982000
546.000000	50.706400
545.000000	50.360800
544.000000	49.887100
543.000000	49.372000
542.000000	48.746400
541.000000	48.059900
540.000000	47.328500
539.000000	46.578000
538.000000	45.804600
537.000000	45.042500
536.000000	44.254000
535.000000	43.438000
534.000000	42.637100
533.000000	41.814400
532.000000	40.963200
531.000000	40.077300
530.000000	39.223000
529.000000	38.347400
528.000000	37.503200
527.000000	36.673100
526.000000	35.853400
525.000000	35.076500
524.000000	34.292300
523.000000	33.524800
522.000000	32.778700
521.000000	32.038600
520.000000	31.333100
519.000000	30.654200
518.000000	30.001500
517.000000	29.396600
516.000000	28.826100
515.000000	28.264900
514.000000	27.723500
513.000000	27.189500
512.000000	26.683700
511.000000	26.200800
510.000000	25.722500
509.000000	25.253700
508.000000	24.808800
507.000000	24.365500
506.000000	23.902400
505.000000	23.449000
504.000000	22.951200
503.000000	22.452900
502.000000	21.977200
501.000000	21.459100
500.000000	20.942900
499.000000	20.450500
498.000000	19.952400
497.000000	19.464300
496.000000	19.006900
495.000000	18.576700
494.000000	18.185500
493.000000	17.829200
492.000000	17.517500
491.000000	17.259700
490.000000	17.045900
489.000000	16.887000
488.000000	16.765500
487.000000	16.696600
486.000000	16.667400
485.000000	16.654900
484.000000	16.666400
483.000000	16.680500
482.000000	16.700000
481.000000	16.726200
480.000000	16.746300
479.000000	16.764200
478.000000	16.762800
477.000000	16.751100
476.000000	16.744800
475.000000	16.715000
474.000000	16.685100
473.000000	16.636200
472.000000	16.585800
471.000000	16.534700
470.000000	16.470900
469.000000	16.409600
468.000000	16.349500
467.000000	16.291600
466.000000	16.230600
465.000000	16.160800
464.000000	16.079400
463.000000	15.994800
462.000000	15.900200
461.000000	15.806500
460.000000	15.708100
459.000000	15.586100
458.000000	15.460400
457.000000	15.340900
456.000000	15.221500
455.000000	15.098000
454.000000	14.941000
453.000000	14.794100
452.000000	14.671000
451.000000	14.521200
450.000000	14.354300
449.000000	14.200100
448.000000	14.042600
447.000000	13.895100
446.000000	13.735900
445.000000	13.538600
444.000000	13.346700
443.000000	13.174800
442.000000	12.990000
441.000000	12.774900
440.000000	12.565600
439.000000	12.359800
438.000000	12.142700
437.000000	11.930500
436.000000	11.719100
435.000000	11.505000
434.000000	11.285700
433.000000	11.057300
432.000000	10.830800
431.000000	10.618600
430.000000	10.402100
429.000000	10.183200
428.000000	9.977600
427.000000	9.758700
426.000000	9.539500
425.000000	9.324400
424.000000	9.113100
423.000000	8.904400
422.000000	8.693300
421.000000	8.498900
420.000000	8.304000
419.000000	8.111200
418.000000	7.934000
417.000000	7.765800
416.000000	7.611100
415.000000	7.463800
414.000000	7.316600
413.000000	7.173400
412.000000	7.031400
411.000000	6.898600
410.000000	6.778800
409.000000	6.675200
408.000000	6.577200
407.000000	6.469700
406.000000	6.394200
405.000000	6.324400
404.000000	6.253300
403.000000	6.182500
402.000000	6.123000
401.000000	6.070000
400.000000	6.026800
399.000000	5.976700
398.000000	5.932300
397.000000	5.891600
396.000000	5.848300
395.000000	5.822000
394.000000	5.784600
393.000000	5.770600
392.000000	5.746000
391.000000	5.716200
390.000000	5.695200
389.000000	5.664400
388.000000	5.642500
387.000000	5.624500
386.000000	5.600700
385.000000	5.583200
384.000000	5.550600
383.000000	5.542200
382.000000	5.522200
381.000000	5.499300
380.000000	5.480600
379.000000	5.473100
378.000000	5.457300
377.000000	5.446900
376.000000	5.541700
375.000000	5.569400
374.000000	5.462900
373.000000	5.477200
372.000000	5.422600
371.000000	5.480800
370.000000	5.473400
369.000000	5.449000
368.000000	5.444900
367.000000	5.450300
366.000000	5.469200
365.000000	5.425600
364.000000	5.342800
363.000000	5.400500
362.000000	5.346900
361.000000	5.331500
360.000000	5.328400
359.000000	5.398500
358.000000	5.372400
357.000000	5.351300
356.000000	5.346100
355.000000	5.418500
354.000000	5.313800
353.000000	5.303200
352.000000	5.323000
351.000000	5.339300
350.000000	5.337700
349.000000	5.208800
348.000000	5.389400
347.000000	5.361900
346.000000	5.401600
345.000000	5.311500
344.000000	5.308000
343.000000	5.382100
342.000000	5.389000
341.000000	5.346000
340.000000	5.310800
339.000000	5.313400
338.000000	5.353700
337.000000	5.217700
336.000000	5.276700
335.000000	5.346700
334.000000	5.337000
333.000000	5.343200
332.000000	5.560200
331.000000	5.361000
330.000000	5.411400
329.000000	5.405900
328.000000	5.376600
327.000000	5.426800
326.000000	5.446000
325.000000	5.535800
324.000000	5.669000
323.000000	5.383600
322.000000	5.654900
321.000000	5.501000
320.000000	5.821900
319.000000	5.695600
318.000000	5.489100
317.000000	5.593700
316.000000	5.319100
315.000000	5.279100
314.000000	5.377200
313.000000	5.325900
312.000000	5.315900
311.000000	5.306000
310.000000	5.353800
309.000000	5.338500
308.000000	5.320200
307.000000	5.297400
306.000000	5.371700
305.000000	5.353000
304.000000	5.388600
303.000000	5.346900
302.000000	5.356800
301.000000	5.384900
300.000000	5.338500
299.000000	5.333300
298.000000	5.295500
297.000000	5.395200
296.000000	5.376900
295.000000	5.386500
294.000000	5.392500
293.000000	5.446400
292.000000	5.334300
291.000000	5.432300
290.000000	5.381400
289.000000	5.398200
288.000000	5.452200
287.000000	5.423900
286.000000	5.403800
285.000000	5.455700
284.000000	5.372200
283.000000	5.434300
282.000000	5.446900
281.000000	5.371000
280.000000	5.448800
279.000000	5.449400
278.000000	5.509200
277.000000	5.532700
276.000000	5.532800
275.000000	5.527400
274.000000	5.548400
273.000000	5.581600
272.000000	5.582000
271.000000	5.567400
270.000000	5.563700
269.000000	5.615400
268.000000	5.640600
267.000000	5.639600
266.000000	5.684600
265.000000	5.674600
264.000000	5.723700
263.000000	5.774500
262.000000	5.711000
261.000000	5.777900
260.000000	5.763300
259.000000	5.860700
258.000000	5.891000
257.000000	5.900600
256.000000	5.895900
255.000000	5.884500
254.000000	5.905800
253.000000	5.895200
252.000000	5.915700
251.000000	6.034000
250.000000	5.971100
