PE UV       SUBTECH     SPECTRUM    ASCII       PEDS        4.00        
   -1
CICIMAUCR0158-1.ASC
24/04/03
16:46:49.00
24/04/03
16:46:49.00
Vinicio Soto Monge
C. cupreomarginata
250,000000
1
Lambda 1050
1050L1511233
PerkinElmer UV WinLab 6.3.2.0749 / 2.02.05 Lambda 900 UV/VIS/NIR, Aug  7 2015 09:38:08

0
0
3350/servo 860,8/2
0
0
UV/VIS
1
1
1
DoubleDePol,CommonBeamDepol,RBeamAtt,SBeamAtt,60mm sphere, WB InGaAs Detector
0
0
0
0
Program
Program
3350/servo 860,8/2
3350/0,2 860,8/0,2
3350/0,2 860,8/0,2
0
15.00
 
 
 
0
 
860,8
319,2
860,8
Front
100
on
S:100 R:100
0
0
0
0
 
0
 
 
 
0
 
 
0
0
0
0
0
 
 
 
 
0
0


0
0
#HDR
-1
-1
#GR
nm
%R
1.0
0.0
2500,000000
-1,000000
2251
8
61,268000
5,280400
#DATA
2500.000000	11.343608
2499.000000	11.367128
2498.000000	11.285406
2497.000000	11.371613
2496.000000	11.215046
2495.000000	11.397625
2494.000000	11.290888
2493.000000	11.321882
2492.000000	11.340918
2491.000000	11.407391
2490.000000	11.434001
2489.000000	11.431310
2488.000000	11.367826
2487.000000	11.431908
2486.000000	11.501272
2485.000000	11.462006
2484.000000	11.516919
2483.000000	11.595252
2482.000000	11.601830
2481.000000	11.554292
2480.000000	11.607212
2479.000000	11.671294
2478.000000	11.687638
2477.000000	11.741555
2476.000000	11.798262
2475.000000	11.837528
2474.000000	11.906992
2473.000000	11.891146
2472.000000	11.974363
2471.000000	11.964396
2470.000000	12.017117
2469.000000	12.100832
2468.000000	12.126744
2467.000000	12.176674
2466.000000	12.221920
2465.000000	12.268661
2464.000000	12.320684
2463.000000	12.412472
2462.000000	12.480042
2461.000000	12.562761
2460.000000	12.624252
2459.000000	12.684546
2458.000000	12.763578
2457.000000	12.826165
2456.000000	12.901608
2455.000000	12.971271
2454.000000	13.071032
2453.000000	13.158933
2452.000000	13.254607
2451.000000	13.364932
2450.000000	13.426522
2449.000000	13.533458
2448.000000	13.627538
2447.000000	13.732282
2446.000000	13.820881
2445.000000	13.922834
2444.000000	14.018508
2443.000000	14.129032
2442.000000	14.255502
2441.000000	14.352472
2440.000000	14.454226
2439.000000	14.551096
2438.000000	14.663813
2437.000000	14.752412
2436.000000	14.849681
2435.000000	14.955022
2434.000000	15.056078
2433.000000	15.165107
2432.000000	15.262975
2431.000000	15.358450
2430.000000	15.462695
2429.000000	15.554084
2428.000000	15.650257
2427.000000	15.726298
2426.000000	15.824066
2425.000000	15.920537
2424.000000	16.005847
2423.000000	16.095143
2422.000000	16.186732
2421.000000	16.290977
2420.000000	16.385854
2419.000000	16.460700
2418.000000	16.542322
2417.000000	16.626735
2416.000000	16.695700
2415.000000	16.755298
2414.000000	16.834628
2413.000000	16.902198
2412.000000	16.959503
2411.000000	17.005148
2410.000000	17.075110
2409.000000	17.131916
2408.000000	17.177661
2407.000000	17.232076
2406.000000	17.283600
2405.000000	17.327750
2404.000000	17.376185
2403.000000	17.411366
2402.000000	17.457708
2401.000000	17.492988
2400.000000	17.532653
2399.000000	17.580889
2398.000000	17.610289
2397.000000	17.646864
2396.000000	17.665003
2395.000000	17.693904
2394.000000	17.728586
2393.000000	17.744632
2392.000000	17.788383
2391.000000	17.822168
2390.000000	17.827350
2389.000000	17.834426
2388.000000	17.861036
2387.000000	17.869507
2386.000000	17.880370
2385.000000	17.894622
2384.000000	17.892828
2383.000000	17.901299
2382.000000	17.909969
2381.000000	17.909371
2380.000000	17.912660
2379.000000	17.919337
2378.000000	17.917544
2377.000000	17.909272
2376.000000	17.886250
2375.000000	17.887147
2374.000000	17.900502
2373.000000	17.883559
2372.000000	17.866916
2371.000000	17.865321
2370.000000	17.861135
2369.000000	17.843794
2368.000000	17.839708
2367.000000	17.839210
2366.000000	17.831835
2365.000000	17.833629
2364.000000	17.824560
2363.000000	17.822866
2362.000000	17.828546
2361.000000	17.827849
2360.000000	17.831935
2359.000000	17.817484
2358.000000	17.803930
2357.000000	17.799645
2356.000000	17.788283
2355.000000	17.777819
2354.000000	17.759880
2353.000000	17.747522
2352.000000	17.736260
2351.000000	17.711843
2350.000000	17.688423
2349.000000	17.674271
2348.000000	17.670384
2347.000000	17.652346
2346.000000	17.631018
2345.000000	17.612880
2344.000000	17.607199
2343.000000	17.595539
2342.000000	17.575208
2341.000000	17.551888
2340.000000	17.546008
2339.000000	17.534347
2338.000000	17.520494
2337.000000	17.504250
2336.000000	17.507937
2335.000000	17.504150
2334.000000	17.496476
2333.000000	17.484118
2332.000000	17.486111
2331.000000	17.489201
2330.000000	17.479833
2329.000000	17.487407
2328.000000	17.487706
2327.000000	17.481627
2326.000000	17.496974
2325.000000	17.499964
2324.000000	17.506741
2323.000000	17.509831
2322.000000	17.501060
2321.000000	17.492191
2320.000000	17.473454
2319.000000	17.455117
2318.000000	17.424222
2317.000000	17.386450
2316.000000	17.363728
2315.000000	17.319977
2314.000000	17.284896
2313.000000	17.228587
2312.000000	17.195799
2311.000000	17.132415
2310.000000	17.069628
2309.000000	17.018602
2308.000000	16.959503
2307.000000	16.894524
2306.000000	16.837119
2305.000000	16.800245
2304.000000	16.744335
2303.000000	16.684638
2302.000000	16.642182
2301.000000	16.575310
2300.000000	16.532655
2299.000000	16.486512
2298.000000	16.441366
2297.000000	16.416949
2296.000000	16.365922
2295.000000	16.336622
2294.000000	16.309016
2293.000000	16.263770
2292.000000	16.262674
2291.000000	16.229088
2290.000000	16.198592
2289.000000	16.154541
2288.000000	16.144575
2287.000000	16.115873
2286.000000	16.087071
2285.000000	16.079098
2284.000000	16.045413
2283.000000	16.014617
2282.000000	16.020996
2281.000000	15.983822
2280.000000	15.970268
2279.000000	15.932596
2278.000000	15.902300
2277.000000	15.875690
2276.000000	15.824863
2275.000000	15.791975
2274.000000	15.766262
2273.000000	15.709356
2272.000000	15.661917
2271.000000	15.624744
2270.000000	15.578102
2269.000000	15.554682
2268.000000	15.505051
2267.000000	15.473558
2266.000000	15.453227
2265.000000	15.435687
2264.000000	15.423130
2263.000000	15.406785
2262.000000	15.416353
2261.000000	15.423728
2260.000000	15.432099
2259.000000	15.445753
2258.000000	15.473159
2257.000000	15.524385
2256.000000	15.550197
2255.000000	15.595942
2254.000000	15.645972
2253.000000	15.712645
2252.000000	15.760582
2251.000000	15.827952
2250.000000	15.859844
2249.000000	15.915255
2248.000000	15.987809
2247.000000	16.046808
2246.000000	16.071524
2245.000000	16.131221
2244.000000	16.173078
2243.000000	16.218922
2242.000000	16.246429
2241.000000	16.272241
2240.000000	16.311607
2239.000000	16.316490
2238.000000	16.330343
2237.000000	16.331440
2236.000000	16.327154
2235.000000	16.326357
2234.000000	16.298252
2233.000000	16.250515
2232.000000	16.208657
2231.000000	16.172680
2230.000000	16.092154
2229.000000	16.016810
2228.000000	15.958807
2227.000000	15.861439
2226.000000	15.763970
2225.000000	15.657034
2224.000000	15.540829
2223.000000	15.424724
2222.000000	15.314998
2221.000000	15.169592
2220.000000	15.051693
2219.000000	14.931104
2218.000000	14.780715
2217.000000	14.673978
2216.000000	14.540134
2215.000000	14.464092
2214.000000	14.372604
2213.000000	14.283706
2212.000000	14.243144
2211.000000	14.201486
2210.000000	14.200689
2209.000000	14.205572
2208.000000	14.239257
2207.000000	14.291380
2206.000000	14.403798
2205.000000	14.520202
2204.000000	14.657335
2203.000000	14.786695
2202.000000	14.977944
2201.000000	15.169891
2200.000000	15.368615
2199.000000	15.583484
2198.000000	15.783902
2197.000000	16.027872
2196.000000	16.224902
2195.000000	16.426117
2194.000000	16.627233
2193.000000	16.834329
2192.000000	17.009034
2191.000000	17.166499
2190.000000	17.317684
2189.000000	17.477740
2188.000000	17.618660
2187.000000	17.711843
2186.000000	17.819975
2185.000000	17.922028
2184.000000	18.021590
2183.000000	18.070722
2182.000000	18.142080
2181.000000	18.211344
2180.000000	18.254398
2179.000000	18.297152
2178.000000	18.363327
2177.000000	18.408872
2176.000000	18.451726
2175.000000	18.487405
2174.000000	18.519097
2173.000000	18.554975
2172.000000	18.612878
2171.000000	18.647460
2170.000000	18.687923
2169.000000	18.740643
2168.000000	18.820472
2167.000000	18.872395
2166.000000	18.911462
2165.000000	18.980029
2164.000000	19.043214
2163.000000	19.088859
2162.000000	19.159219
2161.000000	19.235759
2160.000000	19.315587
2159.000000	19.392027
2158.000000	19.494279
2157.000000	19.575503
2156.000000	19.657723
2155.000000	19.757185
2154.000000	19.855351
2153.000000	19.964978
2152.000000	20.067430
2151.000000	20.182139
2150.000000	20.282000
2149.000000	20.375980
2148.000000	20.507831
2147.000000	20.617957
2146.000000	20.707352
2145.000000	20.827344
2144.000000	20.934181
2143.000000	21.041316
2142.000000	21.156425
2141.000000	21.268344
2140.000000	21.356245
2139.000000	21.439860
2138.000000	21.542013
2137.000000	21.641574
2136.000000	21.725090
2135.000000	21.815782
2134.000000	21.901590
2133.000000	21.962084
2132.000000	22.031448
2131.000000	22.095032
2130.000000	22.164495
2129.000000	22.228079
2128.000000	22.286181
2127.000000	22.341094
2126.000000	22.403881
2125.000000	22.440556
2124.000000	22.469856
2123.000000	22.504439
2122.000000	22.553173
2121.000000	22.601708
2120.000000	22.631706
2119.000000	22.646057
2118.000000	22.669477
2117.000000	22.695090
2116.000000	22.701568
2115.000000	22.718211
2114.000000	22.748708
2113.000000	22.753292
2112.000000	22.757179
2111.000000	22.770633
2110.000000	22.777510
2109.000000	22.766547
2108.000000	22.766148
2107.000000	22.765550
2106.000000	22.770434
2105.000000	22.770633
2104.000000	22.759272
2103.000000	22.766447
2102.000000	22.755086
2101.000000	22.746515
2100.000000	22.755684
2099.000000	22.754388
2098.000000	22.753790
2097.000000	22.741731
2096.000000	22.736649
2095.000000	22.744422
2094.000000	22.746116
2093.000000	22.738443
2092.000000	22.737047
2091.000000	22.746515
2090.000000	22.737346
2089.000000	22.730071
2088.000000	22.745319
2087.000000	22.754089
2086.000000	22.734357
2085.000000	22.715521
2084.000000	22.690306
2083.000000	22.667085
2082.000000	22.637785
2081.000000	22.604797
2080.000000	22.565332
2079.000000	22.501050
2078.000000	22.447732
2077.000000	22.391124
2076.000000	22.330431
2075.000000	22.267345
2074.000000	22.198878
2073.000000	22.118751
2072.000000	22.017495
2071.000000	21.921422
2070.000000	21.834219
2069.000000	21.746517
2068.000000	21.641574
2067.000000	21.554172
2066.000000	21.445541
2065.000000	21.355647
2064.000000	21.251601
2063.000000	21.147655
2062.000000	21.052279
2061.000000	20.976038
2060.000000	20.905777
2059.000000	20.820667
2058.000000	20.765754
2057.000000	20.712635
2056.000000	20.670079
2055.000000	20.640480
2054.000000	20.618854
2053.000000	20.624833
2052.000000	20.632009
2051.000000	20.660811
2050.000000	20.698981
2049.000000	20.757382
2048.000000	20.825650
2047.000000	20.900994
2046.000000	20.993678
2045.000000	21.089951
2044.000000	21.178948
2043.000000	21.286383
2042.000000	21.395910
2041.000000	21.491684
2040.000000	21.582974
2039.000000	21.686023
2038.000000	21.766848
2037.000000	21.858237
2036.000000	21.947932
2035.000000	22.029554
2034.000000	22.104898
2033.000000	22.154130
2032.000000	22.228777
2031.000000	22.302127
2030.000000	22.350064
2029.000000	22.418930
2028.000000	22.457299
2027.000000	22.505037
2026.000000	22.533639
2025.000000	22.588453
2024.000000	22.612172
2023.000000	22.644761
2022.000000	22.673364
2021.000000	22.698578
2020.000000	22.720205
2019.000000	22.728576
2018.000000	22.742130
2017.000000	22.749007
2016.000000	22.762760
2015.000000	22.771032
2014.000000	22.751797
2013.000000	22.743924
2012.000000	22.726583
2011.000000	22.696884
2010.000000	22.673264
2009.000000	22.639479
2008.000000	22.632403
2007.000000	22.578985
2006.000000	22.558555
2005.000000	22.521580
2004.000000	22.477331
2003.000000	22.401090
2002.000000	22.356044
2001.000000	22.284985
2000.000000	22.236450
1999.000000	22.157918
1998.000000	22.093238
1997.000000	22.009522
1996.000000	21.944842
1995.000000	21.860330
1994.000000	21.781797
1993.000000	21.694594
1992.000000	21.614566
1991.000000	21.527761
1990.000000	21.444644
1989.000000	21.364118
1988.000000	21.269341
1987.000000	21.193299
1986.000000	21.058259
1985.000000	20.982018
1984.000000	20.905877
1983.000000	20.799439
1982.000000	20.702967
1981.000000	20.612176
1980.000000	20.521684
1979.000000	20.440959
1978.000000	20.330933
1977.000000	20.252002
1976.000000	20.150248
1975.000000	20.066533
1974.000000	19.979030
1973.000000	19.915247
1972.000000	19.793462
1971.000000	19.715726
1970.000000	19.635698
1969.000000	19.552880
1968.000000	19.476739
1967.000000	19.380965
1966.000000	19.321766
1965.000000	19.231274
1964.000000	19.166694
1963.000000	19.055173
1962.000000	18.964880
1961.000000	18.918040
1960.000000	18.818578
1959.000000	18.741441
1958.000000	18.644969
1957.000000	18.563048
1956.000000	18.501158
1955.000000	18.401995
1954.000000	18.306819
1953.000000	18.229183
1952.000000	18.142578
1951.000000	18.085971
1950.000000	18.039230
1949.000000	17.958903
1948.000000	17.884356
1947.000000	17.801339
1946.000000	17.756591
1945.000000	17.700681
1944.000000	17.641383
1943.000000	17.585075
1942.000000	17.548300
1941.000000	17.516109
1940.000000	17.493187
1939.000000	17.461993
1938.000000	17.425916
1937.000000	17.426315
1936.000000	17.410170
1935.000000	17.389939
1934.000000	17.422229
1933.000000	17.417545
1932.000000	17.471361
1931.000000	17.510728
1930.000000	17.526474
1929.000000	17.589559
1928.000000	17.658525
1927.000000	17.708754
1926.000000	17.778517
1925.000000	17.865521
1924.000000	17.988203
1923.000000	18.065042
1922.000000	18.190415
1921.000000	18.342797
1920.000000	18.493086
1919.000000	18.612579
1918.000000	18.778116
1917.000000	18.924019
1916.000000	19.092247
1915.000000	19.274627
1914.000000	19.499262
1913.000000	19.752999
1912.000000	19.992684
1911.000000	20.217519
1910.000000	20.467170
1909.000000	20.694197
1908.000000	20.961588
1907.000000	21.276715
1906.000000	21.633701
1905.000000	22.024372
1904.000000	22.410857
1903.000000	22.759969
1902.000000	23.132103
1901.000000	23.537524
1900.000000	23.986596
1899.000000	24.456896
1898.000000	24.892315
1897.000000	25.373976
1896.000000	25.798532
1895.000000	26.207640
1894.000000	26.692391
1893.000000	27.190098
1892.000000	27.721390
1891.000000	28.262848
1890.000000	28.773511
1889.000000	29.232649
1888.000000	29.731452
1887.000000	30.189793
1886.000000	30.652020
1885.000000	31.134180
1884.000000	31.597105
1883.000000	32.016080
1882.000000	32.406352
1881.000000	32.797720
1880.000000	33.154507
1879.000000	33.508702
1878.000000	33.853429
1877.000000	34.196063
1876.000000	34.527635
1875.000000	34.856217
1874.000000	35.162276
1873.000000	35.450695
1872.000000	35.715693
1871.000000	35.946010
1870.000000	36.131678
1869.000000	36.307978
1868.000000	36.467137
1867.000000	36.570884
1866.000000	36.669050
1865.000000	36.763728
1864.000000	36.860000
1863.000000	36.973215
1862.000000	37.116029
1861.000000	37.244193
1860.000000	37.363886
1859.000000	37.459062
1858.000000	37.533708
1857.000000	37.598488
1856.000000	37.655394
1855.000000	37.708414
1854.000000	37.753062
1853.000000	37.773692
1852.000000	37.801099
1851.000000	37.849534
1850.000000	37.911822
1849.000000	37.993544
1848.000000	38.026033
1847.000000	38.005005
1846.000000	37.956071
1845.000000	37.918400
1844.000000	37.917802
1843.000000	37.950291
1842.000000	37.984873
1841.000000	37.990554
1840.000000	37.978096
1839.000000	37.950291
1838.000000	37.921090
1837.000000	37.903949
1836.000000	37.857108
1835.000000	37.786648
1834.000000	37.729442
1833.000000	37.690375
1832.000000	37.672337
1831.000000	37.663666
1830.000000	37.632572
1829.000000	37.599385
1828.000000	37.550451
1827.000000	37.505006
1826.000000	37.479592
1825.000000	37.448997
1824.000000	37.432552
1823.000000	37.473114
1822.000000	37.516168
1821.000000	37.528327
1820.000000	37.509491
1819.000000	37.449395
1818.000000	37.413717
1817.000000	37.414713
1816.000000	37.426672
1815.000000	37.410428
1814.000000	37.377141
1813.000000	37.374151
1812.000000	37.362192
1811.000000	37.345847
1810.000000	37.291632
1809.000000	37.264723
1808.000000	37.260936
1807.000000	37.245290
1806.000000	37.221570
1805.000000	37.194562
1804.000000	37.167355
1803.000000	37.154498
1802.000000	37.161375
1801.000000	37.142738
1800.000000	37.102475
1799.000000	37.063508
1798.000000	37.038991
1797.000000	37.022149
1796.000000	37.000423
1795.000000	36.989958
1794.000000	36.972717
1793.000000	36.956073
1792.000000	36.937636
1791.000000	36.931457
1790.000000	36.926375
1789.000000	36.920096
1788.000000	36.913718
1787.000000	36.923983
1786.000000	36.941124
1785.000000	36.938234
1784.000000	36.915511
1783.000000	36.905745
1782.000000	36.893187
1781.000000	36.887208
1780.000000	36.885713
1779.000000	36.870963
1778.000000	36.842360
1777.000000	36.811565
1776.000000	36.787248
1775.000000	36.768711
1774.000000	36.743098
1773.000000	36.708316
1772.000000	36.679016
1771.000000	36.639152
1770.000000	36.602676
1769.000000	36.571382
1768.000000	36.537099
1767.000000	36.507400
1766.000000	36.483581
1765.000000	36.450194
1764.000000	36.410928
1763.000000	36.399766
1762.000000	36.389302
1761.000000	36.368772
1760.000000	36.353324
1759.000000	36.329904
1758.000000	36.346746
1757.000000	36.347145
1756.000000	36.320735
1755.000000	36.301102
1754.000000	36.289641
1753.000000	36.279675
1752.000000	36.283860
1751.000000	36.266519
1750.000000	36.245591
1749.000000	36.222868
1748.000000	36.176027
1747.000000	36.149617
1746.000000	36.104670
1745.000000	36.063311
1744.000000	36.011288
1743.000000	35.951292
1742.000000	35.909135
1741.000000	35.845352
1740.000000	35.796817
1739.000000	35.739811
1738.000000	35.700146
1737.000000	35.651512
1736.000000	35.620318
1735.000000	35.596698
1734.000000	35.562614
1733.000000	35.517268
1732.000000	35.511687
1731.000000	35.470129
1730.000000	35.446011
1729.000000	35.422192
1728.000000	35.386713
1727.000000	35.366581
1726.000000	35.358508
1725.000000	35.347247
1724.000000	35.345453
1723.000000	35.391397
1722.000000	35.450994
1721.000000	35.520557
1720.000000	35.642841
1719.000000	35.795223
1718.000000	35.949000
1717.000000	36.118324
1716.000000	36.265124
1715.000000	36.429365
1714.000000	36.595799
1713.000000	36.706522
1712.000000	36.831198
1711.000000	36.943118
1710.000000	37.018262
1709.000000	37.117823
1708.000000	37.196456
1707.000000	37.241702
1706.000000	37.293625
1705.000000	37.321032
1704.000000	37.358205
1703.000000	37.372756
1702.000000	37.386310
1701.000000	37.390994
1700.000000	37.402056
1699.000000	37.396575
1698.000000	37.389698
1697.000000	37.376742
1696.000000	37.360498
1695.000000	37.332991
1694.000000	37.309671
1693.000000	37.253761
1692.000000	37.205325
1691.000000	37.146924
1690.000000	37.123305
1689.000000	37.112342
1688.000000	37.149914
1687.000000	37.178218
1686.000000	37.276184
1685.000000	37.384516
1684.000000	37.550053
1683.000000	37.710607
1682.000000	37.876243
1681.000000	38.056031
1680.000000	38.227149
1679.000000	38.391390
1678.000000	38.554037
1677.000000	38.694061
1676.000000	38.840861
1675.000000	38.973311
1674.000000	39.124496
1673.000000	39.260534
1672.000000	39.392684
1671.000000	39.518356
1670.000000	39.660473
1669.000000	39.800397
1668.000000	39.945503
1667.000000	40.056326
1666.000000	40.172531
1665.000000	40.278869
1664.000000	40.385506
1663.000000	40.500714
1662.000000	40.605159
1661.000000	40.685286
1660.000000	40.761328
1659.000000	40.831190
1658.000000	40.917198
1657.000000	40.945302
1656.000000	41.016858
1655.000000	41.043667
1654.000000	41.060510
1653.000000	41.080243
1652.000000	41.089810
1651.000000	41.115622
1650.000000	41.109344
1649.000000	41.102866
1648.000000	41.082136
1647.000000	41.083631
1646.000000	41.064197
1645.000000	41.054431
1644.000000	41.036492
1643.000000	41.017855
1642.000000	41.008985
1641.000000	40.997425
1640.000000	40.986761
1639.000000	40.965433
1638.000000	40.947993
1637.000000	40.908926
1636.000000	40.890787
1635.000000	40.857102
1634.000000	40.851720
1633.000000	40.823716
1632.000000	40.779964
1631.000000	40.736014
1630.000000	40.704421
1629.000000	40.655986
1628.000000	40.619909
1627.000000	40.596389
1626.000000	40.544266
1625.000000	40.493340
1624.000000	40.467428
1623.000000	40.412415
1622.000000	40.367866
1621.000000	40.331091
1620.000000	40.314049
1619.000000	40.296609
1618.000000	40.257243
1617.000000	40.217677
1616.000000	40.192862
1615.000000	40.159874
1614.000000	40.110143
1613.000000	40.078152
1612.000000	40.030614
1611.000000	39.991148
1610.000000	39.945703
1609.000000	39.896570
1608.000000	39.840461
1607.000000	39.782956
1606.000000	39.719771
1605.000000	39.649112
1604.000000	39.589415
1603.000000	39.529518
1602.000000	39.455969
1601.000000	39.390093
1600.000000	39.329698
1599.000000	39.281363
1598.000000	39.208810
1597.000000	39.135559
1596.000000	39.083735
1595.000000	39.030915
1594.000000	38.982081
1593.000000	38.918697
1592.000000	38.871956
1591.000000	38.826909
1590.000000	38.788340
1589.000000	38.746084
1588.000000	38.682998
1587.000000	38.628085
1586.000000	38.589815
1585.000000	38.549253
1584.000000	38.506200
1583.000000	38.465538
1582.000000	38.430258
1581.000000	38.390792
1580.000000	38.353918
1579.000000	38.315847
1578.000000	38.282860
1577.000000	38.260735
1576.000000	38.242796
1575.000000	38.227747
1574.000000	38.210904
1573.000000	38.199443
1572.000000	38.194859
1571.000000	38.176422
1570.000000	38.170741
1569.000000	38.178814
1568.000000	38.180209
1567.000000	38.179810
1566.000000	38.173731
1565.000000	38.176222
1564.000000	38.171538
1563.000000	38.153001
1562.000000	38.142836
1561.000000	38.135461
1560.000000	38.111443
1559.000000	38.076960
1558.000000	38.039288
1557.000000	38.009589
1556.000000	37.965240
1555.000000	37.903251
1554.000000	37.843355
1553.000000	37.765918
1552.000000	37.698946
1551.000000	37.635362
1550.000000	37.561015
1549.000000	37.488662
1548.000000	37.417205
1547.000000	37.340765
1546.000000	37.263328
1545.000000	37.194961
1544.000000	37.131776
1543.000000	37.080052
1542.000000	37.034108
1541.000000	36.989659
1540.000000	36.948798
1539.000000	36.898669
1538.000000	36.844752
1537.000000	36.807180
1536.000000	36.768213
1535.000000	36.719379
1534.000000	36.660678
1533.000000	36.610051
1532.000000	36.561316
1531.000000	36.495042
1530.000000	36.438235
1529.000000	36.383820
1528.000000	36.342561
1527.000000	36.294325
1526.000000	36.220875
1525.000000	36.156693
1524.000000	36.093907
1523.000000	36.028728
1522.000000	35.967038
1521.000000	35.907341
1520.000000	35.842562
1519.000000	35.791336
1518.000000	35.738117
1517.000000	35.661577
1516.000000	35.580653
1515.000000	35.527035
1514.000000	35.466242
1513.000000	35.396280
1512.000000	35.328710
1511.000000	35.276089
1510.000000	35.209914
1509.000000	35.142045
1508.000000	35.058130
1507.000000	34.999330
1506.000000	34.944716
1505.000000	34.881332
1504.000000	34.824126
1503.000000	34.770011
1502.000000	34.707025
1501.000000	34.656696
1500.000000	34.615436
1499.000000	34.581751
1498.000000	34.535708
1497.000000	34.505411
1496.000000	34.452989
1495.000000	34.429569
1494.000000	34.408540
1493.000000	34.403856
1492.000000	34.406846
1491.000000	34.383824
1490.000000	34.378343
1489.000000	34.377247
1488.000000	34.380835
1487.000000	34.384921
1486.000000	34.373659
1485.000000	34.374656
1484.000000	34.369374
1483.000000	34.385618
1482.000000	34.381931
1481.000000	34.383226
1480.000000	34.372862
1479.000000	34.386017
1478.000000	34.401963
1477.000000	34.410633
1476.000000	34.414321
1475.000000	34.414221
1474.000000	34.467041
1473.000000	34.495943
1472.000000	34.517968
1471.000000	34.569592
1470.000000	34.577466
1469.000000	34.588229
1468.000000	34.616533
1467.000000	34.687392
1466.000000	34.705630
1465.000000	34.747687
1464.000000	34.815257
1463.000000	34.850337
1462.000000	34.894288
1461.000000	34.935547
1460.000000	35.005609
1459.000000	35.051652
1458.000000	35.121913
1457.000000	35.176926
1456.000000	35.238915
1455.000000	35.292234
1454.000000	35.343559
1453.000000	35.425780
1452.000000	35.507302
1451.000000	35.590021
1450.000000	35.626995
1449.000000	35.645034
1448.000000	35.712604
1447.000000	35.796120
1446.000000	35.895183
1445.000000	35.944116
1444.000000	35.970825
1443.000000	36.032316
1442.000000	36.102577
1441.000000	36.210410
1440.000000	36.256852
1439.000000	36.333392
1438.000000	36.421392
1437.000000	36.482485
1436.000000	36.567794
1435.000000	36.665960
1434.000000	36.773196
1433.000000	36.870664
1432.000000	36.985673
1431.000000	37.085533
1430.000000	37.163169
1429.000000	37.280669
1428.000000	37.420493
1427.000000	37.535502
1426.000000	37.667653
1425.000000	37.848238
1424.000000	38.023741
1423.000000	38.164263
1422.000000	38.307775
1421.000000	38.481484
1420.000000	38.724557
1419.000000	38.901654
1418.000000	39.079749
1417.000000	39.222862
1416.000000	39.481582
1415.000000	39.758739
1414.000000	40.000018
1413.000000	40.202629
1412.000000	40.416900
1411.000000	40.692362
1410.000000	40.967128
1409.000000	41.278867
1408.000000	41.506991
1407.000000	41.784945
1406.000000	42.035094
1405.000000	42.313447
1404.000000	42.491940
1403.000000	42.739797
1402.000000	43.037285
1401.000000	43.355303
1400.000000	43.562897
1399.000000	43.669534
1398.000000	43.790024
1397.000000	44.042166
1396.000000	44.282748
1395.000000	44.414500
1394.000000	44.497318
1393.000000	44.590002
1392.000000	44.722850
1391.000000	44.800387
1390.000000	44.892374
1389.000000	45.043460
1388.000000	45.246270
1387.000000	45.316929
1386.000000	45.442901
1385.000000	45.640429
1384.000000	45.910111
1383.000000	46.132056
1382.000000	46.406523
1381.000000	46.688962
1380.000000	46.972696
1379.000000	47.431037
1378.000000	47.892766
1377.000000	48.434722
1376.000000	48.986944
1375.000000	49.532388
1374.000000	50.099060
1373.000000	50.653674
1372.000000	51.130053
1371.000000	51.530790
1370.000000	51.833759
1369.000000	52.110218
1368.000000	52.364055
1367.000000	52.523512
1366.000000	52.706589
1365.000000	52.879102
1364.000000	53.013944
1363.000000	53.116196
1362.000000	53.277647
1361.000000	53.364352
1360.000000	53.387971
1359.000000	53.436905
1358.000000	53.500787
1357.000000	53.613803
1356.000000	53.730506
1355.000000	53.828772
1354.000000	53.946172
1353.000000	54.029389
1352.000000	54.169313
1351.000000	54.322392
1350.000000	54.483843
1349.000000	54.645593
1348.000000	54.816312
1347.000000	54.959325
1346.000000	55.106325
1345.000000	55.264288
1344.000000	55.427234
1343.000000	55.563769
1342.000000	55.695322
1341.000000	55.858566
1340.000000	56.002776
1339.000000	56.124761
1338.000000	56.256911
1337.000000	56.390556
1336.000000	56.503771
1335.000000	56.612601
1334.000000	56.736579
1333.000000	56.839429
1332.000000	56.928227
1331.000000	57.021709
1330.000000	57.117683
1329.000000	57.208573
1328.000000	57.296973
1327.000000	57.369426
1326.000000	57.449354
1325.000000	57.527787
1324.000000	57.602334
1323.000000	57.671698
1322.000000	57.735879
1321.000000	57.804446
1320.000000	57.854576
1319.000000	57.918159
1318.000000	57.974169
1317.000000	58.022604
1316.000000	58.072235
1315.000000	58.125554
1314.000000	58.173790
1313.000000	58.215847
1312.000000	58.261192
1311.000000	58.301156
1310.000000	58.338131
1309.000000	58.373710
1308.000000	58.402711
1307.000000	58.437393
1306.000000	58.472175
1305.000000	58.496392
1304.000000	58.504963
1303.000000	58.526988
1302.000000	58.550907
1301.000000	58.562268
1300.000000	58.576520
1299.000000	58.582200
1298.000000	58.587084
1297.000000	58.604225
1296.000000	58.611700
1295.000000	58.611501
1294.000000	58.615387
1293.000000	58.607813
1292.000000	58.607016
1291.000000	58.611401
1290.000000	58.608311
1289.000000	58.591170
1288.000000	58.566155
1287.000000	58.557983
1286.000000	58.550209
1285.000000	58.534164
1284.000000	58.525792
1283.000000	58.517321
1282.000000	58.505760
1281.000000	58.488021
1280.000000	58.465398
1279.000000	58.444568
1278.000000	58.436496
1277.000000	58.442276
1276.000000	58.438190
1275.000000	58.439884
1274.000000	58.444469
1273.000000	58.449552
1272.000000	58.446263
1271.000000	58.462806
1270.000000	58.481842
1269.000000	58.489914
1268.000000	58.499482
1267.000000	58.504764
1266.000000	58.508650
1265.000000	58.520909
1264.000000	58.519215
1263.000000	58.520610
1262.000000	58.520012
1261.000000	58.508152
1260.000000	58.512338
1259.000000	58.496093
1258.000000	58.496492
1257.000000	58.496093
1256.000000	58.482041
1255.000000	58.441678
1254.000000	58.418956
1253.000000	58.399721
1252.000000	58.373510
1251.000000	58.349990
1250.000000	58.317301
1249.000000	58.284214
1248.000000	58.224118
1247.000000	58.193024
1246.000000	58.175185
1245.000000	58.147180
1244.000000	58.110505
1243.000000	58.080108
1242.000000	58.070342
1241.000000	58.031275
1240.000000	58.006459
1239.000000	57.994799
1238.000000	57.980248
1237.000000	57.971578
1236.000000	57.974966
1235.000000	57.979351
1234.000000	57.969983
1233.000000	57.963306
1232.000000	57.940982
1231.000000	57.915070
1230.000000	57.919953
1229.000000	57.897131
1228.000000	57.890952
1227.000000	57.877697
1226.000000	57.840822
1225.000000	57.811721
1224.000000	57.801755
1223.000000	57.768469
1222.000000	57.744052
1221.000000	57.716944
1220.000000	57.677279
1219.000000	57.642597
1218.000000	57.611303
1217.000000	57.567951
1216.000000	57.549215
1215.000000	57.503968
1214.000000	57.455832
1213.000000	57.411284
1212.000000	57.368729
1211.000000	57.305543
1210.000000	57.239070
1209.000000	57.212859
1208.000000	57.158444
1207.000000	57.101139
1206.000000	57.041940
1205.000000	56.968988
1204.000000	56.938891
1203.000000	56.868929
1202.000000	56.814215
1201.000000	56.768371
1200.000000	56.700901
1199.000000	56.648678
1198.000000	56.585991
1197.000000	56.521112
1196.000000	56.459721
1195.000000	56.407897
1194.000000	56.345011
1193.000000	56.264286
1192.000000	56.196915
1191.000000	56.136521
1190.000000	56.084697
1189.000000	56.045231
1188.000000	56.013838
1187.000000	56.016329
1186.000000	55.998291
1185.000000	56.022110
1184.000000	56.036162
1183.000000	56.071243
1182.000000	56.115392
1181.000000	56.172996
1180.000000	56.229205
1179.000000	56.295679
1178.000000	56.382284
1177.000000	56.427630
1176.000000	56.500781
1175.000000	56.575029
1174.000000	56.621770
1173.000000	56.711863
1172.000000	56.771261
1171.000000	56.867633
1170.000000	56.963208
1169.000000	57.053999
1168.000000	57.168211
1167.000000	57.268868
1166.000000	57.393644
1165.000000	57.520512
1164.000000	57.613994
1163.000000	57.732491
1162.000000	57.888859
1161.000000	58.002771
1160.000000	58.116186
1159.000000	58.231095
1158.000000	58.364939
1157.000000	58.444967
1156.000000	58.545027
1155.000000	58.647378
1154.000000	58.736376
1153.000000	58.809627
1152.000000	58.878094
1151.000000	58.938787
1150.000000	59.017619
1149.000000	59.078013
1148.000000	59.159237
1147.000000	59.226409
1146.000000	59.315904
1145.000000	59.378192
1144.000000	59.454533
1143.000000	59.519511
1142.000000	59.581899
1141.000000	59.685547
1140.000000	59.774843
1139.000000	59.870717
1138.000000	59.991107
1137.000000	60.098043
1136.000000	60.247335
1135.000000	60.359653
1134.000000	60.438385
1133.000000	60.466290
1132.000000	60.542332
1131.000000	60.629236
1130.000000	60.724612
1129.000000	60.794873
1128.000000	60.841414
1127.000000	60.904699
1126.000000	60.963001
1125.000000	60.984826
1124.000000	61.008944
1123.000000	61.025986
1122.000000	61.047015
1121.000000	61.041633
1120.000000	61.045719
1119.000000	61.060270
1118.000000	61.056981
1117.000000	61.051599
1116.000000	61.041533
1115.000000	61.024093
1114.000000	61.018113
1113.000000	61.006253
1112.000000	61.001171
1111.000000	60.997782
1110.000000	60.981637
1109.000000	60.977352
1108.000000	60.957420
1107.000000	60.949746
1106.000000	60.946955
1105.000000	60.944962
1104.000000	60.927222
1103.000000	60.920844
1102.000000	60.901609
1101.000000	60.896327
1100.000000	60.885464
1099.000000	60.864635
1098.000000	60.850583
1097.000000	60.827362
1096.000000	60.800553
1095.000000	60.801949
1094.000000	60.786401
1093.000000	60.760091
1092.000000	60.721522
1091.000000	60.695112
1090.000000	60.685445
1089.000000	60.668104
1088.000000	60.642790
1087.000000	60.607410
1086.000000	60.595949
1085.000000	60.565852
1084.000000	60.534658
1083.000000	60.486721
1082.000000	60.462703
1081.000000	60.443368
1080.000000	60.412972
1079.000000	60.382775
1078.000000	60.344804
1077.000000	60.327861
1076.000000	60.292083
1075.000000	60.253913
1074.000000	60.213849
1073.000000	60.193917
1072.000000	60.167607
1071.000000	60.140100
1070.000000	60.106514
1069.000000	60.054890
1068.000000	60.016720
1067.000000	59.984828
1066.000000	59.956325
1065.000000	59.919351
1064.000000	59.878191
1063.000000	59.843410
1062.000000	59.804641
1061.000000	59.774145
1060.000000	59.733185
1059.000000	59.685846
1058.000000	59.660532
1057.000000	59.634421
1056.000000	59.597546
1055.000000	59.557881
1054.000000	59.529378
1053.000000	59.506257
1052.000000	59.456924
1051.000000	59.406297
1050.000000	59.381581
1049.000000	59.363741
1048.000000	59.330754
1047.000000	59.288298
1046.000000	59.253915
1045.000000	59.233186
1044.000000	59.201394
1043.000000	59.174087
1042.000000	59.135020
1041.000000	59.102231
1040.000000	59.072632
1039.000000	59.031272
1038.000000	58.994597
1037.000000	58.968885
1036.000000	58.941478
1035.000000	58.898524
1034.000000	58.854574
1033.000000	58.816204
1032.000000	58.784014
1031.000000	58.739764
1030.000000	58.700298
1029.000000	58.674387
1028.000000	58.626151
1027.000000	58.580008
1026.000000	58.560972
1025.000000	58.524696
1024.000000	58.481842
1023.000000	58.444469
1022.000000	58.390652
1021.000000	58.344110
1020.000000	58.311023
1019.000000	58.264282
1018.000000	58.233387
1017.000000	58.216644
1016.000000	58.174487
1015.000000	58.141400
1014.000000	58.114890
1013.000000	58.077717
1012.000000	58.057286
1011.000000	58.027288
1010.000000	58.003668
1009.000000	57.971677
1008.000000	57.935899
1007.000000	57.904705
1006.000000	57.873013
1005.000000	57.842517
1004.000000	57.827966
1003.000000	57.802553
1002.000000	57.771359
1001.000000	57.736976
1000.000000	57.701098
999.000000	57.684255
998.000000	57.653460
997.000000	57.624359
996.000000	57.592966
995.000000	57.558284
994.000000	57.539448
993.000000	57.514234
992.000000	57.482641
991.000000	57.449653
990.000000	57.418260
989.000000	57.395438
988.000000	57.380887
987.000000	57.351188
986.000000	57.322187
985.000000	57.316706
984.000000	57.312420
983.000000	57.287903
982.000000	57.273951
981.000000	57.248836
980.000000	57.246146
979.000000	57.213855
978.000000	57.211763
977.000000	57.188043
976.000000	57.186947
975.000000	57.166716
974.000000	57.155255
973.000000	57.134824
972.000000	57.131635
971.000000	57.133927
970.000000	57.119476
969.000000	57.094063
968.000000	57.086489
967.000000	57.084296
966.000000	57.066856
965.000000	57.064364
964.000000	57.070144
963.000000	57.064962
962.000000	57.062670
961.000000	57.048119
960.000000	57.047820
959.000000	57.069546
958.000000	57.075526
957.000000	57.056889
956.000000	57.050312
955.000000	57.061673
954.000000	57.048618
953.000000	57.049515
952.000000	57.062570
951.000000	57.050013
950.000000	57.028287
949.000000	57.014534
948.000000	57.036858
947.000000	57.005365
946.000000	57.018321
945.000000	57.008255
944.000000	57.013637
943.000000	57.029682
942.000000	57.027589
941.000000	57.038253
940.000000	57.036658
939.000000	57.075725
938.000000	57.095159
937.000000	57.094661
936.000000	57.138213
935.000000	57.133030
934.000000	57.180469
933.000000	57.181167
932.000000	57.176383
931.000000	57.207776
930.000000	57.216148
929.000000	57.218938
928.000000	57.221230
927.000000	57.261892
926.000000	57.242558
925.000000	57.247043
924.000000	57.276044
923.000000	57.327070
922.000000	57.324579
921.000000	57.349693
920.000000	57.357865
919.000000	57.404507
918.000000	57.425236
917.000000	57.440783
916.000000	57.480349
915.000000	57.531774
914.000000	57.558981
913.000000	57.550909
912.000000	57.606819
911.000000	57.637713
910.000000	57.645587
909.000000	57.691032
908.000000	57.720432
907.000000	57.766774
906.000000	57.789198
905.000000	57.819794
904.000000	57.838331
903.000000	57.890454
902.000000	57.892347
901.000000	57.925534
900.000000	57.953838
899.000000	57.965100
898.000000	58.004665
897.000000	58.033567
896.000000	58.040543
895.000000	58.075823
894.000000	58.102632
893.000000	58.125554
892.000000	58.132430
891.000000	58.146283
890.000000	58.169903
889.000000	58.194121
888.000000	58.204585
887.000000	58.208870
886.000000	58.200499
885.000000	58.229799
884.000000	58.226909
883.000000	58.251924
882.000000	58.246741
881.000000	58.288001
880.000000	58.288101
879.000000	58.301655
878.000000	58.315906
877.000000	58.322085
876.000000	58.340024
875.000000	58.377995
874.000000	58.389356
873.000000	58.417859
872.000000	58.453239
871.000000	58.475065
870.000000	58.483237
869.000000	58.513036
868.000000	58.549312
867.000000	58.574427
866.000000	58.638708
865.000000	58.661929
864.000000	58.694020
863.000000	58.709268
862.000000	58.724715
861.000000	58.720629
860.000000	58.716045
859.000000	58.667211
858.000000	58.592067
857.000000	58.533300
856.000000	58.373300
855.000000	58.869600
854.000000	59.213500
853.000000	58.852900
852.000000	59.254000
851.000000	58.836900
850.000000	58.984700
849.000000	59.174700
848.000000	59.011900
847.000000	59.219200
846.000000	59.456500
845.000000	59.086100
844.000000	59.254700
843.000000	59.362800
842.000000	59.237600
841.000000	59.344600
840.000000	59.200900
839.000000	59.362100
838.000000	59.600200
837.000000	59.563100
836.000000	59.523600
835.000000	59.431100
834.000000	59.527700
833.000000	59.401600
832.000000	59.512300
831.000000	59.297300
830.000000	59.373100
829.000000	59.316200
828.000000	59.193500
827.000000	59.365700
826.000000	59.354900
825.000000	59.194400
824.000000	59.102400
823.000000	59.115800
822.000000	58.909000
821.000000	58.878700
820.000000	58.863100
819.000000	58.929000
818.000000	58.792500
817.000000	58.702900
816.000000	58.745700
815.000000	58.795400
814.000000	58.672800
813.000000	58.557900
812.000000	58.606200
811.000000	58.511300
810.000000	58.420500
809.000000	58.385700
808.000000	58.372000
807.000000	58.282100
806.000000	58.245200
805.000000	58.037000
804.000000	57.972900
803.000000	57.920800
802.000000	57.929800
801.000000	57.871900
800.000000	57.781900
799.000000	57.762700
798.000000	57.613800
797.000000	57.480400
796.000000	57.464800
795.000000	57.313800
794.000000	57.229200
793.000000	57.125500
792.000000	56.949100
791.000000	56.914300
790.000000	56.843500
789.000000	56.649300
788.000000	56.587300
787.000000	56.511700
786.000000	56.387500
785.000000	56.211100
784.000000	56.105200
783.000000	56.058200
782.000000	55.965600
781.000000	55.831100
780.000000	55.660800
779.000000	55.557600
778.000000	55.406700
777.000000	55.282400
776.000000	55.230500
775.000000	55.127400
774.000000	54.931500
773.000000	54.871000
772.000000	54.760100
771.000000	54.659300
770.000000	54.529100
769.000000	54.324400
768.000000	54.201900
767.000000	54.158100
766.000000	54.043100
765.000000	53.950100
764.000000	53.821000
763.000000	53.619100
762.000000	53.589100
761.000000	53.464500
760.000000	53.302400
759.000000	53.202400
758.000000	53.060700
757.000000	52.961900
756.000000	52.877500
755.000000	52.795400
754.000000	52.688600
753.000000	52.572300
752.000000	52.477600
751.000000	52.356600
750.000000	52.292200
749.000000	52.230800
748.000000	52.093900
747.000000	52.018000
746.000000	51.927100
745.000000	51.798500
744.000000	51.743600
743.000000	51.671200
742.000000	51.624300
741.000000	51.605100
740.000000	51.535400
739.000000	51.474300
738.000000	51.391800
737.000000	51.304700
736.000000	51.259200
735.000000	51.243800
734.000000	51.190600
733.000000	51.173500
732.000000	51.124600
731.000000	51.068600
730.000000	51.080800
729.000000	51.028700
728.000000	50.883400
727.000000	50.812900
726.000000	50.765900
725.000000	50.705700
724.000000	50.618800
723.000000	50.528000
722.000000	50.447700
721.000000	50.381900
720.000000	50.319700
719.000000	50.226400
718.000000	50.171200
717.000000	50.069700
716.000000	49.920300
715.000000	49.822200
714.000000	49.733200
713.000000	49.567000
712.000000	49.381800
711.000000	49.288600
710.000000	49.161000
709.000000	49.022900
708.000000	48.893500
707.000000	48.755700
706.000000	48.637300
705.000000	48.497400
704.000000	48.400900
703.000000	48.247300
702.000000	48.100100
701.000000	47.998600
700.000000	47.907000
699.000000	47.828200
698.000000	47.733300
697.000000	47.651500
696.000000	47.547200
695.000000	47.416200
694.000000	47.386400
693.000000	47.312900
692.000000	47.262300
691.000000	47.237300
690.000000	47.185800
689.000000	47.156500
688.000000	47.141600
687.000000	47.087800
686.000000	47.084300
685.000000	47.088700
684.000000	47.085700
683.000000	47.072800
682.000000	47.003500
681.000000	46.998900
680.000000	47.004100
679.000000	46.972800
678.000000	46.964600
677.000000	46.965400
676.000000	46.948600
675.000000	46.915600
674.000000	46.890800
673.000000	46.854500
672.000000	46.799500
671.000000	46.772300
670.000000	46.711900
669.000000	46.605900
668.000000	46.517300
667.000000	46.444500
666.000000	46.324100
665.000000	46.160900
664.000000	46.032900
663.000000	45.855500
662.000000	45.700300
661.000000	45.500900
660.000000	45.287100
659.000000	45.052300
658.000000	44.831700
657.000000	44.565100
656.000000	44.352500
655.000000	44.122400
654.000000	43.864100
653.000000	43.547700
652.000000	43.287400
651.000000	42.977000
650.000000	42.696900
649.000000	42.368200
648.000000	42.073100
647.000000	41.735600
646.000000	41.431700
645.000000	41.114500
644.000000	40.771700
643.000000	40.473800
642.000000	40.182100
641.000000	39.867700
640.000000	39.579400
639.000000	39.362000
638.000000	39.140300
637.000000	38.970400
636.000000	38.852300
635.000000	38.808900
634.000000	38.841800
633.000000	38.912600
632.000000	39.067600
631.000000	39.272900
630.000000	39.556800
629.000000	39.884900
628.000000	40.214500
627.000000	40.579700
626.000000	40.993300
625.000000	41.401200
624.000000	41.846400
623.000000	42.326400
622.000000	42.741400
621.000000	43.208600
620.000000	43.665400
619.000000	44.067300
618.000000	44.539300
617.000000	44.941100
616.000000	45.398400
615.000000	45.846800
614.000000	46.328800
613.000000	46.804500
612.000000	47.283100
611.000000	47.727600
610.000000	48.221000
609.000000	48.646200
608.000000	49.028200
607.000000	49.411400
606.000000	49.784800
605.000000	50.169600
604.000000	50.504000
603.000000	50.822500
602.000000	51.110500
601.000000	51.378100
600.000000	51.568100
599.000000	51.741800
598.000000	51.920800
597.000000	52.082600
596.000000	52.200600
595.000000	52.321300
594.000000	52.466600
593.000000	52.581600
592.000000	52.697600
591.000000	52.852100
590.000000	52.948600
589.000000	53.106100
588.000000	53.295700
587.000000	53.433600
586.000000	53.584400
585.000000	53.728200
584.000000	53.869100
583.000000	53.971900
582.000000	54.092700
581.000000	54.213800
580.000000	54.285200
579.000000	54.322200
578.000000	54.304300
577.000000	54.351500
576.000000	54.409300
575.000000	54.433100
574.000000	54.456900
573.000000	54.477800
572.000000	54.479000
571.000000	54.503900
570.000000	54.562300
569.000000	54.592200
568.000000	54.594800
567.000000	54.609000
566.000000	54.590500
565.000000	54.553300
564.000000	54.525900
563.000000	54.450500
562.000000	54.412000
561.000000	54.370300
560.000000	54.318200
559.000000	54.121800
558.000000	54.061500
557.000000	53.992900
556.000000	53.935500
555.000000	53.806900
554.000000	53.663800
553.000000	53.488400
552.000000	53.284200
551.000000	53.041300
550.000000	52.766800
549.000000	52.436700
548.000000	52.094400
547.000000	51.680800
546.000000	51.242600
545.000000	50.785500
544.000000	50.243400
543.000000	49.645500
542.000000	49.027000
541.000000	48.366600
540.000000	47.644300
539.000000	46.906100
538.000000	46.132000
537.000000	45.301900
536.000000	44.484500
535.000000	43.589600
534.000000	42.712600
533.000000	41.829100
532.000000	40.951300
531.000000	40.114200
530.000000	39.306500
529.000000	38.498700
528.000000	37.702700
527.000000	36.959700
526.000000	36.234600
525.000000	35.545500
524.000000	34.870700
523.000000	34.214700
522.000000	33.611400
521.000000	32.998800
520.000000	32.414400
519.000000	31.862700
518.000000	31.301700
517.000000	30.801600
516.000000	30.335300
515.000000	29.887100
514.000000	29.459700
513.000000	29.056400
512.000000	28.694900
511.000000	28.355500
510.000000	28.007900
509.000000	27.682100
508.000000	27.394900
507.000000	27.110900
506.000000	26.845400
505.000000	26.576000
504.000000	26.333900
503.000000	26.089500
502.000000	25.838100
501.000000	25.579100
500.000000	25.303900
499.000000	25.047100
498.000000	24.792100
497.000000	24.538900
496.000000	24.270500
495.000000	24.008800
494.000000	23.758100
493.000000	23.486800
492.000000	23.203000
491.000000	22.907400
490.000000	22.630300
489.000000	22.341900
488.000000	22.053100
487.000000	21.787200
486.000000	21.516400
485.000000	21.251300
484.000000	20.973300
483.000000	20.697300
482.000000	20.422100
481.000000	20.159800
480.000000	19.896800
479.000000	19.643900
478.000000	19.396400
477.000000	19.153900
476.000000	18.940600
475.000000	18.741200
474.000000	18.535000
473.000000	18.329900
472.000000	18.159500
471.000000	17.992200
470.000000	17.836500
469.000000	17.692500
468.000000	17.562200
467.000000	17.439600
466.000000	17.317500
465.000000	17.184700
464.000000	17.041200
463.000000	16.896400
462.000000	16.741800
461.000000	16.585500
460.000000	16.407500
459.000000	16.208700
458.000000	16.001300
457.000000	15.782700
456.000000	15.548900
455.000000	15.310000
454.000000	15.056100
453.000000	14.788300
452.000000	14.527900
451.000000	14.259000
450.000000	13.971000
449.000000	13.689000
448.000000	13.426500
447.000000	13.175600
446.000000	12.923200
445.000000	12.679000
444.000000	12.447900
443.000000	12.245700
442.000000	12.061400
441.000000	11.894000
440.000000	11.740000
439.000000	11.616800
438.000000	11.531100
437.000000	11.457700
436.000000	11.405500
435.000000	11.366600
434.000000	11.354400
433.000000	11.372400
432.000000	11.402200
431.000000	11.453900
430.000000	11.519200
429.000000	11.564400
428.000000	11.599300
427.000000	11.651600
426.000000	11.713600
425.000000	11.765000
424.000000	11.805000
423.000000	11.843900
422.000000	11.892500
421.000000	11.925300
420.000000	11.940200
419.000000	11.956600
418.000000	11.949400
417.000000	11.932900
416.000000	11.914600
415.000000	11.885700
414.000000	11.850000
413.000000	11.802300
412.000000	11.742500
411.000000	11.668400
410.000000	11.611200
409.000000	11.540800
408.000000	11.453500
407.000000	11.366600
406.000000	11.252300
405.000000	11.151200
404.000000	11.053000
403.000000	10.919400
402.000000	10.779800
401.000000	10.647100
400.000000	10.511800
399.000000	10.363900
398.000000	10.211300
397.000000	10.037600
396.000000	9.877700
395.000000	9.722800
394.000000	9.540300
393.000000	9.347400
392.000000	9.162900
391.000000	8.964700
390.000000	8.790700
389.000000	8.611600
388.000000	8.422500
387.000000	8.239900
386.000000	8.075600
385.000000	7.894700
384.000000	7.712300
383.000000	7.552800
382.000000	7.402300
381.000000	7.253800
380.000000	7.095800
379.000000	6.937500
378.000000	6.795900
377.000000	6.688000
376.000000	6.642300
375.000000	6.442000
374.000000	6.252900
373.000000	6.128000
372.000000	6.086500
371.000000	6.130400
370.000000	6.015700
369.000000	5.957700
368.000000	5.867700
367.000000	5.882300
366.000000	5.814500
365.000000	5.788300
364.000000	5.816500
363.000000	5.789600
362.000000	5.682400
361.000000	5.669400
360.000000	5.680900
359.000000	5.674400
358.000000	5.635500
357.000000	5.601600
356.000000	5.661100
355.000000	5.514000
354.000000	5.550500
353.000000	5.568400
352.000000	5.543100
351.000000	5.471300
350.000000	5.540100
349.000000	5.463600
348.000000	5.439200
347.000000	5.599700
346.000000	5.522100
345.000000	5.416400
344.000000	5.446100
343.000000	5.461700
342.000000	5.510200
341.000000	5.536200
340.000000	5.564300
339.000000	5.472100
338.000000	5.531800
337.000000	5.523100
336.000000	5.407300
335.000000	5.426000
334.000000	5.280400
333.000000	5.314600
332.000000	5.409700
331.000000	5.579800
330.000000	5.397000
329.000000	5.363900
328.000000	5.476500
327.000000	5.551900
326.000000	5.520700
325.000000	5.616500
324.000000	5.634600
323.000000	5.662700
322.000000	5.538300
321.000000	5.547700
320.000000	5.709300
319.000000	5.690800
318.000000	5.822400
317.000000	5.915200
316.000000	5.448100
315.000000	5.450500
314.000000	5.406800
313.000000	5.402000
312.000000	5.395100
311.000000	5.414900
310.000000	5.341400
309.000000	5.407200
308.000000	5.375700
307.000000	5.356400
306.000000	5.419600
305.000000	5.393300
304.000000	5.319300
303.000000	5.402600
302.000000	5.390900
301.000000	5.392400
300.000000	5.394500
299.000000	5.378400
298.000000	5.413100
297.000000	5.390100
296.000000	5.392700
295.000000	5.423100
294.000000	5.375200
293.000000	5.427700
292.000000	5.374100
291.000000	5.395500
290.000000	5.415200
289.000000	5.403500
288.000000	5.437600
287.000000	5.407300
286.000000	5.373300
285.000000	5.414800
284.000000	5.424100
283.000000	5.450200
282.000000	5.412100
281.000000	5.428500
280.000000	5.420800
279.000000	5.472900
278.000000	5.435400
277.000000	5.458800
276.000000	5.455100
275.000000	5.486800
274.000000	5.495300
273.000000	5.454800
272.000000	5.519100
271.000000	5.583500
270.000000	5.583600
269.000000	5.613900
268.000000	5.587300
267.000000	5.564100
266.000000	5.635000
265.000000	5.661300
264.000000	5.666000
263.000000	5.705100
262.000000	5.779000
261.000000	5.789600
260.000000	5.816400
259.000000	5.838200
258.000000	5.851400
257.000000	5.867200
256.000000	5.945000
255.000000	5.937500
254.000000	5.932500
253.000000	5.884300
252.000000	5.897500
251.000000	5.911500
250.000000	5.895800
