PE UV       SUBTECH     SPECTRUM    ASCII       PEDS        4.00        
   -1
CICIMAUCR0113-1.ASC
24/04/03
16:15:49.00
24/04/03
16:15:49.00
Vinicio Soto Monge
C. kalinini
250,000000
1
Lambda 1050
1050L1511233
PerkinElmer UV WinLab 6.3.2.0749 / 2.02.05 Lambda 900 UV/VIS/NIR, Aug  7 2015 09:38:08

0
0
3350/servo 860,8/2
0
0
UV/VIS
1
1
1
DoubleDePol,CommonBeamDepol,RBeamAtt,SBeamAtt,60mm sphere, WB InGaAs Detector
0
0
0
0
Program
Program
3350/servo 860,8/2
3350/0,2 860,8/0,2
3350/0,2 860,8/0,2
0
15.00
 
 
 
0
 
860,8
319,2
860,8
Front
100
on
S:100 R:100
0
0
0
0
 
0
 
 
 
0
 
 
0
0
0
0
0
 
 
 
 
0
0


0
0
#HDR
-1
-1
#GR
nm
%R
1.0
0.0
2500,000000
-1,000000
2251
8
83,958100
4,718900
#DATA
2500.000000	4.976097
2499.000000	4.820875
2498.000000	4.893742
2497.000000	4.870126
2496.000000	4.900101
2495.000000	4.853171
2494.000000	4.904844
2493.000000	4.868511
2492.000000	4.898082
2491.000000	4.860235
2490.000000	4.869016
2489.000000	4.808057
2488.000000	4.887384
2487.000000	4.804525
2486.000000	4.802506
2485.000000	4.811892
2484.000000	4.833995
2483.000000	4.872245
2482.000000	4.871236
2481.000000	4.762540
2480.000000	4.865584
2479.000000	4.861648
2478.000000	4.857712
2477.000000	4.850546
2476.000000	4.902119
2475.000000	4.914533
2474.000000	4.919074
2473.000000	4.871135
2472.000000	4.927249
2471.000000	4.912918
2470.000000	4.974886
2469.000000	4.984373
2468.000000	4.939865
2467.000000	4.999612
2466.000000	4.969436
2465.000000	5.030798
2464.000000	5.022320
2463.000000	5.042707
2462.000000	5.010916
2461.000000	5.072379
2460.000000	5.086912
2459.000000	5.097711
2458.000000	5.135457
2457.000000	5.157257
2456.000000	5.198838
2455.000000	5.249502
2454.000000	5.256668
2453.000000	5.277458
2452.000000	5.340435
2451.000000	5.360015
2450.000000	5.399577
2449.000000	5.434901
2448.000000	5.488088
2447.000000	5.518669
2446.000000	5.545817
2445.000000	5.588206
2444.000000	5.654312
2443.000000	5.674194
2442.000000	5.715977
2441.000000	5.750493
2440.000000	5.793184
2439.000000	5.832444
2438.000000	5.871905
2437.000000	5.903798
2436.000000	5.937809
2435.000000	5.970206
2434.000000	6.013099
2433.000000	6.053065
2432.000000	6.076682
2431.000000	6.121492
2430.000000	6.153889
2429.000000	6.197590
2428.000000	6.245630
2427.000000	6.257741
2426.000000	6.279642
2425.000000	6.310928
2424.000000	6.349179
2423.000000	6.375419
2422.000000	6.396512
2421.000000	6.417808
2420.000000	6.457572
2419.000000	6.489565
2418.000000	6.523375
2417.000000	6.555469
2416.000000	6.581810
2415.000000	6.595536
2414.000000	6.615216
2413.000000	6.650237
2412.000000	6.673349
2411.000000	6.680918
2410.000000	6.702920
2409.000000	6.718866
2408.000000	6.758631
2407.000000	6.768420
2406.000000	6.776192
2405.000000	6.803239
2404.000000	6.825443
2403.000000	6.837251
2402.000000	6.846738
2401.000000	6.877823
2400.000000	6.909715
2399.000000	6.925964
2398.000000	6.944837
2397.000000	6.965627
2396.000000	6.986721
2395.000000	7.006805
2394.000000	7.030118
2393.000000	7.034054
2392.000000	7.038091
2391.000000	7.063928
2390.000000	7.083709
2389.000000	7.091481
2388.000000	7.105206
2387.000000	7.110353
2386.000000	7.115400
2385.000000	7.114491
2384.000000	7.115198
2383.000000	7.124988
2382.000000	7.132961
2381.000000	7.134071
2380.000000	7.139924
2379.000000	7.154659
2378.000000	7.147393
2377.000000	7.131649
2376.000000	7.114189
2375.000000	7.102078
2374.000000	7.102582
2373.000000	7.105206
2372.000000	7.103087
2371.000000	7.093196
2370.000000	7.073314
2369.000000	7.067360
2368.000000	7.056561
2367.000000	7.026182
2366.000000	7.001355
2365.000000	6.982381
2364.000000	6.963407
2363.000000	6.937267
2362.000000	6.918596
2361.000000	6.887713
2360.000000	6.859555
2359.000000	6.839875
2358.000000	6.820598
2357.000000	6.802533
2356.000000	6.772155
2355.000000	6.745006
2354.000000	6.737840
2353.000000	6.727445
2352.000000	6.717554
2351.000000	6.726940
2350.000000	6.728656
2349.000000	6.731078
2348.000000	6.746419
2347.000000	6.746721
2346.000000	6.756309
2345.000000	6.784165
2344.000000	6.811111
2343.000000	6.829177
2342.000000	6.847848
2341.000000	6.854610
2340.000000	6.882263
2339.000000	6.893567
2338.000000	6.895586
2337.000000	6.904568
2336.000000	6.897604
2335.000000	6.902347
2334.000000	6.904467
2333.000000	6.891750
2332.000000	6.879034
2331.000000	6.845123
2330.000000	6.820195
2329.000000	6.805258
2328.000000	6.791532
2327.000000	6.762869
2326.000000	6.726234
2325.000000	6.694846
2324.000000	6.667596
2323.000000	6.643374
2322.000000	6.593013
2321.000000	6.542551
2320.000000	6.505915
2319.000000	6.466050
2318.000000	6.393384
2317.000000	6.345243
2316.000000	6.303460
2315.000000	6.241795
2314.000000	6.175588
2313.000000	6.120584
2312.000000	6.092628
2311.000000	6.027834
2310.000000	5.986657
2309.000000	5.959710
2308.000000	5.918835
2307.000000	5.901174
2306.000000	5.887650
2305.000000	5.866556
2304.000000	5.856666
2303.000000	5.863932
2302.000000	5.876447
2301.000000	5.897742
2300.000000	5.917322
2299.000000	5.933066
2298.000000	5.966169
2297.000000	6.000181
2296.000000	6.039642
2295.000000	6.058112
2294.000000	6.070424
2293.000000	6.082132
2292.000000	6.131484
2291.000000	6.136833
2290.000000	6.122603
2289.000000	6.133704
2288.000000	6.127750
2287.000000	6.109482
2286.000000	6.090307
2285.000000	6.077590
2284.000000	6.053671
2283.000000	6.013907
2282.000000	5.987363
2281.000000	5.944067
2280.000000	5.906119
2279.000000	5.867969
2278.000000	5.835572
2277.000000	5.793991
2276.000000	5.757961
2275.000000	5.699526
2274.000000	5.673285
2273.000000	5.640788
2272.000000	5.610207
2271.000000	5.588811
2270.000000	5.565700
2269.000000	5.552478
2268.000000	5.558736
2267.000000	5.560754
2266.000000	5.577508
2265.000000	5.610510
2264.000000	5.636751
2263.000000	5.672680
2262.000000	5.720720
2261.000000	5.770678
2260.000000	5.814277
2259.000000	5.896329
2258.000000	5.961123
2257.000000	6.034495
2256.000000	6.097977
2255.000000	6.215958
2254.000000	6.257943
2253.000000	6.383594
2252.000000	6.431231
2251.000000	6.507933
2250.000000	6.570910
2249.000000	6.641962
2248.000000	6.698883
2247.000000	6.773971
2246.000000	6.833920
2245.000000	6.884080
2244.000000	6.913752
2243.000000	6.945745
2242.000000	6.986014
2241.000000	7.047881
2240.000000	7.060295
2239.000000	7.096325
2238.000000	7.127713
2237.000000	7.145072
2236.000000	7.146283
2235.000000	7.161220
2234.000000	7.176056
2233.000000	7.200378
2232.000000	7.185139
2231.000000	7.175753
2230.000000	7.172321
2229.000000	7.164752
2228.000000	7.151935
2227.000000	7.114592
2226.000000	7.066148
2225.000000	7.052322
2224.000000	7.026081
2223.000000	6.981775
2222.000000	6.946754
2221.000000	6.894274
2220.000000	6.830590
2219.000000	6.805662
2218.000000	6.752878
2217.000000	6.712710
2216.000000	6.674358
2215.000000	6.628438
2214.000000	6.590894
2213.000000	6.571516
2212.000000	6.555469
2211.000000	6.541138
2210.000000	6.543560
2209.000000	6.544569
2208.000000	6.583829
2207.000000	6.617033
2206.000000	6.654073
2205.000000	6.717251
2204.000000	6.772659
2203.000000	6.840380
2202.000000	6.946351
2201.000000	7.046670
2200.000000	7.159302
2199.000000	7.264667
2198.000000	7.370437
2197.000000	7.461774
2196.000000	7.598930
2195.000000	7.681588
2194.000000	7.773026
2193.000000	7.866684
2192.000000	7.946314
2191.000000	8.046532
2190.000000	8.118289
2189.000000	8.188836
2188.000000	8.282797
2187.000000	8.326094
2186.000000	8.362931
2185.000000	8.394722
2184.000000	8.479398
2183.000000	8.510887
2182.000000	8.539650
2181.000000	8.565992
2180.000000	8.604747
2179.000000	8.618069
2178.000000	8.648346
2177.000000	8.665403
2176.000000	8.694974
2175.000000	8.719498
2174.000000	8.731811
2173.000000	8.750079
2172.000000	8.760474
2171.000000	8.795091
2170.000000	8.834754
2169.000000	8.838691
2168.000000	8.864830
2167.000000	8.883602
2166.000000	8.892181
2165.000000	8.932450
2164.000000	8.945469
2163.000000	8.969085
2162.000000	9.011978
2161.000000	9.016318
2160.000000	9.033879
2159.000000	9.073038
2158.000000	9.095342
2157.000000	9.126023
2156.000000	9.166898
2155.000000	9.207167
2154.000000	9.247638
2153.000000	9.282659
2152.000000	9.311725
2151.000000	9.356435
2150.000000	9.385501
2149.000000	9.415173
2148.000000	9.449386
2147.000000	9.498537
2146.000000	9.541834
2145.000000	9.571909
2144.000000	9.593507
2143.000000	9.623684
2142.000000	9.666476
2141.000000	9.705534
2140.000000	9.729856
2139.000000	9.749840
2138.000000	9.770327
2137.000000	9.804945
2136.000000	9.823616
2135.000000	9.848746
2134.000000	9.876904
2133.000000	9.888107
2132.000000	9.900016
2131.000000	9.920201
2130.000000	9.941899
2129.000000	9.947551
2128.000000	9.961378
2127.000000	9.968443
2126.000000	9.976517
2125.000000	9.985095
2124.000000	9.992261
2123.000000	9.994279
2122.000000	9.981765
2121.000000	9.977526
2120.000000	9.981664
2119.000000	9.982774
2118.000000	9.979040
2117.000000	9.954818
2116.000000	9.946744
2115.000000	9.939780
2114.000000	9.942404
2113.000000	9.937459
2112.000000	9.915255
2111.000000	9.908897
2110.000000	9.891841
2109.000000	9.870949
2108.000000	9.860857
2107.000000	9.848746
2106.000000	9.829570
2105.000000	9.811404
2104.000000	9.803027
2103.000000	9.808174
2102.000000	9.803834
2101.000000	9.778099
2100.000000	9.750849
2099.000000	9.750950
2098.000000	9.752060
2097.000000	9.735609
2096.000000	9.736820
2095.000000	9.721984
2094.000000	9.710883
2093.000000	9.701396
2092.000000	9.698267
2091.000000	9.696753
2090.000000	9.683431
2089.000000	9.688477
2088.000000	9.674449
2087.000000	9.655677
2086.000000	9.655172
2085.000000	9.639125
2084.000000	9.643061
2083.000000	9.637510
2082.000000	9.620858
2081.000000	9.592498
2080.000000	9.569184
2079.000000	9.557982
2078.000000	9.526998
2077.000000	9.523062
2076.000000	9.508629
2075.000000	9.490463
2074.000000	9.477141
2073.000000	9.445551
2072.000000	9.406998
2071.000000	9.387822
2070.000000	9.378033
2069.000000	9.346039
2068.000000	9.318487
2067.000000	9.295375
2066.000000	9.289522
2065.000000	9.254904
2064.000000	9.227150
2063.000000	9.204442
2062.000000	9.190918
2061.000000	9.168715
2060.000000	9.146107
2059.000000	9.123702
2058.000000	9.124106
2057.000000	9.122794
2056.000000	9.114619
2055.000000	9.114518
2054.000000	9.124005
2053.000000	9.127335
2052.000000	9.139850
2051.000000	9.181835
2050.000000	9.210497
2049.000000	9.255409
2048.000000	9.259244
2047.000000	9.299109
2046.000000	9.351389
2045.000000	9.394786
2044.000000	9.450900
2043.000000	9.500354
2042.000000	9.529824
2041.000000	9.584424
2040.000000	9.630647
2039.000000	9.672329
2038.000000	9.719058
2037.000000	9.758418
2036.000000	9.770933
2035.000000	9.817560
2034.000000	9.846122
2033.000000	9.896786
2032.000000	9.915861
2031.000000	9.947248
2030.000000	9.986105
2029.000000	9.999931
2028.000000	10.015675
2027.000000	10.044035
2026.000000	10.050192
2025.000000	10.085213
2024.000000	10.086424
2023.000000	10.101764
2022.000000	10.118720
2021.000000	10.124977
2020.000000	10.141327
2019.000000	10.144254
2018.000000	10.139712
2017.000000	10.151621
2016.000000	10.155053
2015.000000	10.161310
2014.000000	10.156062
2013.000000	10.151318
2012.000000	10.158282
2011.000000	10.124271
2010.000000	10.123463
2009.000000	10.118922
2008.000000	10.103581
2007.000000	10.101764
2006.000000	10.076331
2005.000000	10.071487
2004.000000	10.033135
2003.000000	10.021731
2002.000000	9.988829
2001.000000	9.942909
2000.000000	9.949469
1999.000000	9.911824
1998.000000	9.879629
1997.000000	9.853288
1996.000000	9.834717
1995.000000	9.803834
1994.000000	9.770630
1993.000000	9.770226
1992.000000	9.704827
1991.000000	9.638620
1990.000000	9.627620
1989.000000	9.587149
1988.000000	9.562220
1987.000000	9.491775
1986.000000	9.464828
1985.000000	9.432431
1984.000000	9.394685
1983.000000	9.330295
1982.000000	9.303651
1981.000000	9.269438
1980.000000	9.220792
1979.000000	9.187991
1978.000000	9.171843
1977.000000	9.120473
1976.000000	9.087874
1975.000000	9.044375
1974.000000	9.006125
1973.000000	8.941937
1972.000000	8.915797
1971.000000	8.891474
1970.000000	8.836167
1969.000000	8.823552
1968.000000	8.759566
1967.000000	8.732417
1966.000000	8.721416
1965.000000	8.694267
1964.000000	8.652888
1963.000000	8.608077
1962.000000	8.584865
1961.000000	8.532989
1960.000000	8.513612
1959.000000	8.486968
1958.000000	8.455075
1957.000000	8.438927
1956.000000	8.385135
1955.000000	8.361518
1954.000000	8.335480
1953.000000	8.299147
1952.000000	8.284311
1951.000000	8.280980
1950.000000	8.241619
1949.000000	8.186515
1948.000000	8.180459
1947.000000	8.166834
1946.000000	8.136456
1945.000000	8.116675
1944.000000	8.097398
1943.000000	8.089324
1942.000000	8.107390
1941.000000	8.087205
1940.000000	8.078626
1939.000000	8.097095
1938.000000	8.077314
1937.000000	8.072268
1936.000000	8.062074
1935.000000	8.072470
1934.000000	8.088618
1933.000000	8.103756
1932.000000	8.118996
1931.000000	8.166128
1930.000000	8.207507
1929.000000	8.218003
1928.000000	8.223251
1927.000000	8.263217
1926.000000	8.314083
1925.000000	8.367069
1924.000000	8.419146
1923.000000	8.476068
1922.000000	8.531778
1921.000000	8.566698
1920.000000	8.630079
1919.000000	8.693157
1918.000000	8.759364
1917.000000	8.858270
1916.000000	8.927908
1915.000000	9.039834
1914.000000	9.143786
1913.000000	9.209589
1912.000000	9.289925
1911.000000	9.372986
1910.000000	9.491573
1909.000000	9.594314
1908.000000	9.713709
1907.000000	9.836130
1906.000000	9.963598
1905.000000	10.081075
1904.000000	10.201579
1903.000000	10.324808
1902.000000	10.454900
1901.000000	10.602755
1900.000000	10.750206
1899.000000	10.880096
1898.000000	11.027648
1897.000000	11.178632
1896.000000	11.324872
1895.000000	11.499169
1894.000000	11.686586
1893.000000	11.864416
1892.000000	12.068284
1891.000000	12.243691
1890.000000	12.422732
1889.000000	12.616608
1888.000000	12.838037
1887.000000	13.046245
1886.000000	13.304209
1885.000000	13.564797
1884.000000	13.849203
1883.000000	14.142894
1882.000000	14.429117
1881.000000	14.754902
1880.000000	15.064640
1879.000000	15.357827
1878.000000	15.674932
1877.000000	15.989919
1876.000000	16.304703
1875.000000	16.583457
1874.000000	16.854037
1873.000000	17.109275
1872.000000	17.347559
1871.000000	17.555969
1870.000000	17.750854
1869.000000	17.945236
1868.000000	18.114184
1867.000000	18.253763
1866.000000	18.361550
1865.000000	18.484981
1864.000000	18.594283
1863.000000	18.698336
1862.000000	18.804711
1861.000000	18.898066
1860.000000	18.998184
1859.000000	19.052380
1858.000000	19.088411
1857.000000	19.137056
1856.000000	19.172885
1855.000000	19.201043
1854.000000	19.202859
1853.000000	19.195492
1852.000000	19.187317
1851.000000	19.191152
1850.000000	19.230412
1849.000000	19.251606
1848.000000	19.211943
1847.000000	19.169655
1846.000000	19.116670
1845.000000	19.086897
1844.000000	19.082759
1843.000000	19.108596
1842.000000	19.137561
1841.000000	19.122624
1840.000000	19.084172
1839.000000	19.057730
1838.000000	19.049958
1837.000000	19.039260
1836.000000	18.991119
1835.000000	18.933794
1834.000000	18.885855
1833.000000	18.854972
1832.000000	18.834383
1831.000000	18.813189
1830.000000	18.766965
1829.000000	18.715594
1828.000000	18.655241
1827.000000	18.602962
1826.000000	18.560271
1825.000000	18.528783
1824.000000	18.500827
1823.000000	18.484981
1822.000000	18.502038
1821.000000	18.498001
1820.000000	18.449254
1819.000000	18.403737
1818.000000	18.393443
1817.000000	18.409893
1816.000000	18.412517
1815.000000	18.407471
1814.000000	18.412416
1813.000000	18.406159
1812.000000	18.399195
1811.000000	18.381836
1810.000000	18.343384
1809.000000	18.330163
1808.000000	18.305032
1807.000000	18.276471
1806.000000	18.255377
1805.000000	18.224393
1804.000000	18.183216
1803.000000	18.164848
1802.000000	18.142039
1801.000000	18.109642
1800.000000	18.052418
1799.000000	18.000139
1798.000000	17.981468
1797.000000	17.969155
1796.000000	17.928179
1795.000000	17.880745
1794.000000	17.848852
1793.000000	17.814841
1792.000000	17.774269
1791.000000	17.745505
1790.000000	17.709374
1789.000000	17.653967
1788.000000	17.609358
1787.000000	17.587154
1786.000000	17.543252
1785.000000	17.488551
1784.000000	17.432033
1783.000000	17.366836
1782.000000	17.307996
1781.000000	17.273682
1780.000000	17.229780
1779.000000	17.164683
1778.000000	17.096155
1777.000000	17.048317
1776.000000	16.987762
1775.000000	16.917821
1774.000000	16.843944
1773.000000	16.758360
1772.000000	16.689630
1771.000000	16.593247
1770.000000	16.535821
1769.000000	16.453163
1768.000000	16.401591
1767.000000	16.336292
1766.000000	16.268168
1765.000000	16.224468
1764.000000	16.181575
1763.000000	16.164922
1762.000000	16.162904
1761.000000	16.190456
1760.000000	16.198429
1759.000000	16.240414
1758.000000	16.291986
1757.000000	16.338311
1756.000000	16.368286
1755.000000	16.405729
1754.000000	16.434694
1753.000000	16.433079
1752.000000	16.432171
1751.000000	16.409160
1750.000000	16.395939
1749.000000	16.389177
1748.000000	16.345578
1747.000000	16.310052
1746.000000	16.243845
1745.000000	16.180465
1744.000000	16.114359
1743.000000	16.004553
1742.000000	15.915537
1741.000000	15.779692
1740.000000	15.647884
1739.000000	15.513654
1738.000000	15.378516
1737.000000	15.277490
1736.000000	15.197962
1735.000000	15.112378
1734.000000	15.065447
1733.000000	15.041226
1732.000000	15.053841
1731.000000	15.112680
1730.000000	15.134379
1729.000000	15.210375
1728.000000	15.263159
1727.000000	15.353487
1726.000000	15.405665
1725.000000	15.458852
1724.000000	15.507094
1723.000000	15.542216
1722.000000	15.558768
1721.000000	15.601358
1720.000000	15.601156
1719.000000	15.629920
1718.000000	15.673015
1717.000000	15.724285
1716.000000	15.761122
1715.000000	15.825613
1714.000000	15.884351
1713.000000	15.927143
1712.000000	15.971449
1711.000000	16.002130
1710.000000	16.038262
1709.000000	16.030793
1708.000000	16.052492
1707.000000	16.045124
1706.000000	16.010104
1705.000000	16.003947
1704.000000	15.977909
1703.000000	15.940365
1702.000000	15.886874
1701.000000	15.834696
1700.000000	15.737607
1699.000000	15.648086
1698.000000	15.571484
1697.000000	15.506287
1696.000000	15.434025
1695.000000	15.448053
1694.000000	15.459357
1693.000000	15.516480
1692.000000	15.592174
1691.000000	15.672510
1690.000000	15.758397
1689.000000	15.879305
1688.000000	15.916243
1687.000000	15.947026
1686.000000	15.996882
1685.000000	16.025040
1684.000000	16.059254
1683.000000	16.186722
1682.000000	16.334779
1681.000000	16.577604
1680.000000	16.876139
1679.000000	17.209797
1678.000000	17.556372
1677.000000	17.876203
1676.000000	18.172417
1675.000000	18.447841
1674.000000	18.674316
1673.000000	18.898369
1672.000000	19.081245
1671.000000	19.249588
1670.000000	19.400066
1669.000000	19.507148
1668.000000	19.642791
1667.000000	19.718989
1666.000000	19.773791
1665.000000	19.844337
1664.000000	19.906709
1663.000000	19.958786
1662.000000	20.008138
1661.000000	20.039324
1660.000000	20.055775
1659.000000	20.093723
1658.000000	20.096447
1657.000000	20.106641
1656.000000	20.115926
1655.000000	20.121578
1654.000000	20.119055
1653.000000	20.095035
1652.000000	20.080501
1651.000000	20.063041
1650.000000	20.030039
1649.000000	20.023983
1648.000000	19.986641
1647.000000	19.956768
1646.000000	19.917205
1645.000000	19.875523
1644.000000	19.815776
1643.000000	19.776415
1642.000000	19.737559
1641.000000	19.681949
1640.000000	19.655305
1639.000000	19.620486
1638.000000	19.564877
1637.000000	19.521883
1636.000000	19.474549
1635.000000	19.418435
1634.000000	19.364137
1633.000000	19.327905
1632.000000	19.273910
1631.000000	19.212144
1630.000000	19.155828
1629.000000	19.101026
1628.000000	19.051674
1627.000000	19.002423
1626.000000	18.945905
1625.000000	18.892314
1624.000000	18.832667
1623.000000	18.781397
1622.000000	18.724173
1621.000000	18.683299
1620.000000	18.642727
1619.000000	18.579447
1618.000000	18.545637
1617.000000	18.507084
1616.000000	18.467521
1615.000000	18.440373
1614.000000	18.381130
1613.000000	18.346412
1612.000000	18.295949
1611.000000	18.256387
1610.000000	18.207337
1609.000000	18.167775
1608.000000	18.127506
1607.000000	18.096320
1606.000000	18.060492
1605.000000	18.007607
1604.000000	17.984293
1603.000000	17.954722
1602.000000	17.908398
1601.000000	17.876607
1600.000000	17.846026
1599.000000	17.805051
1598.000000	17.762864
1597.000000	17.735312
1596.000000	17.702410
1595.000000	17.666481
1594.000000	17.649627
1593.000000	17.629946
1592.000000	17.599467
1591.000000	17.578979
1590.000000	17.559703
1589.000000	17.527508
1588.000000	17.506717
1587.000000	17.500965
1586.000000	17.483908
1585.000000	17.467962
1584.000000	17.443135
1583.000000	17.426078
1582.000000	17.405793
1581.000000	17.400443
1580.000000	17.397315
1579.000000	17.384800
1578.000000	17.384296
1577.000000	17.383185
1576.000000	17.372285
1575.000000	17.371781
1574.000000	17.371175
1573.000000	17.361487
1572.000000	17.372487
1571.000000	17.389947
1570.000000	17.379956
1569.000000	17.381369
1568.000000	17.404682
1567.000000	17.410435
1566.000000	17.418711
1565.000000	17.434152
1564.000000	17.435666
1563.000000	17.433749
1562.000000	17.441217
1561.000000	17.440511
1560.000000	17.447273
1559.000000	17.442327
1558.000000	17.428904
1557.000000	17.428702
1556.000000	17.419720
1555.000000	17.411747
1554.000000	17.396205
1553.000000	17.372992
1552.000000	17.357550
1551.000000	17.346550
1550.000000	17.335246
1549.000000	17.303354
1548.000000	17.277113
1547.000000	17.266012
1546.000000	17.246029
1545.000000	17.225339
1544.000000	17.210907
1543.000000	17.193245
1542.000000	17.175583
1541.000000	17.161353
1540.000000	17.146113
1539.000000	17.142379
1538.000000	17.120983
1537.000000	17.100495
1536.000000	17.088889
1535.000000	17.059822
1534.000000	17.045491
1533.000000	17.034490
1532.000000	17.013599
1531.000000	16.989377
1530.000000	16.959907
1529.000000	16.934575
1528.000000	16.907022
1527.000000	16.876341
1526.000000	16.864028
1525.000000	16.830622
1524.000000	16.803675
1523.000000	16.798629
1522.000000	16.763003
1521.000000	16.746249
1520.000000	16.708301
1519.000000	16.678730
1518.000000	16.658041
1517.000000	16.622717
1516.000000	16.595366
1515.000000	16.573869
1514.000000	16.542482
1513.000000	16.526838
1512.000000	16.506452
1511.000000	16.463660
1510.000000	16.443777
1509.000000	16.409665
1508.000000	16.390186
1507.000000	16.359404
1506.000000	16.319337
1505.000000	16.302987
1504.000000	16.286537
1503.000000	16.256057
1502.000000	16.235670
1501.000000	16.227193
1500.000000	16.198732
1499.000000	16.174712
1498.000000	16.148774
1497.000000	16.134140
1496.000000	16.133535
1495.000000	16.129296
1494.000000	16.104771
1493.000000	16.075503
1492.000000	16.066319
1491.000000	16.054813
1490.000000	16.055923
1489.000000	16.064502
1488.000000	16.063190
1487.000000	16.044115
1486.000000	16.030591
1485.000000	16.014645
1484.000000	16.003745
1483.000000	15.992341
1482.000000	16.006975
1481.000000	16.007883
1480.000000	15.985478
1479.000000	16.002736
1478.000000	16.001727
1477.000000	16.003543
1476.000000	16.003342
1475.000000	16.000919
1474.000000	16.017572
1473.000000	16.018077
1472.000000	16.027059
1471.000000	16.012627
1470.000000	16.006773
1469.000000	16.022013
1468.000000	16.031500
1467.000000	16.041390
1466.000000	16.034931
1465.000000	16.047042
1464.000000	16.036849
1463.000000	16.038564
1462.000000	16.078430
1461.000000	16.104670
1460.000000	16.107092
1459.000000	16.108001
1458.000000	16.127479
1457.000000	16.144334
1456.000000	16.172794
1455.000000	16.205898
1454.000000	16.247983
1453.000000	16.287243
1452.000000	16.342146
1451.000000	16.354257
1450.000000	16.411683
1449.000000	16.402600
1448.000000	16.464871
1447.000000	16.503929
1446.000000	16.581338
1445.000000	16.622414
1444.000000	16.648756
1443.000000	16.702649
1442.000000	16.768049
1441.000000	16.826585
1440.000000	16.861000
1439.000000	16.948502
1438.000000	17.000075
1437.000000	17.068502
1436.000000	17.148535
1435.000000	17.188703
1434.000000	17.285692
1433.000000	17.365221
1432.000000	17.410132
1431.000000	17.492487
1430.000000	17.568483
1429.000000	17.668298
1428.000000	17.764984
1427.000000	17.866110
1426.000000	18.005992
1425.000000	18.122964
1424.000000	18.256589
1423.000000	18.408278
1422.000000	18.495074
1421.000000	18.631726
1420.000000	18.824896
1419.000000	18.972347
1418.000000	19.114247
1417.000000	19.252514
1416.000000	19.422371
1415.000000	19.612008
1414.000000	19.751789
1413.000000	19.915893
1412.000000	20.048004
1411.000000	20.259946
1410.000000	20.491467
1409.000000	20.730558
1408.000000	20.933820
1407.000000	21.171801
1406.000000	21.398781
1405.000000	21.657653
1404.000000	21.866164
1403.000000	22.114540
1402.000000	22.336877
1401.000000	22.625623
1400.000000	22.827069
1399.000000	22.967051
1398.000000	23.079784
1397.000000	23.257008
1396.000000	23.437260
1395.000000	23.565737
1394.000000	23.621851
1393.000000	23.700472
1392.000000	23.810076
1391.000000	23.932296
1390.000000	24.058957
1389.000000	24.224675
1388.000000	24.436214
1387.000000	24.621007
1386.000000	24.876750
1385.000000	25.191636
1384.000000	25.552442
1383.000000	25.948572
1382.000000	26.365088
1381.000000	26.752135
1380.000000	27.057432
1379.000000	27.442359
1378.000000	27.772283
1377.000000	28.161146
1376.000000	28.535880
1375.000000	28.975205
1374.000000	29.432294
1373.000000	29.932477
1372.000000	30.434578
1371.000000	30.902465
1370.000000	31.308284
1369.000000	31.668888
1368.000000	31.990939
1367.000000	32.284529
1366.000000	32.522813
1365.000000	32.755949
1364.000000	32.925200
1363.000000	33.099800
1362.000000	33.293878
1361.000000	33.434466
1360.000000	33.513490
1359.000000	33.575963
1358.000000	33.676585
1357.000000	33.824742
1356.000000	34.035574
1355.000000	34.370544
1354.000000	34.803309
1353.000000	35.246672
1352.000000	35.738882
1351.000000	36.257635
1350.000000	36.747323
1349.000000	37.185235
1348.000000	37.599834
1347.000000	37.981330
1346.000000	38.347485
1345.000000	38.719393
1344.000000	39.098467
1343.000000	39.440702
1342.000000	39.784150
1341.000000	40.153938
1340.000000	40.467511
1339.000000	40.779974
1338.000000	41.108586
1337.000000	41.448702
1336.000000	41.786094
1335.000000	42.089575
1334.000000	42.386394
1333.000000	42.702995
1332.000000	42.999412
1331.000000	43.274936
1330.000000	43.555204
1329.000000	43.810241
1328.000000	44.078298
1327.000000	44.317489
1326.000000	44.552644
1325.000000	44.788001
1324.000000	44.995502
1323.000000	45.194627
1322.000000	45.406165
1321.000000	45.605088
1320.000000	45.799570
1319.000000	45.976693
1318.000000	46.143724
1317.000000	46.300359
1316.000000	46.455783
1315.000000	46.606464
1314.000000	46.755933
1313.000000	46.891980
1312.000000	47.016218
1311.000000	47.126630
1310.000000	47.235730
1309.000000	47.339178
1308.000000	47.435965
1307.000000	47.524375
1306.000000	47.597747
1305.000000	47.664458
1304.000000	47.719462
1303.000000	47.770026
1302.000000	47.802725
1301.000000	47.823516
1300.000000	47.841077
1299.000000	47.863583
1298.000000	47.876400
1297.000000	47.892952
1296.000000	47.910513
1295.000000	47.913339
1294.000000	47.917679
1293.000000	47.916568
1292.000000	47.897494
1291.000000	47.880942
1290.000000	47.846224
1289.000000	47.815543
1288.000000	47.773558
1287.000000	47.717444
1286.000000	47.660926
1285.000000	47.601885
1284.000000	47.538706
1283.000000	47.473408
1282.000000	47.409825
1281.000000	47.335343
1280.000000	47.262979
1279.000000	47.191626
1278.000000	47.118556
1277.000000	47.053561
1276.000000	46.988868
1275.000000	46.934368
1274.000000	46.879970
1273.000000	46.835361
1272.000000	46.789945
1271.000000	46.748465
1270.000000	46.701535
1269.000000	46.653696
1268.000000	46.603234
1267.000000	46.527843
1266.000000	46.479601
1265.000000	46.426313
1264.000000	46.360005
1263.000000	46.303891
1262.000000	46.254741
1261.000000	46.192268
1260.000000	46.112841
1259.000000	46.041386
1258.000000	45.979923
1257.000000	45.907761
1256.000000	45.820663
1255.000000	45.743658
1254.000000	45.669276
1253.000000	45.590757
1252.000000	45.485694
1251.000000	45.389008
1250.000000	45.299185
1249.000000	45.189278
1248.000000	45.087344
1247.000000	44.972996
1246.000000	44.839472
1245.000000	44.714628
1244.000000	44.579086
1243.000000	44.438801
1242.000000	44.314764
1241.000000	44.169433
1240.000000	44.009568
1239.000000	43.848593
1238.000000	43.690545
1237.000000	43.530478
1236.000000	43.351942
1235.000000	43.197224
1234.000000	43.010614
1233.000000	42.841061
1232.000000	42.652129
1231.000000	42.452298
1230.000000	42.256201
1229.000000	42.065454
1228.000000	41.868953
1227.000000	41.660947
1226.000000	41.457584
1225.000000	41.250183
1224.000000	41.066096
1223.000000	40.838410
1222.000000	40.646855
1221.000000	40.442179
1220.000000	40.266267
1219.000000	40.094493
1218.000000	39.919994
1217.000000	39.762047
1216.000000	39.610256
1215.000000	39.461796
1214.000000	39.319996
1213.000000	39.192528
1212.000000	39.057996
1211.000000	38.948997
1210.000000	38.841310
1209.000000	38.747248
1208.000000	38.650360
1207.000000	38.570428
1206.000000	38.485348
1205.000000	38.446492
1204.000000	38.430344
1203.000000	38.418435
1202.000000	38.387653
1201.000000	38.367771
1200.000000	38.332145
1199.000000	38.276232
1198.000000	38.203365
1197.000000	38.100724
1196.000000	37.931372
1195.000000	37.720338
1194.000000	37.451677
1193.000000	37.110349
1192.000000	36.737735
1191.000000	36.308199
1190.000000	35.904802
1189.000000	35.536730
1188.000000	35.255755
1187.000000	35.074898
1186.000000	34.987093
1185.000000	35.051887
1184.000000	35.207917
1183.000000	35.511801
1182.000000	35.881792
1181.000000	36.342816
1180.000000	36.821401
1179.000000	37.306951
1178.000000	37.744661
1177.000000	38.154517
1176.000000	38.476669
1175.000000	38.789536
1174.000000	39.099072
1173.000000	39.390442
1172.000000	39.701795
1171.000000	40.050894
1170.000000	40.392322
1169.000000	40.730521
1168.000000	41.091428
1167.000000	41.460712
1166.000000	41.812839
1165.000000	42.222694
1164.000000	42.590868
1163.000000	43.004660
1162.000000	43.411488
1161.000000	43.826692
1160.000000	44.185581
1159.000000	44.603308
1158.000000	44.967445
1157.000000	45.324517
1156.000000	45.633851
1155.000000	45.931781
1154.000000	46.151898
1153.000000	46.323269
1152.000000	46.423992
1151.000000	46.490299
1150.000000	46.553781
1149.000000	46.610703
1148.000000	46.655816
1147.000000	46.770769
1146.000000	46.934974
1145.000000	47.177799
1144.000000	47.503483
1143.000000	47.905366
1142.000000	48.310276
1141.000000	48.760602
1140.000000	49.215975
1139.000000	49.693047
1138.000000	50.167999
1137.000000	50.686348
1136.000000	51.224681
1135.000000	51.780171
1134.000000	52.315174
1133.000000	52.772767
1132.000000	53.260738
1131.000000	53.682503
1130.000000	54.062888
1129.000000	54.379489
1128.000000	54.648353
1127.000000	54.858579
1126.000000	55.028032
1125.000000	55.162262
1124.000000	55.273784
1123.000000	55.366029
1122.000000	55.453733
1121.000000	55.529124
1120.000000	55.588064
1119.000000	55.632269
1118.000000	55.649628
1117.000000	55.673143
1116.000000	55.654876
1115.000000	55.654573
1114.000000	55.628131
1113.000000	55.615515
1112.000000	55.604817
1111.000000	55.578577
1110.000000	55.565255
1109.000000	55.533564
1108.000000	55.520242
1107.000000	55.499755
1106.000000	55.489057
1105.000000	55.491176
1104.000000	55.475533
1103.000000	55.444650
1102.000000	55.433851
1101.000000	55.395297
1100.000000	55.374810
1099.000000	55.356340
1098.000000	55.328586
1097.000000	55.289730
1096.000000	55.262884
1095.000000	55.215752
1094.000000	55.179318
1093.000000	55.125122
1092.000000	55.074659
1091.000000	55.020362
1090.000000	54.957788
1089.000000	54.892692
1088.000000	54.816595
1087.000000	54.732423
1086.000000	54.647546
1085.000000	54.578715
1084.000000	54.513719
1083.000000	54.450036
1082.000000	54.369195
1081.000000	54.291584
1080.000000	54.214175
1079.000000	54.121929
1078.000000	54.049163
1077.000000	53.980332
1076.000000	53.903124
1075.000000	53.825210
1074.000000	53.735488
1073.000000	53.646069
1072.000000	53.566540
1071.000000	53.490443
1070.000000	53.410208
1069.000000	53.332294
1068.000000	53.241663
1067.000000	53.157290
1066.000000	53.071908
1065.000000	52.989048
1064.000000	52.894583
1063.000000	52.821816
1062.000000	52.742489
1061.000000	52.651455
1060.000000	52.571422
1059.000000	52.490480
1058.000000	52.411355
1057.000000	52.315577
1056.000000	52.211524
1055.000000	52.121196
1054.000000	52.042273
1053.000000	51.946193
1052.000000	51.863333
1051.000000	51.782795
1050.000000	51.710937
1049.000000	51.658052
1048.000000	51.607489
1047.000000	51.569239
1046.000000	51.503436
1045.000000	51.439449
1044.000000	51.362847
1043.000000	51.284328
1042.000000	51.227406
1041.000000	51.163622
1040.000000	51.087020
1039.000000	50.995986
1038.000000	50.917264
1037.000000	50.858829
1036.000000	50.777282
1035.000000	50.681807
1034.000000	50.597837
1033.000000	50.505188
1032.000000	50.408805
1031.000000	50.320193
1030.000000	50.226636
1029.000000	50.123087
1028.000000	50.037099
1027.000000	49.948084
1026.000000	49.832727
1025.000000	49.721205
1024.000000	49.625023
1023.000000	49.533182
1022.000000	49.442248
1021.000000	49.339608
1020.000000	49.228187
1019.000000	49.140584
1018.000000	49.057826
1017.000000	48.980013
1016.000000	48.909870
1015.000000	48.855775
1014.000000	48.800771
1013.000000	48.746473
1012.000000	48.711957
1011.000000	48.679661
1010.000000	48.661192
1009.000000	48.647466
1008.000000	48.641107
1007.000000	48.644741
1006.000000	48.647163
1005.000000	48.641410
1004.000000	48.637373
1003.000000	48.634749
1002.000000	48.620923
1001.000000	48.611537
1000.000000	48.609316
999.000000	48.615170
998.000000	48.615977
997.000000	48.622739
996.000000	48.630510
995.000000	48.641208
994.000000	48.663513
993.000000	48.691267
992.000000	48.692075
991.000000	48.720939
990.000000	48.757373
989.000000	48.785531
988.000000	48.829332
987.000000	48.861023
986.000000	48.916329
985.000000	48.987179
984.000000	49.047229
983.000000	49.103949
982.000000	49.172376
981.000000	49.240702
980.000000	49.310844
979.000000	49.392795
978.000000	49.463645
977.000000	49.553064
976.000000	49.635318
975.000000	49.734527
974.000000	49.837066
973.000000	49.928403
972.000000	50.028521
971.000000	50.139235
970.000000	50.252473
969.000000	50.361371
968.000000	50.473801
967.000000	50.614692
966.000000	50.733178
965.000000	50.851260
964.000000	50.985490
963.000000	51.149492
962.000000	51.307944
961.000000	51.451661
960.000000	51.620407
959.000000	51.799549
958.000000	51.963350
957.000000	52.137647
956.000000	52.297108
955.000000	52.461111
954.000000	52.625517
953.000000	52.796383
952.000000	52.957762
951.000000	53.125499
950.000000	53.295961
949.000000	53.466322
948.000000	53.642738
947.000000	53.833991
946.000000	53.989718
945.000000	54.178750
944.000000	54.365562
943.000000	54.561961
942.000000	54.753517
941.000000	54.971716
940.000000	55.149445
939.000000	55.346349
938.000000	55.553547
937.000000	55.763067
936.000000	55.959467
935.000000	56.180492
934.000000	56.362662
933.000000	56.580962
932.000000	56.773627
931.000000	56.954182
930.000000	57.140186
929.000000	57.346375
928.000000	57.517140
927.000000	57.703346
926.000000	57.856853
925.000000	58.079291
924.000000	58.234615
923.000000	58.404673
922.000000	58.586842
921.000000	58.741762
920.000000	58.940987
919.000000	59.099439
918.000000	59.273736
917.000000	59.432895
916.000000	59.579538
915.000000	59.746064
914.000000	59.907645
913.000000	60.081740
912.000000	60.246550
911.000000	60.416205
910.000000	60.641065
909.000000	60.794875
908.000000	60.969475
907.000000	61.160929
906.000000	61.391239
905.000000	61.589355
904.000000	61.826427
903.000000	62.038268
902.000000	62.262523
901.000000	62.460134
900.000000	62.681159
899.000000	62.905414
898.000000	63.134614
897.000000	63.362401
896.000000	63.573738
895.000000	63.778212
894.000000	64.011247
893.000000	64.211078
892.000000	64.412322
891.000000	64.557856
890.000000	64.775147
889.000000	64.957316
888.000000	65.165827
887.000000	65.374741
886.000000	65.569929
885.000000	65.747456
884.000000	65.907321
883.000000	66.099684
882.000000	66.287505
881.000000	66.467555
880.000000	66.681111
879.000000	66.867822
878.000000	67.048175
877.000000	67.235088
876.000000	67.427652
875.000000	67.607399
874.000000	67.829938
873.000000	68.031889
872.000000	68.229197
871.000000	68.402687
870.000000	68.612509
869.000000	68.812542
868.000000	69.018025
867.000000	69.182431
866.000000	69.387410
865.000000	69.528503
864.000000	69.666669
863.000000	69.812303
862.000000	69.871647
861.000000	69.928064
860.000000	69.933615
859.000000	69.998005
858.000000	70.252133
857.000000	70.204600
856.000000	70.175100
855.000000	70.376700
854.000000	70.412600
853.000000	70.799900
852.000000	71.395500
851.000000	71.709400
850.000000	71.561500
849.000000	71.990600
848.000000	72.306900
847.000000	72.558200
846.000000	72.738100
845.000000	73.047600
844.000000	73.470500
843.000000	73.823500
842.000000	74.476300
841.000000	74.460300
840.000000	74.653600
839.000000	74.949800
838.000000	75.173300
837.000000	75.552800
836.000000	75.880100
835.000000	76.249200
834.000000	76.484100
833.000000	76.855600
832.000000	77.238200
831.000000	77.618100
830.000000	77.817300
829.000000	78.217700
828.000000	78.611600
827.000000	78.955000
826.000000	79.187100
825.000000	79.610800
824.000000	79.844400
823.000000	80.172000
822.000000	80.476400
821.000000	80.898900
820.000000	81.150100
819.000000	81.347100
818.000000	81.545400
817.000000	81.857400
816.000000	82.011800
815.000000	82.313600
814.000000	82.441700
813.000000	82.789100
812.000000	83.037700
811.000000	83.087300
810.000000	83.136300
809.000000	83.376600
808.000000	83.586600
807.000000	83.566500
806.000000	83.742600
805.000000	83.804000
804.000000	83.871000
803.000000	83.878700
802.000000	83.949600
801.000000	83.950200
800.000000	83.948600
799.000000	83.945400
798.000000	83.958100
797.000000	83.879200
796.000000	83.655700
795.000000	83.626300
794.000000	83.647700
793.000000	83.663600
792.000000	83.562600
791.000000	83.550400
790.000000	83.468900
789.000000	83.313100
788.000000	83.307000
787.000000	83.304500
786.000000	83.168800
785.000000	83.229200
784.000000	83.170200
783.000000	83.077100
782.000000	83.011200
781.000000	82.891200
780.000000	82.864900
779.000000	82.847300
778.000000	82.845400
777.000000	82.695200
776.000000	82.648900
775.000000	82.738300
774.000000	82.726900
773.000000	82.689000
772.000000	82.771100
771.000000	82.791300
770.000000	82.740100
769.000000	82.733200
768.000000	82.750400
767.000000	82.758500
766.000000	82.691300
765.000000	82.671500
764.000000	82.743700
763.000000	82.724000
762.000000	82.651500
761.000000	82.629100
760.000000	82.541300
759.000000	82.377600
758.000000	82.315900
757.000000	82.207400
756.000000	82.087800
755.000000	81.959600
754.000000	81.753800
753.000000	81.654100
752.000000	81.495000
751.000000	81.247100
750.000000	81.099300
749.000000	80.880900
748.000000	80.618700
747.000000	80.431000
746.000000	80.217100
745.000000	79.937100
744.000000	79.716600
743.000000	79.495700
742.000000	79.183200
741.000000	78.873200
740.000000	78.570500
739.000000	78.288100
738.000000	77.874300
737.000000	77.481800
736.000000	77.073000
735.000000	76.667000
734.000000	76.318600
733.000000	75.851000
732.000000	75.338600
731.000000	74.822500
730.000000	74.362200
729.000000	73.847400
728.000000	73.361900
727.000000	72.835200
726.000000	72.292200
725.000000	71.738500
724.000000	71.152800
723.000000	70.693500
722.000000	70.241900
721.000000	69.694300
720.000000	69.209400
719.000000	68.785400
718.000000	68.426600
717.000000	68.093600
716.000000	67.791300
715.000000	67.472100
714.000000	67.266000
713.000000	67.130700
712.000000	66.956200
711.000000	66.825400
710.000000	66.769200
709.000000	66.718700
708.000000	66.753000
707.000000	66.838000
706.000000	66.898100
705.000000	66.985400
704.000000	67.076400
703.000000	67.260200
702.000000	67.370100
701.000000	67.483600
700.000000	67.628100
699.000000	67.726100
698.000000	67.800900
697.000000	67.812400
696.000000	67.744500
695.000000	67.703400
694.000000	67.610800
693.000000	67.454000
692.000000	67.190400
691.000000	66.884500
690.000000	66.519500
689.000000	66.137800
688.000000	65.672700
687.000000	65.110800
686.000000	64.544500
685.000000	63.998900
684.000000	63.340000
683.000000	62.675500
682.000000	61.952200
681.000000	61.297600
680.000000	60.653600
679.000000	59.926500
678.000000	59.249400
677.000000	58.623200
676.000000	57.976000
675.000000	57.382300
674.000000	56.821200
673.000000	56.266600
672.000000	55.745500
671.000000	55.238700
670.000000	54.794700
669.000000	54.292600
668.000000	53.929000
667.000000	53.619300
666.000000	53.357500
665.000000	53.129400
664.000000	52.987400
663.000000	52.807200
662.000000	52.739100
661.000000	52.696300
660.000000	52.730700
659.000000	52.808200
658.000000	52.905300
657.000000	53.054200
656.000000	53.218900
655.000000	53.393900
654.000000	53.548100
653.000000	53.735100
652.000000	53.871100
651.000000	54.038200
650.000000	54.144900
649.000000	54.316000
648.000000	54.367100
647.000000	54.478700
646.000000	54.545000
645.000000	54.623400
644.000000	54.632900
643.000000	54.721600
642.000000	54.852700
641.000000	54.985800
640.000000	55.184700
639.000000	55.363300
638.000000	55.683900
637.000000	55.976200
636.000000	56.367100
635.000000	56.810700
634.000000	57.220900
633.000000	57.781700
632.000000	58.361400
631.000000	58.956700
630.000000	59.563500
629.000000	60.201600
628.000000	60.794600
627.000000	61.382300
626.000000	61.966100
625.000000	62.528100
624.000000	63.110900
623.000000	63.640200
622.000000	64.059700
621.000000	64.567000
620.000000	64.984200
619.000000	65.417900
618.000000	65.820300
617.000000	66.151800
616.000000	66.524200
615.000000	66.872200
614.000000	67.096000
613.000000	67.345600
612.000000	67.528000
611.000000	67.760700
610.000000	67.956600
609.000000	68.103800
608.000000	68.237900
607.000000	68.381500
606.000000	68.510700
605.000000	68.677700
604.000000	68.766200
603.000000	68.824500
602.000000	68.844700
601.000000	68.882400
600.000000	68.901900
599.000000	68.836600
598.000000	68.883200
597.000000	68.844100
596.000000	68.867100
595.000000	68.839500
594.000000	68.825300
593.000000	68.802700
592.000000	68.733100
591.000000	68.595200
590.000000	68.507300
589.000000	68.351200
588.000000	68.156800
587.000000	68.005300
586.000000	67.792700
585.000000	67.599700
584.000000	67.388300
583.000000	67.134200
582.000000	66.893400
581.000000	66.699800
580.000000	66.460500
579.000000	66.165100
578.000000	65.882700
577.000000	65.572300
576.000000	65.282200
575.000000	64.981000
574.000000	64.696800
573.000000	64.373600
572.000000	64.073700
571.000000	63.784100
570.000000	63.414200
569.000000	63.031300
568.000000	62.590900
567.000000	62.159500
566.000000	61.671700
565.000000	61.217000
564.000000	60.665900
563.000000	60.099900
562.000000	59.511100
561.000000	58.911800
560.000000	58.281900
559.000000	57.444500
558.000000	56.748100
557.000000	56.035500
556.000000	55.333200
555.000000	54.628900
554.000000	53.917100
553.000000	53.213200
552.000000	52.514300
551.000000	51.773000
550.000000	51.109800
549.000000	50.392500
548.000000	49.704700
547.000000	49.055300
546.000000	48.352600
545.000000	47.671300
544.000000	47.002500
543.000000	46.313000
542.000000	45.613200
541.000000	44.902500
540.000000	44.195600
539.000000	43.484600
538.000000	42.795500
537.000000	42.106600
536.000000	41.433800
535.000000	40.758700
534.000000	40.052800
533.000000	39.387700
532.000000	38.726100
531.000000	38.079000
530.000000	37.412100
529.000000	36.725000
528.000000	36.030300
527.000000	35.347000
526.000000	34.644800
525.000000	33.946300
524.000000	33.199900
523.000000	32.409200
522.000000	31.618900
521.000000	30.838400
520.000000	30.025000
519.000000	29.201600
518.000000	28.407600
517.000000	27.621800
516.000000	26.865100
515.000000	26.122500
514.000000	25.428000
513.000000	24.771700
512.000000	24.188700
511.000000	23.691200
510.000000	23.267500
509.000000	22.980500
508.000000	22.767300
507.000000	22.624700
506.000000	22.602700
505.000000	22.646000
504.000000	22.780600
503.000000	22.993400
502.000000	23.240800
501.000000	23.511300
500.000000	23.835600
499.000000	24.176700
498.000000	24.515200
497.000000	24.871000
496.000000	25.195900
495.000000	25.491300
494.000000	25.763900
493.000000	26.007900
492.000000	26.231200
491.000000	26.425200
490.000000	26.595200
489.000000	26.750200
488.000000	26.853600
487.000000	26.913400
486.000000	26.980900
485.000000	27.021300
484.000000	27.014700
483.000000	27.029300
482.000000	27.020400
481.000000	26.959500
480.000000	26.883600
479.000000	26.783400
478.000000	26.690000
477.000000	26.594600
476.000000	26.474100
475.000000	26.364100
474.000000	26.254100
473.000000	26.117800
472.000000	25.968100
471.000000	25.820600
470.000000	25.678600
469.000000	25.534000
468.000000	25.382600
467.000000	25.232700
466.000000	25.072200
465.000000	24.910000
464.000000	24.734300
463.000000	24.536000
462.000000	24.328800
461.000000	24.131100
460.000000	23.924700
459.000000	23.709100
458.000000	23.476200
457.000000	23.253400
456.000000	23.009600
455.000000	22.734500
454.000000	22.464000
453.000000	22.191300
452.000000	21.898200
451.000000	21.578700
450.000000	21.235700
449.000000	20.900300
448.000000	20.564900
447.000000	20.196200
446.000000	19.797500
445.000000	19.395800
444.000000	18.984700
443.000000	18.557700
442.000000	18.098900
441.000000	17.632300
440.000000	17.166200
439.000000	16.678500
438.000000	16.195100
437.000000	15.689000
436.000000	15.183300
435.000000	14.684900
434.000000	14.172100
433.000000	13.656300
432.000000	13.158700
431.000000	12.661400
430.000000	12.170800
429.000000	11.711400
428.000000	11.252500
427.000000	10.817400
426.000000	10.409000
425.000000	10.010100
424.000000	9.623200
423.000000	9.266500
422.000000	8.938700
421.000000	8.622800
420.000000	8.328800
419.000000	8.060900
418.000000	7.815600
417.000000	7.589500
416.000000	7.378400
415.000000	7.198500
414.000000	7.047800
413.000000	6.883700
412.000000	6.747500
411.000000	6.625100
410.000000	6.504300
409.000000	6.418000
408.000000	6.329000
407.000000	6.261900
406.000000	6.191400
405.000000	6.114100
404.000000	6.063700
403.000000	6.024000
402.000000	5.973200
401.000000	5.926600
400.000000	5.894600
399.000000	5.852200
398.000000	5.815100
397.000000	5.785500
396.000000	5.767100
395.000000	5.738800
394.000000	5.712900
393.000000	5.688000
392.000000	5.666500
391.000000	5.654300
390.000000	5.627900
389.000000	5.610800
388.000000	5.603600
387.000000	5.568100
386.000000	5.552900
385.000000	5.523000
384.000000	5.496800
383.000000	5.471800
382.000000	5.447300
381.000000	5.429400
380.000000	5.405000
379.000000	5.404500
378.000000	5.375100
377.000000	5.368600
376.000000	5.299400
375.000000	5.197500
374.000000	5.172900
373.000000	5.151200
372.000000	5.195400
371.000000	5.210100
370.000000	5.214500
369.000000	5.221300
368.000000	5.207900
367.000000	5.229900
366.000000	5.276600
365.000000	5.209900
364.000000	5.184500
363.000000	5.214100
362.000000	5.143800
361.000000	5.133500
360.000000	5.136400
359.000000	5.104100
358.000000	5.041000
357.000000	5.046900
356.000000	5.070900
355.000000	5.113300
354.000000	5.100700
353.000000	5.067200
352.000000	5.065800
351.000000	4.994100
350.000000	5.075800
349.000000	5.090100
348.000000	4.941900
347.000000	4.942500
346.000000	4.921900
345.000000	4.955700
344.000000	4.950300
343.000000	5.006600
342.000000	4.946000
341.000000	4.950800
340.000000	4.929900
339.000000	4.952600
338.000000	4.885600
337.000000	4.827500
336.000000	4.894000
335.000000	4.883700
334.000000	4.911200
333.000000	4.938900
332.000000	4.836700
331.000000	5.066000
330.000000	5.035700
329.000000	5.007600
328.000000	5.021000
327.000000	4.927500
326.000000	5.050100
325.000000	5.015100
324.000000	4.900200
323.000000	4.793600
322.000000	5.039700
321.000000	4.995900
320.000000	4.930300
319.000000	5.226100
318.000000	4.992100
317.000000	5.061000
316.000000	4.836700
315.000000	4.814400
314.000000	4.768700
313.000000	4.799900
312.000000	4.800100
311.000000	4.790900
310.000000	4.805700
309.000000	4.833500
308.000000	4.826500
307.000000	4.847500
306.000000	4.792100
305.000000	4.788400
304.000000	4.844100
303.000000	4.880700
302.000000	4.819800
301.000000	4.850000
300.000000	4.880100
299.000000	4.867000
298.000000	4.931500
297.000000	4.884800
296.000000	4.888400
295.000000	4.934900
294.000000	4.877800
293.000000	4.937500
292.000000	4.940700
291.000000	5.001600
290.000000	5.011800
289.000000	4.935200
288.000000	4.965400
287.000000	4.994500
286.000000	5.032700
285.000000	5.002200
284.000000	5.031100
283.000000	4.977500
282.000000	5.033400
281.000000	5.054700
280.000000	5.055200
279.000000	5.045700
278.000000	5.100100
277.000000	5.094500
276.000000	5.064200
275.000000	5.025400
274.000000	5.106500
273.000000	5.101400
272.000000	5.111800
271.000000	5.048000
270.000000	5.166300
269.000000	5.163700
268.000000	5.174100
267.000000	5.130100
266.000000	5.160900
265.000000	5.211700
264.000000	5.275900
263.000000	5.266600
262.000000	5.212000
261.000000	5.244900
260.000000	5.272700
259.000000	5.282600
258.000000	5.345400
257.000000	5.424700
256.000000	5.340900
255.000000	5.355800
254.000000	5.350000
253.000000	5.341500
252.000000	5.415600
251.000000	5.394200
250.000000	5.484800
