PE UV       SUBTECH     SPECTRUM    ASCII       PEDS        4.00        
   -1
CICIMAUCR0104-3.Sample.ASC
24/04/04
11:30:21.00
24/04/04
11:30:21.00
Vinicio Soto Monge
C. resplendens
250,000000
1
Lambda 1050
1050L1511233
PerkinElmer UV WinLab 6.3.2.0749 / 2.02.05 Lambda 900 UV/VIS/NIR, Aug  7 2015 09:38:08

0
0
3350/servo 860,8/2
0
0
UV/VIS
1
1
1
DoubleDePol,CommonBeamDepol,RBeamAtt,SBeamAtt,60mm sphere, WB InGaAs Detector
0
0
0
0
Program
Program
3350/servo 860,8/2
3350/0,2 860,8/0,2
3350/0,2 860,8/0,2
0
15.00
 
 
 
0
 
860,8
319,2
860,8
Front
100
on
S:100 R:100
0
0
0
0
 
0
 
 
 
0
 
 
0
0
0
0
0
 
 
 
 
0
0


0
0
#HDR
-1
-1
#GR
nm
%R
1.0
0.0
2500,000000
-1,000000
2251
8
72,628200
5,074300
#DATA
2500.000000	6.182508
2499.000000	6.104908
2498.000000	6.148030
2497.000000	6.216489
2496.000000	6.087024
2495.000000	6.128158
2494.000000	6.063973
2493.000000	6.051652
2492.000000	6.087024
2491.000000	6.041219
2490.000000	6.071027
2489.000000	6.072120
2488.000000	6.016380
2487.000000	6.031979
2486.000000	6.033867
2485.000000	5.979021
2484.000000	6.071822
2483.000000	6.075001
2482.000000	6.188171
2481.000000	6.087620
2480.000000	6.067450
2479.000000	6.044300
2478.000000	6.054136
2477.000000	6.117924
2476.000000	6.112360
2475.000000	6.091495
2474.000000	6.160649
2473.000000	6.160549
2472.000000	6.162636
2471.000000	6.189562
2470.000000	6.161742
2469.000000	6.172572
2468.000000	6.200293
2467.000000	6.277495
2466.000000	6.236758
2465.000000	6.263485
2464.000000	6.299950
2463.000000	6.331049
2462.000000	6.364036
2461.000000	6.392056
2460.000000	6.421367
2459.000000	6.453559
2458.000000	6.522216
2457.000000	6.563152
2456.000000	6.605975
2455.000000	6.677017
2454.000000	6.736732
2453.000000	6.771905
2452.000000	6.814828
2451.000000	6.875139
2450.000000	6.948167
2449.000000	7.014837
2448.000000	7.062927
2447.000000	7.133670
2446.000000	7.210972
2445.000000	7.270488
2444.000000	7.321558
2443.000000	7.387930
2442.000000	7.450129
2441.000000	7.522064
2440.000000	7.604035
2439.000000	7.670208
2438.000000	7.723465
2437.000000	7.790433
2436.000000	7.844683
2435.000000	7.912545
2434.000000	7.965801
2433.000000	8.017865
2432.000000	8.066054
2431.000000	8.116131
2430.000000	8.174057
2429.000000	8.210224
2428.000000	8.277093
2427.000000	8.323195
2426.000000	8.364032
2425.000000	8.403179
2424.000000	8.446102
2423.000000	8.488032
2422.000000	8.524496
2421.000000	8.571692
2420.000000	8.636573
2419.000000	8.681285
2418.000000	8.732057
2417.000000	8.766634
2416.000000	8.807073
2415.000000	8.835688
2414.000000	8.861323
2413.000000	8.902060
2412.000000	8.941903
2411.000000	8.974195
2410.000000	9.006188
2409.000000	9.046230
2408.000000	9.067592
2407.000000	9.110614
2406.000000	9.142807
2405.000000	9.182948
2404.000000	9.200037
2403.000000	9.232925
2402.000000	9.274755
2401.000000	9.314002
2400.000000	9.338842
2399.000000	9.352653
2398.000000	9.395377
2397.000000	9.435419
2396.000000	9.460954
2395.000000	9.483210
2394.000000	9.519377
2393.000000	9.544316
2392.000000	9.565877
2391.000000	9.593499
2390.000000	9.621220
2389.000000	9.638111
2388.000000	9.650729
2387.000000	9.659771
2386.000000	9.667124
2385.000000	9.671197
2384.000000	9.682624
2383.000000	9.685604
2382.000000	9.689877
2381.000000	9.684511
2380.000000	9.663944
2379.000000	9.658976
2378.000000	9.654406
2377.000000	9.637912
2376.000000	9.619034
2375.000000	9.610290
2374.000000	9.590120
2373.000000	9.556239
2372.000000	9.529213
2371.000000	9.504374
2370.000000	9.488377
2369.000000	9.465524
2368.000000	9.433233
2367.000000	9.397861
2366.000000	9.345101
2365.000000	9.295024
2364.000000	9.251704
2363.000000	9.198746
2362.000000	9.155326
2361.000000	9.105845
2360.000000	9.050005
2359.000000	8.998239
2358.000000	8.941506
2357.000000	8.893913
2356.000000	8.865099
2355.000000	8.834099
2354.000000	8.813929
2353.000000	8.793361
2352.000000	8.772297
2351.000000	8.787996
2350.000000	8.791573
2349.000000	8.792467
2348.000000	8.808464
2347.000000	8.837775
2346.000000	8.871656
2345.000000	8.892025
2344.000000	8.916467
2343.000000	8.933656
2342.000000	8.968829
2341.000000	8.999034
2340.000000	9.009070
2339.000000	9.010361
2338.000000	9.017813
2337.000000	9.023874
2336.000000	8.997246
2335.000000	8.993272
2334.000000	8.981348
2333.000000	8.946573
2332.000000	8.918752
2331.000000	8.879804
2330.000000	8.829528
2329.000000	8.772993
2328.000000	8.731858
2327.000000	8.684563
2326.000000	8.628426
2325.000000	8.548442
2324.000000	8.479089
2323.000000	8.410830
2322.000000	8.346843
2321.000000	8.262387
2320.000000	8.180714
2319.000000	8.081356
2318.000000	7.995509
2317.000000	7.904298
2316.000000	7.799176
2315.000000	7.712933
2314.000000	7.636327
2313.000000	7.548593
2312.000000	7.467814
2311.000000	7.396475
2310.000000	7.325234
2309.000000	7.266215
2308.000000	7.236606
2307.000000	7.201831
2306.000000	7.200837
2305.000000	7.196962
2304.000000	7.189610
2303.000000	7.197856
2302.000000	7.223988
2301.000000	7.255882
2300.000000	7.304270
2299.000000	7.358917
2298.000000	7.397965
2297.000000	7.436417
2296.000000	7.498119
2295.000000	7.535378
2294.000000	7.583667
2293.000000	7.602644
2292.000000	7.607612
2291.000000	7.605923
2290.000000	7.597180
2289.000000	7.601949
2288.000000	7.582773
2287.000000	7.544420
2286.000000	7.499808
2285.000000	7.469603
2284.000000	7.432542
2283.000000	7.391805
2282.000000	7.334673
2281.000000	7.271382
2280.000000	7.219218
2279.000000	7.165267
2278.000000	7.112110
2277.000000	7.068193
2276.000000	7.026860
2275.000000	6.984135
2274.000000	6.938132
2273.000000	6.915478
2272.000000	6.884478
2271.000000	6.869873
2270.000000	6.866395
2269.000000	6.879113
2268.000000	6.874344
2267.000000	6.908126
2266.000000	6.940715
2265.000000	6.999238
2264.000000	7.076738
2263.000000	7.143110
2262.000000	7.234917
2261.000000	7.355241
2260.000000	7.481129
2259.000000	7.566776
2258.000000	7.718795
2257.000000	7.863958
2256.000000	8.015679
2255.000000	8.121397
2254.000000	8.293884
2253.000000	8.411525
2252.000000	8.569804
2251.000000	8.698374
2250.000000	8.803496
2249.000000	8.930874
2248.000000	9.039374
2247.000000	9.125518
2246.000000	9.228951
2245.000000	9.319566
2244.000000	9.405810
2243.000000	9.495332
2242.000000	9.556736
2241.000000	9.633441
2240.000000	9.711040
2239.000000	9.744922
2238.000000	9.797880
2237.000000	9.823514
2236.000000	9.907870
2235.000000	9.924165
2234.000000	9.942745
2233.000000	9.943242
2232.000000	9.955662
2231.000000	9.968380
2230.000000	9.961425
2229.000000	9.954867
2228.000000	9.933008
2227.000000	9.903995
2226.000000	9.853421
2225.000000	9.802351
2224.000000	9.757242
2223.000000	9.715015
2222.000000	9.649736
2221.000000	9.579092
2220.000000	9.519874
2219.000000	9.428066
2218.000000	9.389117
2217.000000	9.326323
2216.000000	9.276742
2215.000000	9.214246
2214.000000	9.166951
2213.000000	9.158307
2212.000000	9.112602
2211.000000	9.094419
2210.000000	9.103063
2209.000000	9.140422
2208.000000	9.152146
2207.000000	9.206694
2206.000000	9.291944
2205.000000	9.376797
2204.000000	9.450422
2203.000000	9.570547
2202.000000	9.707165
2201.000000	9.848553
2200.000000	9.979607
2199.000000	10.126261
2198.000000	10.276790
2197.000000	10.441825
2196.000000	10.579139
2195.000000	10.719533
2194.000000	10.852873
2193.000000	11.004296
2192.000000	11.115180
2191.000000	11.245141
2190.000000	11.341520
2189.000000	11.451709
2188.000000	11.515199
2187.000000	11.605019
2186.000000	11.691462
2185.000000	11.732099
2184.000000	11.777705
2183.000000	11.843282
2182.000000	11.893955
2181.000000	11.917205
2180.000000	11.949199
2179.000000	11.991625
2178.000000	12.011695
2177.000000	12.050942
2176.000000	12.084823
2175.000000	12.100224
2174.000000	12.138577
2173.000000	12.160634
2172.000000	12.180904
2171.000000	12.207929
2170.000000	12.231278
2169.000000	12.267346
2168.000000	12.308778
2167.000000	12.341766
2166.000000	12.380019
2165.000000	12.408932
2164.000000	12.444304
2163.000000	12.477092
2162.000000	12.514153
2161.000000	12.546842
2160.000000	12.605166
2159.000000	12.641730
2158.000000	12.666073
2157.000000	12.713368
2156.000000	12.798022
2155.000000	12.847999
2154.000000	12.892313
2153.000000	12.935733
2152.000000	12.987300
2151.000000	13.058640
2150.000000	13.112493
2149.000000	13.175387
2148.000000	13.213242
2147.000000	13.269678
2146.000000	13.324624
2145.000000	13.379470
2144.000000	13.418915
2143.000000	13.467899
2142.000000	13.525627
2141.000000	13.574114
2140.000000	13.613659
2139.000000	13.664332
2138.000000	13.718383
2137.000000	13.747098
2136.000000	13.776011
2135.000000	13.813171
2134.000000	13.842582
2133.000000	13.862155
2132.000000	13.891466
2131.000000	13.910543
2130.000000	13.925844
2129.000000	13.953665
2128.000000	13.985957
2127.000000	13.996290
2126.000000	13.989136
2125.000000	13.990626
2124.000000	13.996190
2123.000000	13.998178
2122.000000	14.004636
2121.000000	13.989931
2120.000000	13.986255
2119.000000	13.982876
2118.000000	13.958533
2117.000000	13.949194
2116.000000	13.935880
2115.000000	13.918293
2114.000000	13.903687
2113.000000	13.877755
2112.000000	13.859175
2111.000000	13.843675
2110.000000	13.830261
2109.000000	13.805223
2108.000000	13.777899
2107.000000	13.758027
2106.000000	13.735970
2105.000000	13.708050
2104.000000	13.694139
2103.000000	13.685793
2102.000000	13.669200
2101.000000	13.655191
2100.000000	13.633133
2099.000000	13.606704
2098.000000	13.577790
2097.000000	13.553149
2096.000000	13.534172
2095.000000	13.521950
2094.000000	13.514300
2093.000000	13.494329
2092.000000	13.486082
2091.000000	13.487970
2090.000000	13.467005
2089.000000	13.447034
2088.000000	13.446438
2087.000000	13.433819
2086.000000	13.407886
2085.000000	13.400335
2084.000000	13.392387
2083.000000	13.371024
2082.000000	13.356220
2081.000000	13.323829
2080.000000	13.302963
2079.000000	13.292133
2078.000000	13.275143
2077.000000	13.248217
2076.000000	13.215627
2075.000000	13.189098
2074.000000	13.159489
2073.000000	13.123124
2072.000000	13.087851
2071.000000	13.057348
2070.000000	13.024560
2069.000000	13.001409
2068.000000	12.969316
2067.000000	12.923512
2066.000000	12.893108
2065.000000	12.866679
2064.000000	12.838262
2063.000000	12.818589
2062.000000	12.785800
2061.000000	12.784310
2060.000000	12.778050
2059.000000	12.783217
2058.000000	12.774573
2057.000000	12.774474
2056.000000	12.806268
2055.000000	12.830313
2054.000000	12.863002
2053.000000	12.920730
2052.000000	12.979153
2051.000000	13.053275
2050.000000	13.152335
2049.000000	13.248316
2048.000000	13.360194
2047.000000	13.464223
2046.000000	13.564277
2045.000000	13.688079
2044.000000	13.821816
2043.000000	13.967575
2042.000000	14.111546
2041.000000	14.233460
2040.000000	14.378623
2039.000000	14.516334
2038.000000	14.619071
2037.000000	14.732738
2036.000000	14.848789
2035.000000	14.970703
2034.000000	15.091026
2033.000000	15.190882
2032.000000	15.289247
2031.000000	15.397548
2030.000000	15.487866
2029.000000	15.572619
2028.000000	15.663631
2027.000000	15.725929
2026.000000	15.812968
2025.000000	15.884407
2024.000000	15.958827
2023.000000	16.031160
2022.000000	16.095545
2021.000000	16.163009
2020.000000	16.214775
2019.000000	16.268429
2018.000000	16.320592
2017.000000	16.382493
2016.000000	16.444195
2015.000000	16.481156
2014.000000	16.524477
2013.000000	16.574852
2012.000000	16.599592
2011.000000	16.621849
2010.000000	16.662288
2009.000000	16.683054
2008.000000	16.688022
2007.000000	16.714550
2006.000000	16.720512
2005.000000	16.717134
2004.000000	16.739092
2003.000000	16.713358
2002.000000	16.699349
2001.000000	16.687624
2000.000000	16.694182
1999.000000	16.641820
1998.000000	16.638541
1997.000000	16.584390
1996.000000	16.585881
1995.000000	16.543653
1994.000000	16.525172
1993.000000	16.470525
1992.000000	16.431775
1991.000000	16.350798
1990.000000	16.316717
1989.000000	16.283631
1988.000000	16.225208
1987.000000	16.171852
1986.000000	16.107666
1985.000000	16.043779
1984.000000	16.005128
1983.000000	15.934285
1982.000000	15.860163
1981.000000	15.812769
1980.000000	15.752458
1979.000000	15.692346
1978.000000	15.634122
1977.000000	15.560696
1976.000000	15.485779
1975.000000	15.428052
1974.000000	15.371417
1973.000000	15.317068
1972.000000	15.278020
1971.000000	15.202805
1970.000000	15.148058
1969.000000	15.084568
1968.000000	15.022369
1967.000000	14.972094
1966.000000	14.900456
1965.000000	14.859023
1964.000000	14.816696
1963.000000	14.753802
1962.000000	14.684748
1961.000000	14.623244
1960.000000	14.553097
1959.000000	14.499642
1958.000000	14.462382
1957.000000	14.386572
1956.000000	14.332520
1955.000000	14.277575
1954.000000	14.213091
1953.000000	14.151787
1952.000000	14.101213
1951.000000	14.060873
1950.000000	14.002053
1949.000000	13.946610
1948.000000	13.901800
1947.000000	13.842284
1946.000000	13.843575
1945.000000	13.806614
1944.000000	13.731300
1943.000000	13.738056
1942.000000	13.722954
1941.000000	13.701492
1940.000000	13.696822
1939.000000	13.677646
1938.000000	13.686290
1937.000000	13.694636
1936.000000	13.692450
1935.000000	13.719774
1934.000000	13.764386
1933.000000	13.787636
1932.000000	13.821418
1931.000000	13.897428
1930.000000	13.965588
1929.000000	14.015168
1928.000000	14.102902
1927.000000	14.173844
1926.000000	14.264261
1925.000000	14.365806
1924.000000	14.470430
1923.000000	14.591251
1922.000000	14.723696
1921.000000	14.864587
1920.000000	14.982924
1919.000000	15.123517
1918.000000	15.281000
1917.000000	15.437888
1916.000000	15.634420
1915.000000	15.796574
1914.000000	16.005625
1913.000000	16.207919
1912.000000	16.363615
1911.000000	16.560445
1910.000000	16.791256
1909.000000	16.983614
1908.000000	17.205483
1907.000000	17.462524
1906.000000	17.712611
1905.000000	17.966969
1904.000000	18.208312
1903.000000	18.442402
1902.000000	18.707292
1901.000000	18.975561
1900.000000	19.231907
1899.000000	19.496898
1898.000000	19.764372
1897.000000	20.068509
1896.000000	20.337573
1895.000000	20.617666
1894.000000	20.883749
1893.000000	21.167220
1892.000000	21.475829
1891.000000	21.770527
1890.000000	22.058072
1889.000000	22.319386
1888.000000	22.628392
1887.000000	22.962635
1886.000000	23.324103
1885.000000	23.702660
1884.000000	24.139342
1883.000000	24.577118
1882.000000	24.997605
1881.000000	25.477011
1880.000000	25.930982
1879.000000	26.353257
1878.000000	26.765398
1877.000000	27.166609
1876.000000	27.512577
1875.000000	27.860134
1874.000000	28.168743
1873.000000	28.447345
1872.000000	28.694153
1871.000000	28.906781
1870.000000	29.075393
1869.000000	29.245098
1868.000000	29.364825
1867.000000	29.469053
1866.000000	29.569703
1865.000000	29.663200
1864.000000	29.760472
1863.000000	29.856056
1862.000000	29.930078
1861.000000	29.993867
1860.000000	30.034405
1859.000000	30.025562
1858.000000	30.010062
1857.000000	30.022383
1856.000000	30.033411
1855.000000	30.013142
1854.000000	29.958892
1853.000000	29.888745
1852.000000	29.862812
1851.000000	29.874835
1850.000000	29.884870
1849.000000	29.846418
1848.000000	29.751530
1847.000000	29.609944
1846.000000	29.500252
1845.000000	29.470742
1844.000000	29.476704
1843.000000	29.497966
1842.000000	29.472431
1841.000000	29.407848
1840.000000	29.341873
1839.000000	29.294678
1838.000000	29.250761
1837.000000	29.173261
1836.000000	29.092681
1835.000000	29.005345
1834.000000	28.924765
1833.000000	28.871707
1832.000000	28.812787
1831.000000	28.744727
1830.000000	28.668320
1829.000000	28.584957
1828.000000	28.485201
1827.000000	28.405714
1826.000000	28.340336
1825.000000	28.285192
1824.000000	28.255781
1823.000000	28.268003
1822.000000	28.277740
1821.000000	28.236108
1820.000000	28.158211
1819.000000	28.111612
1818.000000	28.097900
1817.000000	28.097602
1816.000000	28.101576
1815.000000	28.088660
1814.000000	28.093429
1813.000000	28.093528
1812.000000	28.051698
1811.000000	27.995461
1810.000000	27.961480
1809.000000	27.947173
1808.000000	27.928096
1807.000000	27.872654
1806.000000	27.816913
1805.000000	27.762166
1804.000000	27.710003
1803.000000	27.687250
1802.000000	27.653865
1801.000000	27.589977
1800.000000	27.532548
1799.000000	27.476212
1798.000000	27.431003
1797.000000	27.402984
1796.000000	27.349032
1795.000000	27.297962
1794.000000	27.255535
1793.000000	27.178036
1792.000000	27.119811
1791.000000	27.070827
1790.000000	27.021347
1789.000000	26.970673
1788.000000	26.908177
1787.000000	26.843097
1786.000000	26.764007
1785.000000	26.670411
1784.000000	26.599469
1783.000000	26.516802
1782.000000	26.438209
1781.000000	26.363094
1780.000000	26.275956
1779.000000	26.178485
1778.000000	26.070681
1777.000000	25.978078
1776.000000	25.860040
1775.000000	25.727495
1774.000000	25.574383
1773.000000	25.443627
1772.000000	25.307008
1771.000000	25.159063
1770.000000	25.025425
1769.000000	24.898246
1768.000000	24.768185
1767.000000	24.654618
1766.000000	24.576124
1765.000000	24.508659
1764.000000	24.444176
1763.000000	24.415560
1762.000000	24.442288
1761.000000	24.469611
1760.000000	24.526643
1759.000000	24.593611
1758.000000	24.629877
1757.000000	24.688300
1756.000000	24.737781
1755.000000	24.768781
1754.000000	24.763118
1753.000000	24.731521
1752.000000	24.699130
1751.000000	24.668627
1750.000000	24.604044
1749.000000	24.521179
1748.000000	24.461166
1747.000000	24.352368
1746.000000	24.193791
1745.000000	24.058067
1744.000000	23.898993
1743.000000	23.699381
1742.000000	23.492417
1741.000000	23.254154
1740.000000	23.009433
1739.000000	22.780510
1738.000000	22.579905
1737.000000	22.414174
1736.000000	22.269706
1735.000000	22.183661
1734.000000	22.144415
1733.000000	22.145408
1732.000000	22.190120
1731.000000	22.265533
1730.000000	22.383870
1729.000000	22.471305
1728.000000	22.575235
1727.000000	22.683834
1726.000000	22.749013
1725.000000	22.819260
1724.000000	22.870728
1723.000000	22.903020
1722.000000	22.924879
1721.000000	22.952500
1720.000000	22.975254
1719.000000	23.020263
1718.000000	23.074712
1717.000000	23.141282
1716.000000	23.213715
1715.000000	23.286843
1714.000000	23.386202
1713.000000	23.458039
1712.000000	23.505135
1711.000000	23.551535
1710.000000	23.575282
1709.000000	23.577070
1708.000000	23.561968
1707.000000	23.551337
1706.000000	23.523615
1705.000000	23.477016
1704.000000	23.398423
1703.000000	23.312676
1702.000000	23.215901
1701.000000	23.077395
1700.000000	22.881360
1699.000000	22.749610
1698.000000	22.607725
1697.000000	22.499523
1696.000000	22.468027
1695.000000	22.448652
1694.000000	22.500219
1693.000000	22.636539
1692.000000	22.774946
1691.000000	22.937299
1690.000000	23.086238
1689.000000	23.156484
1688.000000	23.208350
1687.000000	23.240443
1686.000000	23.269555
1685.000000	23.316353
1684.000000	23.433000
1683.000000	23.684378
1682.000000	24.035512
1681.000000	24.539958
1680.000000	25.061393
1679.000000	25.635886
1678.000000	26.172921
1677.000000	26.667530
1676.000000	27.130145
1675.000000	27.531356
1674.000000	27.881894
1673.000000	28.191794
1672.000000	28.437906
1671.000000	28.688489
1670.000000	28.893268
1669.000000	29.072313
1668.000000	29.248178
1667.000000	29.385194
1666.000000	29.492601
1665.000000	29.624351
1664.000000	29.709303
1663.000000	29.801806
1662.000000	29.897687
1661.000000	29.948658
1660.000000	29.991780
1659.000000	30.039472
1658.000000	30.096504
1657.000000	30.132870
1656.000000	30.109719
1655.000000	30.137440
1654.000000	30.135155
1653.000000	30.134956
1652.000000	30.100081
1651.000000	30.078024
1650.000000	30.056661
1649.000000	30.025761
1648.000000	29.987905
1647.000000	29.957601
1646.000000	29.895799
1645.000000	29.835091
1644.000000	29.778456
1643.000000	29.732155
1642.000000	29.682674
1641.000000	29.622463
1640.000000	29.561258
1639.000000	29.504127
1638.000000	29.442425
1637.000000	29.382114
1636.000000	29.305806
1635.000000	29.229300
1634.000000	29.156669
1633.000000	29.080560
1632.000000	29.008624
1631.000000	28.930528
1630.000000	28.866044
1629.000000	28.786060
1628.000000	28.691371
1627.000000	28.610095
1626.000000	28.544320
1625.000000	28.462448
1624.000000	28.373919
1623.000000	28.294134
1622.000000	28.211070
1621.000000	28.128900
1620.000000	28.050208
1619.000000	27.978173
1618.000000	27.907727
1617.000000	27.834500
1616.000000	27.758987
1615.000000	27.685064
1614.000000	27.608756
1613.000000	27.534436
1612.000000	27.473032
1611.000000	27.402090
1610.000000	27.336612
1609.000000	27.269545
1608.000000	27.204167
1607.000000	27.145247
1606.000000	27.067946
1605.000000	26.982199
1604.000000	26.911456
1603.000000	26.832465
1602.000000	26.771856
1601.000000	26.707671
1600.000000	26.628382
1599.000000	26.566680
1598.000000	26.505078
1597.000000	26.440494
1596.000000	26.378793
1595.000000	26.320866
1594.000000	26.274366
1593.000000	26.225681
1592.000000	26.172822
1591.000000	26.125030
1590.000000	26.080219
1589.000000	26.029844
1588.000000	25.994174
1587.000000	25.956716
1586.000000	25.929392
1585.000000	25.899287
1584.000000	25.872559
1583.000000	25.835597
1582.000000	25.812149
1581.000000	25.805790
1580.000000	25.800027
1579.000000	25.781348
1578.000000	25.757104
1577.000000	25.759886
1576.000000	25.777572
1575.000000	25.780553
1574.000000	25.781745
1573.000000	25.799729
1572.000000	25.809764
1571.000000	25.823873
1570.000000	25.855867
1569.000000	25.882793
1568.000000	25.911011
1567.000000	25.942210
1566.000000	25.977879
1565.000000	26.007091
1564.000000	26.038488
1563.000000	26.066110
1562.000000	26.081610
1561.000000	26.110623
1560.000000	26.128607
1559.000000	26.132283
1558.000000	26.147286
1557.000000	26.159607
1556.000000	26.148280
1555.000000	26.161395
1554.000000	26.162588
1553.000000	26.141126
1552.000000	26.129104
1551.000000	26.122645
1550.000000	26.106748
1549.000000	26.079126
1548.000000	26.058857
1547.000000	26.042860
1546.000000	26.031931
1545.000000	26.016729
1544.000000	25.990200
1543.000000	25.989803
1542.000000	25.993677
1541.000000	25.996559
1540.000000	25.998745
1539.000000	25.985331
1538.000000	25.974700
1537.000000	25.979469
1536.000000	25.990995
1535.000000	25.989803
1534.000000	25.988014
1533.000000	25.978575
1532.000000	25.954033
1531.000000	25.949463
1530.000000	25.938533
1529.000000	25.909222
1528.000000	25.883389
1527.000000	25.870572
1526.000000	25.865008
1525.000000	25.837287
1524.000000	25.802710
1523.000000	25.781944
1522.000000	25.772803
1521.000000	25.757998
1520.000000	25.725508
1519.000000	25.696296
1518.000000	25.673046
1517.000000	25.646716
1516.000000	25.607966
1515.000000	25.580643
1514.000000	25.555505
1513.000000	25.546364
1512.000000	25.507117
1511.000000	25.466280
1510.000000	25.455351
1509.000000	25.416005
1508.000000	25.375168
1507.000000	25.379341
1506.000000	25.355197
1505.000000	25.312374
1504.000000	25.274617
1503.000000	25.253752
1502.000000	25.241729
1501.000000	25.196223
1500.000000	25.173867
1499.000000	25.178537
1498.000000	25.178636
1497.000000	25.172774
1496.000000	25.163931
1495.000000	25.147835
1494.000000	25.151015
1493.000000	25.157076
1492.000000	25.160553
1491.000000	25.170986
1490.000000	25.191653
1489.000000	25.198806
1488.000000	25.203377
1487.000000	25.195031
1486.000000	25.216492
1485.000000	25.226229
1484.000000	25.238550
1483.000000	25.259515
1482.000000	25.288130
1481.000000	25.313566
1480.000000	25.324992
1479.000000	25.358575
1478.000000	25.412031
1477.000000	25.434982
1476.000000	25.442136
1475.000000	25.480489
1474.000000	25.537918
1473.000000	25.595944
1472.000000	25.643338
1471.000000	25.680399
1470.000000	25.719844
1469.000000	25.748062
1468.000000	25.771809
1467.000000	25.854277
1466.000000	25.879117
1465.000000	25.933466
1464.000000	25.981556
1463.000000	26.056174
1462.000000	26.128905
1461.000000	26.192693
1460.000000	26.267610
1459.000000	26.322158
1458.000000	26.415456
1457.000000	26.501600
1456.000000	26.591619
1455.000000	26.668921
1454.000000	26.771260
1453.000000	26.880654
1452.000000	26.996904
1451.000000	27.108385
1450.000000	27.176446
1449.000000	27.268452
1448.000000	27.394240
1447.000000	27.515955
1446.000000	27.649990
1445.000000	27.756602
1444.000000	27.849404
1443.000000	27.974993
1442.000000	28.101676
1441.000000	28.204512
1440.000000	28.346297
1439.000000	28.457281
1438.000000	28.596980
1437.000000	28.680541
1436.000000	28.798182
1435.000000	28.914829
1434.000000	29.069133
1433.000000	29.191941
1432.000000	29.316040
1431.000000	29.465774
1430.000000	29.584011
1429.000000	29.752623
1428.000000	29.923123
1427.000000	30.085774
1426.000000	30.274754
1425.000000	30.516693
1424.000000	30.705276
1423.000000	30.903100
1422.000000	31.071215
1421.000000	31.311167
1420.000000	31.530352
1419.000000	31.736920
1418.000000	31.906923
1417.000000	32.066096
1416.000000	32.320951
1415.000000	32.511422
1414.000000	32.724944
1413.000000	32.856992
1412.000000	33.024611
1411.000000	33.282845
1410.000000	33.553896
1409.000000	33.829716
1408.000000	34.086757
1407.000000	34.383542
1406.000000	34.669597
1405.000000	34.990725
1404.000000	35.212593
1403.000000	35.506795
1402.000000	35.801791
1401.000000	36.104737
1400.000000	36.247813
1399.000000	36.331374
1398.000000	36.441762
1397.000000	36.587819
1396.000000	36.711919
1395.000000	36.687079
1394.000000	36.653993
1393.000000	36.653198
1392.000000	36.661246
1391.000000	36.650714
1390.000000	36.684992
1389.000000	36.798063
1388.000000	36.900701
1387.000000	37.007611
1386.000000	37.224412
1385.000000	37.499437
1384.000000	37.839940
1383.000000	38.185610
1382.000000	38.530683
1381.000000	38.847141
1380.000000	39.142635
1379.000000	39.499234
1378.000000	39.878089
1377.000000	40.349249
1376.000000	40.831736
1375.000000	41.372348
1374.000000	41.973469
1373.000000	42.591183
1372.000000	43.208401
1371.000000	43.734208
1370.000000	44.180528
1369.000000	44.568922
1368.000000	44.914095
1367.000000	45.200248
1366.000000	45.473982
1365.000000	45.718703
1364.000000	45.911956
1363.000000	46.109283
1362.000000	46.283161
1361.000000	46.381228
1360.000000	46.436472
1359.000000	46.517151
1358.000000	46.643635
1357.000000	46.824766
1356.000000	47.106250
1355.000000	47.494843
1354.000000	47.920397
1353.000000	48.369499
1352.000000	48.921934
1351.000000	49.409190
1350.000000	49.890684
1349.000000	50.332036
1348.000000	50.737718
1347.000000	51.076135
1346.000000	51.406900
1345.000000	51.755749
1344.000000	52.090986
1343.000000	52.380319
1342.000000	52.665579
1341.000000	52.953322
1340.000000	53.217915
1339.000000	53.467703
1338.000000	53.710636
1337.000000	53.949395
1336.000000	54.171562
1335.000000	54.375943
1334.000000	54.580721
1333.000000	54.777750
1332.000000	54.957391
1331.000000	55.116167
1330.000000	55.276532
1329.000000	55.441269
1328.000000	55.579676
1327.000000	55.702086
1326.000000	55.832445
1325.000000	55.944621
1324.000000	56.066038
1323.000000	56.168477
1322.000000	56.267339
1321.000000	56.363319
1320.000000	56.447675
1319.000000	56.534813
1318.000000	56.622149
1317.000000	56.686136
1316.000000	56.760954
1315.000000	56.828021
1314.000000	56.885748
1313.000000	56.956691
1312.000000	57.020877
1311.000000	57.067078
1310.000000	57.107716
1309.000000	57.156799
1308.000000	57.200219
1307.000000	57.226549
1306.000000	57.258841
1305.000000	57.271658
1304.000000	57.279210
1303.000000	57.294710
1302.000000	57.300274
1301.000000	57.292126
1300.000000	57.290835
1299.000000	57.284575
1298.000000	57.273149
1297.000000	57.253376
1296.000000	57.237777
1295.000000	57.217210
1294.000000	57.189588
1293.000000	57.170809
1292.000000	57.153322
1291.000000	57.118844
1290.000000	57.075723
1289.000000	57.038562
1288.000000	56.991268
1287.000000	56.940098
1286.000000	56.885649
1285.000000	56.805466
1284.000000	56.738002
1283.000000	56.682559
1282.000000	56.624832
1281.000000	56.556672
1280.000000	56.483544
1279.000000	56.423730
1278.000000	56.376733
1277.000000	56.332121
1276.000000	56.284826
1275.000000	56.241803
1274.000000	56.190634
1273.000000	56.145525
1272.000000	56.119294
1271.000000	56.089387
1270.000000	56.046166
1269.000000	56.019140
1268.000000	55.976416
1267.000000	55.942236
1266.000000	55.897823
1265.000000	55.850230
1264.000000	55.813865
1263.000000	55.773128
1262.000000	55.726528
1261.000000	55.686288
1260.000000	55.623493
1259.000000	55.561096
1258.000000	55.507740
1257.000000	55.464817
1256.000000	55.403910
1255.000000	55.343698
1254.000000	55.275339
1253.000000	55.185122
1252.000000	55.113086
1251.000000	55.039660
1250.000000	54.939705
1249.000000	54.856542
1248.000000	54.756189
1247.000000	54.639045
1246.000000	54.533129
1245.000000	54.423536
1244.000000	54.319010
1243.000000	54.213988
1242.000000	54.090882
1241.000000	53.983376
1240.000000	53.866530
1239.000000	53.757732
1238.000000	53.633533
1237.000000	53.494629
1236.000000	53.371822
1235.000000	53.246729
1234.000000	53.103255
1233.000000	52.957793
1232.000000	52.814617
1231.000000	52.661207
1230.000000	52.505015
1229.000000	52.361243
1228.000000	52.206839
1227.000000	52.039022
1226.000000	51.885711
1225.000000	51.731108
1224.000000	51.573525
1223.000000	51.415743
1222.000000	51.259750
1221.000000	51.121641
1220.000000	50.977869
1219.000000	50.833798
1218.000000	50.706023
1217.000000	50.570000
1216.000000	50.432090
1215.000000	50.322398
1214.000000	50.201280
1213.000000	50.099238
1212.000000	49.989645
1211.000000	49.868825
1210.000000	49.771552
1209.000000	49.672392
1208.000000	49.590620
1207.000000	49.505966
1206.000000	49.430453
1205.000000	49.380774
1204.000000	49.339341
1203.000000	49.314998
1202.000000	49.260152
1201.000000	49.213453
1200.000000	49.165264
1199.000000	49.093030
1198.000000	48.965255
1197.000000	48.820489
1196.000000	48.633496
1195.000000	48.388775
1194.000000	48.113451
1193.000000	47.750791
1192.000000	47.350971
1191.000000	46.926907
1190.000000	46.549741
1189.000000	46.246100
1188.000000	45.995517
1187.000000	45.849360
1186.000000	45.838729
1185.000000	45.947527
1184.000000	46.163533
1183.000000	46.470949
1182.000000	46.882394
1181.000000	47.343817
1180.000000	47.811400
1179.000000	48.245400
1178.000000	48.610246
1177.000000	48.970024
1176.000000	49.246639
1175.000000	49.511828
1174.000000	49.796094
1173.000000	50.065058
1172.000000	50.377244
1171.000000	50.684362
1170.000000	50.984029
1169.000000	51.300984
1168.000000	51.609195
1167.000000	51.919791
1166.000000	52.235355
1165.000000	52.568108
1164.000000	52.889931
1163.000000	53.217219
1162.000000	53.558219
1161.000000	53.873584
1160.000000	54.150696
1159.000000	54.472917
1158.000000	54.743571
1157.000000	54.971202
1156.000000	55.182638
1155.000000	55.347673
1154.000000	55.459750
1153.000000	55.541423
1152.000000	55.561990
1151.000000	55.568945
1150.000000	55.560996
1149.000000	55.567951
1148.000000	55.586432
1147.000000	55.615743
1146.000000	55.726429
1145.000000	55.882224
1144.000000	56.088294
1143.000000	56.317515
1142.000000	56.602774
1141.000000	56.877402
1140.000000	57.141300
1139.000000	57.449610
1138.000000	57.748184
1137.000000	58.079247
1136.000000	58.410609
1135.000000	58.706600
1134.000000	58.966820
1133.000000	59.195346
1132.000000	59.455070
1131.000000	59.688365
1130.000000	59.905663
1129.000000	60.065432
1128.000000	60.195194
1127.000000	60.295845
1126.000000	60.365794
1125.000000	60.432265
1124.000000	60.516322
1123.000000	60.569181
1122.000000	60.602665
1121.000000	60.619755
1120.000000	60.634361
1119.000000	60.644793
1118.000000	60.662082
1117.000000	60.657412
1116.000000	60.636646
1115.000000	60.613595
1114.000000	60.606143
1113.000000	60.600380
1112.000000	60.585277
1111.000000	60.553185
1110.000000	60.537784
1109.000000	60.515329
1108.000000	60.506387
1107.000000	60.499829
1106.000000	60.470915
1105.000000	60.448659
1104.000000	60.418653
1103.000000	60.397191
1102.000000	60.369271
1101.000000	60.362117
1100.000000	60.335887
1099.000000	60.296441
1098.000000	60.265044
1097.000000	60.230864
1096.000000	60.188438
1095.000000	60.157935
1094.000000	60.112528
1093.000000	60.068611
1092.000000	60.015951
1091.000000	59.967464
1090.000000	59.906159
1089.000000	59.867906
1088.000000	59.813656
1087.000000	59.760102
1086.000000	59.699890
1085.000000	59.639281
1084.000000	59.594967
1083.000000	59.527602
1082.000000	59.477525
1081.000000	59.427945
1080.000000	59.379955
1079.000000	59.304243
1078.000000	59.259333
1077.000000	59.195644
1076.000000	59.123708
1075.000000	59.067074
1074.000000	59.010042
1073.000000	58.953606
1072.000000	58.893990
1071.000000	58.831891
1070.000000	58.774362
1069.000000	58.704414
1068.000000	58.649866
1067.000000	58.598199
1066.000000	58.532523
1065.000000	58.475689
1064.000000	58.415975
1063.000000	58.349404
1062.000000	58.285218
1061.000000	58.208712
1060.000000	58.151680
1059.000000	58.076962
1058.000000	58.017148
1057.000000	57.965780
1056.000000	57.906959
1055.000000	57.857379
1054.000000	57.792398
1053.000000	57.735565
1052.000000	57.684892
1051.000000	57.651905
1050.000000	57.622594
1049.000000	57.566953
1048.000000	57.525520
1047.000000	57.491937
1046.000000	57.462726
1045.000000	57.429639
1044.000000	57.392280
1043.000000	57.369626
1042.000000	57.343395
1041.000000	57.306335
1040.000000	57.271758
1039.000000	57.255463
1038.000000	57.219892
1037.000000	57.189489
1036.000000	57.164947
1035.000000	57.127588
1034.000000	57.089434
1033.000000	57.048498
1032.000000	57.004383
1031.000000	56.955300
1030.000000	56.919034
1029.000000	56.882668
1028.000000	56.829213
1027.000000	56.774367
1026.000000	56.726178
1025.000000	56.677095
1024.000000	56.626819
1023.000000	56.575153
1022.000000	56.526367
1021.000000	56.472714
1020.000000	56.408826
1019.000000	56.361531
1018.000000	56.323576
1017.000000	56.282938
1016.000000	56.246771
1015.000000	56.201861
1014.000000	56.159137
1013.000000	56.152380
1012.000000	56.148903
1011.000000	56.123765
1010.000000	56.108861
1009.000000	56.115618
1008.000000	56.112836
1007.000000	56.118102
1006.000000	56.130820
1005.000000	56.130621
1004.000000	56.150691
1003.000000	56.157448
1002.000000	56.162118
1001.000000	56.168973
1000.000000	56.175432
999.000000	56.191031
998.000000	56.208021
997.000000	56.215771
996.000000	56.239717
995.000000	56.254819
994.000000	56.278368
993.000000	56.305492
992.000000	56.330829
991.000000	56.354278
990.000000	56.385874
989.000000	56.412999
988.000000	56.435851
987.000000	56.495169
986.000000	56.526069
985.000000	56.542265
984.000000	56.588069
983.000000	56.628906
982.000000	56.671729
981.000000	56.710281
980.000000	56.760059
979.000000	56.800697
978.000000	56.854947
977.000000	56.888928
976.000000	56.916252
975.000000	56.959970
974.000000	56.990870
973.000000	57.029421
972.000000	57.056348
971.000000	57.086155
970.000000	57.143386
969.000000	57.166437
968.000000	57.216812
967.000000	57.252283
966.000000	57.292722
965.000000	57.345879
964.000000	57.380655
963.000000	57.424572
962.000000	57.502171
961.000000	57.548870
960.000000	57.592488
959.000000	57.631437
958.000000	57.678434
957.000000	57.730696
956.000000	57.761100
955.000000	57.766068
954.000000	57.797962
953.000000	57.817934
952.000000	57.805017
951.000000	57.827571
950.000000	57.822405
949.000000	57.832341
948.000000	57.862347
947.000000	57.841879
946.000000	57.842972
945.000000	57.891857
944.000000	57.877946
943.000000	57.875661
942.000000	57.909145
941.000000	57.917889
940.000000	57.937065
939.000000	57.971840
938.000000	58.014366
937.000000	58.030860
936.000000	58.051824
935.000000	58.075472
934.000000	58.083321
933.000000	58.132007
932.000000	58.142241
931.000000	58.163305
930.000000	58.194305
929.000000	58.220238
928.000000	58.261571
927.000000	58.314827
926.000000	58.363116
925.000000	58.422831
924.000000	58.486917
923.000000	58.530138
922.000000	58.624032
921.000000	58.661789
920.000000	58.707295
919.000000	58.764526
918.000000	58.811026
917.000000	58.860109
916.000000	58.900250
915.000000	58.923599
914.000000	58.978346
913.000000	59.022760
912.000000	59.063497
911.000000	59.138612
910.000000	59.172692
909.000000	59.226545
908.000000	59.268474
907.000000	59.327295
906.000000	59.447121
905.000000	59.481003
904.000000	59.523131
903.000000	59.592682
902.000000	59.638188
901.000000	59.705256
900.000000	59.769839
899.000000	59.804118
898.000000	59.862839
897.000000	59.896919
896.000000	59.965377
895.000000	59.993993
894.000000	60.041983
893.000000	60.073877
892.000000	60.120675
891.000000	60.146509
890.000000	60.191220
889.000000	60.223611
888.000000	60.249842
887.000000	60.292069
886.000000	60.304390
885.000000	60.340457
884.000000	60.362316
883.000000	60.413387
882.000000	60.452931
881.000000	60.493669
880.000000	60.534406
879.000000	60.577925
878.000000	60.609422
877.000000	60.668540
876.000000	60.730739
875.000000	60.783797
874.000000	60.840928
873.000000	60.894284
872.000000	60.945553
871.000000	61.004671
870.000000	61.064684
869.000000	61.134434
868.000000	61.201303
867.000000	61.263004
866.000000	61.289831
865.000000	61.325799
864.000000	61.341101
863.000000	61.357395
862.000000	61.319242
861.000000	61.262210
860.000000	61.229819
859.000000	61.277809
858.000000	61.248200
857.000000	61.225100
856.000000	61.027300
855.000000	61.492200
854.000000	61.330200
853.000000	61.517800
852.000000	61.432800
851.000000	61.552600
850.000000	61.692700
849.000000	61.802100
848.000000	61.831600
847.000000	61.741000
846.000000	61.687600
845.000000	61.753500
844.000000	61.759400
843.000000	61.918700
842.000000	61.879200
841.000000	61.794500
840.000000	62.002700
839.000000	62.160800
838.000000	62.133000
837.000000	62.183200
836.000000	62.141100
835.000000	62.175200
834.000000	62.332500
833.000000	62.541400
832.000000	62.460100
831.000000	62.648200
830.000000	62.719700
829.000000	62.966700
828.000000	63.072500
827.000000	63.079800
826.000000	63.339400
825.000000	63.517200
824.000000	63.643800
823.000000	63.881200
822.000000	64.084100
821.000000	64.373100
820.000000	64.646200
819.000000	64.867100
818.000000	65.121700
817.000000	65.448500
816.000000	65.804300
815.000000	66.012200
814.000000	66.160100
813.000000	66.398300
812.000000	66.775700
811.000000	66.971000
810.000000	67.289500
809.000000	67.538900
808.000000	67.765000
807.000000	67.895500
806.000000	68.083400
805.000000	68.181700
804.000000	68.379500
803.000000	68.549400
802.000000	68.681700
801.000000	68.928500
800.000000	69.019200
799.000000	69.232300
798.000000	69.352600
797.000000	69.501900
796.000000	69.522400
795.000000	69.689800
794.000000	69.625900
793.000000	69.637400
792.000000	69.710900
791.000000	69.749000
790.000000	69.888400
789.000000	69.923900
788.000000	70.012700
787.000000	70.121700
786.000000	70.071000
785.000000	70.121300
784.000000	70.174000
783.000000	70.238500
782.000000	70.431500
781.000000	70.453500
780.000000	70.514100
779.000000	70.594900
778.000000	70.645600
777.000000	70.596700
776.000000	70.653400
775.000000	70.759000
774.000000	70.780200
773.000000	70.811400
772.000000	70.885600
771.000000	70.960700
770.000000	70.929200
769.000000	71.059300
768.000000	71.075500
767.000000	71.025800
766.000000	71.088200
765.000000	71.153100
764.000000	71.223500
763.000000	71.206900
762.000000	71.290800
761.000000	71.338900
760.000000	71.252800
759.000000	71.231100
758.000000	71.319800
757.000000	71.334600
756.000000	71.189600
755.000000	71.187200
754.000000	71.197500
753.000000	71.156500
752.000000	71.163400
751.000000	71.133800
750.000000	71.073000
749.000000	71.037700
748.000000	71.011400
747.000000	70.934000
746.000000	70.883700
745.000000	70.840800
744.000000	70.748600
743.000000	70.628100
742.000000	70.604300
741.000000	70.568800
740.000000	70.465300
739.000000	70.339900
738.000000	70.179900
737.000000	70.053100
736.000000	69.915600
735.000000	69.827500
734.000000	69.766700
733.000000	69.638900
732.000000	69.467000
731.000000	69.284300
730.000000	69.091800
729.000000	68.922600
728.000000	68.763900
727.000000	68.612200
726.000000	68.435600
725.000000	68.186200
724.000000	67.938300
723.000000	67.740700
722.000000	67.480000
721.000000	67.193400
720.000000	66.904700
719.000000	66.629700
718.000000	66.360600
717.000000	66.056800
716.000000	65.780800
715.000000	65.484500
714.000000	65.198200
713.000000	64.899600
712.000000	64.632400
711.000000	64.379400
710.000000	64.084200
709.000000	63.784800
708.000000	63.470800
707.000000	63.216000
706.000000	62.933300
705.000000	62.641300
704.000000	62.433600
703.000000	62.224000
702.000000	62.006500
701.000000	61.771500
700.000000	61.540200
699.000000	61.390800
698.000000	61.262400
697.000000	61.146100
696.000000	61.053500
695.000000	60.921500
694.000000	60.780100
693.000000	60.691000
692.000000	60.614200
691.000000	60.547000
690.000000	60.520300
689.000000	60.441300
688.000000	60.369500
687.000000	60.301000
686.000000	60.177200
685.000000	60.142200
684.000000	60.088000
683.000000	60.033000
682.000000	59.966300
681.000000	59.874700
680.000000	59.792600
679.000000	59.691700
678.000000	59.558200
677.000000	59.426500
676.000000	59.269300
675.000000	59.061800
674.000000	58.928800
673.000000	58.717200
672.000000	58.479800
671.000000	58.259900
670.000000	58.040000
669.000000	57.749900
668.000000	57.495300
667.000000	57.213900
666.000000	56.913600
665.000000	56.637900
664.000000	56.238200
663.000000	55.904400
662.000000	55.521800
661.000000	55.173100
660.000000	54.797100
659.000000	54.388300
658.000000	53.958800
657.000000	53.572200
656.000000	53.131900
655.000000	52.639300
654.000000	52.205100
653.000000	51.693600
652.000000	51.230700
651.000000	50.733200
650.000000	50.292700
649.000000	49.867600
648.000000	49.436800
647.000000	49.030800
646.000000	48.689000
645.000000	48.387700
644.000000	48.132000
643.000000	47.978200
642.000000	47.869500
641.000000	47.807700
640.000000	47.849200
639.000000	47.961100
638.000000	48.171000
637.000000	48.409600
636.000000	48.724400
635.000000	49.149400
634.000000	49.580000
633.000000	50.161500
632.000000	50.772100
631.000000	51.442500
630.000000	52.134200
629.000000	52.907100
628.000000	53.684600
627.000000	54.459800
626.000000	55.297700
625.000000	56.113600
624.000000	56.972500
623.000000	57.858800
622.000000	58.720400
621.000000	59.547700
620.000000	60.368700
619.000000	61.091500
618.000000	61.894200
617.000000	62.610200
616.000000	63.285700
615.000000	63.929900
614.000000	64.587900
613.000000	65.187100
612.000000	65.734200
611.000000	66.286100
610.000000	66.815200
609.000000	67.284000
608.000000	67.733900
607.000000	68.196500
606.000000	68.591200
605.000000	68.961900
604.000000	69.360400
603.000000	69.656600
602.000000	70.030000
601.000000	70.345800
600.000000	70.628400
599.000000	70.857200
598.000000	71.146300
597.000000	71.388600
596.000000	71.577000
595.000000	71.779800
594.000000	71.910000
593.000000	72.118300
592.000000	72.235400
591.000000	72.315300
590.000000	72.446300
589.000000	72.491700
588.000000	72.532900
587.000000	72.583300
586.000000	72.575600
585.000000	72.583000
584.000000	72.628200
583.000000	72.628000
582.000000	72.515900
581.000000	72.483700
580.000000	72.442800
579.000000	72.376700
578.000000	72.311800
577.000000	72.198200
576.000000	72.107800
575.000000	72.014500
574.000000	71.895800
573.000000	71.782500
572.000000	71.679100
571.000000	71.507500
570.000000	71.391200
569.000000	71.218600
568.000000	71.008000
567.000000	70.862500
566.000000	70.671100
565.000000	70.443200
564.000000	70.203200
563.000000	69.960600
562.000000	69.688300
561.000000	69.376900
560.000000	69.067900
559.000000	68.655700
558.000000	68.355600
557.000000	67.986600
556.000000	67.680000
555.000000	67.278000
554.000000	66.901500
553.000000	66.499700
552.000000	66.098200
551.000000	65.650700
550.000000	65.209300
549.000000	64.695400
548.000000	64.195800
547.000000	63.659000
546.000000	63.117400
545.000000	62.503400
544.000000	61.862900
543.000000	61.218400
542.000000	60.498300
541.000000	59.765300
540.000000	59.013100
539.000000	58.226900
538.000000	57.410700
537.000000	56.589900
536.000000	55.733900
535.000000	54.836000
534.000000	53.892900
533.000000	52.958200
532.000000	52.019000
531.000000	50.997800
530.000000	49.979100
529.000000	48.960200
528.000000	47.909000
527.000000	46.833200
526.000000	45.729300
525.000000	44.662200
524.000000	43.569200
523.000000	42.477400
522.000000	41.401200
521.000000	40.327700
520.000000	39.284500
519.000000	38.257900
518.000000	37.260900
517.000000	36.325500
516.000000	35.418500
515.000000	34.582700
514.000000	33.783200
513.000000	33.043400
512.000000	32.358600
511.000000	31.727500
510.000000	31.166000
509.000000	30.684900
508.000000	30.253000
507.000000	29.882200
506.000000	29.565500
505.000000	29.288200
504.000000	29.067700
503.000000	28.919000
502.000000	28.774500
501.000000	28.665800
500.000000	28.591600
499.000000	28.537700
498.000000	28.514400
497.000000	28.466500
496.000000	28.427800
495.000000	28.427000
494.000000	28.438300
493.000000	28.426300
492.000000	28.373100
491.000000	28.309100
490.000000	28.225200
489.000000	28.120500
488.000000	27.982400
487.000000	27.814300
486.000000	27.622900
485.000000	27.399300
484.000000	27.142600
483.000000	26.859800
482.000000	26.547300
481.000000	26.199200
480.000000	25.840900
479.000000	25.443800
478.000000	25.044900
477.000000	24.646700
476.000000	24.235900
475.000000	23.834600
474.000000	23.431900
473.000000	23.035200
472.000000	22.658300
471.000000	22.298900
470.000000	21.979800
469.000000	21.702600
468.000000	21.458000
467.000000	21.240500
466.000000	21.064600
465.000000	20.906500
464.000000	20.820500
463.000000	20.772500
462.000000	20.750000
461.000000	20.764200
460.000000	20.810300
459.000000	20.875400
458.000000	20.959900
457.000000	21.081700
456.000000	21.219600
455.000000	21.368000
454.000000	21.514400
453.000000	21.643800
452.000000	21.776000
451.000000	21.901900
450.000000	21.996200
449.000000	22.086400
448.000000	22.178000
447.000000	22.266300
446.000000	22.315600
445.000000	22.342200
444.000000	22.370000
443.000000	22.396200
442.000000	22.372100
441.000000	22.329000
440.000000	22.279600
439.000000	22.223200
438.000000	22.143100
437.000000	22.020900
436.000000	21.894900
435.000000	21.761800
434.000000	21.624100
433.000000	21.448700
432.000000	21.267600
431.000000	21.089700
430.000000	20.887100
429.000000	20.657100
428.000000	20.431300
427.000000	20.204400
426.000000	19.937600
425.000000	19.667200
424.000000	19.388000
423.000000	19.095600
422.000000	18.780900
421.000000	18.455600
420.000000	18.132000
419.000000	17.791400
418.000000	17.445800
417.000000	17.074900
416.000000	16.701400
415.000000	16.348500
414.000000	15.977700
413.000000	15.579800
412.000000	15.177100
411.000000	14.758200
410.000000	14.353800
409.000000	13.965300
408.000000	13.569200
407.000000	13.188500
406.000000	12.788000
405.000000	12.394500
404.000000	12.017300
403.000000	11.633100
402.000000	11.260800
401.000000	10.920900
400.000000	10.565600
399.000000	10.225400
398.000000	9.902500
397.000000	9.588200
396.000000	9.289800
395.000000	9.003700
394.000000	8.739500
393.000000	8.487700
392.000000	8.243400
391.000000	8.013600
390.000000	7.806700
389.000000	7.630900
388.000000	7.451600
387.000000	7.293100
386.000000	7.131800
385.000000	6.986600
384.000000	6.841000
383.000000	6.720300
382.000000	6.617100
381.000000	6.508400
380.000000	6.421300
379.000000	6.340000
378.000000	6.262800
377.000000	6.199400
376.000000	6.143800
375.000000	6.075400
374.000000	6.058200
373.000000	5.966200
372.000000	5.962500
371.000000	5.912900
370.000000	5.889300
369.000000	5.854200
368.000000	5.801600
367.000000	5.813400
366.000000	5.751600
365.000000	5.772400
364.000000	5.777200
363.000000	5.716400
362.000000	5.641700
361.000000	5.640500
360.000000	5.647700
359.000000	5.613800
358.000000	5.600600
357.000000	5.573600
356.000000	5.518300
355.000000	5.468200
354.000000	5.458500
353.000000	5.426900
352.000000	5.457000
351.000000	5.389600
350.000000	5.364900
349.000000	5.410200
348.000000	5.361300
347.000000	5.344600
346.000000	5.362000
345.000000	5.331400
344.000000	5.272200
343.000000	5.337100
342.000000	5.335600
341.000000	5.293100
340.000000	5.317400
339.000000	5.237200
338.000000	5.279600
337.000000	5.286600
336.000000	5.214700
335.000000	5.269300
334.000000	5.215000
333.000000	5.271800
332.000000	5.247700
331.000000	5.254700
330.000000	5.189400
329.000000	5.245000
328.000000	5.207300
327.000000	5.202700
326.000000	5.248400
325.000000	5.110000
324.000000	5.338800
323.000000	5.261900
322.000000	5.288400
321.000000	5.146100
320.000000	5.351900
319.000000	5.286300
318.000000	5.074300
317.000000	5.347700
316.000000	5.251300
315.000000	5.235400
314.000000	5.243900
313.000000	5.221500
312.000000	5.229200
311.000000	5.224200
310.000000	5.258800
309.000000	5.272200
308.000000	5.235100
307.000000	5.253100
306.000000	5.282900
305.000000	5.246800
304.000000	5.265500
303.000000	5.323800
302.000000	5.328100
301.000000	5.293800
300.000000	5.290200
299.000000	5.272400
298.000000	5.314800
297.000000	5.284500
296.000000	5.310300
295.000000	5.333000
294.000000	5.340600
293.000000	5.315000
292.000000	5.308600
291.000000	5.368900
290.000000	5.368400
289.000000	5.346000
288.000000	5.371100
287.000000	5.342200
286.000000	5.398100
285.000000	5.365000
284.000000	5.387700
283.000000	5.444400
282.000000	5.420200
281.000000	5.443000
280.000000	5.432900
279.000000	5.413400
278.000000	5.408500
277.000000	5.439900
276.000000	5.446400
275.000000	5.462200
274.000000	5.452100
273.000000	5.477000
272.000000	5.478100
271.000000	5.477700
270.000000	5.475300
269.000000	5.432100
268.000000	5.474000
267.000000	5.470300
266.000000	5.505100
265.000000	5.492600
264.000000	5.509800
263.000000	5.551000
262.000000	5.589400
261.000000	5.590800
260.000000	5.597000
259.000000	5.646600
258.000000	5.632200
257.000000	5.622700
256.000000	5.637000
255.000000	5.676200
254.000000	5.667800
253.000000	5.669600
252.000000	5.734700
251.000000	5.709800
250.000000	5.723700
