PE UV       SUBTECH     SPECTRUM    ASCII       PEDS        4.00        
   -1
CICIMAUCR0001-3.Sample.ASC
24/04/04
15:45:00.00
24/04/04
15:45:00.00
Vinicio Soto Monge
C. kalinini
250,000000
1
Lambda 1050
1050L1511233
PerkinElmer UV WinLab 6.3.2.0749 / 2.02.05 Lambda 900 UV/VIS/NIR, Aug  7 2015 09:38:08

0
0
3350/servo 860,8/2
0
0
UV/VIS
1
1
1
DoubleDePol,CommonBeamDepol,RBeamAtt,SBeamAtt,60mm sphere, WB InGaAs Detector
0
0
0
0
Program
Program
3350/servo 860,8/2
3350/0,2 860,8/0,2
3350/0,2 860,8/0,2
0
15.00
 
 
 
0
 
860,8
319,2
860,8
Front
100
on
S:100 R:100
0
0
0
0
 
0
 
 
 
0
 
 
0
0
0
0
0
 
 
 
 
0
0


0
0
#HDR
-1
-1
#GR
nm
%R
1.0
0.0
2500,000000
-1,000000
2251
8
73,921900
4,917300
#DATA
2500.000000	8.535065
2499.000000	8.418253
2498.000000	8.454265
2497.000000	8.516012
2496.000000	8.483792
2495.000000	8.550727
2494.000000	8.456459
2493.000000	8.545639
2492.000000	8.572573
2491.000000	8.553121
2490.000000	8.561500
2489.000000	8.587536
2488.000000	8.505638
2487.000000	8.605292
2486.000000	8.621752
2485.000000	8.595317
2484.000000	8.605093
2483.000000	8.666641
2482.000000	8.672826
2481.000000	8.676716
2480.000000	8.747741
2479.000000	8.725496
2478.000000	8.793229
2477.000000	8.753128
2476.000000	8.839515
2475.000000	8.847795
2474.000000	8.885502
2473.000000	8.901363
2472.000000	8.964308
2471.000000	8.978173
2470.000000	8.974383
2469.000000	9.065458
2468.000000	9.035332
2467.000000	9.147755
2466.000000	9.174889
2465.000000	9.168903
2464.000000	9.244018
2463.000000	9.294194
2462.000000	9.340381
2461.000000	9.386068
2460.000000	9.435845
2459.000000	9.455497
2458.000000	9.537196
2457.000000	9.601238
2456.000000	9.626775
2455.000000	9.697999
2454.000000	9.788277
2453.000000	9.841745
2452.000000	9.914665
2451.000000	9.956961
2450.000000	10.032276
2449.000000	10.103899
2448.000000	10.176021
2447.000000	10.246647
2446.000000	10.312684
2445.000000	10.406653
2444.000000	10.470895
2443.000000	10.539226
2442.000000	10.640177
2441.000000	10.705117
2440.000000	10.769459
2439.000000	10.857143
2438.000000	10.924975
2437.000000	11.017847
2436.000000	11.086278
2435.000000	11.165283
2434.000000	11.246184
2433.000000	11.322396
2432.000000	11.392224
2431.000000	11.470232
2430.000000	11.538464
2429.000000	11.623953
2428.000000	11.695876
2427.000000	11.762611
2426.000000	11.827252
2425.000000	11.894686
2424.000000	11.966908
2423.000000	12.037534
2422.000000	12.088807
2421.000000	12.152550
2420.000000	12.225770
2419.000000	12.288315
2418.000000	12.365725
2417.000000	12.421088
2416.000000	12.471464
2415.000000	12.530120
2414.000000	12.580595
2413.000000	12.644837
2412.000000	12.679252
2411.000000	12.720949
2410.000000	12.772722
2409.000000	12.825192
2408.000000	12.870381
2407.000000	12.911280
2406.000000	12.920757
2405.000000	12.960160
2404.000000	13.016421
2403.000000	13.059315
2402.000000	13.078169
2401.000000	13.107397
2400.000000	13.137323
2399.000000	13.158571
2398.000000	13.179818
2397.000000	13.212438
2396.000000	13.234085
2395.000000	13.258524
2394.000000	13.277278
2393.000000	13.302217
2392.000000	13.326058
2391.000000	13.339625
2390.000000	13.348902
2389.000000	13.364663
2388.000000	13.382319
2387.000000	13.393891
2386.000000	13.394290
2385.000000	13.388005
2384.000000	13.397482
2383.000000	13.402270
2382.000000	13.407856
2381.000000	13.417433
2380.000000	13.397881
2379.000000	13.385811
2378.000000	13.380224
2377.000000	13.380923
2376.000000	13.370349
2375.000000	13.362568
2374.000000	13.349400
2373.000000	13.336931
2372.000000	13.340722
2371.000000	13.333340
2370.000000	13.324661
2369.000000	13.328652
2368.000000	13.332243
2367.000000	13.312192
2366.000000	13.295334
2365.000000	13.304212
2364.000000	13.304611
2363.000000	13.293139
2362.000000	13.292940
2361.000000	13.282964
2360.000000	13.274784
2359.000000	13.274086
2358.000000	13.269098
2357.000000	13.257726
2356.000000	13.248150
2355.000000	13.237177
2354.000000	13.216029
2353.000000	13.204258
2352.000000	13.203759
2351.000000	13.197774
2350.000000	13.178422
2349.000000	13.165254
2348.000000	13.143109
2347.000000	13.118370
2346.000000	13.118071
2345.000000	13.104404
2344.000000	13.096723
2343.000000	13.088344
2342.000000	13.076274
2341.000000	13.076373
2340.000000	13.065101
2339.000000	13.053031
2338.000000	13.039265
2337.000000	13.034975
2336.000000	13.027095
2335.000000	13.028591
2334.000000	13.028591
2333.000000	13.020810
2332.000000	13.019015
2331.000000	13.024202
2330.000000	13.043055
2329.000000	13.045350
2328.000000	13.049440
2327.000000	13.060712
2326.000000	13.068692
2325.000000	13.075376
2324.000000	13.078668
2323.000000	13.077670
2322.000000	13.081261
2321.000000	13.082159
2320.000000	13.071785
2319.000000	13.068792
2318.000000	13.058019
2317.000000	13.038068
2316.000000	13.019015
2315.000000	12.995173
2314.000000	12.983502
2313.000000	12.942204
2312.000000	12.912477
2311.000000	12.868984
2310.000000	12.820903
2309.000000	12.796164
2308.000000	12.759853
2307.000000	12.723144
2306.000000	12.687332
2305.000000	12.654812
2304.000000	12.614911
2303.000000	12.583688
2302.000000	12.545083
2301.000000	12.508972
2300.000000	12.477050
2299.000000	12.444930
2298.000000	12.411412
2297.000000	12.403033
2296.000000	12.383281
2295.000000	12.384479
2294.000000	12.354552
2293.000000	12.330212
2292.000000	12.317045
2291.000000	12.285822
2290.000000	12.289912
2289.000000	12.268065
2288.000000	12.273652
2287.000000	12.253102
2286.000000	12.244922
2285.000000	12.248713
2284.000000	12.234748
2283.000000	12.225670
2282.000000	12.201928
2281.000000	12.186666
2280.000000	12.183673
2279.000000	12.161727
2278.000000	12.148560
2277.000000	12.131203
2276.000000	12.105067
2275.000000	12.090902
2274.000000	12.059978
2273.000000	12.032845
2272.000000	12.016685
2271.000000	11.990450
2270.000000	11.958129
2269.000000	11.933689
2268.000000	11.938478
2267.000000	11.909748
2266.000000	11.897479
2265.000000	11.878525
2264.000000	11.869548
2263.000000	11.862066
2262.000000	11.880221
2261.000000	11.903564
2260.000000	11.921819
2259.000000	11.946358
2258.000000	11.956034
2257.000000	12.027458
2256.000000	12.060776
2255.000000	12.109456
2254.000000	12.162625
2253.000000	12.204921
2252.000000	12.269262
2251.000000	12.325524
2250.000000	12.396050
2249.000000	12.439742
2248.000000	12.504084
2247.000000	12.549871
2246.000000	12.606032
2245.000000	12.645136
2244.000000	12.699901
2243.000000	12.746287
2242.000000	12.787685
2241.000000	12.812923
2240.000000	12.852425
2239.000000	12.849433
2238.000000	12.867289
2237.000000	12.893524
2236.000000	12.891529
2235.000000	12.876566
2234.000000	12.860106
2233.000000	12.846240
2232.000000	12.804444
2231.000000	12.772323
2230.000000	12.697008
2229.000000	12.661197
2228.000000	12.592765
2227.000000	12.543187
2226.000000	12.428470
2225.000000	12.359141
2224.000000	12.278240
2223.000000	12.176691
2222.000000	12.077635
2221.000000	11.959227
2220.000000	11.857078
2219.000000	11.736376
2218.000000	11.635724
2217.000000	11.546843
2216.000000	11.434121
2215.000000	11.370178
2214.000000	11.266534
2213.000000	11.190421
2212.000000	11.165383
2211.000000	11.127676
2210.000000	11.103635
2209.000000	11.089470
2208.000000	11.105131
2207.000000	11.135856
2206.000000	11.214761
2205.000000	11.289677
2204.000000	11.407486
2203.000000	11.521705
2202.000000	11.621858
2201.000000	11.778971
2200.000000	11.924213
2199.000000	12.080927
2198.000000	12.251506
2197.000000	12.406125
2196.000000	12.575707
2195.000000	12.740102
2194.000000	12.874471
2193.000000	13.044751
2192.000000	13.173833
2191.000000	13.319773
2190.000000	13.427009
2189.000000	13.534744
2188.000000	13.619634
2187.000000	13.722780
2186.000000	13.798494
2185.000000	13.853259
2184.000000	13.929970
2183.000000	13.961691
2182.000000	14.006880
2181.000000	14.055061
2180.000000	14.090574
2179.000000	14.115413
2178.000000	14.160901
2177.000000	14.174367
2176.000000	14.214269
2175.000000	14.240205
2174.000000	14.272725
2173.000000	14.286291
2172.000000	14.328288
2171.000000	14.363401
2170.000000	14.379562
2169.000000	14.418266
2168.000000	14.447993
2167.000000	14.498568
2166.000000	14.524504
2165.000000	14.565104
2164.000000	14.603609
2163.000000	14.649297
2162.000000	14.698276
2161.000000	14.754837
2160.000000	14.794639
2159.000000	14.885016
2158.000000	14.952250
2157.000000	14.999833
2156.000000	15.067766
2155.000000	15.162532
2154.000000	15.233657
2153.000000	15.318148
2152.000000	15.399947
2151.000000	15.486733
2150.000000	15.580701
2149.000000	15.665792
2148.000000	15.766444
2147.000000	15.870886
2146.000000	15.953084
2145.000000	16.025605
2144.000000	16.122965
2143.000000	16.230201
2142.000000	16.318583
2141.000000	16.378635
2140.000000	16.455346
2139.000000	16.555699
2138.000000	16.641687
2137.000000	16.714707
2136.000000	16.798500
2135.000000	16.881097
2134.000000	16.944740
2133.000000	17.021151
2132.000000	17.089683
2131.000000	17.149036
2130.000000	17.208290
2129.000000	17.253279
2128.000000	17.294179
2127.000000	17.353931
2126.000000	17.402811
2125.000000	17.440717
2124.000000	17.481716
2123.000000	17.523114
2122.000000	17.558427
2121.000000	17.599726
2120.000000	17.627158
2119.000000	17.660476
2118.000000	17.688108
2117.000000	17.702173
2116.000000	17.723022
2115.000000	17.752449
2114.000000	17.764819
2113.000000	17.777986
2112.000000	17.796441
2111.000000	17.813100
2110.000000	17.825569
2109.000000	17.819883
2108.000000	17.814995
2107.000000	17.827963
2106.000000	17.847814
2105.000000	17.858288
2104.000000	17.861680
2103.000000	17.865371
2102.000000	17.869960
2101.000000	17.866967
2100.000000	17.867166
2099.000000	17.871755
2098.000000	17.870458
2097.000000	17.873950
2096.000000	17.889611
2095.000000	17.905273
2094.000000	17.909861
2093.000000	17.911956
2092.000000	17.918540
2091.000000	17.924525
2090.000000	17.930311
2089.000000	17.951658
2088.000000	17.958441
2087.000000	17.944576
2086.000000	17.925323
2085.000000	17.916645
2084.000000	17.923428
2083.000000	17.917642
2082.000000	17.896893
2081.000000	17.861780
2080.000000	17.825569
2079.000000	17.788660
2078.000000	17.752349
2077.000000	17.689704
2076.000000	17.639228
2075.000000	17.600524
2074.000000	17.534885
2073.000000	17.458573
2072.000000	17.371388
2071.000000	17.302458
2070.000000	17.222356
2069.000000	17.142253
2068.000000	17.062450
2067.000000	16.973569
2066.000000	16.892967
2065.000000	16.813763
2064.000000	16.727276
2063.000000	16.634305
2062.000000	16.549015
2061.000000	16.474499
2060.000000	16.409359
2059.000000	16.363971
2058.000000	16.303620
2057.000000	16.244067
2056.000000	16.218031
2055.000000	16.190000
2054.000000	16.180922
2053.000000	16.176633
2052.000000	16.199377
2051.000000	16.229203
2050.000000	16.273295
2049.000000	16.317885
2048.000000	16.386915
2047.000000	16.452453
2046.000000	16.539738
2045.000000	16.624529
2044.000000	16.715205
2043.000000	16.805782
2042.000000	16.904838
2041.000000	16.987435
2040.000000	17.074221
2039.000000	17.166992
2038.000000	17.252781
2037.000000	17.326200
2036.000000	17.401315
2035.000000	17.486205
2034.000000	17.539973
2033.000000	17.587157
2032.000000	17.652994
2031.000000	17.712647
2030.000000	17.766914
2029.000000	17.809010
2028.000000	17.849610
2027.000000	17.873251
2026.000000	17.909063
2025.000000	17.946770
2024.000000	17.980188
2023.000000	17.996747
2022.000000	18.009915
2021.000000	18.018992
2020.000000	18.030763
2019.000000	18.036449
2018.000000	18.044230
2017.000000	18.048520
2016.000000	18.032758
2015.000000	18.039442
2014.000000	18.001236
2013.000000	18.007521
2012.000000	17.977594
2011.000000	17.934999
2010.000000	17.910061
2009.000000	17.896694
2008.000000	17.844123
2007.000000	17.812601
2006.000000	17.762026
2005.000000	17.711450
2004.000000	17.649303
2003.000000	17.585760
2002.000000	17.515433
2001.000000	17.451291
2000.000000	17.398422
1999.000000	17.310937
1998.000000	17.243304
1997.000000	17.182753
1996.000000	17.103848
1995.000000	17.008383
1994.000000	16.932470
1993.000000	16.854063
1992.000000	16.761990
1991.000000	16.684681
1990.000000	16.577445
1989.000000	16.510111
1988.000000	16.404272
1987.000000	16.307011
1986.000000	16.228305
1985.000000	16.148003
1984.000000	16.035181
1983.000000	15.954580
1982.000000	15.862906
1981.000000	15.771132
1980.000000	15.694421
1979.000000	15.609032
1978.000000	15.525537
1977.000000	15.428676
1976.000000	15.337900
1975.000000	15.286127
1974.000000	15.185076
1973.000000	15.097891
1972.000000	15.025769
1971.000000	14.947263
1970.000000	14.879130
1969.000000	14.800125
1968.000000	14.728103
1967.000000	14.656479
1966.000000	14.578870
1965.000000	14.513531
1964.000000	14.441509
1963.000000	14.352029
1962.000000	14.316118
1961.000000	14.218060
1960.000000	14.157509
1959.000000	14.088878
1958.000000	14.034013
1957.000000	13.953212
1956.000000	13.877998
1955.000000	13.813158
1954.000000	13.749814
1953.000000	13.679686
1952.000000	13.627415
1951.000000	13.566266
1950.000000	13.504817
1949.000000	13.462921
1948.000000	13.399278
1947.000000	13.359575
1946.000000	13.315484
1945.000000	13.286555
1944.000000	13.234982
1943.000000	13.189395
1942.000000	13.179818
1941.000000	13.173334
1940.000000	13.166651
1939.000000	13.135528
1938.000000	13.145204
1937.000000	13.123258
1936.000000	13.116075
1935.000000	13.126250
1934.000000	13.167449
1933.000000	13.186901
1932.000000	13.209944
1931.000000	13.260619
1930.000000	13.306506
1929.000000	13.365760
1928.000000	13.421024
1927.000000	13.478881
1926.000000	13.557288
1925.000000	13.653750
1924.000000	13.753305
1923.000000	13.854456
1922.000000	13.984735
1921.000000	14.101347
1920.000000	14.229930
1919.000000	14.357316
1918.000000	14.515227
1917.000000	14.669647
1916.000000	14.823567
1915.000000	14.992850
1914.000000	15.200339
1913.000000	15.437754
1912.000000	15.668286
1911.000000	15.895426
1910.000000	16.134137
1909.000000	16.372550
1908.000000	16.626125
1907.000000	16.924889
1906.000000	17.266447
1905.000000	17.629153
1904.000000	17.992757
1903.000000	18.345787
1902.000000	18.724653
1901.000000	19.114592
1900.000000	19.576653
1899.000000	20.052581
1898.000000	20.502073
1897.000000	20.992564
1896.000000	21.430983
1895.000000	21.870600
1894.000000	22.369072
1893.000000	22.868042
1892.000000	23.400230
1891.000000	23.988580
1890.000000	24.505107
1889.000000	24.993404
1888.000000	25.540954
1887.000000	26.023665
1886.000000	26.497397
1885.000000	27.001056
1884.000000	27.508705
1883.000000	27.949718
1882.000000	28.366690
1881.000000	28.781269
1880.000000	29.182280
1879.000000	29.567331
1878.000000	29.948492
1877.000000	30.298529
1876.000000	30.644676
1875.000000	30.963590
1874.000000	31.267541
1873.000000	31.576280
1872.000000	31.842325
1871.000000	32.069864
1870.000000	32.249721
1869.000000	32.413417
1868.000000	32.590082
1867.000000	32.741409
1866.000000	32.849044
1865.000000	32.973637
1864.000000	33.118679
1863.000000	33.253447
1862.000000	33.386818
1861.000000	33.526474
1860.000000	33.624433
1859.000000	33.701742
1858.000000	33.772767
1857.000000	33.840101
1856.000000	33.904443
1855.000000	33.965592
1854.000000	34.011180
1853.000000	34.009584
1852.000000	34.024646
1851.000000	34.093178
1850.000000	34.186148
1849.000000	34.249891
1848.000000	34.228245
1847.000000	34.173679
1846.000000	34.092479
1845.000000	34.055271
1844.000000	34.107841
1843.000000	34.155723
1842.000000	34.186647
1841.000000	34.155624
1840.000000	34.100559
1839.000000	34.060558
1838.000000	34.028038
1837.000000	33.980256
1836.000000	33.903246
1835.000000	33.833118
1834.000000	33.782543
1833.000000	33.767480
1832.000000	33.747829
1831.000000	33.733165
1830.000000	33.698251
1829.000000	33.648074
1828.000000	33.605479
1827.000000	33.572860
1826.000000	33.541338
1825.000000	33.491261
1824.000000	33.471709
1823.000000	33.529966
1822.000000	33.572162
1821.000000	33.550714
1820.000000	33.506224
1819.000000	33.457444
1818.000000	33.433703
1817.000000	33.435399
1816.000000	33.450960
1815.000000	33.435399
1814.000000	33.409263
1813.000000	33.407667
1812.000000	33.392604
1811.000000	33.352303
1810.000000	33.310008
1809.000000	33.278485
1808.000000	33.265218
1807.000000	33.262325
1806.000000	33.236988
1805.000000	33.209655
1804.000000	33.183320
1803.000000	33.174442
1802.000000	33.165863
1801.000000	33.148705
1800.000000	33.120974
1799.000000	33.082867
1798.000000	33.049649
1797.000000	33.043365
1796.000000	33.042666
1795.000000	33.016930
1794.000000	33.003363
1793.000000	32.989597
1792.000000	32.964559
1791.000000	32.958673
1790.000000	32.958773
1789.000000	32.964659
1788.000000	32.957377
1787.000000	32.962065
1786.000000	32.986505
1785.000000	32.975831
1784.000000	32.983014
1783.000000	32.984011
1782.000000	32.978325
1781.000000	32.983413
1780.000000	32.964359
1779.000000	32.962065
1778.000000	32.943810
1777.000000	32.906303
1776.000000	32.883160
1775.000000	32.863408
1774.000000	32.822010
1773.000000	32.804952
1772.000000	32.781809
1771.000000	32.744402
1770.000000	32.729738
1769.000000	32.691432
1768.000000	32.660209
1767.000000	32.628288
1766.000000	32.607639
1765.000000	32.566440
1764.000000	32.550879
1763.000000	32.551078
1762.000000	32.529032
1761.000000	32.513570
1760.000000	32.508782
1759.000000	32.495615
1758.000000	32.491026
1757.000000	32.481150
1756.000000	32.470477
1755.000000	32.472073
1754.000000	32.455115
1753.000000	32.464092
1752.000000	32.454316
1751.000000	32.436061
1750.000000	32.404140
1749.000000	32.386284
1748.000000	32.349275
1747.000000	32.296306
1746.000000	32.244434
1745.000000	32.178895
1744.000000	32.111262
1743.000000	32.067171
1742.000000	32.002231
1741.000000	31.941680
1740.000000	31.852799
1739.000000	31.797535
1738.000000	31.732096
1737.000000	31.672842
1736.000000	31.635435
1735.000000	31.581368
1734.000000	31.545855
1733.000000	31.495579
1732.000000	31.464456
1731.000000	31.417372
1730.000000	31.365899
1729.000000	31.343055
1728.000000	31.300859
1727.000000	31.265047
1726.000000	31.241306
1725.000000	31.221954
1724.000000	31.215769
1723.000000	31.220358
1722.000000	31.273527
1721.000000	31.358417
1720.000000	31.481414
1719.000000	31.647505
1718.000000	31.803121
1717.000000	31.979886
1716.000000	32.135003
1715.000000	32.324437
1714.000000	32.498508
1713.000000	32.648039
1712.000000	32.771335
1711.000000	32.897823
1710.000000	33.007952
1709.000000	33.110300
1708.000000	33.225416
1707.000000	33.251352
1706.000000	33.344323
1705.000000	33.371257
1704.000000	33.402979
1703.000000	33.419238
1702.000000	33.442082
1701.000000	33.430311
1700.000000	33.439489
1699.000000	33.447070
1698.000000	33.437793
1697.000000	33.431209
1696.000000	33.393901
1695.000000	33.370858
1694.000000	33.326168
1693.000000	33.274994
1692.000000	33.210553
1691.000000	33.128355
1690.000000	33.090748
1689.000000	33.056233
1688.000000	33.066009
1687.000000	33.121073
1686.000000	33.220528
1685.000000	33.335445
1684.000000	33.488667
1683.000000	33.674210
1682.000000	33.870227
1681.000000	34.056568
1680.000000	34.262161
1679.000000	34.468951
1678.000000	34.647212
1677.000000	34.812305
1676.000000	34.985179
1675.000000	35.145983
1674.000000	35.310976
1673.000000	35.471082
1672.000000	35.636873
1671.000000	35.803064
1670.000000	35.968256
1669.000000	36.137240
1668.000000	36.296847
1667.000000	36.454857
1666.000000	36.583839
1665.000000	36.714118
1664.000000	36.848188
1663.000000	36.981559
1662.000000	37.106052
1661.000000	37.200719
1660.000000	37.327407
1659.000000	37.398531
1658.000000	37.501777
1657.000000	37.567715
1656.000000	37.636146
1655.000000	37.679539
1654.000000	37.728618
1653.000000	37.748369
1652.000000	37.784879
1651.000000	37.821988
1650.000000	37.830567
1649.000000	37.829070
1648.000000	37.826577
1647.000000	37.809918
1646.000000	37.818097
1645.000000	37.796850
1644.000000	37.784780
1643.000000	37.781089
1642.000000	37.765427
1641.000000	37.746374
1640.000000	37.728718
1639.000000	37.722832
1638.000000	37.702383
1637.000000	37.678142
1636.000000	37.656795
1635.000000	37.631258
1634.000000	37.589960
1633.000000	37.563325
1632.000000	37.527813
1631.000000	37.480430
1630.000000	37.441925
1629.000000	37.406312
1628.000000	37.350749
1627.000000	37.298079
1626.000000	37.248501
1625.000000	37.202614
1624.000000	37.158323
1623.000000	37.111938
1622.000000	37.068245
1621.000000	37.022857
1620.000000	36.965199
1619.000000	36.928390
1618.000000	36.877715
1617.000000	36.833923
1616.000000	36.800406
1615.000000	36.760703
1614.000000	36.701649
1613.000000	36.642894
1612.000000	36.581545
1611.000000	36.525982
1610.000000	36.468324
1609.000000	36.402087
1608.000000	36.328369
1607.000000	36.267918
1606.000000	36.188613
1605.000000	36.111503
1604.000000	36.043172
1603.000000	35.963269
1602.000000	35.880173
1601.000000	35.799173
1600.000000	35.722562
1599.000000	35.640265
1598.000000	35.570636
1597.000000	35.492728
1596.000000	35.419010
1595.000000	35.353172
1594.000000	35.281449
1593.000000	35.221896
1592.000000	35.164637
1591.000000	35.109872
1590.000000	35.047426
1589.000000	34.995155
1588.000000	34.947372
1587.000000	34.890612
1586.000000	34.843229
1585.000000	34.787367
1584.000000	34.751355
1583.000000	34.709259
1582.000000	34.660380
1581.000000	34.612897
1580.000000	34.555638
1579.000000	34.531497
1578.000000	34.510748
1577.000000	34.481421
1576.000000	34.465360
1575.000000	34.440821
1574.000000	34.425758
1573.000000	34.419074
1572.000000	34.401019
1571.000000	34.388649
1570.000000	34.393039
1569.000000	34.403313
1568.000000	34.414486
1567.000000	34.419374
1566.000000	34.433439
1565.000000	34.441519
1564.000000	34.442916
1563.000000	34.448402
1562.000000	34.445010
1561.000000	34.438327
1560.000000	34.420670
1559.000000	34.392739
1558.000000	34.350044
1557.000000	34.318821
1556.000000	34.281414
1555.000000	34.223955
1554.000000	34.173679
1553.000000	34.121009
1552.000000	34.053376
1551.000000	33.994221
1550.000000	33.920004
1549.000000	33.843094
1548.000000	33.763490
1547.000000	33.701044
1546.000000	33.638797
1545.000000	33.561787
1544.000000	33.500937
1543.000000	33.458841
1542.000000	33.422530
1541.000000	33.375347
1540.000000	33.322078
1539.000000	33.292251
1538.000000	33.267612
1537.000000	33.221526
1536.000000	33.169853
1535.000000	33.109502
1534.000000	33.067106
1533.000000	33.035085
1532.000000	32.970444
1531.000000	32.907998
1530.000000	32.864506
1529.000000	32.803656
1528.000000	32.744102
1527.000000	32.680459
1526.000000	32.619809
1525.000000	32.562550
1524.000000	32.503795
1523.000000	32.415313
1522.000000	32.361046
1521.000000	32.267477
1520.000000	32.200741
1519.000000	32.149368
1518.000000	32.082632
1517.000000	32.001732
1516.000000	31.929111
1515.000000	31.852699
1514.000000	31.777185
1513.000000	31.703068
1512.000000	31.614187
1511.000000	31.541167
1510.000000	31.470541
1509.000000	31.394129
1508.000000	31.331484
1507.000000	31.246493
1506.000000	31.166291
1505.000000	31.109431
1504.000000	31.037009
1503.000000	30.968877
1502.000000	30.910322
1501.000000	30.836204
1500.000000	30.776851
1499.000000	30.719392
1498.000000	30.676398
1497.000000	30.632008
1496.000000	30.591108
1495.000000	30.568364
1494.000000	30.534847
1493.000000	30.512103
1492.000000	30.501729
1491.000000	30.482077
1490.000000	30.462825
1489.000000	30.454744
1488.000000	30.466416
1487.000000	30.452350
1486.000000	30.460730
1485.000000	30.449956
1484.000000	30.443372
1483.000000	30.461727
1482.000000	30.452350
1481.000000	30.459632
1480.000000	30.464820
1479.000000	30.458236
1478.000000	30.486466
1477.000000	30.501529
1476.000000	30.498636
1475.000000	30.527964
1474.000000	30.559287
1473.000000	30.617244
1472.000000	30.641085
1471.000000	30.686773
1470.000000	30.722584
1469.000000	30.740640
1468.000000	30.802986
1467.000000	30.854559
1466.000000	30.885782
1465.000000	30.962094
1464.000000	30.985836
1463.000000	31.057060
1462.000000	31.113022
1461.000000	31.173473
1460.000000	31.251780
1459.000000	31.308840
1458.000000	31.388344
1457.000000	31.477225
1456.000000	31.536977
1455.000000	31.594236
1454.000000	31.675237
1453.000000	31.741872
1452.000000	31.842724
1451.000000	31.911754
1450.000000	31.969412
1449.000000	32.026571
1448.000000	32.080637
1447.000000	32.176102
1446.000000	32.249421
1445.000000	32.282540
1444.000000	32.358552
1443.000000	32.414315
1442.000000	32.509082
1441.000000	32.592975
1440.000000	32.672279
1439.000000	32.763355
1438.000000	32.839667
1437.000000	32.907500
1436.000000	32.981118
1435.000000	33.082967
1434.000000	33.212049
1433.000000	33.304222
1432.000000	33.437493
1431.000000	33.509516
1430.000000	33.633810
1429.000000	33.766483
1428.000000	33.941352
1427.000000	34.049186
1426.000000	34.189041
1425.000000	34.376080
1424.000000	34.558531
1423.000000	34.712352
1422.000000	34.880537
1421.000000	35.088924
1420.000000	35.348484
1419.000000	35.562257
1418.000000	35.735729
1417.000000	35.961972
1416.000000	36.193003
1415.000000	36.490868
1414.000000	36.768783
1413.000000	37.011585
1412.000000	37.269649
1411.000000	37.587067
1410.000000	37.925732
1409.000000	38.270582
1408.000000	38.579820
1407.000000	38.891951
1406.000000	39.200491
1405.000000	39.508132
1404.000000	39.827745
1403.000000	40.116333
1402.000000	40.449812
1401.000000	40.881647
1400.000000	41.097116
1399.000000	41.292634
1398.000000	41.447652
1397.000000	41.785420
1396.000000	42.082089
1395.000000	42.275612
1394.000000	42.410779
1393.000000	42.570585
1392.000000	42.758721
1391.000000	42.877628
1390.000000	43.051999
1389.000000	43.267468
1388.000000	43.470667
1387.000000	43.584187
1386.000000	43.770827
1385.000000	43.996072
1384.000000	44.288651
1383.000000	44.538236
1382.000000	44.842885
1381.000000	45.127184
1380.000000	45.457770
1379.000000	45.929108
1378.000000	46.414312
1377.000000	46.952586
1376.000000	47.537943
1375.000000	48.096267
1374.000000	48.624665
1373.000000	49.200146
1372.000000	49.690438
1371.000000	50.101026
1370.000000	50.445078
1369.000000	50.737458
1368.000000	51.008689
1367.000000	51.192436
1366.000000	51.390349
1365.000000	51.587263
1364.000000	51.734201
1363.000000	51.879543
1362.000000	52.027079
1361.000000	52.111372
1360.000000	52.158356
1359.000000	52.222398
1358.000000	52.322751
1357.000000	52.427592
1356.000000	52.547297
1355.000000	52.681866
1354.000000	52.799675
1353.000000	52.906313
1352.000000	53.062827
1351.000000	53.245976
1350.000000	53.429423
1349.000000	53.613969
1348.000000	53.819462
1347.000000	54.014282
1346.000000	54.173589
1345.000000	54.348359
1344.000000	54.552356
1343.000000	54.715654
1342.000000	54.873365
1341.000000	55.058209
1340.000000	55.229587
1339.000000	55.386700
1338.000000	55.538426
1337.000000	55.685364
1336.000000	55.822127
1335.000000	55.964077
1334.000000	56.099343
1333.000000	56.231418
1332.000000	56.341347
1331.000000	56.440802
1330.000000	56.551230
1329.000000	56.662755
1328.000000	56.768395
1327.000000	56.865156
1326.000000	56.957528
1325.000000	57.042419
1324.000000	57.133994
1323.000000	57.217687
1322.000000	57.288612
1321.000000	57.363628
1320.000000	57.432657
1319.000000	57.501887
1318.000000	57.571715
1317.000000	57.638550
1316.000000	57.706084
1315.000000	57.765537
1314.000000	57.818207
1313.000000	57.881850
1312.000000	57.949783
1311.000000	58.004847
1310.000000	58.061109
1309.000000	58.097818
1308.000000	58.139615
1307.000000	58.184305
1306.000000	58.217623
1305.000000	58.248646
1304.000000	58.277974
1303.000000	58.305506
1302.000000	58.327452
1301.000000	58.361069
1300.000000	58.389100
1299.000000	58.413640
1298.000000	58.433391
1297.000000	58.443167
1296.000000	58.435187
1295.000000	58.430798
1294.000000	58.442668
1293.000000	58.447955
1292.000000	58.442768
1291.000000	58.434788
1290.000000	58.427705
1289.000000	58.411545
1288.000000	58.396482
1287.000000	58.380821
1286.000000	58.367553
1285.000000	58.350495
1284.000000	58.308000
1283.000000	58.280069
1282.000000	58.264807
1281.000000	58.236476
1280.000000	58.203957
1279.000000	58.173931
1278.000000	58.153281
1277.000000	58.147795
1276.000000	58.145999
1275.000000	58.135026
1274.000000	58.118866
1273.000000	58.112382
1272.000000	58.106497
1271.000000	58.112382
1270.000000	58.127445
1269.000000	58.120462
1268.000000	58.118567
1267.000000	58.123156
1266.000000	58.117969
1265.000000	58.122956
1264.000000	58.107295
1263.000000	58.089239
1262.000000	58.076770
1261.000000	58.078266
1260.000000	58.071184
1259.000000	58.057617
1258.000000	58.040360
1257.000000	58.021107
1256.000000	57.983101
1255.000000	57.974422
1254.000000	57.958262
1253.000000	57.917064
1252.000000	57.861999
1251.000000	57.836263
1250.000000	57.794266
1249.000000	57.771024
1248.000000	57.720847
1247.000000	57.668576
1246.000000	57.627577
1245.000000	57.603437
1244.000000	57.548572
1243.000000	57.513558
1242.000000	57.487622
1241.000000	57.451012
1240.000000	57.443930
1239.000000	57.426074
1238.000000	57.400636
1237.000000	57.393354
1236.000000	57.395848
1235.000000	57.376695
1234.000000	57.360136
1233.000000	57.352854
1232.000000	57.346370
1231.000000	57.324424
1230.000000	57.300982
1229.000000	57.276642
1228.000000	57.248013
1227.000000	57.237439
1226.000000	57.208111
1225.000000	57.169406
1224.000000	57.150154
1223.000000	57.107958
1222.000000	57.086211
1221.000000	57.059577
1220.000000	57.020573
1219.000000	56.970796
1218.000000	56.930695
1217.000000	56.905557
1216.000000	56.857176
1215.000000	56.809393
1214.000000	56.773881
1213.000000	56.729590
1212.000000	56.666346
1211.000000	56.592628
1210.000000	56.539758
1209.000000	56.465341
1208.000000	56.411873
1207.000000	56.345936
1206.000000	56.266033
1205.000000	56.206280
1204.000000	56.136951
1203.000000	56.071412
1202.000000	55.978441
1201.000000	55.919786
1200.000000	55.850257
1199.000000	55.785018
1198.000000	55.714791
1197.000000	55.641372
1196.000000	55.574038
1195.000000	55.491442
1194.000000	55.422112
1193.000000	55.347297
1192.000000	55.268192
1191.000000	55.218514
1190.000000	55.151779
1189.000000	55.102700
1188.000000	55.059706
1187.000000	55.068983
1186.000000	55.065890
1185.000000	55.064095
1184.000000	55.093622
1183.000000	55.125942
1182.000000	55.159659
1181.000000	55.217816
1180.000000	55.297120
1179.000000	55.371238
1178.000000	55.438073
1177.000000	55.517078
1176.000000	55.583614
1175.000000	55.659727
1174.000000	55.742423
1173.000000	55.825418
1172.000000	55.910010
1171.000000	56.012458
1170.000000	56.116501
1169.000000	56.216754
1168.000000	56.322294
1167.000000	56.443994
1166.000000	56.581455
1165.000000	56.715026
1164.000000	56.850791
1163.000000	56.979774
1162.000000	57.109354
1161.000000	57.256591
1160.000000	57.383778
1159.000000	57.527723
1158.000000	57.645034
1157.000000	57.773418
1156.000000	57.864094
1155.000000	57.979510
1154.000000	58.081159
1153.000000	58.179517
1152.000000	58.267101
1151.000000	58.346904
1150.000000	58.434488
1149.000000	58.504117
1148.000000	58.582125
1147.000000	58.668412
1146.000000	58.738040
1145.000000	58.828318
1144.000000	58.882684
1143.000000	58.941339
1142.000000	59.037502
1141.000000	59.143840
1140.000000	59.229928
1139.000000	59.327887
1138.000000	59.441606
1137.000000	59.567396
1136.000000	59.728400
1135.000000	59.845910
1134.000000	59.953146
1133.000000	60.012499
1132.000000	60.082826
1131.000000	60.189663
1130.000000	60.287522
1129.000000	60.350566
1128.000000	60.419796
1127.000000	60.490222
1126.000000	60.534613
1125.000000	60.600650
1124.000000	60.631973
1123.000000	60.649430
1122.000000	60.669081
1121.000000	60.669381
1120.000000	60.673271
1119.000000	60.675765
1118.000000	60.679156
1117.000000	60.674568
1116.000000	60.670578
1115.000000	60.683147
1114.000000	60.677361
1113.000000	60.663096
1112.000000	60.666787
1111.000000	60.650926
1110.000000	60.629479
1109.000000	60.621199
1108.000000	60.615314
1107.000000	60.611723
1106.000000	60.578904
1105.000000	60.567831
1104.000000	60.556259
1103.000000	60.534014
1102.000000	60.522542
1101.000000	60.499200
1100.000000	60.484736
1099.000000	60.463189
1098.000000	60.437153
1097.000000	60.436654
1096.000000	60.425382
1095.000000	60.383385
1094.000000	60.362836
1093.000000	60.354457
1092.000000	60.327024
1091.000000	60.300390
1090.000000	60.278943
1089.000000	60.254004
1088.000000	60.225874
1087.000000	60.212606
1086.000000	60.182381
1085.000000	60.152953
1084.000000	60.129511
1083.000000	60.110358
1082.000000	60.074447
1081.000000	60.066167
1080.000000	60.049009
1079.000000	60.014096
1078.000000	59.980678
1077.000000	59.968308
1076.000000	59.945066
1075.000000	59.918431
1074.000000	59.901373
1073.000000	59.877333
1072.000000	59.860075
1071.000000	59.820173
1070.000000	59.805210
1069.000000	59.782267
1068.000000	59.735881
1067.000000	59.705556
1066.000000	59.677026
1065.000000	59.647499
1064.000000	59.618969
1063.000000	59.584454
1062.000000	59.542059
1061.000000	59.522308
1060.000000	59.490985
1059.000000	59.460659
1058.000000	59.436519
1057.000000	59.395420
1056.000000	59.359808
1055.000000	59.323897
1054.000000	59.283396
1053.000000	59.241500
1052.000000	59.221150
1051.000000	59.196810
1050.000000	59.154215
1049.000000	59.119600
1048.000000	59.102941
1047.000000	59.083788
1046.000000	59.051568
1045.000000	59.028026
1044.000000	59.013761
1043.000000	58.992713
1042.000000	58.959694
1041.000000	58.931663
1040.000000	58.906425
1039.000000	58.889567
1038.000000	58.875202
1037.000000	58.849466
1036.000000	58.818143
1035.000000	58.792805
1034.000000	58.773653
1033.000000	58.759288
1032.000000	58.741332
1031.000000	58.718189
1030.000000	58.702827
1029.000000	58.696044
1028.000000	58.679285
1027.000000	58.650755
1026.000000	58.639483
1025.000000	58.631902
1024.000000	58.609158
1023.000000	58.585516
1022.000000	58.570852
1021.000000	58.541026
1020.000000	58.517883
1019.000000	58.506311
1018.000000	58.486959
1017.000000	58.473792
1016.000000	58.459227
1015.000000	58.431895
1014.000000	58.413939
1013.000000	58.401769
1012.000000	58.396981
1011.000000	58.393190
1010.000000	58.364262
1009.000000	58.335333
1008.000000	58.322564
1007.000000	58.311791
1006.000000	58.302514
1005.000000	58.290743
1004.000000	58.277575
1003.000000	58.260916
1002.000000	58.257325
1001.000000	58.240267
1000.000000	58.219718
999.000000	58.204954
998.000000	58.183208
997.000000	58.182310
996.000000	58.160464
995.000000	58.131036
994.000000	58.108991
993.000000	58.105000
992.000000	58.101110
991.000000	58.073678
990.000000	58.044649
989.000000	58.033676
988.000000	58.004448
987.000000	57.996767
986.000000	58.010434
985.000000	58.007441
984.000000	57.987191
983.000000	57.962452
982.000000	57.981405
981.000000	57.976517
980.000000	57.954671
979.000000	57.955569
978.000000	57.963350
977.000000	57.944995
976.000000	57.928835
975.000000	57.921752
974.000000	57.932127
973.000000	57.911777
972.000000	57.888733
971.000000	57.882449
970.000000	57.886339
969.000000	57.875167
968.000000	57.870977
967.000000	57.852323
966.000000	57.843844
965.000000	57.843645
964.000000	57.841650
963.000000	57.822098
962.000000	57.816212
961.000000	57.809828
960.000000	57.793468
959.000000	57.806137
958.000000	57.778705
957.000000	57.767033
956.000000	57.763642
955.000000	57.767632
954.000000	57.735711
953.000000	57.736608
952.000000	57.730324
951.000000	57.714363
950.000000	57.711470
949.000000	57.661094
948.000000	57.643139
947.000000	57.633562
946.000000	57.605332
945.000000	57.603337
944.000000	57.561540
943.000000	57.565031
942.000000	57.550866
941.000000	57.557450
940.000000	57.533908
939.000000	57.527125
938.000000	57.533110
937.000000	57.541988
936.000000	57.546277
935.000000	57.526925
934.000000	57.531115
933.000000	57.504780
932.000000	57.506875
931.000000	57.475851
930.000000	57.475352
929.000000	57.482734
928.000000	57.464679
927.000000	57.463481
926.000000	57.457796
925.000000	57.446224
924.000000	57.457796
923.000000	57.459890
922.000000	57.469966
921.000000	57.467571
920.000000	57.487323
919.000000	57.472759
918.000000	57.497597
917.000000	57.507673
916.000000	57.521538
915.000000	57.532312
914.000000	57.544681
913.000000	57.569720
912.000000	57.579496
911.000000	57.604235
910.000000	57.624983
909.000000	57.664486
908.000000	57.655508
907.000000	57.702293
906.000000	57.731920
905.000000	57.760649
904.000000	57.816112
903.000000	57.830178
902.000000	57.858109
901.000000	57.886738
900.000000	57.939808
899.000000	57.971729
898.000000	58.012429
897.000000	58.064201
896.000000	58.102008
895.000000	58.141910
894.000000	58.204256
893.000000	58.246552
892.000000	58.297825
891.000000	58.351593
890.000000	58.403565
889.000000	58.461921
888.000000	58.517683
887.000000	58.593796
886.000000	58.641079
885.000000	58.713202
884.000000	58.762081
883.000000	58.829415
882.000000	58.893358
881.000000	58.953110
880.000000	58.989022
879.000000	59.039996
878.000000	59.088078
877.000000	59.148628
876.000000	59.180151
875.000000	59.191623
874.000000	59.227833
873.000000	59.279606
872.000000	59.322400
871.000000	59.342052
870.000000	59.368686
869.000000	59.401505
868.000000	59.442005
867.000000	59.458265
866.000000	59.476620
865.000000	59.501060
864.000000	59.536273
863.000000	59.524602
862.000000	59.530388
861.000000	59.471932
860.000000	59.411580
859.000000	59.346441
858.000000	59.349533
857.000000	59.515400
856.000000	59.024500
855.000000	59.508700
854.000000	59.697400
853.000000	59.819500
852.000000	60.099000
851.000000	59.836500
850.000000	59.887300
849.000000	60.113700
848.000000	60.589000
847.000000	60.381300
846.000000	60.310800
845.000000	60.681300
844.000000	60.698400
843.000000	60.799700
842.000000	60.984900
841.000000	61.191200
840.000000	61.452700
839.000000	61.599700
838.000000	61.769900
837.000000	62.141000
836.000000	62.082800
835.000000	62.504300
834.000000	62.892900
833.000000	63.103600
832.000000	63.399800
831.000000	63.674700
830.000000	63.935500
829.000000	64.123900
828.000000	64.550000
827.000000	64.853800
826.000000	65.205600
825.000000	65.569400
824.000000	65.875900
823.000000	66.012000
822.000000	66.298800
821.000000	66.748900
820.000000	67.088800
819.000000	67.280600
818.000000	67.693200
817.000000	67.831700
816.000000	68.302000
815.000000	68.477500
814.000000	68.796200
813.000000	69.033000
812.000000	69.148000
811.000000	69.603100
810.000000	69.838300
809.000000	70.054000
808.000000	70.220500
807.000000	70.496300
806.000000	70.831400
805.000000	71.151100
804.000000	71.302600
803.000000	71.386900
802.000000	71.520600
801.000000	71.773500
800.000000	72.103600
799.000000	72.242900
798.000000	72.325800
797.000000	72.524200
796.000000	72.657200
795.000000	72.788500
794.000000	72.975000
793.000000	73.089000
792.000000	73.175400
791.000000	73.378000
790.000000	73.476000
789.000000	73.485100
788.000000	73.469700
787.000000	73.515800
786.000000	73.581200
785.000000	73.643600
784.000000	73.632500
783.000000	73.708800
782.000000	73.780600
781.000000	73.798000
780.000000	73.838400
779.000000	73.841600
778.000000	73.921900
777.000000	73.901800
776.000000	73.841900
775.000000	73.895100
774.000000	73.833700
773.000000	73.800600
772.000000	73.861500
771.000000	73.862300
770.000000	73.877000
769.000000	73.835100
768.000000	73.819500
767.000000	73.785700
766.000000	73.694900
765.000000	73.702000
764.000000	73.767400
763.000000	73.642300
762.000000	73.516400
761.000000	73.439500
760.000000	73.377000
759.000000	73.360200
758.000000	73.265300
757.000000	73.129200
756.000000	73.046400
755.000000	73.014600
754.000000	72.853200
753.000000	72.663400
752.000000	72.567300
751.000000	72.448200
750.000000	72.313500
749.000000	72.133900
748.000000	71.978300
747.000000	71.868600
746.000000	71.716500
745.000000	71.627600
744.000000	71.486000
743.000000	71.261200
742.000000	71.181300
741.000000	71.043700
740.000000	70.822800
739.000000	70.606200
738.000000	70.436800
737.000000	70.340200
736.000000	70.123400
735.000000	69.932000
734.000000	69.737900
733.000000	69.497600
732.000000	69.294500
731.000000	69.041500
730.000000	68.837900
729.000000	68.660800
728.000000	68.461700
727.000000	68.177500
726.000000	67.933100
725.000000	67.627400
724.000000	67.341100
723.000000	67.081400
722.000000	66.812600
721.000000	66.505700
720.000000	66.169700
719.000000	65.872400
718.000000	65.601800
717.000000	65.341800
716.000000	65.058900
715.000000	64.730000
714.000000	64.408100
713.000000	64.071100
712.000000	63.732600
711.000000	63.465700
710.000000	63.184400
709.000000	62.860600
708.000000	62.570600
707.000000	62.240100
706.000000	61.952400
705.000000	61.608600
704.000000	61.314400
703.000000	60.976300
702.000000	60.624000
701.000000	60.359900
700.000000	60.054900
699.000000	59.719300
698.000000	59.468600
697.000000	59.207400
696.000000	58.899800
695.000000	58.594500
694.000000	58.334300
693.000000	58.090500
692.000000	57.777100
691.000000	57.439900
690.000000	57.142000
689.000000	56.874100
688.000000	56.577200
687.000000	56.276800
686.000000	55.938000
685.000000	55.628700
684.000000	55.296800
683.000000	55.029500
682.000000	54.686600
681.000000	54.311600
680.000000	53.970200
679.000000	53.628400
678.000000	53.236500
677.000000	52.839500
676.000000	52.424400
675.000000	52.083200
674.000000	51.685800
673.000000	51.264800
672.000000	50.885200
671.000000	50.468200
670.000000	50.017600
669.000000	49.605200
668.000000	49.190800
667.000000	48.778900
666.000000	48.358300
665.000000	47.957900
664.000000	47.511900
663.000000	47.099100
662.000000	46.704600
661.000000	46.361500
660.000000	46.014300
659.000000	45.669100
658.000000	45.373500
657.000000	45.142500
656.000000	44.934800
655.000000	44.740500
654.000000	44.588200
653.000000	44.514700
652.000000	44.420600
651.000000	44.383500
650.000000	44.412300
649.000000	44.434900
648.000000	44.433000
647.000000	44.496000
646.000000	44.524100
645.000000	44.594800
644.000000	44.600800
643.000000	44.574500
642.000000	44.552200
641.000000	44.525900
640.000000	44.400000
639.000000	44.282800
638.000000	44.102500
637.000000	43.926800
636.000000	43.651000
635.000000	43.375700
634.000000	43.012000
633.000000	42.699500
632.000000	42.332000
631.000000	41.981200
630.000000	41.642300
629.000000	41.351900
628.000000	41.058300
627.000000	40.825700
626.000000	40.589600
625.000000	40.464100
624.000000	40.325900
623.000000	40.272400
622.000000	40.333300
621.000000	40.415900
620.000000	40.541200
619.000000	40.760800
618.000000	41.013800
617.000000	41.342200
616.000000	41.703500
615.000000	42.126100
614.000000	42.574200
613.000000	43.085200
612.000000	43.621200
611.000000	44.146500
610.000000	44.768300
609.000000	45.358900
608.000000	45.945900
607.000000	46.558400
606.000000	47.120700
605.000000	47.773400
604.000000	48.372200
603.000000	48.916500
602.000000	49.520300
601.000000	50.038900
600.000000	50.579100
599.000000	51.103700
598.000000	51.585600
597.000000	52.011300
596.000000	52.396300
595.000000	52.838600
594.000000	53.201500
593.000000	53.593400
592.000000	53.915500
591.000000	54.257900
590.000000	54.569400
589.000000	54.862200
588.000000	55.084200
587.000000	55.311800
586.000000	55.500700
585.000000	55.686400
584.000000	55.872700
583.000000	55.967300
582.000000	56.109300
581.000000	56.194600
580.000000	56.276800
579.000000	56.328600
578.000000	56.384700
577.000000	56.378400
576.000000	56.393900
575.000000	56.417900
574.000000	56.321900
573.000000	56.327900
572.000000	56.225400
571.000000	56.134600
570.000000	56.047000
569.000000	55.966100
568.000000	55.850800
567.000000	55.762600
566.000000	55.646700
565.000000	55.537500
564.000000	55.413500
563.000000	55.281300
562.000000	55.103600
561.000000	54.909500
560.000000	54.703300
559.000000	54.190800
558.000000	54.041500
557.000000	53.822900
556.000000	53.605100
555.000000	53.386500
554.000000	53.126100
553.000000	52.852300
552.000000	52.527500
551.000000	52.186600
550.000000	51.831600
549.000000	51.447600
548.000000	51.084000
547.000000	50.687900
546.000000	50.283800
545.000000	49.837800
544.000000	49.389900
543.000000	48.923200
542.000000	48.424200
541.000000	47.884000
540.000000	47.343900
539.000000	46.786600
538.000000	46.172500
537.000000	45.574700
536.000000	44.938200
535.000000	44.254200
534.000000	43.525100
533.000000	42.819400
532.000000	42.038500
531.000000	41.259600
530.000000	40.442100
529.000000	39.641200
528.000000	38.816100
527.000000	38.009100
526.000000	37.199900
525.000000	36.412500
524.000000	35.613200
523.000000	34.842300
522.000000	34.095500
521.000000	33.391600
520.000000	32.723200
519.000000	32.081200
518.000000	31.466000
517.000000	30.883300
516.000000	30.311800
515.000000	29.741200
514.000000	29.232500
513.000000	28.753100
512.000000	28.293900
511.000000	27.850400
510.000000	27.446300
509.000000	27.055800
508.000000	26.710600
507.000000	26.390700
506.000000	26.113800
505.000000	25.850600
504.000000	25.628000
503.000000	25.402400
502.000000	25.226700
501.000000	25.045900
500.000000	24.878800
499.000000	24.727000
498.000000	24.604200
497.000000	24.500400
496.000000	24.380600
495.000000	24.297500
494.000000	24.186800
493.000000	24.099700
492.000000	24.018400
491.000000	23.918000
490.000000	23.822000
489.000000	23.731200
488.000000	23.626200
487.000000	23.524500
486.000000	23.431500
485.000000	23.348200
484.000000	23.256100
483.000000	23.147300
482.000000	23.018900
481.000000	22.886500
480.000000	22.756000
479.000000	22.591900
478.000000	22.436100
477.000000	22.278100
476.000000	22.124300
475.000000	21.972200
474.000000	21.795900
473.000000	21.611100
472.000000	21.433500
471.000000	21.252500
470.000000	21.056600
469.000000	20.860900
468.000000	20.679300
467.000000	20.480800
466.000000	20.266200
465.000000	20.040900
464.000000	19.822600
463.000000	19.598800
462.000000	19.353400
461.000000	19.106300
460.000000	18.850800
459.000000	18.572700
458.000000	18.299600
457.000000	18.033300
456.000000	17.750400
455.000000	17.447800
454.000000	17.136000
453.000000	16.818300
452.000000	16.500500
451.000000	16.170700
450.000000	15.819200
449.000000	15.470600
448.000000	15.130100
447.000000	14.782400
446.000000	14.424500
445.000000	14.070500
444.000000	13.703300
443.000000	13.328100
442.000000	12.963800
441.000000	12.605100
440.000000	12.254100
439.000000	11.906700
438.000000	11.556700
437.000000	11.221100
436.000000	10.915000
435.000000	10.604600
434.000000	10.291600
433.000000	9.996800
432.000000	9.720700
431.000000	9.454200
430.000000	9.191000
429.000000	8.942900
428.000000	8.718800
427.000000	8.513300
426.000000	8.312400
425.000000	8.125700
424.000000	7.955000
423.000000	7.786700
422.000000	7.638700
421.000000	7.502100
420.000000	7.368300
419.000000	7.246600
418.000000	7.133500
417.000000	7.039300
416.000000	6.954700
415.000000	6.857400
414.000000	6.770100
413.000000	6.692500
412.000000	6.611800
411.000000	6.553000
410.000000	6.498300
409.000000	6.450000
408.000000	6.396000
407.000000	6.355100
406.000000	6.321600
405.000000	6.269800
404.000000	6.225000
403.000000	6.196100
402.000000	6.174100
401.000000	6.150500
400.000000	6.120900
399.000000	6.107500
398.000000	6.081300
397.000000	6.048300
396.000000	6.032900
395.000000	6.009600
394.000000	5.994500
393.000000	5.973400
392.000000	5.944300
391.000000	5.924000
390.000000	5.914600
389.000000	5.895900
388.000000	5.872300
387.000000	5.853600
386.000000	5.824600
385.000000	5.815700
384.000000	5.792500
383.000000	5.771200
382.000000	5.740400
381.000000	5.712500
380.000000	5.714200
379.000000	5.672500
378.000000	5.661400
377.000000	5.632200
376.000000	5.646000
375.000000	5.459700
374.000000	5.394100
373.000000	5.510500
372.000000	5.524000
371.000000	5.491800
370.000000	5.499900
369.000000	5.467100
368.000000	5.450000
367.000000	5.484700
366.000000	5.437100
365.000000	5.418600
364.000000	5.421400
363.000000	5.540700
362.000000	5.498900
361.000000	5.455300
360.000000	5.468700
359.000000	5.420500
358.000000	5.393800
357.000000	5.349600
356.000000	5.367400
355.000000	5.393100
354.000000	5.400700
353.000000	5.337900
352.000000	5.367700
351.000000	5.352900
350.000000	5.232700
349.000000	5.308500
348.000000	5.214500
347.000000	5.251300
346.000000	5.226700
345.000000	5.333200
344.000000	5.292800
343.000000	5.247700
342.000000	5.265000
341.000000	5.252000
340.000000	5.281800
339.000000	5.249600
338.000000	5.254200
337.000000	5.405400
336.000000	5.290400
335.000000	5.230000
334.000000	5.232500
333.000000	5.222700
332.000000	5.225000
331.000000	5.266400
330.000000	5.329900
329.000000	5.117600
328.000000	5.353500
327.000000	5.295800
326.000000	5.301100
325.000000	5.373600
324.000000	5.313700
323.000000	5.279600
322.000000	5.287800
321.000000	5.348400
320.000000	5.484200
319.000000	5.445400
318.000000	5.341300
317.000000	5.548000
316.000000	5.035100
315.000000	4.970000
314.000000	4.932500
313.000000	4.955900
312.000000	4.972000
311.000000	4.949900
310.000000	4.933600
309.000000	4.967600
308.000000	4.976300
307.000000	5.007800
306.000000	4.993600
305.000000	4.980800
304.000000	5.036600
303.000000	4.991200
302.000000	4.967200
301.000000	5.028600
300.000000	4.968700
299.000000	4.917300
298.000000	4.992000
297.000000	4.963700
296.000000	5.031200
295.000000	4.960800
294.000000	4.991200
293.000000	4.988800
292.000000	4.996800
291.000000	5.000400
290.000000	4.995800
289.000000	4.989600
288.000000	4.961600
287.000000	4.954700
286.000000	4.959600
285.000000	4.957400
284.000000	5.004600
283.000000	4.981500
282.000000	4.958300
281.000000	4.937700
280.000000	4.961300
279.000000	4.988000
278.000000	4.977300
277.000000	5.004000
276.000000	5.011200
275.000000	4.985400
274.000000	5.036300
273.000000	5.040900
272.000000	5.056100
271.000000	5.053500
270.000000	5.100700
269.000000	5.110700
268.000000	5.096200
267.000000	5.120400
266.000000	5.142400
265.000000	5.219700
264.000000	5.201600
263.000000	5.215200
262.000000	5.235900
261.000000	5.275600
260.000000	5.276400
259.000000	5.310300
258.000000	5.302000
257.000000	5.344400
256.000000	5.321000
255.000000	5.329300
254.000000	5.389600
253.000000	5.340700
252.000000	5.355400
251.000000	5.397700
250.000000	5.353700
